"trial_type","trial_index","time_elapsed","internal_node_id","task_version","subject_id","interactions","blur_events","focus_events","fullscreenenter_events","fullscreenexit_events","success","view_history","rt","responses","num_errors","age","subject","participantId","rune","rune_set","hex","correct","choice","accuracy","outcome","keys","total_keys","block","practice","value","sub","trial","stimulus","robot","valence","action","sham"
"pavlovia","0","100","0.0-0.0","battery-v0.2","","""event"",""trial"",""time""
""fullscreenenter"",""1"",""3044""
","
","
","""event"",""trial"",""time""
""fullscreenenter"",""1"",""3044""
","
","","","","","","","","","","","","","","","","","","","","","","","","","","",""
"fullscreen","1","4021","0.0-1.0","battery-v0.2","","""event"",""trial"",""time""
""fullscreenenter"",""1"",""3044""
","
","
","""event"",""trial"",""time""
""fullscreenenter"",""1"",""3044""
","
","true","","","","","","","","","","","","","","","","","","","","","","","","","",""
"pit-instructions","2","51887","0.0-2.0-0.0","battery-v0.2","","""event"",""trial"",""time""
""fullscreenenter"",""1"",""3044""
","
","
","""event"",""trial"",""time""
""fullscreenenter"",""1"",""3044""
","
","","[{""page_index"":0,""viewing_time"":47858.69999998808}]","47859.89999997616","","","","","","","","","","","","","","","","","","","","","","","",""
"pit-comprehension","3","54461","0.0-2.0-1.0-0.0","battery-v0.2","","""event"",""trial"",""time""
""fullscreenenter"",""1"",""3044""
","
","
","""event"",""trial"",""time""
""fullscreenenter"",""1"",""3044""
","
","","","2568.100000023842","[""shark""]","0","16","5533","404","","","","","","","","","","","","","","","","","","",""
"pit-instructions","4","59403","0.0-2.0-1.0-1.0","battery-v0.2","","""event"",""trial"",""time""
""fullscreenenter"",""1"",""3044""
","
","
","""event"",""trial"",""time""
""fullscreenenter"",""1"",""3044""
","
","","[{""page_index"":0,""viewing_time"":4922.400000035763}]","4922.700000047684","","","","","","","","","","","","","","","","","","","","","","","",""
"pit-comprehension","5","61756","0.0-2.0-2.0-0.0","battery-v0.2","","""event"",""trial"",""time""
""fullscreenenter"",""1"",""3044""
","
","
","""event"",""trial"",""time""
""fullscreenenter"",""1"",""3044""
","
","","","2348.199999988079","[""tiger""]","0","16","5533","404","","","","","","","","","","","","","","","","","","",""
"pit-instructions","6","63199","0.0-2.0-2.0-1.0","battery-v0.2","","""event"",""trial"",""time""
""fullscreenenter"",""1"",""3044""
","
","
","""event"",""trial"",""time""
""fullscreenenter"",""1"",""3044""
","
","","[{""page_index"":0,""viewing_time"":1438.699999988079}]","1439","","","","","","","","","","","","","","","","","","","","","","","",""
"pit-instructions","7","159187","0.0-2.0-3.0","battery-v0.2","","""event"",""trial"",""time""
""fullscreenenter"",""1"",""3044""
","
","
","""event"",""trial"",""time""
""fullscreenenter"",""1"",""3044""
","
","","[{""page_index"":0,""viewing_time"":9721.099999964237},{""page_index"":1,""viewing_time"":5584},{""page_index"":2,""viewing_time"":6189.400000035763},{""page_index"":3,""viewing_time"":5074.899999976158},{""page_index"":4,""viewing_time"":5475.600000023842},{""page_index"":5,""viewing_time"":5499.599999964237},{""page_index"":6,""viewing_time"":6739.100000023842},{""page_index"":7,""viewing_time"":6490.300000011921},{""page_index"":8,""viewing_time"":6630.899999976158},{""page_index"":9,""viewing_time"":7707.400000035763},{""page_index"":10,""viewing_time"":7486.299999952316},{""page_index"":11,""viewing_time"":12484.100000023842},{""page_index"":12,""viewing_time"":6211.699999988079},{""page_index"":13,""viewing_time"":4686.600000023842}]","95981.30000001192","","","","","","","","","","","","","","","","","","","","","","","",""
"pit-trial","8","162795","0.0-2.0-4.0-0.0","battery-v0.2","","""event"",""trial"",""time""
""fullscreenenter"",""1"",""3044""
","
","
","""event"",""trial"",""time""
""fullscreenenter"",""1"",""3044""
","
","","","751","","","16","5533","404","&#9784;","elianto","#FFFFF080"," "," ","1","&#10004","[1602]","1","0","0","","","","","","","",""
"pit-trial","9","166087","0.0-2.0-4.1-0.1","battery-v0.2","","""event"",""trial"",""time""
""fullscreenenter"",""1"",""3044""
","
","
","""event"",""trial"",""time""
""fullscreenenter"",""1"",""3044""
","
","","","424.7999999523163","","","16","5533","404","&#9784;","elianto","#FFFFF080"," "," ","1","&#10004","[1276.3999999761581]","1","0","0","","","","","","","",""
"pit-trial","10","169176","0.0-2.0-4.2-0.2","battery-v0.2","","""event"",""trial"",""time""
""fullscreenenter"",""1"",""3044""
","
","
","""event"",""trial"",""time""
""fullscreenenter"",""1"",""3044""
","
","","","233.69999998807907","","","16","5533","404","&#9784;","elianto","#FFFFF080"," "," ","1","&#10004","[1085.5999999642372]","1","0","0","","","","","","","",""
"pit-trial","11","172430","0.0-2.0-4.3-0.3","battery-v0.2","","""event"",""trial"",""time""
""fullscreenenter"",""1"",""3044""
","
","
","""event"",""trial"",""time""
""fullscreenenter"",""1"",""3044""
","
","","","399","","","16","5533","404","&#9784;","elianto","#FFFFF080"," "," ","1","&#10004","[1249.699999988079]","1","0","0","","","","","","","",""
"pit-trial","12","175518","0.0-2.0-4.4-0.4","battery-v0.2","","""event"",""trial"",""time""
""fullscreenenter"",""1"",""3044""
","
","
","""event"",""trial"",""time""
""fullscreenenter"",""1"",""3044""
","
","","","216.80000001192093","","","16","5533","404","&#9784;","elianto","#FFFFF080"," "," ","1","&#10004","[1081.1000000238419]","1","0","0","","","","","","","",""
"pit-instructions","13","197113","0.0-2.0-5.0","battery-v0.2","","""event"",""trial"",""time""
""fullscreenenter"",""1"",""3044""
","
","
","""event"",""trial"",""time""
""fullscreenenter"",""1"",""3044""
","
","","[{""page_index"":0,""viewing_time"":4824.100000023842},{""page_index"":1,""viewing_time"":5163.599999964237},{""page_index"":2,""viewing_time"":6133.699999988079},{""page_index"":3,""viewing_time"":5469}]","21590.899999976158","","","","","","","","","","","","","","","","","","","","","","","",""
"pit-trial","14","201972","0.0-2.0-6.0-0.0","battery-v0.2","","""event"",""trial"",""time""
""fullscreenenter"",""1"",""3044""
","
","
","""event"",""trial"",""time""
""fullscreenenter"",""1"",""3044""
","
","","","-1","","","16","5533","404","&#9854;","elianto","#FFFFF080","-1","-1","1","&#10004","[]","0","0","1","","","","","","","",""
"pit-trial","15","206833","0.0-2.0-6.1-0.1","battery-v0.2","","""event"",""trial"",""time""
""fullscreenenter"",""1"",""3044""
","
","
","""event"",""trial"",""time""
""fullscreenenter"",""1"",""3044""
","
","","","-1","","","16","5533","404","&#9854;","elianto","#FFFFF080","-1","-1","1","&#10004","[]","0","0","1","","","","","","","",""
"pit-trial","16","211693","0.0-2.0-6.2-0.2","battery-v0.2","","""event"",""trial"",""time""
""fullscreenenter"",""1"",""3044""
","
","
","""event"",""trial"",""time""
""fullscreenenter"",""1"",""3044""
","
","","","-1","","","16","5533","404","&#9854;","elianto","#FFFFF080","-1","-1","1","&#10004","[]","0","0","1","","","","","","","",""
"pit-trial","17","216547","0.0-2.0-6.3-0.3","battery-v0.2","","""event"",""trial"",""time""
""fullscreenenter"",""1"",""3044""
","
","
","""event"",""trial"",""time""
""fullscreenenter"",""1"",""3044""
","
","","","-1","","","16","5533","404","&#9854;","elianto","#FFFFF080","-1","-1","1","&#10004","[]","0","0","1","","","","","","","",""
"pit-trial","18","221410","0.0-2.0-6.4-0.4","battery-v0.2","","""event"",""trial"",""time""
""fullscreenenter"",""1"",""3044""
","
","
","""event"",""trial"",""time""
""fullscreenenter"",""1"",""3044""
","
","","","-1","","","16","5533","404","&#9854;","elianto","#FFFFF080","-1","-1","1","&#10004","[]","0","0","1","","","","","","","",""
"pit-instructions","19","333850","0.0-2.0-7.0","battery-v0.2","","""event"",""trial"",""time""
""fullscreenenter"",""1"",""3044""
","
","
","""event"",""trial"",""time""
""fullscreenenter"",""1"",""3044""
","
","","[{""page_index"":0,""viewing_time"":5247.899999976158},{""page_index"":1,""viewing_time"":6528},{""page_index"":2,""viewing_time"":6751.900000035763},{""page_index"":3,""viewing_time"":6026.800000011921},{""page_index"":4,""viewing_time"":5123.799999952316},{""page_index"":5,""viewing_time"":5645.300000011921},{""page_index"":6,""viewing_time"":5300.699999988079},{""page_index"":7,""viewing_time"":7312.600000023842},{""page_index"":8,""viewing_time"":6370.899999976158},{""page_index"":9,""viewing_time"":6013.400000035763},{""page_index"":10,""viewing_time"":6406.899999976158},{""page_index"":11,""viewing_time"":4273.199999988079},{""page_index"":12,""viewing_time"":6208.100000023842},{""page_index"":13,""viewing_time"":6046.399999976158},{""page_index"":14,""viewing_time"":6093.800000011921},{""page_index"":15,""viewing_time"":6238.699999988079},{""page_index"":16,""viewing_time"":9455.400000035763},{""page_index"":17,""viewing_time"":7388.099999964237}]","112432.69999998808","","","","","","","","","","","","","","","","","","","","","","","",""
"pit-trial","20","337162","0.0-2.0-8.0-0.0","battery-v0.2","","""event"",""trial"",""time""
""fullscreenenter"",""1"",""3044""
","
","
","""event"",""trial"",""time""
""fullscreenenter"",""1"",""3044""
","
","","","458.0999999642372","","","16","5533","404","&#9776;","elianto","#3366ff99"," "," ","1","+10","[1309]","1","0","1","","","","","","","",""
"pit-trial","21","340471","0.0-2.0-8.0-1.0","battery-v0.2","","""event"",""trial"",""time""
""fullscreenenter"",""1"",""3044""
","
","
","""event"",""trial"",""time""
""fullscreenenter"",""1"",""3044""
","
","","","454.30000001192093","","","16","5533","404","&#9776;","elianto","#3366ff99"," "," ","1","+10","[1305.3999999761581]","1","0","1","","","","","","","",""
"pit-trial","22","343732","0.0-2.0-8.0-2.0","battery-v0.2","","""event"",""trial"",""time""
""fullscreenenter"",""1"",""3044""
","
","
","""event"",""trial"",""time""
""fullscreenenter"",""1"",""3044""
","
","","","406.80000001192093","","","16","5533","404","&#9776;","elianto","#3366ff99"," "," ","1","+10","[1257.1000000238419]","1","0","1","","","","","","","",""
"pit-trial","23","347061","0.0-2.0-8.0-3.0","battery-v0.2","","""event"",""trial"",""time""
""fullscreenenter"",""1"",""3044""
","
","
","""event"",""trial"",""time""
""fullscreenenter"",""1"",""3044""
","
","","","474","","","16","5533","404","&#9776;","elianto","#3366ff99"," "," ","1","0","[1326.300000011921]","1","0","1","","","","","","","",""
"pit-trial","24","350371","0.0-2.0-8.0-4.0","battery-v0.2","","""event"",""trial"",""time""
""fullscreenenter"",""1"",""3044""
","
","
","""event"",""trial"",""time""
""fullscreenenter"",""1"",""3044""
","
","","","453.69999998807907","","","16","5533","404","&#9776;","elianto","#3366ff99"," "," ","1","+10","[1304.8999999761581]","1","0","1","","","","","","","",""
"pit-trial","25","353729","0.0-2.0-8.1-0.1","battery-v0.2","","""event"",""trial"",""time""
""fullscreenenter"",""1"",""3044""
","
","
","""event"",""trial"",""time""
""fullscreenenter"",""1"",""3044""
","
","","","504.19999998807907","","","16","5533","404","&#9776;","elianto","#3366ff99"," "," ","1","+10","[1354.300000011921]","1","0","1","","","","","","","",""
"pit-trial","26","357005","0.0-2.0-8.1-1.1","battery-v0.2","","""event"",""trial"",""time""
""fullscreenenter"",""1"",""3044""
","
","
","""event"",""trial"",""time""
""fullscreenenter"",""1"",""3044""
","
","","","419.5","","","16","5533","404","&#9776;","elianto","#3366ff99"," "," ","1","+10","[1270.1000000238419]","1","0","1","","","","","","","",""
"pit-trial","27","360209","0.0-2.0-8.1-2.1","battery-v0.2","","""event"",""trial"",""time""
""fullscreenenter"",""1"",""3044""
","
","
","""event"",""trial"",""time""
""fullscreenenter"",""1"",""3044""
","
","","","349.30000001192093","","","16","5533","404","&#9776;","elianto","#3366ff99"," "," ","1","+10","[1199.7000000476837]","1","0","1","","","","","","","",""
"pit-trial","28","363531","0.0-2.0-8.1-3.1","battery-v0.2","","""event"",""trial"",""time""
""fullscreenenter"",""1"",""3044""
","
","
","""event"",""trial"",""time""
""fullscreenenter"",""1"",""3044""
","
","","","467.19999998807907","","","16","5533","404","&#9776;","elianto","#3366ff99"," "," ","1","0","[1317.6000000238419]","1","0","1","","","","","","","",""
"pit-trial","29","366821","0.0-2.0-8.1-4.1","battery-v0.2","","""event"",""trial"",""time""
""fullscreenenter"",""1"",""3044""
","
","
","""event"",""trial"",""time""
""fullscreenenter"",""1"",""3044""
","
","","","433.5","","","16","5533","404","&#9776;","elianto","#3366ff99"," "," ","1","+10","[1284.199999988079]","1","0","1","","","","","","","",""
"pit-trial","30","369984","0.0-2.0-8.2-0.2","battery-v0.2","","""event"",""trial"",""time""
""fullscreenenter"",""1"",""3044""
","
","
","""event"",""trial"",""time""
""fullscreenenter"",""1"",""3044""
","
","","","308.30000001192093","","","16","5533","404","&#9776;","elianto","#3366ff99"," "," ","1","+10","[1158.699999988079]","1","0","1","","","","","","","",""
"pit-trial","31","373294","0.0-2.0-8.2-1.2","battery-v0.2","","""event"",""trial"",""time""
""fullscreenenter"",""1"",""3044""
","
","
","""event"",""trial"",""time""
""fullscreenenter"",""1"",""3044""
","
","","","451.5","","","16","5533","404","&#9776;","elianto","#3366ff99"," "," ","1","+10","[1306.3999999761581]","1","0","1","","","","","","","",""
"pit-trial","32","376480","0.0-2.0-8.2-2.2","battery-v0.2","","""event"",""trial"",""time""
""fullscreenenter"",""1"",""3044""
","
","
","""event"",""trial"",""time""
""fullscreenenter"",""1"",""3044""
","
","","","332.9000000357628","","","16","5533","404","&#9776;","elianto","#3366ff99"," "," ","1","+10","[1183.5]","1","0","1","","","","","","","",""
"pit-trial","33","379574","0.0-2.0-8.2-3.2","battery-v0.2","","""event"",""trial"",""time""
""fullscreenenter"",""1"",""3044""
","
","
","""event"",""trial"",""time""
""fullscreenenter"",""1"",""3044""
","
","","","238.5","","","16","5533","404","&#9776;","elianto","#3366ff99"," "," ","1","0","[1089.7999999523163]","1","0","1","","","","","","","",""
"pit-trial","34","382808","0.0-2.0-8.2-4.2","battery-v0.2","","""event"",""trial"",""time""
""fullscreenenter"",""1"",""3044""
","
","
","""event"",""trial"",""time""
""fullscreenenter"",""1"",""3044""
","
","","","377.19999998807907","","","16","5533","404","&#9776;","elianto","#3366ff99"," "," ","1","+10","[1227.699999988079]","1","0","1","","","","","","","",""
"call-function","35","382812","0.0-2.0-9.0","battery-v0.2","","""event"",""trial"",""time""
""fullscreenenter"",""1"",""3044""
","
","
","""event"",""trial"",""time""
""fullscreenenter"",""1"",""3044""
","
","","","","","","","","","","","","","","","","","","","","","","","","","","",""
"pit-instructions","36","419853","0.0-2.0-10.0","battery-v0.2","","""event"",""trial"",""time""
""fullscreenenter"",""1"",""3044""
","
","
","""event"",""trial"",""time""
""fullscreenenter"",""1"",""3044""
","
","","[{""page_index"":0,""viewing_time"":5759},{""page_index"":1,""viewing_time"":6182.800000011921},{""page_index"":2,""viewing_time"":9191.199999988079},{""page_index"":3,""viewing_time"":8316.300000011921},{""page_index"":4,""viewing_time"":7588.899999976158}]","37038.80000001192","","","","","","","","","","","","","","","","","","","","","","","",""
"pit-trial","37","424709","0.0-2.0-11.0-0.0","battery-v0.2","","""event"",""trial"",""time""
""fullscreenenter"",""1"",""3044""
","
","
","""event"",""trial"",""time""
""fullscreenenter"",""1"",""3044""
","
","","","-1","","","16","5533","404","&#9761;","elianto","#3366ff99","-1","-1","1","+10","[]","0","0","2","","","","","","","",""
"pit-trial","38","429566","0.0-2.0-11.0-1.0","battery-v0.2","","""event"",""trial"",""time""
""fullscreenenter"",""1"",""3044""
","
","
","""event"",""trial"",""time""
""fullscreenenter"",""1"",""3044""
","
","","","-1","","","16","5533","404","&#9761;","elianto","#3366ff99","-1","-1","1","+10","[]","0","0","2","","","","","","","",""
"pit-trial","39","434421","0.0-2.0-11.0-2.0","battery-v0.2","","""event"",""trial"",""time""
""fullscreenenter"",""1"",""3044""
","
","
","""event"",""trial"",""time""
""fullscreenenter"",""1"",""3044""
","
","","","-1","","","16","5533","404","&#9761;","elianto","#3366ff99","-1","-1","1","+10","[]","0","0","2","","","","","","","",""
"pit-trial","40","439275","0.0-2.0-11.0-3.0","battery-v0.2","","""event"",""trial"",""time""
""fullscreenenter"",""1"",""3044""
","
","
","""event"",""trial"",""time""
""fullscreenenter"",""1"",""3044""
","
","","","-1","","","16","5533","404","&#9761;","elianto","#3366ff99","-1","-1","1","0","[]","0","0","2","","","","","","","",""
"pit-trial","41","444133","0.0-2.0-11.0-4.0","battery-v0.2","","""event"",""trial"",""time""
""fullscreenenter"",""1"",""3044""
","
","
","""event"",""trial"",""time""
""fullscreenenter"",""1"",""3044""
","
","","","-1","","","16","5533","404","&#9761;","elianto","#3366ff99","-1","-1","1","+10","[]","0","0","2","","","","","","","",""
"pit-trial","42","448995","0.0-2.0-11.1-0.1","battery-v0.2","","""event"",""trial"",""time""
""fullscreenenter"",""1"",""3044""
","
","
","""event"",""trial"",""time""
""fullscreenenter"",""1"",""3044""
","
","","","-1","","","16","5533","404","&#9761;","elianto","#3366ff99","-1","-1","1","+10","[]","0","0","2","","","","","","","",""
"pit-trial","43","453855","0.0-2.0-11.1-1.1","battery-v0.2","","""event"",""trial"",""time""
""fullscreenenter"",""1"",""3044""
","
","
","""event"",""trial"",""time""
""fullscreenenter"",""1"",""3044""
","
","","","-1","","","16","5533","404","&#9761;","elianto","#3366ff99","-1","-1","1","+10","[]","0","0","2","","","","","","","",""
"pit-trial","44","458713","0.0-2.0-11.1-2.1","battery-v0.2","","""event"",""trial"",""time""
""fullscreenenter"",""1"",""3044""
","
","
","""event"",""trial"",""time""
""fullscreenenter"",""1"",""3044""
","
","","","-1","","","16","5533","404","&#9761;","elianto","#3366ff99","-1","-1","1","+10","[]","0","0","2","","","","","","","",""
"pit-trial","45","463572","0.0-2.0-11.1-3.1","battery-v0.2","","""event"",""trial"",""time""
""fullscreenenter"",""1"",""3044""
","
","
","""event"",""trial"",""time""
""fullscreenenter"",""1"",""3044""
","
","","","-1","","","16","5533","404","&#9761;","elianto","#3366ff99","-1","-1","1","0","[]","0","0","2","","","","","","","",""
"pit-trial","46","468431","0.0-2.0-11.1-4.1","battery-v0.2","","""event"",""trial"",""time""
""fullscreenenter"",""1"",""3044""
","
","
","""event"",""trial"",""time""
""fullscreenenter"",""1"",""3044""
","
","","","-1","","","16","5533","404","&#9761;","elianto","#3366ff99","-1","-1","1","+10","[]","0","0","2","","","","","","","",""
"pit-trial","47","473290","0.0-2.0-11.2-0.2","battery-v0.2","","""event"",""trial"",""time""
""fullscreenenter"",""1"",""3044""
","
","
","""event"",""trial"",""time""
""fullscreenenter"",""1"",""3044""
","
","","","-1","","","16","5533","404","&#9761;","elianto","#3366ff99","-1","-1","1","+10","[]","0","0","2","","","","","","","",""
"pit-trial","48","478149","0.0-2.0-11.2-1.2","battery-v0.2","","""event"",""trial"",""time""
""fullscreenenter"",""1"",""3044""
","
","
","""event"",""trial"",""time""
""fullscreenenter"",""1"",""3044""
","
","","","-1","","","16","5533","404","&#9761;","elianto","#3366ff99","-1","-1","1","+10","[]","0","0","2","","","","","","","",""
"pit-trial","49","483010","0.0-2.0-11.2-2.2","battery-v0.2","","""event"",""trial"",""time""
""fullscreenenter"",""1"",""3044""
","
","
","""event"",""trial"",""time""
""fullscreenenter"",""1"",""3044""
","
","","","-1","","","16","5533","404","&#9761;","elianto","#3366ff99","-1","-1","1","+10","[]","0","0","2","","","","","","","",""
"pit-trial","50","487869","0.0-2.0-11.2-3.2","battery-v0.2","","""event"",""trial"",""time""
""fullscreenenter"",""1"",""3044""
","
","
","""event"",""trial"",""time""
""fullscreenenter"",""1"",""3044""
","
","","","-1","","","16","5533","404","&#9761;","elianto","#3366ff99","-1","-1","1","0","[]","0","0","2","","","","","","","",""
"pit-trial","51","492725","0.0-2.0-11.2-4.2","battery-v0.2","","""event"",""trial"",""time""
""fullscreenenter"",""1"",""3044""
","
","
","""event"",""trial"",""time""
""fullscreenenter"",""1"",""3044""
","
","","","-1","","","16","5533","404","&#9761;","elianto","#3366ff99","-1","-1","1","+10","[]","0","0","2","","","","","","","",""
"pit-trial","52","497585","0.0-2.0-11.3-0.3","battery-v0.2","","""event"",""trial"",""time""
""fullscreenenter"",""1"",""3044""
","
","
","""event"",""trial"",""time""
""fullscreenenter"",""1"",""3044""
","
","","","-1","","","16","5533","404","&#9761;","elianto","#3366ff99","-1","-1","1","+10","[]","0","0","2","","","","","","","",""
"pit-trial","53","502443","0.0-2.0-11.3-1.3","battery-v0.2","","""event"",""trial"",""time""
""fullscreenenter"",""1"",""3044""
","
","
","""event"",""trial"",""time""
""fullscreenenter"",""1"",""3044""
","
","","","-1","","","16","5533","404","&#9761;","elianto","#3366ff99","-1","-1","1","+10","[]","0","0","2","","","","","","","",""
"pit-trial","54","507302","0.0-2.0-11.3-2.3","battery-v0.2","","""event"",""trial"",""time""
""fullscreenenter"",""1"",""3044""
","
","
","""event"",""trial"",""time""
""fullscreenenter"",""1"",""3044""
","
","","","-1","","","16","5533","404","&#9761;","elianto","#3366ff99","-1","-1","1","+10","[]","0","0","2","","","","","","","",""
"pit-trial","55","512161","0.0-2.0-11.3-3.3","battery-v0.2","","""event"",""trial"",""time""
""fullscreenenter"",""1"",""3044""
","
","
","""event"",""trial"",""time""
""fullscreenenter"",""1"",""3044""
","
","","","-1","","","16","5533","404","&#9761;","elianto","#3366ff99","-1","-1","1","0","[]","0","0","2","","","","","","","",""
"pit-trial","56","517020","0.0-2.0-11.3-4.3","battery-v0.2","","""event"",""trial"",""time""
""fullscreenenter"",""1"",""3044""
","
","
","""event"",""trial"",""time""
""fullscreenenter"",""1"",""3044""
","
","","","-1","","","16","5533","404","&#9761;","elianto","#3366ff99","-1","-1","1","+10","[]","0","0","2","","","","","","","",""
"call-function","57","517022","0.0-2.0-12.0","battery-v0.2","","""event"",""trial"",""time""
""fullscreenenter"",""1"",""3044""
","
","
","""event"",""trial"",""time""
""fullscreenenter"",""1"",""3044""
","
","","","","","","","","","","","","","","","","","","","","","","","","","","",""
"pit-instructions","58","559329","0.0-2.0-13.0","battery-v0.2","","""event"",""trial"",""time""
""fullscreenenter"",""1"",""3044""
","
","
","""event"",""trial"",""time""
""fullscreenenter"",""1"",""3044""
","
","","[{""page_index"":0,""viewing_time"":9428},{""page_index"":1,""viewing_time"":9686.599999964237},{""page_index"":2,""viewing_time"":5168.5},{""page_index"":3,""viewing_time"":11999.600000023842},{""page_index"":4,""viewing_time"":6021.600000023842}]","42304.89999997616","","","","","","","","","","","","","","","","","","","","","","","",""
"pit-trial","59","562648","0.0-2.0-14.0-0.0","battery-v0.2","","""event"",""trial"",""time""
""fullscreenenter"",""1"",""3044""
","
","
","""event"",""trial"",""time""
""fullscreenenter"",""1"",""3044""
","
","","","464.80000001192093","","","16","5533","404","&#9826;","elianto","#f73b6a7A","-1"," ","0","-10","[1315.300000011921]","1","0","3","","","","","","","",""
"pit-trial","60","567502","0.0-2.0-14.0-1.0","battery-v0.2","","""event"",""trial"",""time""
""fullscreenenter"",""1"",""3044""
","
","
","""event"",""trial"",""time""
""fullscreenenter"",""1"",""3044""
","
","","","-1","","","16","5533","404","&#9826;","elianto","#f73b6a7A","-1","-1","1","0","[]","0","0","3","","","","","","","",""
"pit-trial","61","572355","0.0-2.0-14.0-2.0","battery-v0.2","","""event"",""trial"",""time""
""fullscreenenter"",""1"",""3044""
","
","
","""event"",""trial"",""time""
""fullscreenenter"",""1"",""3044""
","
","","","-1","","","16","5533","404","&#9826;","elianto","#f73b6a7A","-1","-1","1","0","[]","0","0","3","","","","","","","",""
"pit-trial","62","577210","0.0-2.0-14.0-3.0","battery-v0.2","","""event"",""trial"",""time""
""fullscreenenter"",""1"",""3044""
","
","
","""event"",""trial"",""time""
""fullscreenenter"",""1"",""3044""
","
","","","-1","","","16","5533","404","&#9826;","elianto","#f73b6a7A","-1","-1","1","-10","[]","0","0","3","","","","","","","",""
"pit-trial","63","582065","0.0-2.0-14.0-4.0","battery-v0.2","","""event"",""trial"",""time""
""fullscreenenter"",""1"",""3044""
","
","
","""event"",""trial"",""time""
""fullscreenenter"",""1"",""3044""
","
","","","-1","","","16","5533","404","&#9826;","elianto","#f73b6a7A","-1","-1","1","0","[]","0","0","3","","","","","","","",""
"pit-trial","64","586924","0.0-2.0-14.1-0.1","battery-v0.2","","""event"",""trial"",""time""
""fullscreenenter"",""1"",""3044""
","
","
","""event"",""trial"",""time""
""fullscreenenter"",""1"",""3044""
","
","","","-1","","","16","5533","404","&#9826;","elianto","#f73b6a7A","-1","-1","1","0","[]","0","0","3","","","","","","","",""
"pit-trial","65","591780","0.0-2.0-14.1-1.1","battery-v0.2","","""event"",""trial"",""time""
""fullscreenenter"",""1"",""3044""
","
","
","""event"",""trial"",""time""
""fullscreenenter"",""1"",""3044""
","
","","","-1","","","16","5533","404","&#9826;","elianto","#f73b6a7A","-1","-1","1","0","[]","0","0","3","","","","","","","",""
"pit-trial","66","596639","0.0-2.0-14.1-2.1","battery-v0.2","","""event"",""trial"",""time""
""fullscreenenter"",""1"",""3044""
","
","
","""event"",""trial"",""time""
""fullscreenenter"",""1"",""3044""
","
","","","-1","","","16","5533","404","&#9826;","elianto","#f73b6a7A","-1","-1","1","0","[]","0","0","3","","","","","","","",""
"pit-trial","67","601497","0.0-2.0-14.1-3.1","battery-v0.2","","""event"",""trial"",""time""
""fullscreenenter"",""1"",""3044""
","
","
","""event"",""trial"",""time""
""fullscreenenter"",""1"",""3044""
","
","","","-1","","","16","5533","404","&#9826;","elianto","#f73b6a7A","-1","-1","1","-10","[]","0","0","3","","","","","","","",""
"pit-trial","68","606357","0.0-2.0-14.1-4.1","battery-v0.2","","""event"",""trial"",""time""
""fullscreenenter"",""1"",""3044""
","
","
","""event"",""trial"",""time""
""fullscreenenter"",""1"",""3044""
","
","","","-1","","","16","5533","404","&#9826;","elianto","#f73b6a7A","-1","-1","1","0","[]","0","0","3","","","","","","","",""
"pit-trial","69","611216","0.0-2.0-14.2-0.2","battery-v0.2","","""event"",""trial"",""time""
""fullscreenenter"",""1"",""3044""
","
","
","""event"",""trial"",""time""
""fullscreenenter"",""1"",""3044""
","
","","","-1","","","16","5533","404","&#9826;","elianto","#f73b6a7A","-1","-1","1","0","[]","0","0","3","","","","","","","",""
"pit-trial","70","616074","0.0-2.0-14.2-1.2","battery-v0.2","","""event"",""trial"",""time""
""fullscreenenter"",""1"",""3044""
","
","
","""event"",""trial"",""time""
""fullscreenenter"",""1"",""3044""
","
","","","-1","","","16","5533","404","&#9826;","elianto","#f73b6a7A","-1","-1","1","0","[]","0","0","3","","","","","","","",""
"pit-trial","71","620933","0.0-2.0-14.2-2.2","battery-v0.2","","""event"",""trial"",""time""
""fullscreenenter"",""1"",""3044""
","
","
","""event"",""trial"",""time""
""fullscreenenter"",""1"",""3044""
","
","","","-1","","","16","5533","404","&#9826;","elianto","#f73b6a7A","-1","-1","1","0","[]","0","0","3","","","","","","","",""
"pit-trial","72","625792","0.0-2.0-14.2-3.2","battery-v0.2","","""event"",""trial"",""time""
""fullscreenenter"",""1"",""3044""
","
","
","""event"",""trial"",""time""
""fullscreenenter"",""1"",""3044""
","
","","","-1","","","16","5533","404","&#9826;","elianto","#f73b6a7A","-1","-1","1","-10","[]","0","0","3","","","","","","","",""
"pit-trial","73","630652","0.0-2.0-14.2-4.2","battery-v0.2","","""event"",""trial"",""time""
""fullscreenenter"",""1"",""3044""
","
","
","""event"",""trial"",""time""
""fullscreenenter"",""1"",""3044""
","
","","","-1","","","16","5533","404","&#9826;","elianto","#f73b6a7A","-1","-1","1","0","[]","0","0","3","","","","","","","",""
"pit-trial","74","635510","0.0-2.0-14.3-0.3","battery-v0.2","","""event"",""trial"",""time""
""fullscreenenter"",""1"",""3044""
","
","
","""event"",""trial"",""time""
""fullscreenenter"",""1"",""3044""
","
","","","-1","","","16","5533","404","&#9826;","elianto","#f73b6a7A","-1","-1","1","0","[]","0","0","3","","","","","","","",""
"pit-trial","75","640369","0.0-2.0-14.3-1.3","battery-v0.2","","""event"",""trial"",""time""
""fullscreenenter"",""1"",""3044""
","
","
","""event"",""trial"",""time""
""fullscreenenter"",""1"",""3044""
","
","","","-1","","","16","5533","404","&#9826;","elianto","#f73b6a7A","-1","-1","1","0","[]","0","0","3","","","","","","","",""
"pit-trial","76","645228","0.0-2.0-14.3-2.3","battery-v0.2","","""event"",""trial"",""time""
""fullscreenenter"",""1"",""3044""
","
","
","""event"",""trial"",""time""
""fullscreenenter"",""1"",""3044""
","
","","","-1","","","16","5533","404","&#9826;","elianto","#f73b6a7A","-1","-1","1","0","[]","0","0","3","","","","","","","",""
"pit-trial","77","650087","0.0-2.0-14.3-3.3","battery-v0.2","","""event"",""trial"",""time""
""fullscreenenter"",""1"",""3044""
","
","
","""event"",""trial"",""time""
""fullscreenenter"",""1"",""3044""
","
","","","-1","","","16","5533","404","&#9826;","elianto","#f73b6a7A","-1","-1","1","-10","[]","0","0","3","","","","","","","",""
"pit-trial","78","654948","0.0-2.0-14.3-4.3","battery-v0.2","","""event"",""trial"",""time""
""fullscreenenter"",""1"",""3044""
","
","
","""event"",""trial"",""time""
""fullscreenenter"",""1"",""3044""
","
","","","-1","","","16","5533","404","&#9826;","elianto","#f73b6a7A","-1","-1","1","0","[]","0","0","3","","","","","","","",""
"call-function","79","654950","0.0-2.0-15.0","battery-v0.2","","""event"",""trial"",""time""
""fullscreenenter"",""1"",""3044""
""blur"",""80"",""680253""
""focus"",""80"",""683318""
","""event"",""trial"",""time""
""blur"",""80"",""680253""
","""event"",""trial"",""time""
""focus"",""80"",""683318""
","""event"",""trial"",""time""
""fullscreenenter"",""1"",""3044""
","
","","","","","","","","","","","","","","","","","","","","","","","","","","",""
"pit-instructions","80","684832","0.0-2.0-16.0","battery-v0.2","","""event"",""trial"",""time""
""fullscreenenter"",""1"",""3044""
""blur"",""80"",""680253""
""focus"",""80"",""683318""
","""event"",""trial"",""time""
""blur"",""80"",""680253""
","""event"",""trial"",""time""
""focus"",""80"",""683318""
","""event"",""trial"",""time""
""fullscreenenter"",""1"",""3044""
","
","","[{""page_index"":0,""viewing_time"":9962.699999988079},{""page_index"":1,""viewing_time"":8212.900000035763},{""page_index"":2,""viewing_time"":5531.699999988079},{""page_index"":3,""viewing_time"":6172.699999988079}]","29880.600000023842","","","","","","","","","","","","","","","","","","","","","","","",""
"pit-trial","81","689591","0.0-2.0-17.0-0.0","battery-v0.2","","""event"",""trial"",""time""
""fullscreenenter"",""1"",""3044""
""blur"",""80"",""680253""
""focus"",""80"",""683318""
","""event"",""trial"",""time""
""blur"",""80"",""680253""
","""event"",""trial"",""time""
""focus"",""80"",""683318""
","""event"",""trial"",""time""
""fullscreenenter"",""1"",""3044""
","
","","","1903.699999988079","","","16","5533","404","&#9789;","elianto","#f73b6a7A"," "," ","1","0","[2754.699999988079]","1","0","4","","","","","","","",""
"pit-trial","82","692921","0.0-2.0-17.0-1.0","battery-v0.2","","""event"",""trial"",""time""
""fullscreenenter"",""1"",""3044""
""blur"",""80"",""680253""
""focus"",""80"",""683318""
","""event"",""trial"",""time""
""blur"",""80"",""680253""
","""event"",""trial"",""time""
""focus"",""80"",""683318""
","""event"",""trial"",""time""
""fullscreenenter"",""1"",""3044""
","
","","","475","","","16","5533","404","&#9789;","elianto","#f73b6a7A"," "," ","1","0","[1325.9000000357628]","1","0","4","","","","","","","",""
"pit-trial","83","696042","0.0-2.0-17.0-2.0","battery-v0.2","","""event"",""trial"",""time""
""fullscreenenter"",""1"",""3044""
""blur"",""80"",""680253""
""focus"",""80"",""683318""
","""event"",""trial"",""time""
""blur"",""80"",""680253""
","""event"",""trial"",""time""
""focus"",""80"",""683318""
","""event"",""trial"",""time""
""fullscreenenter"",""1"",""3044""
","
","","","267.0999999642372","","","16","5533","404","&#9789;","elianto","#f73b6a7A"," "," ","1","0","[1117.7999999523163]","1","0","4","","","","","","","",""
"pit-trial","84","699560","0.0-2.0-17.0-3.0","battery-v0.2","","""event"",""trial"",""time""
""fullscreenenter"",""1"",""3044""
""blur"",""80"",""680253""
""focus"",""80"",""683318""
","""event"",""trial"",""time""
""blur"",""80"",""680253""
","""event"",""trial"",""time""
""focus"",""80"",""683318""
","""event"",""trial"",""time""
""fullscreenenter"",""1"",""3044""
","
","","","662.2000000476837","","","16","5533","404","&#9789;","elianto","#f73b6a7A"," "," ","1","-10","[604.8000000119209,1512.800000011921]","2","0","4","","","","","","","",""
"pit-trial","85","702828","0.0-2.0-17.0-4.0","battery-v0.2","","""event"",""trial"",""time""
""fullscreenenter"",""1"",""3044""
""blur"",""80"",""680253""
""focus"",""80"",""683318""
","""event"",""trial"",""time""
""blur"",""80"",""680253""
","""event"",""trial"",""time""
""focus"",""80"",""683318""
","""event"",""trial"",""time""
""fullscreenenter"",""1"",""3044""
","
","","","413","","","16","5533","404","&#9789;","elianto","#f73b6a7A"," "," ","1","0","[1264.800000011921]","1","0","4","","","","","","","",""
"pit-trial","86","705858","0.0-2.0-17.1-0.1","battery-v0.2","","""event"",""trial"",""time""
""fullscreenenter"",""1"",""3044""
""blur"",""80"",""680253""
""focus"",""80"",""683318""
","""event"",""trial"",""time""
""blur"",""80"",""680253""
","""event"",""trial"",""time""
""focus"",""80"",""683318""
","""event"",""trial"",""time""
""fullscreenenter"",""1"",""3044""
","
","","","175.19999998807907","","","16","5533","404","&#9789;","elianto","#f73b6a7A"," "," ","1","0","[1026.5999999642372]","1","0","4","","","","","","","",""
"pit-trial","87","709188","0.0-2.0-17.1-1.1","battery-v0.2","","""event"",""trial"",""time""
""fullscreenenter"",""1"",""3044""
""blur"",""80"",""680253""
""focus"",""80"",""683318""
","""event"",""trial"",""time""
""blur"",""80"",""680253""
","""event"",""trial"",""time""
""focus"",""80"",""683318""
","""event"",""trial"",""time""
""fullscreenenter"",""1"",""3044""
","
","","","477.69999998807907","","","16","5533","404","&#9789;","elianto","#f73b6a7A"," "," ","1","0","[672.8999999761581,1327.8999999761581]","2","0","4","","","","","","","",""
"pit-trial","88","712098","0.0-2.0-17.1-2.1","battery-v0.2","","""event"",""trial"",""time""
""fullscreenenter"",""1"",""3044""
""blur"",""80"",""680253""
""focus"",""80"",""683318""
","""event"",""trial"",""time""
""blur"",""80"",""680253""
","""event"",""trial"",""time""
""focus"",""80"",""683318""
","""event"",""trial"",""time""
""fullscreenenter"",""1"",""3044""
","
","","","55.59999996423721","","","16","5533","404","&#9789;","elianto","#f73b6a7A"," "," ","1","0","[906.1999999880791]","1","0","4","","","","","","","",""
"pit-trial","89","715681","0.0-2.0-17.1-3.1","battery-v0.2","","""event"",""trial"",""time""
""fullscreenenter"",""1"",""3044""
""blur"",""80"",""680253""
""focus"",""80"",""683318""
","""event"",""trial"",""time""
""blur"",""80"",""680253""
","""event"",""trial"",""time""
""focus"",""80"",""683318""
","""event"",""trial"",""time""
""fullscreenenter"",""1"",""3044""
","
","","","726.1999999880791","","","16","5533","404","&#9789;","elianto","#f73b6a7A"," "," ","1","-10","[1576.300000011921]","1","0","4","","","","","","","",""
"pit-trial","90","719177","0.0-2.0-17.1-4.1","battery-v0.2","","""event"",""trial"",""time""
""fullscreenenter"",""1"",""3044""
""blur"",""80"",""680253""
""focus"",""80"",""683318""
","""event"",""trial"",""time""
""blur"",""80"",""680253""
","""event"",""trial"",""time""
""focus"",""80"",""683318""
","""event"",""trial"",""time""
""fullscreenenter"",""1"",""3044""
","
","","","636.6000000238419","","","16","5533","404","&#9789;","elianto","#f73b6a7A"," "," ","1","0","[1492.3999999761581]","1","0","4","","","","","","","",""
"pit-trial","91","722572","0.0-2.0-17.2-0.2","battery-v0.2","","""event"",""trial"",""time""
""fullscreenenter"",""1"",""3044""
""blur"",""80"",""680253""
""focus"",""80"",""683318""
","""event"",""trial"",""time""
""blur"",""80"",""680253""
","""event"",""trial"",""time""
""focus"",""80"",""683318""
","""event"",""trial"",""time""
""fullscreenenter"",""1"",""3044""
","
","","","537.8999999761581","","","16","5533","404","&#9789;","elianto","#f73b6a7A"," "," ","1","0","[1389]","1","0","4","","","","","","","",""
"pit-trial","92","725615","0.0-2.0-17.2-1.2","battery-v0.2","","""event"",""trial"",""time""
""fullscreenenter"",""1"",""3044""
""blur"",""80"",""680253""
""focus"",""80"",""683318""
","""event"",""trial"",""time""
""blur"",""80"",""680253""
","""event"",""trial"",""time""
""focus"",""80"",""683318""
","""event"",""trial"",""time""
""fullscreenenter"",""1"",""3044""
","
","","","188.4000000357628","","","16","5533","404","&#9789;","elianto","#f73b6a7A"," "," ","1","0","[1038.6000000238419]","1","0","4","","","","","","","",""
"pit-trial","93","729257","0.0-2.0-17.2-2.2","battery-v0.2","","""event"",""trial"",""time""
""fullscreenenter"",""1"",""3044""
""blur"",""80"",""680253""
""focus"",""80"",""683318""
","""event"",""trial"",""time""
""blur"",""80"",""680253""
","""event"",""trial"",""time""
""focus"",""80"",""683318""
","""event"",""trial"",""time""
""fullscreenenter"",""1"",""3044""
","
","","","779.3000000119209","","","16","5533","404","&#9789;","elianto","#f73b6a7A"," "," ","1","0","[1630]","1","0","4","","","","","","","",""
"pit-trial","94","733224","0.0-2.0-17.2-3.2","battery-v0.2","","""event"",""trial"",""time""
""fullscreenenter"",""1"",""3044""
""blur"",""80"",""680253""
""focus"",""80"",""683318""
","""event"",""trial"",""time""
""blur"",""80"",""680253""
","""event"",""trial"",""time""
""focus"",""80"",""683318""
","""event"",""trial"",""time""
""fullscreenenter"",""1"",""3044""
","
","","","1108.5999999642372","","","16","5533","404","&#9789;","elianto","#f73b6a7A"," "," ","1","-10","[1959.199999988079]","1","0","4","","","","","","","",""
"pit-trial","95","736586","0.0-2.0-17.2-4.2","battery-v0.2","","""event"",""trial"",""time""
""fullscreenenter"",""1"",""3044""
""blur"",""80"",""680253""
""focus"",""80"",""683318""
","""event"",""trial"",""time""
""blur"",""80"",""680253""
","""event"",""trial"",""time""
""focus"",""80"",""683318""
","""event"",""trial"",""time""
""fullscreenenter"",""1"",""3044""
","
","","","504.60000002384186","","","16","5533","404","&#9789;","elianto","#f73b6a7A"," "," ","1","0","[1355.2999999523163]","1","0","4","","","","","","","",""
"pit-trial","96","740191","0.0-2.0-17.3-0.3","battery-v0.2","","""event"",""trial"",""time""
""fullscreenenter"",""1"",""3044""
""blur"",""80"",""680253""
""focus"",""80"",""683318""
","""event"",""trial"",""time""
""blur"",""80"",""680253""
","""event"",""trial"",""time""
""focus"",""80"",""683318""
","""event"",""trial"",""time""
""fullscreenenter"",""1"",""3044""
","
","","","748.9000000357628","","","16","5533","404","&#9789;","elianto","#f73b6a7A"," "," ","1","0","[1601.3999999761581]","1","0","4","","","","","","","",""
"pit-trial","97","744266","0.0-2.0-17.3-1.3","battery-v0.2","","""event"",""trial"",""time""
""fullscreenenter"",""1"",""3044""
""blur"",""80"",""680253""
""focus"",""80"",""683318""
","""event"",""trial"",""time""
""blur"",""80"",""680253""
","""event"",""trial"",""time""
""focus"",""80"",""683318""
","""event"",""trial"",""time""
""fullscreenenter"",""1"",""3044""
","
","","","1216.300000011921","","","16","5533","404","&#9789;","elianto","#f73b6a7A"," "," ","1","0","[2066.7000000476837]","1","0","4","","","","","","","",""
"pit-trial","98","748905","0.0-2.0-17.3-2.3","battery-v0.2","","""event"",""trial"",""time""
""fullscreenenter"",""1"",""3044""
""blur"",""80"",""680253""
""focus"",""80"",""683318""
","""event"",""trial"",""time""
""blur"",""80"",""680253""
","""event"",""trial"",""time""
""focus"",""80"",""683318""
","""event"",""trial"",""time""
""fullscreenenter"",""1"",""3044""
","
","","","1784","","","16","5533","404","&#9789;","elianto","#f73b6a7A"," "," ","1","0","[2634.800000011921]","1","0","4","","","","","","","",""
"pit-trial","99","752481","0.0-2.0-17.3-3.3","battery-v0.2","","""event"",""trial"",""time""
""fullscreenenter"",""1"",""3044""
""blur"",""80"",""680253""
""focus"",""80"",""683318""
","""event"",""trial"",""time""
""blur"",""80"",""680253""
","""event"",""trial"",""time""
""focus"",""80"",""683318""
","""event"",""trial"",""time""
""fullscreenenter"",""1"",""3044""
","
","","","714.6999999880791","","","16","5533","404","&#9789;","elianto","#f73b6a7A"," "," ","1","-10","[1570.3999999761581]","1","0","4","","","","","","","",""
"pit-trial","100","755899","0.0-2.0-17.3-4.3","battery-v0.2","","""event"",""trial"",""time""
""fullscreenenter"",""1"",""3044""
""blur"",""80"",""680253""
""focus"",""80"",""683318""
","""event"",""trial"",""time""
""blur"",""80"",""680253""
","""event"",""trial"",""time""
""focus"",""80"",""683318""
","""event"",""trial"",""time""
""fullscreenenter"",""1"",""3044""
","
","","","560.6999999880791","","","16","5533","404","&#9789;","elianto","#f73b6a7A"," "," ","1","0","[1411.199999988079]","1","0","4","","","","","","","",""
"call-function","101","755901","0.0-2.0-18.0","battery-v0.2","","""event"",""trial"",""time""
""fullscreenenter"",""1"",""3044""
""blur"",""80"",""680253""
""focus"",""80"",""683318""
","""event"",""trial"",""time""
""blur"",""80"",""680253""
","""event"",""trial"",""time""
""focus"",""80"",""683318""
","""event"",""trial"",""time""
""fullscreenenter"",""1"",""3044""
","
","","","","","","","","","","","","","","","","","","","","","","","","","","",""
"pit-instructions","102","849106","0.0-2.0-19.0","battery-v0.2","","""event"",""trial"",""time""
""fullscreenenter"",""1"",""3044""
""blur"",""80"",""680253""
""focus"",""80"",""683318""
","""event"",""trial"",""time""
""blur"",""80"",""680253""
","""event"",""trial"",""time""
""focus"",""80"",""683318""
","""event"",""trial"",""time""
""fullscreenenter"",""1"",""3044""
","
","","[{""page_index"":0,""viewing_time"":6124.599999964237},{""page_index"":1,""viewing_time"":6874.900000035763},{""page_index"":2,""viewing_time"":9428.800000011921},{""page_index"":3,""viewing_time"":5928.699999988079},{""page_index"":4,""viewing_time"":6663.099999964237},{""page_index"":5,""viewing_time"":9197.100000023842},{""page_index"":6,""viewing_time"":34425.30000001192},{""page_index"":7,""viewing_time"":6807.199999988079},{""page_index"":8,""viewing_time"":7749.5}]","93200.59999996424","","","","","","","","","","","","","","","","","","","","","","","",""
"pit-comprehension","103","853662","0.0-2.0-20.0-0.0","battery-v0.2","","""event"",""trial"",""time""
""fullscreenenter"",""1"",""3044""
""blur"",""80"",""680253""
""focus"",""80"",""683318""
","""event"",""trial"",""time""
""blur"",""80"",""680253""
","""event"",""trial"",""time""
""focus"",""80"",""683318""
","""event"",""trial"",""time""
""fullscreenenter"",""1"",""3044""
","
","","","4548.5","[""SPACE""]","0","16","5533","404","","","","","","","","","","","","","","","","","","",""
"pit-instructions","104","859087","0.0-2.0-20.0-1.0","battery-v0.2","","""event"",""trial"",""time""
""fullscreenenter"",""1"",""3044""
""blur"",""80"",""680253""
""focus"",""80"",""683318""
","""event"",""trial"",""time""
""blur"",""80"",""680253""
","""event"",""trial"",""time""
""focus"",""80"",""683318""
","""event"",""trial"",""time""
""fullscreenenter"",""1"",""3044""
","
","","[{""page_index"":0,""viewing_time"":5368.800000011921}]","5370","","","","","","","","","","","","","","","","","","","","","","","",""
"pit-comprehension","105","867715","0.0-2.0-21.0-0.0","battery-v0.2","","""event"",""trial"",""time""
""fullscreenenter"",""1"",""3044""
""blur"",""80"",""680253""
""focus"",""80"",""683318""
","""event"",""trial"",""time""
""blur"",""80"",""680253""
","""event"",""trial"",""time""
""focus"",""80"",""683318""
","""event"",""trial"",""time""
""fullscreenenter"",""1"",""3044""
","
","","","8623","[""10""]","0","16","5533","404","","","","","","","","","","","","","","","","","","",""
"pit-instructions","106","869301","0.0-2.0-21.0-1.0","battery-v0.2","","""event"",""trial"",""time""
""fullscreenenter"",""1"",""3044""
""blur"",""80"",""680253""
""focus"",""80"",""683318""
","""event"",""trial"",""time""
""blur"",""80"",""680253""
","""event"",""trial"",""time""
""focus"",""80"",""683318""
","""event"",""trial"",""time""
""fullscreenenter"",""1"",""3044""
","
","","[{""page_index"":0,""viewing_time"":1539.699999988079}]","1540","","","","","","","","","","","","","","","","","","","","","","","",""
"pit-comprehension","107","875456","0.0-2.0-22.0-0.0","battery-v0.2","","""event"",""trial"",""time""
""fullscreenenter"",""1"",""3044""
""blur"",""80"",""680253""
""focus"",""80"",""683318""
","""event"",""trial"",""time""
""blur"",""80"",""680253""
","""event"",""trial"",""time""
""focus"",""80"",""683318""
","""event"",""trial"",""time""
""fullscreenenter"",""1"",""3044""
","
","","","6139.300000011921","[""0""]","0","16","5533","404","","","","","","","","","","","","","","","","","","",""
"pit-instructions","108","881127","0.0-2.0-22.0-1.0","battery-v0.2","","""event"",""trial"",""time""
""fullscreenenter"",""1"",""3044""
""blur"",""80"",""680253""
""focus"",""80"",""683318""
","""event"",""trial"",""time""
""blur"",""80"",""680253""
","""event"",""trial"",""time""
""focus"",""80"",""683318""
","""event"",""trial"",""time""
""fullscreenenter"",""1"",""3044""
","
","","[{""page_index"":0,""viewing_time"":5625.600000023842}]","5626.100000023842","","","","","","","","","","","","","","","","","","","","","","","",""
"pit-comprehension","109","892080","0.0-2.0-23.0-0.0","battery-v0.2","","""event"",""trial"",""time""
""fullscreenenter"",""1"",""3044""
""blur"",""80"",""680253""
""focus"",""80"",""683318""
","""event"",""trial"",""time""
""blur"",""80"",""680253""
","""event"",""trial"",""time""
""focus"",""80"",""683318""
","""event"",""trial"",""time""
""fullscreenenter"",""1"",""3044""
","
","","","10949.100000023842","[""True""]","0","16","5533","404","","","","","","","","","","","","","","","","","","",""
"pit-instructions","110","893755","0.0-2.0-23.0-1.0","battery-v0.2","","""event"",""trial"",""time""
""fullscreenenter"",""1"",""3044""
""blur"",""80"",""680253""
""focus"",""80"",""683318""
","""event"",""trial"",""time""
""blur"",""80"",""680253""
","""event"",""trial"",""time""
""focus"",""80"",""683318""
","""event"",""trial"",""time""
""fullscreenenter"",""1"",""3044""
","
","","[{""page_index"":0,""viewing_time"":1630.5}]","1630.9000000357628","","","","","","","","","","","","","","","","","","","","","","","",""
"pit-comprehension","111","901024","0.0-2.0-24.0-0.0","battery-v0.2","","""event"",""trial"",""time""
""fullscreenenter"",""1"",""3044""
""blur"",""80"",""680253""
""focus"",""80"",""683318""
","""event"",""trial"",""time""
""blur"",""80"",""680253""
","""event"",""trial"",""time""
""focus"",""80"",""683318""
","""event"",""trial"",""time""
""fullscreenenter"",""1"",""3044""
","
","","","7264.099999964237","[""True""]","0","16","5533","404","","","","","","","","","","","","","","","","","","",""
"pit-instructions","112","904483","0.0-2.0-24.0-1.0","battery-v0.2","","""event"",""trial"",""time""
""fullscreenenter"",""1"",""3044""
""blur"",""80"",""680253""
""focus"",""80"",""683318""
","""event"",""trial"",""time""
""blur"",""80"",""680253""
","""event"",""trial"",""time""
""focus"",""80"",""683318""
","""event"",""trial"",""time""
""fullscreenenter"",""1"",""3044""
","
","","[{""page_index"":0,""viewing_time"":3408.199999988079}]","3408.699999988079","","","","","","","","","","","","","","","","","","","","","","","",""
"pit-comprehension","113","911705","0.0-2.0-25.0-0.0","battery-v0.2","","""event"",""trial"",""time""
""fullscreenenter"",""1"",""3044""
""blur"",""80"",""680253""
""focus"",""80"",""683318""
","""event"",""trial"",""time""
""blur"",""80"",""680253""
","""event"",""trial"",""time""
""focus"",""80"",""683318""
","""event"",""trial"",""time""
""fullscreenenter"",""1"",""3044""
","
","","","7217.199999988079","[""True""]","0","16","5533","404","","","","","","","","","","","","","","","","","","",""
"pit-instructions","114","918461","0.0-2.0-25.0-1.0","battery-v0.2","","""event"",""trial"",""time""
""fullscreenenter"",""1"",""3044""
""blur"",""80"",""680253""
""focus"",""80"",""683318""
","""event"",""trial"",""time""
""blur"",""80"",""680253""
","""event"",""trial"",""time""
""focus"",""80"",""683318""
","""event"",""trial"",""time""
""fullscreenenter"",""1"",""3044""
","
","","[{""page_index"":0,""viewing_time"":6707.800000011921}]","6708.399999976158","","","","","","","","","","","","","","","","","","","","","","","",""
"pit-comprehension","115","924734","0.0-2.0-26.0-0.0","battery-v0.2","","""event"",""trial"",""time""
""fullscreenenter"",""1"",""3044""
""blur"",""80"",""680253""
""focus"",""80"",""683318""
","""event"",""trial"",""time""
""blur"",""80"",""680253""
","""event"",""trial"",""time""
""focus"",""80"",""683318""
","""event"",""trial"",""time""
""fullscreenenter"",""1"",""3044""
","
","","","6268","[""False""]","0","16","5533","404","","","","","","","","","","","","","","","","","","",""
"pit-instructions","116","937027","0.0-2.0-26.0-1.0","battery-v0.2","","""event"",""trial"",""time""
""fullscreenenter"",""1"",""3044""
""blur"",""80"",""680253""
""focus"",""80"",""683318""
","""event"",""trial"",""time""
""blur"",""80"",""680253""
","""event"",""trial"",""time""
""focus"",""80"",""683318""
","""event"",""trial"",""time""
""fullscreenenter"",""1"",""3044""
","
","","[{""page_index"":0,""viewing_time"":12234.699999988079}]","12235.199999988079","","","","","","","","","","","","","","","","","","","","","","","",""
"pit-instructions","117","956215","0.0-3.0","battery-v0.2","","""event"",""trial"",""time""
""fullscreenenter"",""1"",""3044""
""blur"",""80"",""680253""
""focus"",""80"",""683318""
","""event"",""trial"",""time""
""blur"",""80"",""680253""
","""event"",""trial"",""time""
""focus"",""80"",""683318""
","""event"",""trial"",""time""
""fullscreenenter"",""1"",""3044""
","
","","[{""page_index"":0,""viewing_time"":4421.800000011921},{""page_index"":1,""viewing_time"":8066.100000023842},{""page_index"":2,""viewing_time"":6695.800000011921}]","19184","","","","","","","","","","","","","","","","","","","","","","","",""
"pit-trial","118","959532","0.0-4.0","battery-v0.2","","""event"",""trial"",""time""
""fullscreenenter"",""1"",""3044""
""blur"",""80"",""680253""
""focus"",""80"",""683318""
","""event"",""trial"",""time""
""blur"",""80"",""680253""
","""event"",""trial"",""time""
""focus"",""80"",""683318""
","""event"",""trial"",""time""
""fullscreenenter"",""1"",""3044""
","
","","","456.9000000357628","","","16","5533","404","&#9728;","elianto","#f73b6a7A","-1"," ","0","-10","[1307.300000011921]","1","1","","","5533","1","0","4","lose","no-go","0"
"pit-trial","119","962915","0.0-5.0","battery-v0.2","","""event"",""trial"",""time""
""fullscreenenter"",""1"",""3044""
""blur"",""80"",""680253""
""focus"",""80"",""683318""
","""event"",""trial"",""time""
""blur"",""80"",""680253""
","""event"",""trial"",""time""
""focus"",""80"",""683318""
","""event"",""trial"",""time""
""fullscreenenter"",""1"",""3044""
","
","","","525.8000000119209","","","16","5533","404","&#9730;","elianto","#3366ff99"," "," ","1","+10","[1377.199999988079]","1","1","","","5533","2","1","1","win","go","0"
"pit-trial","120","966679","0.0-6.0","battery-v0.2","","""event"",""trial"",""time""
""fullscreenenter"",""1"",""3044""
""blur"",""80"",""680253""
""focus"",""80"",""683318""
","""event"",""trial"",""time""
""blur"",""80"",""680253""
","""event"",""trial"",""time""
""focus"",""80"",""683318""
","""event"",""trial"",""time""
""fullscreenenter"",""1"",""3044""
","
","","","910.5","","","16","5533","404","&#9752;","elianto","#f73b6a7A"," "," ","1","0","[1761.1000000238419]","1","1","","","5533","3","3","3","lose","go","0"
"pit-trial","121","970349","0.0-7.0","battery-v0.2","","""event"",""trial"",""time""
""fullscreenenter"",""1"",""3044""
""blur"",""80"",""680253""
""focus"",""80"",""683318""
","""event"",""trial"",""time""
""blur"",""80"",""680253""
","""event"",""trial"",""time""
""focus"",""80"",""683318""
","""event"",""trial"",""time""
""fullscreenenter"",""1"",""3044""
","
","","","812.9000000357628","","","16","5533","404","&#9733;","elianto","#3366ff99","-1"," ","0","+10","[1663.1000000238419]","1","1","","","5533","4","2","2","win","no-go","1"
"pit-trial","122","975204","0.0-8.0","battery-v0.2","","""event"",""trial"",""time""
""fullscreenenter"",""1"",""3044""
""blur"",""80"",""680253""
""focus"",""80"",""683318""
","""event"",""trial"",""time""
""blur"",""80"",""680253""
","""event"",""trial"",""time""
""focus"",""80"",""683318""
","""event"",""trial"",""time""
""fullscreenenter"",""1"",""3044""
","
","","","-1","","","16","5533","404","&#9728;","elianto","#f73b6a7A","-1","-1","1","-10","[]","0","1","","","5533","5","0","4","lose","no-go","1"
"pit-trial","123","978836","0.0-9.0","battery-v0.2","","""event"",""trial"",""time""
""fullscreenenter"",""1"",""3044""
""blur"",""80"",""680253""
""focus"",""80"",""683318""
","""event"",""trial"",""time""
""blur"",""80"",""680253""
","""event"",""trial"",""time""
""focus"",""80"",""683318""
","""event"",""trial"",""time""
""fullscreenenter"",""1"",""3044""
","
","","","776.8000000119209","","","16","5533","404","&#9733;","elianto","#3366ff99","-1"," ","0","+10","[1627.300000011921]","1","1","","","5533","6","2","2","win","no-go","1"
"pit-trial","124","982447","0.0-10.0","battery-v0.2","","""event"",""trial"",""time""
""fullscreenenter"",""1"",""3044""
""blur"",""80"",""680253""
""focus"",""80"",""683318""
","""event"",""trial"",""time""
""blur"",""80"",""680253""
","""event"",""trial"",""time""
""focus"",""80"",""683318""
","""event"",""trial"",""time""
""fullscreenenter"",""1"",""3044""
","
","","","756.5999999642372","","","16","5533","404","&#9752;","elianto","#f73b6a7A"," "," ","1","-10","[1606.699999988079]","1","1","","","5533","7","3","3","lose","go","1"
"pit-trial","125","985829","0.0-11.0","battery-v0.2","","""event"",""trial"",""time""
""fullscreenenter"",""1"",""3044""
""blur"",""80"",""680253""
""focus"",""80"",""683318""
","""event"",""trial"",""time""
""blur"",""80"",""680253""
","""event"",""trial"",""time""
""focus"",""80"",""683318""
","""event"",""trial"",""time""
""fullscreenenter"",""1"",""3044""
","
","","","528.6000000238419","","","16","5533","404","&#9730;","elianto","#3366ff99"," "," ","1","+10","[1378.800000011921]","1","1","","","5533","8","1","1","win","go","0"
"pit-trial","126","990687","0.0-12.0","battery-v0.2","","""event"",""trial"",""time""
""fullscreenenter"",""1"",""3044""
""blur"",""80"",""680253""
""focus"",""80"",""683318""
","""event"",""trial"",""time""
""blur"",""80"",""680253""
","""event"",""trial"",""time""
""focus"",""80"",""683318""
","""event"",""trial"",""time""
""fullscreenenter"",""1"",""3044""
","
","","","-1","","","16","5533","404","&#9728;","elianto","#f73b6a7A","-1","-1","1","-10","[]","0","1","","","5533","9","0","4","lose","no-go","1"
"pit-trial","127","994203","0.0-13.0","battery-v0.2","","""event"",""trial"",""time""
""fullscreenenter"",""1"",""3044""
""blur"",""80"",""680253""
""focus"",""80"",""683318""
","""event"",""trial"",""time""
""blur"",""80"",""680253""
","""event"",""trial"",""time""
""focus"",""80"",""683318""
","""event"",""trial"",""time""
""fullscreenenter"",""1"",""3044""
","
","","","662.5","","","16","5533","404","&#9730;","elianto","#3366ff99"," "," ","1","+10","[1513.3999999761581]","1","1","","","5533","10","1","1","win","go","0"
"pit-trial","128","997791","0.0-14.0","battery-v0.2","","""event"",""trial"",""time""
""fullscreenenter"",""1"",""3044""
""blur"",""80"",""680253""
""focus"",""80"",""683318""
","""event"",""trial"",""time""
""blur"",""80"",""680253""
","""event"",""trial"",""time""
""focus"",""80"",""683318""
","""event"",""trial"",""time""
""fullscreenenter"",""1"",""3044""
","
","","","733","","","16","5533","404","&#9752;","elianto","#f73b6a7A"," "," ","1","0","[1583.8999999761581]","1","1","","","5533","11","3","3","lose","go","0"
"pit-trial","129","1001460","0.0-15.0","battery-v0.2","","""event"",""trial"",""time""
""fullscreenenter"",""1"",""3044""
""blur"",""80"",""680253""
""focus"",""80"",""683318""
","""event"",""trial"",""time""
""blur"",""80"",""680253""
","""event"",""trial"",""time""
""focus"",""80"",""683318""
","""event"",""trial"",""time""
""fullscreenenter"",""1"",""3044""
","
","","","811.1000000238419","","","16","5533","404","&#9733;","elianto","#3366ff99","-1"," ","0","0","[1662.6000000238419]","1","1","","","5533","12","2","2","win","no-go","0"
"pit-trial","130","1005005","0.0-16.0","battery-v0.2","","""event"",""trial"",""time""
""fullscreenenter"",""1"",""3044""
""blur"",""80"",""680253""
""focus"",""80"",""683318""
","""event"",""trial"",""time""
""blur"",""80"",""680253""
","""event"",""trial"",""time""
""focus"",""80"",""683318""
","""event"",""trial"",""time""
""fullscreenenter"",""1"",""3044""
","
","","","688","","","16","5533","404","&#9730;","elianto","#3366ff99"," "," ","1","+10","[1538.8999999761581]","1","1","","","5533","13","1","1","win","go","0"
"pit-trial","131","1008514","0.0-17.0","battery-v0.2","","""event"",""trial"",""time""
""fullscreenenter"",""1"",""3044""
""blur"",""80"",""680253""
""focus"",""80"",""683318""
","""event"",""trial"",""time""
""blur"",""80"",""680253""
","""event"",""trial"",""time""
""focus"",""80"",""683318""
","""event"",""trial"",""time""
""fullscreenenter"",""1"",""3044""
","
","","","655.3999999761581","","","16","5533","404","&#9733;","elianto","#3366ff99","-1"," ","0","0","[1506.199999988079]","1","1","","","5533","14","2","2","win","no-go","0"
"pit-trial","132","1012467","0.0-18.0","battery-v0.2","","""event"",""trial"",""time""
""fullscreenenter"",""1"",""3044""
""blur"",""80"",""680253""
""focus"",""80"",""683318""
","""event"",""trial"",""time""
""blur"",""80"",""680253""
","""event"",""trial"",""time""
""focus"",""80"",""683318""
","""event"",""trial"",""time""
""fullscreenenter"",""1"",""3044""
","
","","","1095.0999999642372","","","16","5533","404","&#9752;","elianto","#f73b6a7A"," "," ","1","0","[1945.6000000238419]","1","1","","","5533","15","3","3","lose","go","0"
"pit-trial","133","1016031","0.0-19.0","battery-v0.2","","""event"",""trial"",""time""
""fullscreenenter"",""1"",""3044""
""blur"",""80"",""680253""
""focus"",""80"",""683318""
","""event"",""trial"",""time""
""blur"",""80"",""680253""
","""event"",""trial"",""time""
""focus"",""80"",""683318""
","""event"",""trial"",""time""
""fullscreenenter"",""1"",""3044""
","
","","","708","","","16","5533","404","&#9728;","elianto","#f73b6a7A","-1"," ","0","-10","[1559.3999999761581]","1","1","","","5533","16","0","4","lose","no-go","0"
"pit-trial","134","1019624","0.0-20.0","battery-v0.2","","""event"",""trial"",""time""
""fullscreenenter"",""1"",""3044""
""blur"",""80"",""680253""
""focus"",""80"",""683318""
","""event"",""trial"",""time""
""blur"",""80"",""680253""
","""event"",""trial"",""time""
""focus"",""80"",""683318""
","""event"",""trial"",""time""
""fullscreenenter"",""1"",""3044""
","
","","","736.6000000238419","","","16","5533","404","&#9730;","elianto","#3366ff99"," "," ","1","0","[1587.7000000476837]","1","1","","","5533","17","1","1","win","go","1"
"pit-trial","135","1024483","0.0-21.0","battery-v0.2","","""event"",""trial"",""time""
""fullscreenenter"",""1"",""3044""
""blur"",""80"",""680253""
""focus"",""80"",""683318""
","""event"",""trial"",""time""
""blur"",""80"",""680253""
","""event"",""trial"",""time""
""focus"",""80"",""683318""
","""event"",""trial"",""time""
""fullscreenenter"",""1"",""3044""
","
","","","-1","","","16","5533","404","&#9733;","elianto","#3366ff99","-1","-1","1","+10","[]","0","1","","","5533","18","2","2","win","no-go","0"
"pit-trial","136","1029343","0.0-22.0","battery-v0.2","","""event"",""trial"",""time""
""fullscreenenter"",""1"",""3044""
""blur"",""80"",""680253""
""focus"",""80"",""683318""
","""event"",""trial"",""time""
""blur"",""80"",""680253""
","""event"",""trial"",""time""
""focus"",""80"",""683318""
","""event"",""trial"",""time""
""fullscreenenter"",""1"",""3044""
","
","","","-1","","","16","5533","404","&#9728;","elianto","#f73b6a7A","-1","-1","1","0","[]","0","1","","","5533","19","0","4","lose","no-go","0"
"pit-trial","137","1033255","0.0-23.0","battery-v0.2","","""event"",""trial"",""time""
""fullscreenenter"",""1"",""3044""
""blur"",""80"",""680253""
""focus"",""80"",""683318""
","""event"",""trial"",""time""
""blur"",""80"",""680253""
","""event"",""trial"",""time""
""focus"",""80"",""683318""
","""event"",""trial"",""time""
""fullscreenenter"",""1"",""3044""
","
","","","1059","","","16","5533","404","&#9752;","elianto","#f73b6a7A"," "," ","1","0","[1909.5]","1","1","","","5533","20","3","3","lose","go","0"
"pit-instructions","138","1148103","0.0-24.0","battery-v0.2","","""event"",""trial"",""time""
""fullscreenenter"",""1"",""3044""
""blur"",""80"",""680253""
""focus"",""80"",""683318""
","""event"",""trial"",""time""
""blur"",""80"",""680253""
","""event"",""trial"",""time""
""focus"",""80"",""683318""
","""event"",""trial"",""time""
""fullscreenenter"",""1"",""3044""
","
","","[{""page_index"":0,""viewing_time"":9902.399999976158},{""page_index"":1,""viewing_time"":104924.60000002384}]","114827.39999997616","","","","","","","","","","","","","","","","","","","","","","","",""
"pit-trial","139","1151756","0.0-25.0","battery-v0.2","","""event"",""trial"",""time""
""fullscreenenter"",""1"",""3044""
""blur"",""80"",""680253""
""focus"",""80"",""683318""
","""event"",""trial"",""time""
""blur"",""80"",""680253""
","""event"",""trial"",""time""
""focus"",""80"",""683318""
","""event"",""trial"",""time""
""fullscreenenter"",""1"",""3044""
","
","","","795.6000000238419","","","16","5533","404","w","elianto","#f73b6a7A","-1"," ","0","-10","[1646.9000000357628]","1","2","","","5533","21","3","4","lose","no-go","0"
"pit-trial","140","1155443","0.0-26.0","battery-v0.2","","""event"",""trial"",""time""
""fullscreenenter"",""1"",""3044""
""blur"",""80"",""680253""
""focus"",""80"",""683318""
","""event"",""trial"",""time""
""blur"",""80"",""680253""
","""event"",""trial"",""time""
""focus"",""80"",""683318""
","""event"",""trial"",""time""
""fullscreenenter"",""1"",""3044""
","
","","","828.3999999761581","","","16","5533","404","e","elianto","#f73b6a7A"," "," ","1","0","[1679.199999988079]","1","2","","","5533","22","2","3","lose","go","0"
"pit-trial","141","1159186","0.0-27.0","battery-v0.2","","""event"",""trial"",""time""
""fullscreenenter"",""1"",""3044""
""blur"",""80"",""680253""
""focus"",""80"",""683318""
","""event"",""trial"",""time""
""blur"",""80"",""680253""
","""event"",""trial"",""time""
""focus"",""80"",""683318""
","""event"",""trial"",""time""
""fullscreenenter"",""1"",""3044""
","
","","","883.8000000119209","","","16","5533","404","d","elianto","#3366ff99","-1"," ","0","0","[1735.1000000238419]","1","2","","","5533","23","1","2","win","no-go","0"
"pit-trial","142","1162901","0.0-28.0","battery-v0.2","","""event"",""trial"",""time""
""fullscreenenter"",""1"",""3044""
""blur"",""80"",""680253""
""focus"",""80"",""683318""
","""event"",""trial"",""time""
""blur"",""80"",""680253""
","""event"",""trial"",""time""
""focus"",""80"",""683318""
","""event"",""trial"",""time""
""fullscreenenter"",""1"",""3044""
","
","","","861.1999999880791","","","16","5533","404","j","elianto","#f73b6a7A"," "," ","1","0","[1712.0999999642372]","1","2","","","5533","24","0","3","lose","go","0"
"pit-trial","143","1167759","0.0-29.0","battery-v0.2","","""event"",""trial"",""time""
""fullscreenenter"",""1"",""3044""
""blur"",""80"",""680253""
""focus"",""80"",""683318""
","""event"",""trial"",""time""
""blur"",""80"",""680253""
","""event"",""trial"",""time""
""focus"",""80"",""683318""
","""event"",""trial"",""time""
""fullscreenenter"",""1"",""3044""
","
","","","-1","","","16","5533","404","j","elianto","#f73b6a7A"," ","-1","0","-10","[]","0","2","","","5533","25","0","3","lose","go","0"
"pit-trial","144","1172620","0.0-30.0","battery-v0.2","","""event"",""trial"",""time""
""fullscreenenter"",""1"",""3044""
""blur"",""80"",""680253""
""focus"",""80"",""683318""
","""event"",""trial"",""time""
""blur"",""80"",""680253""
","""event"",""trial"",""time""
""focus"",""80"",""683318""
","""event"",""trial"",""time""
""fullscreenenter"",""1"",""3044""
","
","","","-1","","","16","5533","404","w","elianto","#f73b6a7A","-1","-1","1","0","[]","0","2","","","5533","26","3","4","lose","no-go","0"
"pit-trial","145","1176688","0.0-31.0","battery-v0.2","","""event"",""trial"",""time""
""fullscreenenter"",""1"",""3044""
""blur"",""80"",""680253""
""focus"",""80"",""683318""
","""event"",""trial"",""time""
""blur"",""80"",""680253""
","""event"",""trial"",""time""
""focus"",""80"",""683318""
","""event"",""trial"",""time""
""fullscreenenter"",""1"",""3044""
","
","","","1209.800000011921","","","16","5533","404","d","elianto","#3366ff99","-1"," ","0","+10","[2060]","1","2","","","5533","27","1","2","win","no-go","1"
"pit-trial","146","1180794","0.0-32.0","battery-v0.2","","""event"",""trial"",""time""
""fullscreenenter"",""1"",""3044""
""blur"",""80"",""680253""
""focus"",""80"",""683318""
","""event"",""trial"",""time""
""blur"",""80"",""680253""
","""event"",""trial"",""time""
""focus"",""80"",""683318""
","""event"",""trial"",""time""
""fullscreenenter"",""1"",""3044""
","
","","","1248.8999999761581","","","16","5533","404","e","elianto","#f73b6a7A"," "," ","1","0","[2099.699999988079]","1","2","","","5533","28","2","3","lose","go","0"
"pit-trial","147","1184937","0.0-33.0","battery-v0.2","","""event"",""trial"",""time""
""fullscreenenter"",""1"",""3044""
""blur"",""80"",""680253""
""focus"",""80"",""683318""
","""event"",""trial"",""time""
""blur"",""80"",""680253""
","""event"",""trial"",""time""
""focus"",""80"",""683318""
","""event"",""trial"",""time""
""fullscreenenter"",""1"",""3044""
","
","","","1286.4000000357628","","","16","5533","404","d","elianto","#3366ff99","-1"," ","0","0","[2136.5]","1","2","","","5533","29","1","2","win","no-go","0"
"pit-trial","148","1189796","0.0-34.0","battery-v0.2","","""event"",""trial"",""time""
""fullscreenenter"",""1"",""3044""
""blur"",""80"",""680253""
""focus"",""80"",""683318""
","""event"",""trial"",""time""
""blur"",""80"",""680253""
","""event"",""trial"",""time""
""focus"",""80"",""683318""
","""event"",""trial"",""time""
""fullscreenenter"",""1"",""3044""
","
","","","-1","","","16","5533","404","w","elianto","#f73b6a7A","-1","-1","1","0","[]","0","2","","","5533","30","3","4","lose","no-go","0"
"pit-trial","149","1194283","0.0-35.0","battery-v0.2","","""event"",""trial"",""time""
""fullscreenenter"",""1"",""3044""
""blur"",""80"",""680253""
""focus"",""80"",""683318""
","""event"",""trial"",""time""
""blur"",""80"",""680253""
","""event"",""trial"",""time""
""focus"",""80"",""683318""
","""event"",""trial"",""time""
""fullscreenenter"",""1"",""3044""
","
","","","1628.800000011921","","","16","5533","404","j","elianto","#f73b6a7A"," "," ","1","-10","[2480.600000023842]","1","2","","","5533","31","0","3","lose","go","1"
"pit-trial","150","1198538","0.0-36.0","battery-v0.2","","""event"",""trial"",""time""
""fullscreenenter"",""1"",""3044""
""blur"",""80"",""680253""
""focus"",""80"",""683318""
","""event"",""trial"",""time""
""blur"",""80"",""680253""
","""event"",""trial"",""time""
""focus"",""80"",""683318""
","""event"",""trial"",""time""
""fullscreenenter"",""1"",""3044""
","
","","","1402.0999999642372","","","16","5533","404","e","elianto","#f73b6a7A"," "," ","1","0","[2252.5]","1","2","","","5533","32","2","3","lose","go","0"
"pit-trial","151","1202474","0.0-37.0","battery-v0.2","","""event"",""trial"",""time""
""fullscreenenter"",""1"",""3044""
""blur"",""80"",""680253""
""focus"",""80"",""683318""
","""event"",""trial"",""time""
""blur"",""80"",""680253""
","""event"",""trial"",""time""
""focus"",""80"",""683318""
","""event"",""trial"",""time""
""fullscreenenter"",""1"",""3044""
","
","","","1078.5","","","16","5533","404","w","elianto","#f73b6a7A","-1"," ","0","-10","[1930]","1","2","","","5533","33","3","4","lose","no-go","0"
"pit-trial","152","1206724","0.0-38.0","battery-v0.2","","""event"",""trial"",""time""
""fullscreenenter"",""1"",""3044""
""blur"",""80"",""680253""
""focus"",""80"",""683318""
","""event"",""trial"",""time""
""blur"",""80"",""680253""
","""event"",""trial"",""time""
""focus"",""80"",""683318""
","""event"",""trial"",""time""
""fullscreenenter"",""1"",""3044""
","
","","","1393.4000000357628","","","16","5533","404","e","elianto","#f73b6a7A"," "," ","1","0","[2245]","1","2","","","5533","34","2","3","lose","go","0"
"pit-trial","153","1211330","0.0-39.0","battery-v0.2","","""event"",""trial"",""time""
""fullscreenenter"",""1"",""3044""
""blur"",""80"",""680253""
""focus"",""80"",""683318""
","""event"",""trial"",""time""
""blur"",""80"",""680253""
","""event"",""trial"",""time""
""focus"",""80"",""683318""
","""event"",""trial"",""time""
""fullscreenenter"",""1"",""3044""
","
","","","1748.4000000357628","","","16","5533","404","d","elianto","#3366ff99","-1"," ","0","0","[2599.900000035763]","1","2","","","5533","35","1","2","win","no-go","0"
"pit-trial","154","1216192","0.0-40.0","battery-v0.2","","""event"",""trial"",""time""
""fullscreenenter"",""1"",""3044""
""blur"",""80"",""680253""
""focus"",""80"",""683318""
","""event"",""trial"",""time""
""blur"",""80"",""680253""
","""event"",""trial"",""time""
""focus"",""80"",""683318""
","""event"",""trial"",""time""
""fullscreenenter"",""1"",""3044""
","
","","","-1","","","16","5533","404","j","elianto","#f73b6a7A"," ","-1","0","-10","[]","0","2","","","5533","36","0","3","lose","go","0"
"pit-trial","155","1219750","0.0-41.0","battery-v0.2","","""event"",""trial"",""time""
""fullscreenenter"",""1"",""3044""
""blur"",""80"",""680253""
""focus"",""80"",""683318""
","""event"",""trial"",""time""
""blur"",""80"",""680253""
","""event"",""trial"",""time""
""focus"",""80"",""683318""
","""event"",""trial"",""time""
""fullscreenenter"",""1"",""3044""
","
","","","703.1000000238419","","","16","5533","404","j","elianto","#f73b6a7A"," "," ","1","0","[1554.6000000238419]","1","2","","","5533","37","0","3","lose","go","0"
"pit-trial","156","1224610","0.0-42.0","battery-v0.2","","""event"",""trial"",""time""
""fullscreenenter"",""1"",""3044""
""blur"",""80"",""680253""
""focus"",""80"",""683318""
","""event"",""trial"",""time""
""blur"",""80"",""680253""
","""event"",""trial"",""time""
""focus"",""80"",""683318""
","""event"",""trial"",""time""
""fullscreenenter"",""1"",""3044""
","
","","","-1","","","16","5533","404","d","elianto","#3366ff99","-1","-1","1","+10","[]","0","2","","","5533","38","1","2","win","no-go","0"
"pit-trial","157","1228196","0.0-43.0","battery-v0.2","","""event"",""trial"",""time""
""fullscreenenter"",""1"",""3044""
""blur"",""80"",""680253""
""focus"",""80"",""683318""
","""event"",""trial"",""time""
""blur"",""80"",""680253""
","""event"",""trial"",""time""
""focus"",""80"",""683318""
","""event"",""trial"",""time""
""fullscreenenter"",""1"",""3044""
","
","","","729.7000000476837","","","16","5533","404","e","elianto","#f73b6a7A"," "," ","1","0","[1580.4000000357628]","1","2","","","5533","39","2","3","lose","go","0"
"pit-trial","158","1233051","0.0-44.0","battery-v0.2","","""event"",""trial"",""time""
""fullscreenenter"",""1"",""3044""
""blur"",""80"",""680253""
""focus"",""80"",""683318""
","""event"",""trial"",""time""
""blur"",""80"",""680253""
","""event"",""trial"",""time""
""focus"",""80"",""683318""
","""event"",""trial"",""time""
""fullscreenenter"",""1"",""3044""
","
","","","-1","","","16","5533","404","w","elianto","#f73b6a7A","-1","-1","1","-10","[]","0","2","","","5533","40","3","4","lose","no-go","1"
"pit-trial","159","1236778","0.0-45.0","battery-v0.2","","""event"",""trial"",""time""
""fullscreenenter"",""1"",""3044""
""blur"",""80"",""680253""
""focus"",""80"",""683318""
","""event"",""trial"",""time""
""blur"",""80"",""680253""
","""event"",""trial"",""time""
""focus"",""80"",""683318""
","""event"",""trial"",""time""
""fullscreenenter"",""1"",""3044""
","
","","","867.8999999761581","","","16","5533","404","w","elianto","#f73b6a7A","-1"," ","0","-10","[1719.7999999523163]","1","2","","","5533","41","3","4","lose","no-go","0"
"pit-trial","160","1241625","0.0-46.0","battery-v0.2","","""event"",""trial"",""time""
""fullscreenenter"",""1"",""3044""
""blur"",""80"",""680253""
""focus"",""80"",""683318""
","""event"",""trial"",""time""
""blur"",""80"",""680253""
","""event"",""trial"",""time""
""focus"",""80"",""683318""
","""event"",""trial"",""time""
""fullscreenenter"",""1"",""3044""
","
","","","1988.800000011921","","","16","5533","404","j","elianto","#f73b6a7A"," "," ","1","0","[2839.400000035763]","1","2","","","5533","42","0","3","lose","go","0"
"pit-trial","161","1245723","0.0-47.0","battery-v0.2","","""event"",""trial"",""time""
""fullscreenenter"",""1"",""3044""
""blur"",""80"",""680253""
""focus"",""80"",""683318""
","""event"",""trial"",""time""
""blur"",""80"",""680253""
","""event"",""trial"",""time""
""focus"",""80"",""683318""
","""event"",""trial"",""time""
""fullscreenenter"",""1"",""3044""
","
","","","1243.800000011921","","","16","5533","404","e","elianto","#f73b6a7A"," "," ","1","0","[2094.600000023842]","1","2","","","5533","43","2","3","lose","go","0"
"pit-trial","162","1250582","0.0-48.0","battery-v0.2","","""event"",""trial"",""time""
""fullscreenenter"",""1"",""3044""
""blur"",""80"",""680253""
""focus"",""80"",""683318""
","""event"",""trial"",""time""
""blur"",""80"",""680253""
","""event"",""trial"",""time""
""focus"",""80"",""683318""
","""event"",""trial"",""time""
""fullscreenenter"",""1"",""3044""
","
","","","-1","","","16","5533","404","d","elianto","#3366ff99","-1","-1","1","+10","[]","0","2","","","5533","44","1","2","win","no-go","0"
"pit-trial","163","1255442","0.0-49.0","battery-v0.2","","""event"",""trial"",""time""
""fullscreenenter"",""1"",""3044""
""blur"",""80"",""680253""
""focus"",""80"",""683318""
","""event"",""trial"",""time""
""blur"",""80"",""680253""
","""event"",""trial"",""time""
""focus"",""80"",""683318""
","""event"",""trial"",""time""
""fullscreenenter"",""1"",""3044""
","
","","","-1","","","16","5533","404","j","elianto","#f73b6a7A"," ","-1","0","-10","[]","0","2","","","5533","45","0","3","lose","go","0"
"pit-trial","164","1260303","0.0-50.0","battery-v0.2","","""event"",""trial"",""time""
""fullscreenenter"",""1"",""3044""
""blur"",""80"",""680253""
""focus"",""80"",""683318""
","""event"",""trial"",""time""
""blur"",""80"",""680253""
","""event"",""trial"",""time""
""focus"",""80"",""683318""
","""event"",""trial"",""time""
""fullscreenenter"",""1"",""3044""
","
","","","-1","","","16","5533","404","w","elianto","#f73b6a7A","-1","-1","1","0","[3072.5]","1","2","","","5533","46","3","4","lose","no-go","0"
"pit-trial","165","1263934","0.0-51.0","battery-v0.2","","""event"",""trial"",""time""
""fullscreenenter"",""1"",""3044""
""blur"",""80"",""680253""
""focus"",""80"",""683318""
","""event"",""trial"",""time""
""blur"",""80"",""680253""
","""event"",""trial"",""time""
""focus"",""80"",""683318""
","""event"",""trial"",""time""
""fullscreenenter"",""1"",""3044""
","
","","","773.7999999523163","","","16","5533","404","e","elianto","#f73b6a7A"," "," ","1","0","[1625.3999999761581]","1","2","","","5533","47","2","3","lose","go","0"
"pit-trial","166","1268792","0.0-52.0","battery-v0.2","","""event"",""trial"",""time""
""fullscreenenter"",""1"",""3044""
""blur"",""80"",""680253""
""focus"",""80"",""683318""
","""event"",""trial"",""time""
""blur"",""80"",""680253""
","""event"",""trial"",""time""
""focus"",""80"",""683318""
","""event"",""trial"",""time""
""fullscreenenter"",""1"",""3044""
","
","","","-1","","","16","5533","404","d","elianto","#3366ff99","-1","-1","1","+10","[]","0","2","","","5533","48","1","2","win","no-go","0"
"pit-trial","167","1273321","0.0-53.0","battery-v0.2","","""event"",""trial"",""time""
""fullscreenenter"",""1"",""3044""
""blur"",""80"",""680253""
""focus"",""80"",""683318""
","""event"",""trial"",""time""
""blur"",""80"",""680253""
","""event"",""trial"",""time""
""focus"",""80"",""683318""
","""event"",""trial"",""time""
""fullscreenenter"",""1"",""3044""
","
","","","1672.199999988079","","","16","5533","404","j","elianto","#f73b6a7A"," "," ","1","0","[2522.699999988079]","1","2","","","5533","49","0","3","lose","go","0"
"pit-trial","168","1278179","0.0-54.0","battery-v0.2","","""event"",""trial"",""time""
""fullscreenenter"",""1"",""3044""
""blur"",""80"",""680253""
""focus"",""80"",""683318""
","""event"",""trial"",""time""
""blur"",""80"",""680253""
","""event"",""trial"",""time""
""focus"",""80"",""683318""
","""event"",""trial"",""time""
""fullscreenenter"",""1"",""3044""
","
","","","-1","","","16","5533","404","w","elianto","#f73b6a7A","-1","-1","1","0","[]","0","2","","","5533","50","3","4","lose","no-go","0"
"pit-trial","169","1282308","0.0-55.0","battery-v0.2","","""event"",""trial"",""time""
""fullscreenenter"",""1"",""3044""
""blur"",""80"",""680253""
""focus"",""80"",""683318""
","""event"",""trial"",""time""
""blur"",""80"",""680253""
","""event"",""trial"",""time""
""focus"",""80"",""683318""
","""event"",""trial"",""time""
""fullscreenenter"",""1"",""3044""
","
","","","1272.5999999642372","","","16","5533","404","e","elianto","#f73b6a7A"," "," ","1","0","[2123.399999976158]","1","2","","","5533","51","2","3","lose","go","0"
"pit-trial","170","1287166","0.0-56.0","battery-v0.2","","""event"",""trial"",""time""
""fullscreenenter"",""1"",""3044""
""blur"",""80"",""680253""
""focus"",""80"",""683318""
","""event"",""trial"",""time""
""blur"",""80"",""680253""
","""event"",""trial"",""time""
""focus"",""80"",""683318""
","""event"",""trial"",""time""
""fullscreenenter"",""1"",""3044""
","
","","","-1","","","16","5533","404","d","elianto","#3366ff99","-1","-1","1","+10","[]","0","2","","","5533","52","1","2","win","no-go","0"
"pit-trial","171","1292024","0.0-57.0","battery-v0.2","","""event"",""trial"",""time""
""fullscreenenter"",""1"",""3044""
""blur"",""80"",""680253""
""focus"",""80"",""683318""
","""event"",""trial"",""time""
""blur"",""80"",""680253""
","""event"",""trial"",""time""
""focus"",""80"",""683318""
","""event"",""trial"",""time""
""fullscreenenter"",""1"",""3044""
","
","","","-1","","","16","5533","404","d","elianto","#3366ff99","-1","-1","1","+10","[]","0","2","","","5533","53","1","2","win","no-go","0"
"pit-trial","172","1296884","0.0-58.0","battery-v0.2","","""event"",""trial"",""time""
""fullscreenenter"",""1"",""3044""
""blur"",""80"",""680253""
""focus"",""80"",""683318""
","""event"",""trial"",""time""
""blur"",""80"",""680253""
","""event"",""trial"",""time""
""focus"",""80"",""683318""
","""event"",""trial"",""time""
""fullscreenenter"",""1"",""3044""
","
","","","-1","","","16","5533","404","w","elianto","#f73b6a7A","-1","-1","1","0","[]","0","2","","","5533","54","3","4","lose","no-go","0"
"pit-trial","173","1300483","0.0-59.0","battery-v0.2","","""event"",""trial"",""time""
""fullscreenenter"",""1"",""3044""
""blur"",""80"",""680253""
""focus"",""80"",""683318""
","""event"",""trial"",""time""
""blur"",""80"",""680253""
","""event"",""trial"",""time""
""focus"",""80"",""683318""
","""event"",""trial"",""time""
""fullscreenenter"",""1"",""3044""
","
","","","741","","","16","5533","404","e","elianto","#f73b6a7A"," "," ","1","0","[1593]","1","2","","","5533","55","2","3","lose","go","0"
"pit-trial","174","1303996","0.0-60.0","battery-v0.2","","""event"",""trial"",""time""
""fullscreenenter"",""1"",""3044""
""blur"",""80"",""680253""
""focus"",""80"",""683318""
","""event"",""trial"",""time""
""blur"",""80"",""680253""
","""event"",""trial"",""time""
""focus"",""80"",""683318""
","""event"",""trial"",""time""
""fullscreenenter"",""1"",""3044""
","
","","","656.5","","","16","5533","404","j","elianto","#f73b6a7A"," "," ","1","0","[1507.699999988079]","1","2","","","5533","56","0","3","lose","go","0"
"pit-trial","175","1308105","0.0-61.0","battery-v0.2","","""event"",""trial"",""time""
""fullscreenenter"",""1"",""3044""
""blur"",""80"",""680253""
""focus"",""80"",""683318""
","""event"",""trial"",""time""
""blur"",""80"",""680253""
","""event"",""trial"",""time""
""focus"",""80"",""683318""
","""event"",""trial"",""time""
""fullscreenenter"",""1"",""3044""
","
","","","1254.9000000357628","","","16","5533","404","s","elianto","#3366ff99"," "," ","1","+10","[2105.100000023842]","1","2","","","5533","57","4","1","win","go","0"
"pit-trial","176","1311699","0.0-62.0","battery-v0.2","","""event"",""trial"",""time""
""fullscreenenter"",""1"",""3044""
""blur"",""80"",""680253""
""focus"",""80"",""683318""
","""event"",""trial"",""time""
""blur"",""80"",""680253""
","""event"",""trial"",""time""
""focus"",""80"",""683318""
","""event"",""trial"",""time""
""fullscreenenter"",""1"",""3044""
","
","","","739.1999999880791","","","16","5533","404","e","elianto","#f73b6a7A"," "," ","1","0","[1590.800000011921]","1","2","","","5533","58","2","3","lose","go","0"
"pit-trial","177","1315247","0.0-63.0","battery-v0.2","","""event"",""trial"",""time""
""fullscreenenter"",""1"",""3044""
""blur"",""80"",""680253""
""focus"",""80"",""683318""
","""event"",""trial"",""time""
""blur"",""80"",""680253""
","""event"",""trial"",""time""
""focus"",""80"",""683318""
","""event"",""trial"",""time""
""fullscreenenter"",""1"",""3044""
","
","","","692.8999999761581","","","16","5533","404","j","elianto","#f73b6a7A"," "," ","1","0","[1543]","1","2","","","5533","59","0","3","lose","go","0"
"pit-trial","178","1320106","0.0-64.0","battery-v0.2","","""event"",""trial"",""time""
""fullscreenenter"",""1"",""3044""
""blur"",""80"",""680253""
""focus"",""80"",""683318""
","""event"",""trial"",""time""
""blur"",""80"",""680253""
","""event"",""trial"",""time""
""focus"",""80"",""683318""
","""event"",""trial"",""time""
""fullscreenenter"",""1"",""3044""
","
","","","-1","","","16","5533","404","w","elianto","#f73b6a7A","-1","-1","1","0","[]","0","2","","","5533","60","3","4","lose","no-go","0"
"pit-trial","179","1324963","0.0-65.0","battery-v0.2","","""event"",""trial"",""time""
""fullscreenenter"",""1"",""3044""
""blur"",""80"",""680253""
""focus"",""80"",""683318""
","""event"",""trial"",""time""
""blur"",""80"",""680253""
","""event"",""trial"",""time""
""focus"",""80"",""683318""
","""event"",""trial"",""time""
""fullscreenenter"",""1"",""3044""
","
","","","-1","","","16","5533","404","w","elianto","#f73b6a7A","-1","-1","1","-10","[]","0","2","","","5533","61","3","4","lose","no-go","1"
"pit-trial","180","1329822","0.0-66.0","battery-v0.2","","""event"",""trial"",""time""
""fullscreenenter"",""1"",""3044""
""blur"",""80"",""680253""
""focus"",""80"",""683318""
","""event"",""trial"",""time""
""blur"",""80"",""680253""
","""event"",""trial"",""time""
""focus"",""80"",""683318""
","""event"",""trial"",""time""
""fullscreenenter"",""1"",""3044""
","
","","","-1","","","16","5533","404","d","elianto","#3366ff99","-1","-1","1","0","[]","0","2","","","5533","62","1","2","win","no-go","1"
"pit-trial","181","1334681","0.0-67.0","battery-v0.2","","""event"",""trial"",""time""
""fullscreenenter"",""1"",""3044""
""blur"",""80"",""680253""
""focus"",""80"",""683318""
","""event"",""trial"",""time""
""blur"",""80"",""680253""
","""event"",""trial"",""time""
""focus"",""80"",""683318""
","""event"",""trial"",""time""
""fullscreenenter"",""1"",""3044""
","
","","","-1","","","16","5533","404","s","elianto","#3366ff99"," ","-1","0","0","[2989.5]","1","2","","","5533","63","4","1","win","go","0"
"pit-trial","182","1339540","0.0-68.0","battery-v0.2","","""event"",""trial"",""time""
""fullscreenenter"",""1"",""3044""
""blur"",""80"",""680253""
""focus"",""80"",""683318""
","""event"",""trial"",""time""
""blur"",""80"",""680253""
","""event"",""trial"",""time""
""focus"",""80"",""683318""
","""event"",""trial"",""time""
""fullscreenenter"",""1"",""3044""
","
","","","-1","","","16","5533","404","e","elianto","#f73b6a7A"," ","-1","0","-10","[3096.400000035763]","1","2","","","5533","64","2","3","lose","go","0"
"pit-trial","183","1344399","0.0-69.0","battery-v0.2","","""event"",""trial"",""time""
""fullscreenenter"",""1"",""3044""
""blur"",""80"",""680253""
""focus"",""80"",""683318""
","""event"",""trial"",""time""
""blur"",""80"",""680253""
","""event"",""trial"",""time""
""focus"",""80"",""683318""
","""event"",""trial"",""time""
""fullscreenenter"",""1"",""3044""
","
","","","-1","","","16","5533","404","w","elianto","#f73b6a7A","-1","-1","1","-10","[]","0","2","","","5533","65","3","4","lose","no-go","1"
"pit-trial","184","1347975","0.0-70.0","battery-v0.2","","""event"",""trial"",""time""
""fullscreenenter"",""1"",""3044""
""blur"",""80"",""680253""
""focus"",""80"",""683318""
","""event"",""trial"",""time""
""blur"",""80"",""680253""
","""event"",""trial"",""time""
""focus"",""80"",""683318""
","""event"",""trial"",""time""
""fullscreenenter"",""1"",""3044""
","
","","","719.1000000238419","","","16","5533","404","p","elianto","#3366ff99","-1"," ","0","0","[1569.4000000357628]","1","2","","","5533","66","5","2","win","no-go","0"
"pit-trial","185","1352267","0.0-71.0","battery-v0.2","","""event"",""trial"",""time""
""fullscreenenter"",""1"",""3044""
""blur"",""80"",""680253""
""focus"",""80"",""683318""
","""event"",""trial"",""time""
""blur"",""80"",""680253""
","""event"",""trial"",""time""
""focus"",""80"",""683318""
","""event"",""trial"",""time""
""fullscreenenter"",""1"",""3044""
","
","","","1434.699999988079","","","16","5533","404","s","elianto","#3366ff99"," "," ","1","+10","[2286]","1","2","","","5533","67","4","1","win","go","0"
"pit-trial","186","1356178","0.0-72.0","battery-v0.2","","""event"",""trial"",""time""
""fullscreenenter"",""1"",""3044""
""blur"",""80"",""680253""
""focus"",""80"",""683318""
","""event"",""trial"",""time""
""blur"",""80"",""680253""
","""event"",""trial"",""time""
""focus"",""80"",""683318""
","""event"",""trial"",""time""
""fullscreenenter"",""1"",""3044""
","
","","","1053.4000000357628","","","16","5533","404","d","elianto","#3366ff99","-1"," ","0","0","[1903.6000000238419]","1","2","","","5533","68","1","2","win","no-go","0"
"pit-trial","187","1361037","0.0-73.0","battery-v0.2","","""event"",""trial"",""time""
""fullscreenenter"",""1"",""3044""
""blur"",""80"",""680253""
""focus"",""80"",""683318""
","""event"",""trial"",""time""
""blur"",""80"",""680253""
","""event"",""trial"",""time""
""focus"",""80"",""683318""
","""event"",""trial"",""time""
""fullscreenenter"",""1"",""3044""
","
","","","-1","","","16","5533","404","p","elianto","#3366ff99","-1","-1","1","0","[]","0","2","","","5533","69","5","2","win","no-go","1"
"pit-trial","188","1364752","0.0-74.0","battery-v0.2","","""event"",""trial"",""time""
""fullscreenenter"",""1"",""3044""
""blur"",""80"",""680253""
""focus"",""80"",""683318""
","""event"",""trial"",""time""
""blur"",""80"",""680253""
","""event"",""trial"",""time""
""focus"",""80"",""683318""
","""event"",""trial"",""time""
""fullscreenenter"",""1"",""3044""
","
","","","860.1999999880791","","","16","5533","404","e","elianto","#f73b6a7A"," "," ","1","-10","[1711.300000011921]","1","2","","","5533","70","2","3","lose","go","1"
"pit-trial","189","1368939","0.0-75.0","battery-v0.2","","""event"",""trial"",""time""
""fullscreenenter"",""1"",""3044""
""blur"",""80"",""680253""
""focus"",""80"",""683318""
","""event"",""trial"",""time""
""blur"",""80"",""680253""
","""event"",""trial"",""time""
""focus"",""80"",""683318""
","""event"",""trial"",""time""
""fullscreenenter"",""1"",""3044""
","
","","","1330.300000011921","","","16","5533","404","s","elianto","#3366ff99"," "," ","1","+10","[2181.2999999523163]","1","2","","","5533","71","4","1","win","go","0"
"pit-trial","190","1373797","0.0-76.0","battery-v0.2","","""event"",""trial"",""time""
""fullscreenenter"",""1"",""3044""
""blur"",""80"",""680253""
""focus"",""80"",""683318""
","""event"",""trial"",""time""
""blur"",""80"",""680253""
","""event"",""trial"",""time""
""focus"",""80"",""683318""
","""event"",""trial"",""time""
""fullscreenenter"",""1"",""3044""
","
","","","-1","","","16","5533","404","d","elianto","#3366ff99","-1","-1","1","+10","[]","0","2","","","5533","72","1","2","win","no-go","0"
"pit-trial","191","1378033","0.0-77.0","battery-v0.2","","""event"",""trial"",""time""
""fullscreenenter"",""1"",""3044""
""blur"",""80"",""680253""
""focus"",""80"",""683318""
","""event"",""trial"",""time""
""blur"",""80"",""680253""
","""event"",""trial"",""time""
""focus"",""80"",""683318""
","""event"",""trial"",""time""
""fullscreenenter"",""1"",""3044""
","
","","","1376.1000000238419","","","16","5533","404","p","elianto","#3366ff99","-1"," ","0","0","[2228.899999976158]","1","2","","","5533","73","5","2","win","no-go","0"
"pit-trial","192","1382887","0.0-78.0","battery-v0.2","","""event"",""trial"",""time""
""fullscreenenter"",""1"",""3044""
""blur"",""80"",""680253""
""focus"",""80"",""683318""
","""event"",""trial"",""time""
""blur"",""80"",""680253""
","""event"",""trial"",""time""
""focus"",""80"",""683318""
","""event"",""trial"",""time""
""fullscreenenter"",""1"",""3044""
","
","","","-1","","","16","5533","404","w","elianto","#f73b6a7A","-1","-1","1","0","[]","0","2","","","5533","74","3","4","lose","no-go","0"
"pit-trial","193","1386631","0.0-79.0","battery-v0.2","","""event"",""trial"",""time""
""fullscreenenter"",""1"",""3044""
""blur"",""80"",""680253""
""focus"",""80"",""683318""
","""event"",""trial"",""time""
""blur"",""80"",""680253""
","""event"",""trial"",""time""
""focus"",""80"",""683318""
","""event"",""trial"",""time""
""fullscreenenter"",""1"",""3044""
","
","","","886.6000000238419","","","16","5533","404","s","elianto","#3366ff99"," "," ","1","+10","[1736.6000000238419]","1","2","","","5533","75","4","1","win","go","0"
"pit-trial","194","1391491","0.0-80.0","battery-v0.2","","""event"",""trial"",""time""
""fullscreenenter"",""1"",""3044""
""blur"",""80"",""680253""
""focus"",""80"",""683318""
","""event"",""trial"",""time""
""blur"",""80"",""680253""
","""event"",""trial"",""time""
""focus"",""80"",""683318""
","""event"",""trial"",""time""
""fullscreenenter"",""1"",""3044""
","
","","","-1","","","16","5533","404","d","elianto","#3366ff99","-1","-1","1","0","[]","0","2","","","5533","76","1","2","win","no-go","1"
"pit-trial","195","1395323","0.0-81.0","battery-v0.2","","""event"",""trial"",""time""
""fullscreenenter"",""1"",""3044""
""blur"",""80"",""680253""
""focus"",""80"",""683318""
","""event"",""trial"",""time""
""blur"",""80"",""680253""
","""event"",""trial"",""time""
""focus"",""80"",""683318""
","""event"",""trial"",""time""
""fullscreenenter"",""1"",""3044""
","
","","","973.5","","","16","5533","404","s","elianto","#3366ff99"," "," ","1","+10","[1825.4000000357628]","1","2","","","5533","77","4","1","win","go","0"
"pit-trial","196","1399051","0.0-82.0","battery-v0.2","","""event"",""trial"",""time""
""fullscreenenter"",""1"",""3044""
""blur"",""80"",""680253""
""focus"",""80"",""683318""
","""event"",""trial"",""time""
""blur"",""80"",""680253""
","""event"",""trial"",""time""
""focus"",""80"",""683318""
","""event"",""trial"",""time""
""fullscreenenter"",""1"",""3044""
","
","","","870.5","","","16","5533","404","s","elianto","#3366ff99"," "," ","1","+10","[1720.800000011921]","1","2","","","5533","78","4","1","win","go","0"
"pit-trial","197","1403909","0.0-83.0","battery-v0.2","","""event"",""trial"",""time""
""fullscreenenter"",""1"",""3044""
""blur"",""80"",""680253""
""focus"",""80"",""683318""
","""event"",""trial"",""time""
""blur"",""80"",""680253""
","""event"",""trial"",""time""
""focus"",""80"",""683318""
","""event"",""trial"",""time""
""fullscreenenter"",""1"",""3044""
","
","","","-1","","","16","5533","404","p","elianto","#3366ff99","-1","-1","1","+10","[]","0","2","","","5533","79","5","2","win","no-go","0"
"pit-trial","198","1408767","0.0-84.0","battery-v0.2","","""event"",""trial"",""time""
""fullscreenenter"",""1"",""3044""
""blur"",""80"",""680253""
""focus"",""80"",""683318""
","""event"",""trial"",""time""
""blur"",""80"",""680253""
","""event"",""trial"",""time""
""focus"",""80"",""683318""
","""event"",""trial"",""time""
""fullscreenenter"",""1"",""3044""
","
","","","-1","","","16","5533","404","w","elianto","#f73b6a7A","-1","-1","1","0","[]","0","2","","","5533","80","3","4","lose","no-go","0"
"pit-trial","199","1413627","0.0-85.0","battery-v0.2","","""event"",""trial"",""time""
""fullscreenenter"",""1"",""3044""
""blur"",""80"",""680253""
""focus"",""80"",""683318""
","""event"",""trial"",""time""
""blur"",""80"",""680253""
","""event"",""trial"",""time""
""focus"",""80"",""683318""
","""event"",""trial"",""time""
""fullscreenenter"",""1"",""3044""
","
","","","-1","","","16","5533","404","w","elianto","#f73b6a7A","-1","-1","1","0","[]","0","2","","","5533","81","3","4","lose","no-go","0"
"pit-trial","200","1417278","0.0-86.0","battery-v0.2","","""event"",""trial"",""time""
""fullscreenenter"",""1"",""3044""
""blur"",""80"",""680253""
""focus"",""80"",""683318""
","""event"",""trial"",""time""
""blur"",""80"",""680253""
","""event"",""trial"",""time""
""focus"",""80"",""683318""
","""event"",""trial"",""time""
""fullscreenenter"",""1"",""3044""
","
","","","794","","","16","5533","404","s","elianto","#3366ff99"," "," ","1","+10","[1644.699999988079]","1","2","","","5533","82","4","1","win","go","0"
"pit-trial","201","1422139","0.0-87.0","battery-v0.2","","""event"",""trial"",""time""
""fullscreenenter"",""1"",""3044""
""blur"",""80"",""680253""
""focus"",""80"",""683318""
","""event"",""trial"",""time""
""blur"",""80"",""680253""
","""event"",""trial"",""time""
""focus"",""80"",""683318""
","""event"",""trial"",""time""
""fullscreenenter"",""1"",""3044""
","
","","","-1","","","16","5533","404","a","elianto","#f73b6a7A","-1","-1","1","0","[]","0","2","","","5533","83","7","4","lose","no-go","0"
"pit-trial","202","1426995","0.0-88.0","battery-v0.2","","""event"",""trial"",""time""
""fullscreenenter"",""1"",""3044""
""blur"",""80"",""680253""
""focus"",""80"",""683318""
","""event"",""trial"",""time""
""blur"",""80"",""680253""
","""event"",""trial"",""time""
""focus"",""80"",""683318""
","""event"",""trial"",""time""
""fullscreenenter"",""1"",""3044""
","
","","","-1","","","16","5533","404","p","elianto","#3366ff99","-1","-1","1","+10","[]","0","2","","","5533","84","5","2","win","no-go","0"
"pit-trial","203","1431854","0.0-89.0","battery-v0.2","","""event"",""trial"",""time""
""fullscreenenter"",""1"",""3044""
""blur"",""80"",""680253""
""focus"",""80"",""683318""
","""event"",""trial"",""time""
""blur"",""80"",""680253""
","""event"",""trial"",""time""
""focus"",""80"",""683318""
","""event"",""trial"",""time""
""fullscreenenter"",""1"",""3044""
","
","","","-1","","","16","5533","404","g","elianto","#f73b6a7A"," ","-1","0","-10","[]","0","2","","","5533","85","6","3","lose","go","0"
"pit-trial","204","1435337","0.0-90.0","battery-v0.2","","""event"",""trial"",""time""
""fullscreenenter"",""1"",""3044""
""blur"",""80"",""680253""
""focus"",""80"",""683318""
","""event"",""trial"",""time""
""blur"",""80"",""680253""
","""event"",""trial"",""time""
""focus"",""80"",""683318""
","""event"",""trial"",""time""
""fullscreenenter"",""1"",""3044""
","
","","","624.6999999880791","","","16","5533","404","s","elianto","#3366ff99"," "," ","1","0","[1478.1000000238419]","1","2","","","5533","86","4","1","win","go","1"
"pit-trial","205","1440196","0.0-91.0","battery-v0.2","","""event"",""trial"",""time""
""fullscreenenter"",""1"",""3044""
""blur"",""80"",""680253""
""focus"",""80"",""683318""
","""event"",""trial"",""time""
""blur"",""80"",""680253""
","""event"",""trial"",""time""
""focus"",""80"",""683318""
","""event"",""trial"",""time""
""fullscreenenter"",""1"",""3044""
","
","","","-1","","","16","5533","404","p","elianto","#3366ff99","-1","-1","1","+10","[]","0","2","","","5533","87","5","2","win","no-go","0"
"pit-trial","206","1445055","0.0-92.0","battery-v0.2","","""event"",""trial"",""time""
""fullscreenenter"",""1"",""3044""
""blur"",""80"",""680253""
""focus"",""80"",""683318""
","""event"",""trial"",""time""
""blur"",""80"",""680253""
","""event"",""trial"",""time""
""focus"",""80"",""683318""
","""event"",""trial"",""time""
""fullscreenenter"",""1"",""3044""
","
","","","-1","","","16","5533","404","a","elianto","#f73b6a7A","-1","-1","1","0","[]","0","2","","","5533","88","7","4","lose","no-go","0"
"pit-trial","207","1448538","0.0-93.0","battery-v0.2","","""event"",""trial"",""time""
""fullscreenenter"",""1"",""3044""
""blur"",""80"",""680253""
""focus"",""80"",""683318""
","""event"",""trial"",""time""
""blur"",""80"",""680253""
","""event"",""trial"",""time""
""focus"",""80"",""683318""
","""event"",""trial"",""time""
""fullscreenenter"",""1"",""3044""
","
","","","626.8999999761581","","","16","5533","404","g","elianto","#f73b6a7A"," "," ","1","-10","[1479.5]","1","2","","","5533","89","6","3","lose","go","1"
"pit-trial","208","1452011","0.0-94.0","battery-v0.2","","""event"",""trial"",""time""
