"trial_type","trial_index","time_elapsed","internal_node_id","task_version","subject_id","interactions","blur_events","focus_events","fullscreenenter_events","fullscreenexit_events","success","view_history","rt","responses","num_errors","age","subject","participantId","rune","rune_set","hex","correct","choice","accuracy","outcome","keys","total_keys","block","practice","value","sub","trial","stimulus","robot","valence","action","sham"
"pavlovia","0","7","0.0-0.0","battery-v0.2","","""event"",""trial"",""time""
""fullscreenenter"",""1"",""6813""
","
","
","""event"",""trial"",""time""
""fullscreenenter"",""1"",""6813""
","
","","","","","","","","","","","","","","","","","","","","","","","","","","",""
"fullscreen","1","7797","0.0-1.0","battery-v0.2","","""event"",""trial"",""time""
""fullscreenenter"",""1"",""6813""
","
","
","""event"",""trial"",""time""
""fullscreenenter"",""1"",""6813""
","
","true","","","","","","","","","","","","","","","","","","","","","","","","","",""
"pit-instructions","2","18011","0.0-2.0-0.0","battery-v0.2","","""event"",""trial"",""time""
""fullscreenenter"",""1"",""6813""
","
","
","""event"",""trial"",""time""
""fullscreenenter"",""1"",""6813""
","
","","[{""page_index"":0,""viewing_time"":10209.60000000149}]","10209.80000000447","","","","","","","","","","","","","","","","","","","","","","","",""
"pit-comprehension","3","20862","0.0-2.0-1.0-0.0","battery-v0.2","","""event"",""trial"",""time""
""fullscreenenter"",""1"",""6813""
","
","
","""event"",""trial"",""time""
""fullscreenenter"",""1"",""6813""
","
","","","2847.7000000029802","[""shark""]","0","13","7256","3859","","","","","","","","","","","","","","","","","","",""
"pit-instructions","4","22249","0.0-2.0-1.0-1.0","battery-v0.2","","""event"",""trial"",""time""
""fullscreenenter"",""1"",""6813""
","
","
","""event"",""trial"",""time""
""fullscreenenter"",""1"",""6813""
","
","","[{""page_index"":0,""viewing_time"":1376.5}]","1376.7000000029802","","","","","","","","","","","","","","","","","","","","","","","",""
"pit-comprehension","5","29599","0.0-2.0-2.0-0.0","battery-v0.2","","""event"",""trial"",""time""
""fullscreenenter"",""1"",""6813""
","
","
","""event"",""trial"",""time""
""fullscreenenter"",""1"",""6813""
","
","","","7348.10000000149","[""tiger""]","0","13","7256","3859","","","","","","","","","","","","","","","","","","",""
"pit-instructions","6","30747","0.0-2.0-2.0-1.0","battery-v0.2","","""event"",""trial"",""time""
""fullscreenenter"",""1"",""6813""
","
","
","""event"",""trial"",""time""
""fullscreenenter"",""1"",""6813""
","
","","[{""page_index"":0,""viewing_time"":1144.8999999985099}]","1145.1999999955297","","","","","","","","","","","","","","","","","","","","","","","",""
"pit-instructions","7","134870","0.0-2.0-3.0","battery-v0.2","","""event"",""trial"",""time""
""fullscreenenter"",""1"",""6813""
","
","
","""event"",""trial"",""time""
""fullscreenenter"",""1"",""6813""
","
","","[{""page_index"":0,""viewing_time"":10286.70000000298},{""page_index"":1,""viewing_time"":5604.39999999851},{""page_index"":2,""viewing_time"":11152.10000000149},{""page_index"":3,""viewing_time"":7111.79999999702},{""page_index"":4,""viewing_time"":7031.89999999851},{""page_index"":5,""viewing_time"":6170.10000000149},{""page_index"":6,""viewing_time"":6940.10000000149},{""page_index"":7,""viewing_time"":6895.79999999702},{""page_index"":8,""viewing_time"":6896.20000000298},{""page_index"":9,""viewing_time"":7735.70000000298},{""page_index"":10,""viewing_time"":8962.09999999404},{""page_index"":11,""viewing_time"":7596.10000000149},{""page_index"":12,""viewing_time"":6500},{""page_index"":13,""viewing_time"":5237.80000000447}]","104121.10000000149","","","","","","","","","","","","","","","","","","","","","","","",""
"pit-trial","8","138517","0.0-2.0-4.0-0.0","battery-v0.2","","""event"",""trial"",""time""
""fullscreenenter"",""1"",""6813""
","
","
","""event"",""trial"",""time""
""fullscreenenter"",""1"",""6813""
","
","","","784.1999999955297","","","13","7256","3859","&#9784;","elianto","#FFFFF080"," "," ","1","&#10004","[1637.5]","1","0","0","","","","","","","",""
"pit-trial","9","142137","0.0-2.0-4.1-0.1","battery-v0.2","","""event"",""trial"",""time""
""fullscreenenter"",""1"",""6813""
","
","
","""event"",""trial"",""time""
""fullscreenenter"",""1"",""6813""
","
","","","741.8000000044703","","","13","7256","3859","&#9784;","elianto","#FFFFF080"," "," ","1","&#10004","[1597.3000000044703]","1","0","0","","","","","","","",""
"pit-trial","10","145696","0.0-2.0-4.2-0.2","battery-v0.2","","""event"",""trial"",""time""
""fullscreenenter"",""1"",""6813""
","
","
","""event"",""trial"",""time""
""fullscreenenter"",""1"",""6813""
","
","","","701.2999999970198","","","13","7256","3859","&#9784;","elianto","#FFFFF080"," "," ","1","&#10004","[1553.5]","1","0","0","","","","","","","",""
"pit-trial","11","150076","0.0-2.0-4.3-0.3","battery-v0.2","","""event"",""trial"",""time""
""fullscreenenter"",""1"",""6813""
","
","
","""event"",""trial"",""time""
""fullscreenenter"",""1"",""6813""
","
","","","1503.5999999940395","","","13","7256","3859","&#9784;","elianto","#FFFFF080"," "," ","1","&#10004","[2362.7000000029802]","1","0","0","","","","","","","",""
"pit-trial","12","154486","0.0-2.0-4.4-0.4","battery-v0.2","","""event"",""trial"",""time""
""fullscreenenter"",""1"",""6813""
","
","
","""event"",""trial"",""time""
""fullscreenenter"",""1"",""6813""
","
","","","1553.8999999985099","","","13","7256","3859","&#9784;","elianto","#FFFFF080"," "," ","1","&#10004","[2406]","1","0","0","","","","","","","",""
"pit-instructions","13","178383","0.0-2.0-5.0","battery-v0.2","","""event"",""trial"",""time""
""fullscreenenter"",""1"",""6813""
","
","
","""event"",""trial"",""time""
""fullscreenenter"",""1"",""6813""
","
","","[{""page_index"":0,""viewing_time"":5454.89999999851},{""page_index"":1,""viewing_time"":5653.70000000298},{""page_index"":2,""viewing_time"":6216.20000000298},{""page_index"":3,""viewing_time"":6567.89999999851}]","23892.89999999851","","","","","","","","","","","","","","","","","","","","","","","",""
"pit-trial","14","183247","0.0-2.0-6.0-0.0","battery-v0.2","","""event"",""trial"",""time""
""fullscreenenter"",""1"",""6813""
","
","
","""event"",""trial"",""time""
""fullscreenenter"",""1"",""6813""
","
","","","-1","","","13","7256","3859","&#9854;","elianto","#FFFFF080","-1","-1","1","&#10004","[]","0","0","1","","","","","","","",""
"pit-trial","15","188127","0.0-2.0-6.1-0.1","battery-v0.2","","""event"",""trial"",""time""
""fullscreenenter"",""1"",""6813""
","
","
","""event"",""trial"",""time""
""fullscreenenter"",""1"",""6813""
","
","","","-1","","","13","7256","3859","&#9854;","elianto","#FFFFF080","-1","-1","1","&#10004","[]","0","0","1","","","","","","","",""
"pit-trial","16","193007","0.0-2.0-6.2-0.2","battery-v0.2","","""event"",""trial"",""time""
""fullscreenenter"",""1"",""6813""
","
","
","""event"",""trial"",""time""
""fullscreenenter"",""1"",""6813""
","
","","","-1","","","13","7256","3859","&#9854;","elianto","#FFFFF080","-1","-1","1","&#10004","[]","0","0","1","","","","","","","",""
"pit-trial","17","197887","0.0-2.0-6.3-0.3","battery-v0.2","","""event"",""trial"",""time""
""fullscreenenter"",""1"",""6813""
","
","
","""event"",""trial"",""time""
""fullscreenenter"",""1"",""6813""
","
","","","-1","","","13","7256","3859","&#9854;","elianto","#FFFFF080","-1","-1","1","&#10004","[]","0","0","1","","","","","","","",""
"pit-trial","18","202767","0.0-2.0-6.4-0.4","battery-v0.2","","""event"",""trial"",""time""
""fullscreenenter"",""1"",""6813""
","
","
","""event"",""trial"",""time""
""fullscreenenter"",""1"",""6813""
","
","","","-1","","","13","7256","3859","&#9854;","elianto","#FFFFF080","-1","-1","1","&#10004","[]","0","0","1","","","","","","","",""
"pit-instructions","19","316643","0.0-2.0-7.0","battery-v0.2","","""event"",""trial"",""time""
""fullscreenenter"",""1"",""6813""
","
","
","""event"",""trial"",""time""
""fullscreenenter"",""1"",""6813""
","
","","[{""page_index"":0,""viewing_time"":5878.5},{""page_index"":1,""viewing_time"":7818.30000000447},{""page_index"":2,""viewing_time"":6951.69999999553},{""page_index"":3,""viewing_time"":6142.4000000059605},{""page_index"":4,""viewing_time"":5510},{""page_index"":5,""viewing_time"":5527.89999999851},{""page_index"":6,""viewing_time"":4193.89999999851},{""page_index"":7,""viewing_time"":7454.10000000149},{""page_index"":8,""viewing_time"":7093.79999999702},{""page_index"":9,""viewing_time"":5107.80000000447},{""page_index"":10,""viewing_time"":7512.19999999553},{""page_index"":11,""viewing_time"":4252},{""page_index"":12,""viewing_time"":6648.20000000298},{""page_index"":13,""viewing_time"":7145.69999999553},{""page_index"":14,""viewing_time"":7131.80000000447},{""page_index"":15,""viewing_time"":6668.39999999851},{""page_index"":16,""viewing_time"":6137.89999999851},{""page_index"":17,""viewing_time"":6698}]","113873","","","","","","","","","","","","","","","","","","","","","","","",""
"pit-trial","20","320627","0.0-2.0-8.0-0.0","battery-v0.2","","""event"",""trial"",""time""
""fullscreenenter"",""1"",""6813""
","
","
","""event"",""trial"",""time""
""fullscreenenter"",""1"",""6813""
","
","","","1119.5999999940395","","","13","7256","3859","&#9776;","elianto","#3366ff99"," "," ","1","+10","[1976.8000000044703]","1","0","1","","","","","","","",""
"pit-trial","21","323977","0.0-2.0-8.0-1.0","battery-v0.2","","""event"",""trial"",""time""
""fullscreenenter"",""1"",""6813""
","
","
","""event"",""trial"",""time""
""fullscreenenter"",""1"",""6813""
","
","","","479.8999999985099","","","13","7256","3859","&#9776;","elianto","#3366ff99"," "," ","1","+10","[144.5,1336.6999999955297]","2","0","1","","","","","","","",""
"pit-trial","22","327617","0.0-2.0-8.0-2.0","battery-v0.2","","""event"",""trial"",""time""
""fullscreenenter"",""1"",""6813""
","
","
","""event"",""trial"",""time""
""fullscreenenter"",""1"",""6813""
","
","","","770.3000000044703","","","13","7256","3859","&#9776;","elianto","#3366ff99"," "," ","1","+10","[1626.5]","1","0","1","","","","","","","",""
"pit-trial","23","331027","0.0-2.0-8.0-3.0","battery-v0.2","","""event"",""trial"",""time""
""fullscreenenter"",""1"",""6813""
","
","
","""event"",""trial"",""time""
""fullscreenenter"",""1"",""6813""
","
","","","551.3999999985099","","","13","7256","3859","&#9776;","elianto","#3366ff99"," "," ","1","0","[1402.1999999955297]","1","0","1","","","","","","","",""
"pit-trial","24","334437","0.0-2.0-8.0-4.0","battery-v0.2","","""event"",""trial"",""time""
""fullscreenenter"",""1"",""6813""
","
","
","""event"",""trial"",""time""
""fullscreenenter"",""1"",""6813""
","
","","","536.5","","","13","7256","3859","&#9776;","elianto","#3366ff99"," "," ","1","+10","[1392.6000000014901]","1","0","1","","","","","","","",""
"pit-trial","25","338017","0.0-2.0-8.1-0.1","battery-v0.2","","""event"",""trial"",""time""
""fullscreenenter"",""1"",""6813""
","
","
","""event"",""trial"",""time""
""fullscreenenter"",""1"",""6813""
","
","","","708.1000000014901","","","13","7256","3859","&#9776;","elianto","#3366ff99"," "," ","1","+10","[1565.3999999985099]","1","0","1","","","","","","","",""
"pit-trial","26","342897","0.0-2.0-8.1-1.1","battery-v0.2","","""event"",""trial"",""time""
""fullscreenenter"",""1"",""6813""
","
","
","""event"",""trial"",""time""
""fullscreenenter"",""1"",""6813""
","
","","","-1","","","13","7256","3859","&#9776;","elianto","#3366ff99"," ","-1","0","0","[]","0","0","1","","","","","","","",""
"pit-trial","27","346377","0.0-2.0-8.1-2.1","battery-v0.2","","""event"",""trial"",""time""
""fullscreenenter"",""1"",""6813""
","
","
","""event"",""trial"",""time""
""fullscreenenter"",""1"",""6813""
","
","","","614.6999999955297","","","13","7256","3859","&#9776;","elianto","#3366ff99"," "," ","1","+10","[1466.6000000014901]","1","0","1","","","","","","","",""
"pit-trial","28","349877","0.0-2.0-8.1-3.1","battery-v0.2","","""event"",""trial"",""time""
""fullscreenenter"",""1"",""6813""
","
","
","""event"",""trial"",""time""
""fullscreenenter"",""1"",""6813""
","
","","","647.1000000014901","","","13","7256","3859","&#9776;","elianto","#3366ff99"," "," ","1","0","[1497.7000000029802]","1","0","1","","","","","","","",""
"pit-trial","29","354094","0.0-2.0-8.1-4.1","battery-v0.2","","""event"",""trial"",""time""
""fullscreenenter"",""1"",""6813""
","
","
","""event"",""trial"",""time""
""fullscreenenter"",""1"",""6813""
","
","","","1364.0999999940395","","","13","7256","3859","&#9776;","elianto","#3366ff99"," "," ","1","+10","[2214.39999999851]","1","0","1","","","","","","","",""
"pit-trial","30","357582","0.0-2.0-8.2-0.2","battery-v0.2","","""event"",""trial"",""time""
""fullscreenenter"",""1"",""6813""
","
","
","""event"",""trial"",""time""
""fullscreenenter"",""1"",""6813""
","
","","","634.5","","","13","7256","3859","&#9776;","elianto","#3366ff99"," "," ","1","+10","[1484.8000000044703]","1","0","1","","","","","","","",""
"pit-trial","31","361134","0.0-2.0-8.2-1.2","battery-v0.2","","""event"",""trial"",""time""
""fullscreenenter"",""1"",""6813""
","
","
","""event"",""trial"",""time""
""fullscreenenter"",""1"",""6813""
","
","","","699.3999999985099","","","13","7256","3859","&#9776;","elianto","#3366ff99"," "," ","1","+10","[1549.6000000014901]","1","0","1","","","","","","","",""
"pit-trial","32","364558","0.0-2.0-8.2-2.2","battery-v0.2","","""event"",""trial"",""time""
""fullscreenenter"",""1"",""6813""
","
","
","""event"",""trial"",""time""
""fullscreenenter"",""1"",""6813""
","
","","","572","","","13","7256","3859","&#9776;","elianto","#3366ff99"," "," ","1","+10","[1422]","1","0","1","","","","","","","",""
"pit-trial","33","367950","0.0-2.0-8.2-3.2","battery-v0.2","","""event"",""trial"",""time""
""fullscreenenter"",""1"",""6813""
","
","
","""event"",""trial"",""time""
""fullscreenenter"",""1"",""6813""
","
","","","539.3999999985099","","","13","7256","3859","&#9776;","elianto","#3366ff99"," "," ","1","0","[1389.7999999970198]","1","0","1","","","","","","","",""
"pit-trial","34","371407","0.0-2.0-8.2-4.2","battery-v0.2","","""event"",""trial"",""time""
""fullscreenenter"",""1"",""6813""
","
","
","""event"",""trial"",""time""
""fullscreenenter"",""1"",""6813""
","
","","","602.9000000059605","","","13","7256","3859","&#9776;","elianto","#3366ff99"," "," ","1","+10","[1453.1000000014901]","1","0","1","","","","","","","",""
"call-function","35","371408","0.0-2.0-9.0","battery-v0.2","","""event"",""trial"",""time""
""fullscreenenter"",""1"",""6813""
","
","
","""event"",""trial"",""time""
""fullscreenenter"",""1"",""6813""
","
","","","","","","","","","","","","","","","","","","","","","","","","","","",""
"pit-instructions","36","409823","0.0-2.0-10.0","battery-v0.2","","""event"",""trial"",""time""
""fullscreenenter"",""1"",""6813""
","
","
","""event"",""trial"",""time""
""fullscreenenter"",""1"",""6813""
","
","","[{""page_index"":0,""viewing_time"":5741.19999999553},{""page_index"":1,""viewing_time"":6949.70000000298},{""page_index"":2,""viewing_time"":9059.60000000149},{""page_index"":3,""viewing_time"":9044.59999999404},{""page_index"":4,""viewing_time"":7617.9000000059605}]","38413.5","","","","","","","","","","","","","","","","","","","","","","","",""
"pit-trial","37","413966","0.0-2.0-11.0-0.0","battery-v0.2","","""event"",""trial"",""time""
""fullscreenenter"",""1"",""6813""
","
","
","""event"",""trial"",""time""
""fullscreenenter"",""1"",""6813""
","
","","","1275.2000000029802","","","13","7256","3859","&#9761;","elianto","#3366ff99","-1"," ","0","0","[2132.2000000029802]","1","0","2","","","","","","","",""
"pit-trial","38","417225","0.0-2.0-11.0-1.0","battery-v0.2","","""event"",""trial"",""time""
""fullscreenenter"",""1"",""6813""
","
","
","""event"",""trial"",""time""
""fullscreenenter"",""1"",""6813""
","
","","","399.79999999701977","","","13","7256","3859","&#9761;","elianto","#3366ff99","-1"," ","0","0","[1252.8999999985099]","1","0","2","","","","","","","",""
"pit-trial","39","422106","0.0-2.0-11.0-2.0","battery-v0.2","","""event"",""trial"",""time""
""fullscreenenter"",""1"",""6813""
","
","
","""event"",""trial"",""time""
""fullscreenenter"",""1"",""6813""
","
","","","-1","","","13","7256","3859","&#9761;","elianto","#3366ff99","-1","-1","1","+10","[]","0","0","2","","","","","","","",""
"pit-trial","40","426996","0.0-2.0-11.0-3.0","battery-v0.2","","""event"",""trial"",""time""
""fullscreenenter"",""1"",""6813""
","
","
","""event"",""trial"",""time""
""fullscreenenter"",""1"",""6813""
","
","","","-1","","","13","7256","3859","&#9761;","elianto","#3366ff99","-1","-1","1","0","[]","0","0","2","","","","","","","",""
"pit-trial","41","431875","0.0-2.0-11.0-4.0","battery-v0.2","","""event"",""trial"",""time""
""fullscreenenter"",""1"",""6813""
","
","
","""event"",""trial"",""time""
""fullscreenenter"",""1"",""6813""
","
","","","-1","","","13","7256","3859","&#9761;","elianto","#3366ff99","-1","-1","1","+10","[]","0","0","2","","","","","","","",""
"pit-trial","42","436756","0.0-2.0-11.1-0.1","battery-v0.2","","""event"",""trial"",""time""
""fullscreenenter"",""1"",""6813""
","
","
","""event"",""trial"",""time""
""fullscreenenter"",""1"",""6813""
","
","","","-1","","","13","7256","3859","&#9761;","elianto","#3366ff99","-1","-1","1","+10","[]","0","0","2","","","","","","","",""
"pit-trial","43","441609","0.0-2.0-11.1-1.1","battery-v0.2","","""event"",""trial"",""time""
""fullscreenenter"",""1"",""6813""
","
","
","""event"",""trial"",""time""
""fullscreenenter"",""1"",""6813""
","
","","","-1","","","13","7256","3859","&#9761;","elianto","#3366ff99","-1","-1","1","+10","[]","0","0","2","","","","","","","",""
"pit-trial","44","446462","0.0-2.0-11.1-2.1","battery-v0.2","","""event"",""trial"",""time""
""fullscreenenter"",""1"",""6813""
","
","
","""event"",""trial"",""time""
""fullscreenenter"",""1"",""6813""
","
","","","-1","","","13","7256","3859","&#9761;","elianto","#3366ff99","-1","-1","1","+10","[]","0","0","2","","","","","","","",""
"pit-trial","45","451315","0.0-2.0-11.1-3.1","battery-v0.2","","""event"",""trial"",""time""
""fullscreenenter"",""1"",""6813""
","
","
","""event"",""trial"",""time""
""fullscreenenter"",""1"",""6813""
","
","","","-1","","","13","7256","3859","&#9761;","elianto","#3366ff99","-1","-1","1","0","[]","0","0","2","","","","","","","",""
"pit-trial","46","456169","0.0-2.0-11.1-4.1","battery-v0.2","","""event"",""trial"",""time""
""fullscreenenter"",""1"",""6813""
","
","
","""event"",""trial"",""time""
""fullscreenenter"",""1"",""6813""
","
","","","-1","","","13","7256","3859","&#9761;","elianto","#3366ff99","-1","-1","1","+10","[]","0","0","2","","","","","","","",""
"pit-trial","47","461022","0.0-2.0-11.2-0.2","battery-v0.2","","""event"",""trial"",""time""
""fullscreenenter"",""1"",""6813""
","
","
","""event"",""trial"",""time""
""fullscreenenter"",""1"",""6813""
","
","","","-1","","","13","7256","3859","&#9761;","elianto","#3366ff99","-1","-1","1","+10","[]","0","0","2","","","","","","","",""
"pit-trial","48","465875","0.0-2.0-11.2-1.2","battery-v0.2","","""event"",""trial"",""time""
""fullscreenenter"",""1"",""6813""
","
","
","""event"",""trial"",""time""
""fullscreenenter"",""1"",""6813""
","
","","","-1","","","13","7256","3859","&#9761;","elianto","#3366ff99","-1","-1","1","+10","[]","0","0","2","","","","","","","",""
"pit-trial","49","470728","0.0-2.0-11.2-2.2","battery-v0.2","","""event"",""trial"",""time""
""fullscreenenter"",""1"",""6813""
","
","
","""event"",""trial"",""time""
""fullscreenenter"",""1"",""6813""
","
","","","-1","","","13","7256","3859","&#9761;","elianto","#3366ff99","-1","-1","1","+10","[]","0","0","2","","","","","","","",""
"pit-trial","50","475580","0.0-2.0-11.2-3.2","battery-v0.2","","""event"",""trial"",""time""
""fullscreenenter"",""1"",""6813""
","
","
","""event"",""trial"",""time""
""fullscreenenter"",""1"",""6813""
","
","","","-1","","","13","7256","3859","&#9761;","elianto","#3366ff99","-1","-1","1","0","[]","0","0","2","","","","","","","",""
"pit-trial","51","480436","0.0-2.0-11.2-4.2","battery-v0.2","","""event"",""trial"",""time""
""fullscreenenter"",""1"",""6813""
","
","
","""event"",""trial"",""time""
""fullscreenenter"",""1"",""6813""
","
","","","-1","","","13","7256","3859","&#9761;","elianto","#3366ff99","-1","-1","1","+10","[]","0","0","2","","","","","","","",""
"pit-trial","52","485290","0.0-2.0-11.3-0.3","battery-v0.2","","""event"",""trial"",""time""
""fullscreenenter"",""1"",""6813""
","
","
","""event"",""trial"",""time""
""fullscreenenter"",""1"",""6813""
","
","","","-1","","","13","7256","3859","&#9761;","elianto","#3366ff99","-1","-1","1","+10","[]","0","0","2","","","","","","","",""
"pit-trial","53","490143","0.0-2.0-11.3-1.3","battery-v0.2","","""event"",""trial"",""time""
""fullscreenenter"",""1"",""6813""
","
","
","""event"",""trial"",""time""
""fullscreenenter"",""1"",""6813""
","
","","","-1","","","13","7256","3859","&#9761;","elianto","#3366ff99","-1","-1","1","+10","[]","0","0","2","","","","","","","",""
"pit-trial","54","494996","0.0-2.0-11.3-2.3","battery-v0.2","","""event"",""trial"",""time""
""fullscreenenter"",""1"",""6813""
","
","
","""event"",""trial"",""time""
""fullscreenenter"",""1"",""6813""
","
","","","-1","","","13","7256","3859","&#9761;","elianto","#3366ff99","-1","-1","1","+10","[]","0","0","2","","","","","","","",""
"pit-trial","55","499849","0.0-2.0-11.3-3.3","battery-v0.2","","""event"",""trial"",""time""
""fullscreenenter"",""1"",""6813""
","
","
","""event"",""trial"",""time""
""fullscreenenter"",""1"",""6813""
","
","","","-1","","","13","7256","3859","&#9761;","elianto","#3366ff99","-1","-1","1","0","[]","0","0","2","","","","","","","",""
"pit-trial","56","504701","0.0-2.0-11.3-4.3","battery-v0.2","","""event"",""trial"",""time""
""fullscreenenter"",""1"",""6813""
","
","
","""event"",""trial"",""time""
""fullscreenenter"",""1"",""6813""
","
","","","-1","","","13","7256","3859","&#9761;","elianto","#3366ff99","-1","-1","1","+10","[]","0","0","2","","","","","","","",""
"call-function","57","504703","0.0-2.0-12.0","battery-v0.2","","""event"",""trial"",""time""
""fullscreenenter"",""1"",""6813""
","
","
","""event"",""trial"",""time""
""fullscreenenter"",""1"",""6813""
","
","","","","","","","","","","","","","","","","","","","","","","","","","","",""
"pit-instructions","58","536648","0.0-2.0-13.0","battery-v0.2","","""event"",""trial"",""time""
""fullscreenenter"",""1"",""6813""
","
","
","""event"",""trial"",""time""
""fullscreenenter"",""1"",""6813""
","
","","[{""page_index"":0,""viewing_time"":5740.5},{""page_index"":1,""viewing_time"":6819.39999999851},{""page_index"":2,""viewing_time"":4656.39999999851},{""page_index"":3,""viewing_time"":10168.10000000149},{""page_index"":4,""viewing_time"":4560}]","31944.70000000298","","","","","","","","","","","","","","","","","","","","","","","",""
"pit-trial","59","540409","0.0-2.0-14.0-0.0","battery-v0.2","","""event"",""trial"",""time""
""fullscreenenter"",""1"",""6813""
","
","
","""event"",""trial"",""time""
""fullscreenenter"",""1"",""6813""
","
","","","886.5999999940395","","","13","7256","3859","&#9826;","elianto","#f73b6a7A","-1"," ","0","-10","[1746.5999999940395]","1","0","3","","","","","","","",""
"pit-trial","60","543704","0.0-2.0-14.0-1.0","battery-v0.2","","""event"",""trial"",""time""
""fullscreenenter"",""1"",""6813""
","
","
","""event"",""trial"",""time""
""fullscreenenter"",""1"",""6813""
","
","","","437.8999999985099","","","13","7256","3859","&#9826;","elianto","#f73b6a7A","-1"," ","0","-10","[1289.7000000029802]","1","0","3","","","","","","","",""
"pit-trial","61","548574","0.0-2.0-14.0-2.0","battery-v0.2","","""event"",""trial"",""time""
""fullscreenenter"",""1"",""6813""
","
","
","""event"",""trial"",""time""
""fullscreenenter"",""1"",""6813""
","
","","","-1","","","13","7256","3859","&#9826;","elianto","#f73b6a7A","-1","-1","1","0","[]","0","0","3","","","","","","","",""
"pit-trial","62","553454","0.0-2.0-14.0-3.0","battery-v0.2","","""event"",""trial"",""time""
""fullscreenenter"",""1"",""6813""
","
","
","""event"",""trial"",""time""
""fullscreenenter"",""1"",""6813""
","
","","","-1","","","13","7256","3859","&#9826;","elianto","#f73b6a7A","-1","-1","1","-10","[]","0","0","3","","","","","","","",""
"pit-trial","63","558334","0.0-2.0-14.0-4.0","battery-v0.2","","""event"",""trial"",""time""
""fullscreenenter"",""1"",""6813""
","
","
","""event"",""trial"",""time""
""fullscreenenter"",""1"",""6813""
","
","","","-1","","","13","7256","3859","&#9826;","elianto","#f73b6a7A","-1","-1","1","0","[]","0","0","3","","","","","","","",""
"pit-trial","64","563224","0.0-2.0-14.1-0.1","battery-v0.2","","""event"",""trial"",""time""
""fullscreenenter"",""1"",""6813""
","
","
","""event"",""trial"",""time""
""fullscreenenter"",""1"",""6813""
","
","","","-1","","","13","7256","3859","&#9826;","elianto","#f73b6a7A","-1","-1","1","0","[]","0","0","3","","","","","","","",""
"pit-trial","65","568084","0.0-2.0-14.1-1.1","battery-v0.2","","""event"",""trial"",""time""
""fullscreenenter"",""1"",""6813""
","
","
","""event"",""trial"",""time""
""fullscreenenter"",""1"",""6813""
","
","","","-1","","","13","7256","3859","&#9826;","elianto","#f73b6a7A","-1","-1","1","0","[]","0","0","3","","","","","","","",""
"pit-trial","66","572938","0.0-2.0-14.1-2.1","battery-v0.2","","""event"",""trial"",""time""
""fullscreenenter"",""1"",""6813""
","
","
","""event"",""trial"",""time""
""fullscreenenter"",""1"",""6813""
","
","","","-1","","","13","7256","3859","&#9826;","elianto","#f73b6a7A","-1","-1","1","0","[]","0","0","3","","","","","","","",""
"pit-trial","67","577790","0.0-2.0-14.1-3.1","battery-v0.2","","""event"",""trial"",""time""
""fullscreenenter"",""1"",""6813""
","
","
","""event"",""trial"",""time""
""fullscreenenter"",""1"",""6813""
","
","","","-1","","","13","7256","3859","&#9826;","elianto","#f73b6a7A","-1","-1","1","-10","[]","0","0","3","","","","","","","",""
"pit-trial","68","582643","0.0-2.0-14.1-4.1","battery-v0.2","","""event"",""trial"",""time""
""fullscreenenter"",""1"",""6813""
","
","
","""event"",""trial"",""time""
""fullscreenenter"",""1"",""6813""
","
","","","-1","","","13","7256","3859","&#9826;","elianto","#f73b6a7A","-1","-1","1","0","[]","0","0","3","","","","","","","",""
"pit-trial","69","587495","0.0-2.0-14.2-0.2","battery-v0.2","","""event"",""trial"",""time""
""fullscreenenter"",""1"",""6813""
","
","
","""event"",""trial"",""time""
""fullscreenenter"",""1"",""6813""
","
","","","-1","","","13","7256","3859","&#9826;","elianto","#f73b6a7A","-1","-1","1","0","[]","0","0","3","","","","","","","",""
"pit-trial","70","592348","0.0-2.0-14.2-1.2","battery-v0.2","","""event"",""trial"",""time""
""fullscreenenter"",""1"",""6813""
","
","
","""event"",""trial"",""time""
""fullscreenenter"",""1"",""6813""
","
","","","-1","","","13","7256","3859","&#9826;","elianto","#f73b6a7A","-1","-1","1","0","[]","0","0","3","","","","","","","",""
"pit-trial","71","597202","0.0-2.0-14.2-2.2","battery-v0.2","","""event"",""trial"",""time""
""fullscreenenter"",""1"",""6813""
","
","
","""event"",""trial"",""time""
""fullscreenenter"",""1"",""6813""
","
","","","-1","","","13","7256","3859","&#9826;","elianto","#f73b6a7A","-1","-1","1","0","[]","0","0","3","","","","","","","",""
"pit-trial","72","602055","0.0-2.0-14.2-3.2","battery-v0.2","","""event"",""trial"",""time""
""fullscreenenter"",""1"",""6813""
","
","
","""event"",""trial"",""time""
""fullscreenenter"",""1"",""6813""
","
","","","-1","","","13","7256","3859","&#9826;","elianto","#f73b6a7A","-1","-1","1","-10","[]","0","0","3","","","","","","","",""
"pit-trial","73","606908","0.0-2.0-14.2-4.2","battery-v0.2","","""event"",""trial"",""time""
""fullscreenenter"",""1"",""6813""
","
","
","""event"",""trial"",""time""
""fullscreenenter"",""1"",""6813""
","
","","","-1","","","13","7256","3859","&#9826;","elianto","#f73b6a7A","-1","-1","1","0","[]","0","0","3","","","","","","","",""
"pit-trial","74","611777","0.0-2.0-14.3-0.3","battery-v0.2","","""event"",""trial"",""time""
""fullscreenenter"",""1"",""6813""
","
","
","""event"",""trial"",""time""
""fullscreenenter"",""1"",""6813""
","
","","","-1","","","13","7256","3859","&#9826;","elianto","#f73b6a7A","-1","-1","1","0","[]","0","0","3","","","","","","","",""
"pit-trial","75","616630","0.0-2.0-14.3-1.3","battery-v0.2","","""event"",""trial"",""time""
""fullscreenenter"",""1"",""6813""
","
","
","""event"",""trial"",""time""
""fullscreenenter"",""1"",""6813""
","
","","","-1","","","13","7256","3859","&#9826;","elianto","#f73b6a7A","-1","-1","1","0","[]","0","0","3","","","","","","","",""
"pit-trial","76","621483","0.0-2.0-14.3-2.3","battery-v0.2","","""event"",""trial"",""time""
""fullscreenenter"",""1"",""6813""
","
","
","""event"",""trial"",""time""
""fullscreenenter"",""1"",""6813""
","
","","","-1","","","13","7256","3859","&#9826;","elianto","#f73b6a7A","-1","-1","1","0","[]","0","0","3","","","","","","","",""
"pit-trial","77","626336","0.0-2.0-14.3-3.3","battery-v0.2","","""event"",""trial"",""time""
""fullscreenenter"",""1"",""6813""
","
","
","""event"",""trial"",""time""
""fullscreenenter"",""1"",""6813""
","
","","","-1","","","13","7256","3859","&#9826;","elianto","#f73b6a7A","-1","-1","1","-10","[]","0","0","3","","","","","","","",""
"pit-trial","78","631188","0.0-2.0-14.3-4.3","battery-v0.2","","""event"",""trial"",""time""
""fullscreenenter"",""1"",""6813""
","
","
","""event"",""trial"",""time""
""fullscreenenter"",""1"",""6813""
","
","","","-1","","","13","7256","3859","&#9826;","elianto","#f73b6a7A","-1","-1","1","0","[]","0","0","3","","","","","","","",""
"call-function","79","631190","0.0-2.0-15.0","battery-v0.2","","""event"",""trial"",""time""
""fullscreenenter"",""1"",""6813""
","
","
","""event"",""trial"",""time""
""fullscreenenter"",""1"",""6813""
","
","","","","","","","","","","","","","","","","","","","","","","","","","","",""
"pit-instructions","80","655612","0.0-2.0-16.0","battery-v0.2","","""event"",""trial"",""time""
""fullscreenenter"",""1"",""6813""
","
","
","""event"",""trial"",""time""
""fullscreenenter"",""1"",""6813""
","
","","[{""page_index"":0,""viewing_time"":6917.60000000149},{""page_index"":1,""viewing_time"":8170},{""page_index"":2,""viewing_time"":4494},{""page_index"":3,""viewing_time"":4839.79999999702}]","24421.69999999553","","","","","","","","","","","","","","","","","","","","","","","",""
"pit-trial","81","659584","0.0-2.0-17.0-0.0","battery-v0.2","","""event"",""trial"",""time""
""fullscreenenter"",""1"",""6813""
","
","
","""event"",""trial"",""time""
""fullscreenenter"",""1"",""6813""
","
","","","1100.6000000014901","","","13","7256","3859","&#9789;","elianto","#f73b6a7A"," "," ","1","0","[1959]","1","0","4","","","","","","","",""
"pit-trial","82","662804","0.0-2.0-17.0-1.0","battery-v0.2","","""event"",""trial"",""time""
""fullscreenenter"",""1"",""6813""
","
","
","""event"",""trial"",""time""
""fullscreenenter"",""1"",""6813""
","
","","","350.29999999701977","","","13","7256","3859","&#9789;","elianto","#f73b6a7A"," "," ","1","0","[1202.0999999940395]","1","0","4","","","","","","","",""
"pit-trial","83","666184","0.0-2.0-17.0-2.0","battery-v0.2","","""event"",""trial"",""time""
""fullscreenenter"",""1"",""6813""
","
","
","""event"",""trial"",""time""
""fullscreenenter"",""1"",""6813""
","
","","","522.1999999955297","","","13","7256","3859","&#9789;","elianto","#f73b6a7A"," "," ","1","0","[1374.5]","1","0","4","","","","","","","",""
"pit-trial","84","669574","0.0-2.0-17.0-3.0","battery-v0.2","","""event"",""trial"",""time""
""fullscreenenter"",""1"",""6813""
","
","
","""event"",""trial"",""time""
""fullscreenenter"",""1"",""6813""
","
","","","526.2000000029802","","","13","7256","3859","&#9789;","elianto","#f73b6a7A"," "," ","1","-10","[1377.7999999970198]","1","0","4","","","","","","","",""
"pit-trial","85","672974","0.0-2.0-17.0-4.0","battery-v0.2","","""event"",""trial"",""time""
""fullscreenenter"",""1"",""6813""
","
","
","""event"",""trial"",""time""
""fullscreenenter"",""1"",""6813""
","
","","","535.5","","","13","7256","3859","&#9789;","elianto","#f73b6a7A"," "," ","1","0","[1388.5]","1","0","4","","","","","","","",""
"pit-trial","86","676264","0.0-2.0-17.1-0.1","battery-v0.2","","""event"",""trial"",""time""
""fullscreenenter"",""1"",""6813""
","
","
","""event"",""trial"",""time""
""fullscreenenter"",""1"",""6813""
","
","","","417.80000000447035","","","13","7256","3859","&#9789;","elianto","#f73b6a7A"," "," ","1","0","[1275.1000000014901]","1","0","4","","","","","","","",""
"pit-trial","87","679740","0.0-2.0-17.1-1.1","battery-v0.2","","""event"",""trial"",""time""
""fullscreenenter"",""1"",""6813""
","
","
","""event"",""trial"",""time""
""fullscreenenter"",""1"",""6813""
","
","","","611.2999999970198","","","13","7256","3859","&#9789;","elianto","#f73b6a7A"," "," ","1","0","[1465.7999999970198]","1","0","4","","","","","","","",""
"pit-trial","88","683064","0.0-2.0-17.1-2.1","battery-v0.2","","""event"",""trial"",""time""
""fullscreenenter"",""1"",""6813""
","
","
","""event"",""trial"",""time""
""fullscreenenter"",""1"",""6813""
","
","","","456.6000000014901","","","13","7256","3859","&#9789;","elianto","#f73b6a7A"," "," ","1","0","[1318.5]","1","0","4","","","","","","","",""
"pit-trial","89","686948","0.0-2.0-17.1-3.1","battery-v0.2","","""event"",""trial"",""time""
""fullscreenenter"",""1"",""6813""
","
","
","""event"",""trial"",""time""
""fullscreenenter"",""1"",""6813""
","
","","","1027.6000000014901","","","13","7256","3859","&#9789;","elianto","#f73b6a7A"," "," ","1","-10","[1882]","1","0","4","","","","","","","",""
"pit-trial","90","690277","0.0-2.0-17.1-4.1","battery-v0.2","","""event"",""trial"",""time""
""fullscreenenter"",""1"",""6813""
","
","
","""event"",""trial"",""time""
""fullscreenenter"",""1"",""6813""
","
","","","475.6000000014901","","","13","7256","3859","&#9789;","elianto","#f73b6a7A"," "," ","1","0","[1326.3999999985099]","1","0","4","","","","","","","",""
"pit-trial","91","693685","0.0-2.0-17.2-0.2","battery-v0.2","","""event"",""trial"",""time""
""fullscreenenter"",""1"",""6813""
","
","
","""event"",""trial"",""time""
""fullscreenenter"",""1"",""6813""
","
","","","554.3999999985099","","","13","7256","3859","&#9789;","elianto","#f73b6a7A"," "," ","1","0","[1404.3000000044703]","1","0","4","","","","","","","",""
"pit-trial","92","696853","0.0-2.0-17.2-1.2","battery-v0.2","","""event"",""trial"",""time""
""fullscreenenter"",""1"",""6813""
","
","
","""event"",""trial"",""time""
""fullscreenenter"",""1"",""6813""
","
","","","314.5","","","13","7256","3859","&#9789;","elianto","#f73b6a7A"," "," ","1","0","[1165.2999999970198]","1","0","4","","","","","","","",""
"pit-trial","93","700197","0.0-2.0-17.2-2.2","battery-v0.2","","""event"",""trial"",""time""
""fullscreenenter"",""1"",""6813""
","
","
","""event"",""trial"",""time""
""fullscreenenter"",""1"",""6813""
","
","","","490.1000000014901","","","13","7256","3859","&#9789;","elianto","#f73b6a7A"," "," ","1","0","[501.29999999701977,1341.2999999970198]","2","0","4","","","","","","","",""
"pit-trial","94","703884","0.0-2.0-17.2-3.2","battery-v0.2","","""event"",""trial"",""time""
""fullscreenenter"",""1"",""6813""
","
","
","""event"",""trial"",""time""
""fullscreenenter"",""1"",""6813""
","
","","","835.4000000059605","","","13","7256","3859","&#9789;","elianto","#f73b6a7A"," "," ","1","-10","[1685.8000000044703]","1","0","4","","","","","","","",""
"pit-trial","95","708738","0.0-2.0-17.2-4.2","battery-v0.2","","""event"",""trial"",""time""
""fullscreenenter"",""1"",""6813""
","
","
","""event"",""trial"",""time""
""fullscreenenter"",""1"",""6813""
","
","","","-1","","","13","7256","3859","&#9789;","elianto","#f73b6a7A"," ","-1","0","-10","[2917.7999999970198,3341.89999999851]","2","0","4","","","","","","","",""
"pit-trial","96","712253","0.0-2.0-17.3-0.3","battery-v0.2","","""event"",""trial"",""time""
""fullscreenenter"",""1"",""6813""
","
","
","""event"",""trial"",""time""
""fullscreenenter"",""1"",""6813""
","
","","","660.8999999985099","","","13","7256","3859","&#9789;","elianto","#f73b6a7A"," "," ","1","0","[1511.5]","1","0","4","","","","","","","",""
"pit-trial","97","715685","0.0-2.0-17.3-1.3","battery-v0.2","","""event"",""trial"",""time""
""fullscreenenter"",""1"",""6813""
","
","
","""event"",""trial"",""time""
""fullscreenenter"",""1"",""6813""
","
","","","579","","","13","7256","3859","&#9789;","elianto","#f73b6a7A"," "," ","1","0","[1430]","1","0","4","","","","","","","",""
"pit-trial","98","720220","0.0-2.0-17.3-2.3","battery-v0.2","","""event"",""trial"",""time""
""fullscreenenter"",""1"",""6813""
","
","
","""event"",""trial"",""time""
""fullscreenenter"",""1"",""6813""
","
","","","1681.3999999985099","","","13","7256","3859","&#9789;","elianto","#f73b6a7A"," "," ","1","0","[2533.5]","1","0","4","","","","","","","",""
"pit-trial","99","725005","0.0-2.0-17.3-3.3","battery-v0.2","","""event"",""trial"",""time""
""fullscreenenter"",""1"",""6813""
","
","
","""event"",""trial"",""time""
""fullscreenenter"",""1"",""6813""
","
","","","1931.8999999985099","","","13","7256","3859","&#9789;","elianto","#f73b6a7A"," "," ","1","-10","[2782]","1","0","4","","","","","","","",""
"pit-trial","100","729382","0.0-2.0-17.3-4.3","battery-v0.2","","""event"",""trial"",""time""
""fullscreenenter"",""1"",""6813""
","
","
","""event"",""trial"",""time""
""fullscreenenter"",""1"",""6813""
","
","","","1522.1000000014901","","","13","7256","3859","&#9789;","elianto","#f73b6a7A"," "," ","1","0","[2373.60000000149]","1","0","4","","","","","","","",""
"call-function","101","729383","0.0-2.0-18.0","battery-v0.2","","""event"",""trial"",""time""
""fullscreenenter"",""1"",""6813""
","
","
","""event"",""trial"",""time""
""fullscreenenter"",""1"",""6813""
","
","","","","","","","","","","","","","","","","","","","","","","","","","","",""
"pit-instructions","102","804560","0.0-2.0-19.0","battery-v0.2","","""event"",""trial"",""time""
""fullscreenenter"",""1"",""6813""
","
","
","""event"",""trial"",""time""
""fullscreenenter"",""1"",""6813""
","
","","[{""page_index"":0,""viewing_time"":12317.39999999851},{""page_index"":1,""viewing_time"":7762.39999999851},{""page_index"":2,""viewing_time"":13217.80000000447},{""page_index"":3,""viewing_time"":7244.0999999940395},{""page_index"":4,""viewing_time"":8420},{""page_index"":5,""viewing_time"":8440},{""page_index"":6,""viewing_time"":8274.10000000149},{""page_index"":7,""viewing_time"":5737.5},{""page_index"":8,""viewing_time"":3762.39999999851}]","75176","","","","","","","","","","","","","","","","","","","","","","","",""
"pit-comprehension","103","809207","0.0-2.0-20.0-0.0","battery-v0.2","","""event"",""trial"",""time""
""fullscreenenter"",""1"",""6813""
","
","
","""event"",""trial"",""time""
""fullscreenenter"",""1"",""6813""
","
","","","4643.89999999851","[""SPACE""]","0","13","7256","3859","","","","","","","","","","","","","","","","","","",""
"pit-instructions","104","813375","0.0-2.0-20.0-1.0","battery-v0.2","","""event"",""trial"",""time""
""fullscreenenter"",""1"",""6813""
","
","
","""event"",""trial"",""time""
""fullscreenenter"",""1"",""6813""
","
","","[{""page_index"":0,""viewing_time"":4140.39999999851}]","4140.70000000298","","","","","","","","","","","","","","","","","","","","","","","",""
"pit-comprehension","105","819444","0.0-2.0-21.0-0.0","battery-v0.2","","""event"",""trial"",""time""
""fullscreenenter"",""1"",""6813""
","
","
","""event"",""trial"",""time""
""fullscreenenter"",""1"",""6813""
","
","","","6065.5","[""10""]","0","13","7256","3859","","","","","","","","","","","","","","","","","","",""
"pit-instructions","106","821134","0.0-2.0-21.0-1.0","battery-v0.2","","""event"",""trial"",""time""
""fullscreenenter"",""1"",""6813""
","
","
","""event"",""trial"",""time""
""fullscreenenter"",""1"",""6813""
","
","","[{""page_index"":0,""viewing_time"":1663.8000000044703}]","1664","","","","","","","","","","","","","","","","","","","","","","","",""
"pit-comprehension","107","828048","0.0-2.0-22.0-0.0","battery-v0.2","","""event"",""trial"",""time""
""fullscreenenter"",""1"",""6813""
","
","
","""event"",""trial"",""time""
""fullscreenenter"",""1"",""6813""
","
","","","6911.70000000298","[""-10""]","1","13","7256","3859","","","","","","","","","","","","","","","","","","",""
"pit-instructions","108","834062","0.0-2.0-22.0-1.0","battery-v0.2","","""event"",""trial"",""time""
""fullscreenenter"",""1"",""6813""
","
","
","""event"",""trial"",""time""
""fullscreenenter"",""1"",""6813""
","
","","[{""page_index"":0,""viewing_time"":5987}]","5987.29999999702","","","","","","","","","","","","","","","","","","","","","","","",""
"pit-instructions","109","835946","0.0-2.0-22.0-2.0-0.0","battery-v0.2","","""event"",""trial"",""time""
""fullscreenenter"",""1"",""6813""
","
","
","""event"",""trial"",""time""
""fullscreenenter"",""1"",""6813""
","
","","[{""page_index"":0,""viewing_time"":1882.3000000044703}]","1882.3999999985099","","","","","","","","","","","","","","","","","","","","","","","",""
"pit-comprehension","110","843364","0.0-2.0-22.1-0.1","battery-v0.2","","""event"",""trial"",""time""
""fullscreenenter"",""1"",""6813""
","
","
","""event"",""trial"",""time""
""fullscreenenter"",""1"",""6813""
","
","","","7416.39999999851","[""0""]","0","13","7256","3859","","","","","","","","","","","","","","","","","","",""
"pit-instructions","111","845283","0.0-2.0-22.1-1.1","battery-v0.2","","""event"",""trial"",""time""
""fullscreenenter"",""1"",""6813""
","
","
","""event"",""trial"",""time""
""fullscreenenter"",""1"",""6813""
","
","","[{""page_index"":0,""viewing_time"":1889.7999999970198}]","1890.0999999940395","","","","","","","","","","","","","","","","","","","","","","","",""
"pit-comprehension","112","856904","0.0-2.0-23.0-0.0","battery-v0.2","","""event"",""trial"",""time""
""fullscreenenter"",""1"",""6813""
","
","
","""event"",""trial"",""time""
""fullscreenenter"",""1"",""6813""
","
","","","11618.29999999702","[""True""]","0","13","7256","3859","","","","","","","","","","","","","","","","","","",""
"pit-instructions","113","858947","0.0-2.0-23.0-1.0","battery-v0.2","","""event"",""trial"",""time""
""fullscreenenter"",""1"",""6813""
","
","
","""event"",""trial"",""time""
""fullscreenenter"",""1"",""6813""
","
","","[{""page_index"":0,""viewing_time"":2014.7000000029802}]","2014.8999999985099","","","","","","","","","","","","","","","","","","","","","","","",""
"pit-comprehension","114","866388","0.0-2.0-24.0-0.0","battery-v0.2","","""event"",""trial"",""time""
""fullscreenenter"",""1"",""6813""
","
","
","""event"",""trial"",""time""
""fullscreenenter"",""1"",""6813""
","
","","","7438.60000000149","[""True""]","0","13","7256","3859","","","","","","","","","","","","","","","","","","",""
"pit-instructions","115","867881","0.0-2.0-24.0-1.0","battery-v0.2","","""event"",""trial"",""time""
""fullscreenenter"",""1"",""6813""
","
","
","""event"",""trial"",""time""
""fullscreenenter"",""1"",""6813""
","
","","[{""page_index"":0,""viewing_time"":1463.5999999940395}]","1463.8999999985099","","","","","","","","","","","","","","","","","","","","","","","",""
"pit-comprehension","116","874492","0.0-2.0-25.0-0.0","battery-v0.2","","""event"",""trial"",""time""
""fullscreenenter"",""1"",""6813""
","
","
","""event"",""trial"",""time""
""fullscreenenter"",""1"",""6813""
","
","","","6608.79999999702","[""True""]","0","13","7256","3859","","","","","","","","","","","","","","","","","","",""
"pit-instructions","117","876006","0.0-2.0-25.0-1.0","battery-v0.2","","""event"",""trial"",""time""
""fullscreenenter"",""1"",""6813""
","
","
","""event"",""trial"",""time""
""fullscreenenter"",""1"",""6813""
","
","","[{""page_index"":0,""viewing_time"":1484.8999999985099}]","1485.1999999955297","","","","","","","","","","","","","","","","","","","","","","","",""
"pit-comprehension","118","881118","0.0-2.0-26.0-0.0","battery-v0.2","","""event"",""trial"",""time""
""fullscreenenter"",""1"",""6813""
","
","
","""event"",""trial"",""time""
""fullscreenenter"",""1"",""6813""
","
","","","5110.10000000149","[""False""]","0","13","7256","3859","","","","","","","","","","","","","","","","","","",""
"pit-instructions","119","882581","0.0-2.0-26.0-1.0","battery-v0.2","","""event"",""trial"",""time""
""fullscreenenter"",""1"",""6813""
","
","
","""event"",""trial"",""time""
""fullscreenenter"",""1"",""6813""
","
","","[{""page_index"":0,""viewing_time"":1434}]","1434.1999999955297","","","","","","","","","","","","","","","","","","","","","","","",""
"pit-instructions","120","899393","0.0-3.0","battery-v0.2","","""event"",""trial"",""time""
""fullscreenenter"",""1"",""6813""
","
","
","""event"",""trial"",""time""
""fullscreenenter"",""1"",""6813""
","
","","[{""page_index"":0,""viewing_time"":4036.0999999940395},{""page_index"":1,""viewing_time"":5356.10000000149},{""page_index"":2,""viewing_time"":7418}]","16810.39999999851","","","","","","","","","","","","","","","","","","","","","","","",""
"pit-trial","121","903515","0.0-4.0","battery-v0.2","","""event"",""trial"",""time""
""fullscreenenter"",""1"",""6813""
","
","
","""event"",""trial"",""time""
""fullscreenenter"",""1"",""6813""
","
","","","1259.6000000014901","","","13","7256","3859","&#9752;","elianto","#f73b6a7A"," "," ","1","0","[2110.60000000149]","1","1","","","7256","1","3","3","lose","go","0"
"pit-trial","122","907175","0.0-5.0","battery-v0.2","","""event"",""trial"",""time""
""fullscreenenter"",""1"",""6813""
","
","
","""event"",""trial"",""time""
""fullscreenenter"",""1"",""6813""
","
","","","788.6999999955297","","","13","7256","3859","&#9728;","elianto","#f73b6a7A","-1"," ","0","-10","[1647]","1","1","","","7256","2","0","4","lose","no-go","0"
"pit-trial","123","910895","0.0-6.0","battery-v0.2","","""event"",""trial"",""time""
""fullscreenenter"",""1"",""6813""
","
","
","""event"",""trial"",""time""
""fullscreenenter"",""1"",""6813""
","
","","","863.6000000014901","","","13","7256","3859","&#9730;","elianto","#3366ff99"," "," ","1","+10","[1715.2000000029802]","1","1","","","7256","3","1","1","win","go","0"
"pit-trial","124","914614","0.0-7.0","battery-v0.2","","""event"",""trial"",""time""
""fullscreenenter"",""1"",""6813""
","
","
","""event"",""trial"",""time""
""fullscreenenter"",""1"",""6813""
","
","","","847.9000000059605","","","13","7256","3859","&#9733;","elianto","#3366ff99","-1"," ","0","+10","[1699.4000000059605]","1","1","","","7256","4","2","2","win","no-go","1"
"pit-trial","125","918374","0.0-8.0","battery-v0.2","","""event"",""trial"",""time""
""fullscreenenter"",""1"",""6813""
","
","
","""event"",""trial"",""time""
""fullscreenenter"",""1"",""6813""
","
","","","894.3999999985099","","","13","7256","3859","&#9733;","elianto","#3366ff99","-1"," ","0","0","[1755.6000000014901]","1","1","","","7256","5","2","2","win","no-go","0"
"pit-trial","126","922134","0.0-9.0","battery-v0.2","","""event"",""trial"",""time""
""fullscreenenter"",""1"",""6813""
","
","
","""event"",""trial"",""time""
""fullscreenenter"",""1"",""6813""
","
","","","888","","","13","7256","3859","&#9752;","elianto","#f73b6a7A"," "," ","1","-10","[1739]","1","1","","","7256","6","3","3","lose","go","1"
"pit-trial","127","925724","0.0-10.0","battery-v0.2","","""event"",""trial"",""time""
""fullscreenenter"",""1"",""6813""
","
","
","""event"",""trial"",""time""
""fullscreenenter"",""1"",""6813""
","
","","","729","","","13","7256","3859","&#9728;","elianto","#f73b6a7A","-1"," ","0","-10","[1586.6000000014901]","1","1","","","7256","7","0","4","lose","no-go","0"
"pit-trial","128","929424","0.0-11.0","battery-v0.2","","""event"",""trial"",""time""
""fullscreenenter"",""1"",""6813""
","
","
","""event"",""trial"",""time""
""fullscreenenter"",""1"",""6813""
","
","","","826.6000000014901","","","13","7256","3859","&#9730;","elianto","#3366ff99"," "," ","1","+10","[1677.3999999985099]","1","1","","","7256","8","1","1","win","go","0"
"pit-trial","129","933180","0.0-12.0","battery-v0.2","","""event"",""trial"",""time""
""fullscreenenter"",""1"",""6813""
","
","
","""event"",""trial"",""time""
""fullscreenenter"",""1"",""6813""
","
","","","902.6000000014901","","","13","7256","3859","&#9733;","elianto","#3366ff99","-1"," ","0","0","[1753]","1","1","","","7256","9","2","2","win","no-go","0"
"pit-trial","130","937004","0.0-13.0","battery-v0.2","","""event"",""trial"",""time""
""fullscreenenter"",""1"",""6813""
","
","
","""event"",""trial"",""time""
""fullscreenenter"",""1"",""6813""
","
","","","970.7999999970198","","","13","7256","3859","&#9752;","elianto","#f73b6a7A"," "," ","1","0","[1821.7999999970198]","1","1","","","7256","10","3","3","lose","go","0"
"pit-trial","131","940612","0.0-14.0","battery-v0.2","","""event"",""trial"",""time""
""fullscreenenter"",""1"",""6813""
","
","
","""event"",""trial"",""time""
""fullscreenenter"",""1"",""6813""
","
","","","754.7999999970198","","","13","7256","3859","&#9730;","elianto","#3366ff99"," "," ","1","0","[1605.6999999955297]","1","1","","","7256","11","1","1","win","go","1"
"pit-trial","132","944251","0.0-15.0","battery-v0.2","","""event"",""trial"",""time""
""fullscreenenter"",""1"",""6813""
","
","
","""event"",""trial"",""time""
""fullscreenenter"",""1"",""6813""
","
","","","784.5","","","13","7256","3859","&#9728;","elianto","#f73b6a7A","-1"," ","0","-10","[1636.3999999985099]","1","1","","","7256","12","0","4","lose","no-go","0"
"pit-trial","133","948075","0.0-16.0","battery-v0.2","","""event"",""trial"",""time""
""fullscreenenter"",""1"",""6813""
","
","
","""event"",""trial"",""time""
""fullscreenenter"",""1"",""6813""
","
","","","971.5","","","13","7256","3859","&#9752;","elianto","#f73b6a7A"," "," ","1","0","[1821.8999999985099]","1","1","","","7256","13","3","3","lose","go","0"
"pit-trial","134","951764","0.0-17.0","battery-v0.2","","""event"",""trial"",""time""
""fullscreenenter"",""1"",""6813""
","
","
","""event"",""trial"",""time""
""fullscreenenter"",""1"",""6813""
","
","","","834.2999999970198","","","13","7256","3859","&#9733;","elianto","#3366ff99","-1"," ","0","0","[1686.1999999955297]","1","1","","","7256","14","2","2","win","no-go","0"
"pit-trial","135","956633","0.0-18.0","battery-v0.2","","""event"",""trial"",""time""
""fullscreenenter"",""1"",""6813""
","
","
","""event"",""trial"",""time""
""fullscreenenter"",""1"",""6813""
","
","","","-1","","","13","7256","3859","&#9728;","elianto","#f73b6a7A","-1","-1","1","-10","[]","0","1","","","7256","15","0","4","lose","no-go","1"
"pit-trial","136","961486","0.0-19.0","battery-v0.2","","""event"",""trial"",""time""
""fullscreenenter"",""1"",""6813""
","
","
","""event"",""trial"",""time""
""fullscreenenter"",""1"",""6813""
","
","","","-1","","","13","7256","3859","&#9730;","elianto","#3366ff99"," ","-1","0","0","[]","0","1","","","7256","16","1","1","win","go","0"
"pit-trial","137","965876","0.0-20.0","battery-v0.2","","""event"",""trial"",""time""
""fullscreenenter"",""1"",""6813""
","
","
","""event"",""trial"",""time""
""fullscreenenter"",""1"",""6813""
","
","","","1536.7000000029802","","","13","7256","3859","&#9752;","elianto","#f73b6a7A"," "," ","1","-10","[2387]","1","1","","","7256","17","3","3","lose","go","1"
"pit-trial","138","969860","0.0-21.0","battery-v0.2","","""event"",""trial"",""time""
""fullscreenenter"",""1"",""6813""
","
","
","""event"",""trial"",""time""
""fullscreenenter"",""1"",""6813""
","
","","","1131.3999999985099","","","13","7256","3859","&#9730;","elianto","#3366ff99"," "," ","1","+10","[1981.5]","1","1","","","7256","18","1","1","win","go","0"
"pit-trial","139","973364","0.0-22.0","battery-v0.2","","""event"",""trial"",""time""
""fullscreenenter"",""1"",""6813""
","
","
","""event"",""trial"",""time""
""fullscreenenter"",""1"",""6813""
","
","","","651","","","13","7256","3859","&#9733;","elianto","#3366ff99","-1"," ","0","0","[1501.4000000059605]","1","1","","","7256","19","2","2","win","no-go","0"
"pit-trial","140","978217","0.0-23.0","battery-v0.2","","""event"",""trial"",""time""
""fullscreenenter"",""1"",""6813""
","
","
","""event"",""trial"",""time""
""fullscreenenter"",""1"",""6813""
","
","","","-1","","","13","7256","3859","&#9728;","elianto","#f73b6a7A","-1","-1","1","0","[]","0","1","","","7256","20","0","4","lose","no-go","0"
"pit-instructions","141","991897","0.0-24.0","battery-v0.2","","""event"",""trial"",""time""
""fullscreenenter"",""1"",""6813""
","
","
","""event"",""trial"",""time""
""fullscreenenter"",""1"",""6813""
","
","","[{""page_index"":0,""viewing_time"":6500.30000000447},{""page_index"":1,""viewing_time"":7178.19999999553}]","13678.80000000447","","","","","","","","","","","","","","","","","","","","","","","",""
"pit-trial","142","995759","0.0-25.0","battery-v0.2","","""event"",""trial"",""time""
""fullscreenenter"",""1"",""6813""
","
","
","""event"",""trial"",""time""
""fullscreenenter"",""1"",""6813""
","
","","","981.8999999985099","","","13","7256","3859","m","elianto","#f73b6a7A","-1"," ","0","-10","[1840.3000000044703]","1","2","","","7256","21","0","4","lose","no-go","0"
"pit-trial","143","999239","0.0-26.0","battery-v0.2","","""event"",""trial"",""time""
""fullscreenenter"",""1"",""6813""
","
","
","""event"",""trial"",""time""
""fullscreenenter"",""1"",""6813""
","
","","","624.5","","","13","7256","3859","r","elianto","#3366ff99"," "," ","1","+10","[1475]","1","2","","","7256","22","1","1","win","go","0"
"pit-trial","144","1002829","0.0-27.0","battery-v0.2","","""event"",""trial"",""time""
""fullscreenenter"",""1"",""6813""
","
","
","""event"",""trial"",""time""
""fullscreenenter"",""1"",""6813""
","
","","","728.6000000014901","","","13","7256","3859","y","elianto","#f73b6a7A","-1"," ","0","-10","[1579]","1","2","","","7256","23","2","4","lose","no-go","0"
"pit-trial","145","1006398","0.0-28.0","battery-v0.2","","""event"",""trial"",""time""
""fullscreenenter"",""1"",""6813""
","
","
","""event"",""trial"",""time""
""fullscreenenter"",""1"",""6813""
","
","","","706.2999999970198","","","13","7256","3859","h","elianto","#f73b6a7A"," "," ","1","0","[1563.5999999940395]","1","2","","","7256","24","3","3","lose","go","0"
"pit-trial","146","1010028","0.0-29.0","battery-v0.2","","""event"",""trial"",""time""
""fullscreenenter"",""1"",""6813""
","
","
","""event"",""trial"",""time""
""fullscreenenter"",""1"",""6813""
","
","","","762.2999999970198","","","13","7256","3859","r","elianto","#3366ff99"," "," ","1","+10","[1619.3999999985099]","1","2","","","7256","25","1","1","win","go","0"
"pit-trial","147","1014909","0.0-30.0","battery-v0.2","","""event"",""trial"",""time""
""fullscreenenter"",""1"",""6813""
","
","
","""event"",""trial"",""time""
""fullscreenenter"",""1"",""6813""
","
","","","-1","","","13","7256","3859","m","elianto","#f73b6a7A","-1","-1","1","0","[]","0","2","","","7256","26","0","4","lose","no-go","0"
"pit-trial","148","1019789","0.0-31.0","battery-v0.2","","""event"",""trial"",""time""
""fullscreenenter"",""1"",""6813""
","
","
","""event"",""trial"",""time""
""fullscreenenter"",""1"",""6813""
","
","","","-1","","","13","7256","3859","y","elianto","#f73b6a7A","-1","-1","1","-10","[]","0","2","","","7256","27","2","4","lose","no-go","1"
"pit-trial","149","1023661","0.0-32.0","battery-v0.2","","""event"",""trial"",""time""
""fullscreenenter"",""1"",""6813""
","
","
","""event"",""trial"",""time""
""fullscreenenter"",""1"",""6813""
","
","","","1018","","","13","7256","3859","h","elianto","#f73b6a7A"," "," ","1","-10","[1869.1000000014901]","1","2","","","7256","28","3","3","lose","go","1"
"pit-trial","150","1028513","0.0-33.0","battery-v0.2","","""event"",""trial"",""time""
""fullscreenenter"",""1"",""6813""
","
","
","""event"",""trial"",""time""
""fullscreenenter"",""1"",""6813""
","
","","","-1","","","13","7256","3859","y","elianto","#f73b6a7A","-1","-1","1","-10","[]","0","2","","","7256","29","2","4","lose","no-go","1"
"pit-trial","151","1032156","0.0-34.0","battery-v0.2","","""event"",""trial"",""time""
""fullscreenenter"",""1"",""6813""
","
","
","""event"",""trial"",""time""
""fullscreenenter"",""1"",""6813""
","
","","","789.6000000014901","","","13","7256","3859","r","elianto","#3366ff99"," "," ","1","+10","[1640]","1","2","","","7256","30","1","1","win","go","0"
"pit-trial","152","1037009","0.0-35.0","battery-v0.2","","""event"",""trial"",""time""
""fullscreenenter"",""1"",""6813""
","
","
","""event"",""trial"",""time""
""fullscreenenter"",""1"",""6813""
","
","","","-1","","","13","7256","3859","m","elianto","#f73b6a7A","-1","-1","1","-10","[]","0","2","","","7256","31","0","4","lose","no-go","1"
"pit-trial","153","1040860","0.0-36.0","battery-v0.2","","""event"",""trial"",""time""
""fullscreenenter"",""1"",""6813""
","
","
","""event"",""trial"",""time""
""fullscreenenter"",""1"",""6813""
","
","","","996.2999999970198","","","13","7256","3859","h","elianto","#f73b6a7A"," "," ","1","0","[1848.8999999985099]","1","2","","","7256","32","3","3","lose","go","0"
"pit-trial","154","1045005","0.0-37.0","battery-v0.2","","""event"",""trial"",""time""
""fullscreenenter"",""1"",""6813""
","
","
","""event"",""trial"",""time""
""fullscreenenter"",""1"",""6813""
","
","","","1291.8999999985099","","","13","7256","3859","y","elianto","#f73b6a7A","-1"," ","0","-10","[2142.1999999955297]","1","2","","","7256","33","2","4","lose","no-go","0"
"pit-trial","155","1049236","0.0-38.0","battery-v0.2","","""event"",""trial"",""time""
""fullscreenenter"",""1"",""6813""
","
","
","""event"",""trial"",""time""
""fullscreenenter"",""1"",""6813""
","
","","","1377.6999999955297","","","13","7256","3859","r","elianto","#3366ff99"," "," ","1","+10","[2229]","1","2","","","7256","34","1","1","win","go","0"
"pit-trial","156","1052988","0.0-39.0","battery-v0.2","","""event"",""trial"",""time""
""fullscreenenter"",""1"",""6813""
","
","
","""event"",""trial"",""time""
""fullscreenenter"",""1"",""6813""
","
","","","899.8999999985099","","","13","7256","3859","h","elianto","#f73b6a7A"," "," ","1","0","[1750.6000000014901]","1","2","","","7256","35","3","3","lose","go","0"
"pit-trial","157","1057841","0.0-40.0","battery-v0.2","","""event"",""trial"",""time""
""fullscreenenter"",""1"",""6813""
","
","
","""event"",""trial"",""time""
""fullscreenenter"",""1"",""6813""
","
","","","-1","","","13","7256","3859","m","elianto","#f73b6a7A","-1","-1","1","0","[]","0","2","","","7256","36","0","4","lose","no-go","0"
"pit-trial","158","1061380","0.0-41.0","battery-v0.2","","""event"",""trial"",""time""
""fullscreenenter"",""1"",""6813""
","
","
","""event"",""trial"",""time""
""fullscreenenter"",""1"",""6813""
","
","","","685.1000000014901","","","13","7256","3859","r","elianto","#3366ff99"," "," ","1","0","[1536.2999999970198]","1","2","","","7256","37","1","1","win","go","1"
"pit-trial","159","1066238","0.0-42.0","battery-v0.2","","""event"",""trial"",""time""
""fullscreenenter"",""1"",""6813""
","
","
","""event"",""trial"",""time""
""fullscreenenter"",""1"",""6813""
","
","","","-1","","","13","7256","3859","m","elianto","#f73b6a7A","-1","-1","1","0","[]","0","2","","","7256","38","0","4","lose","no-go","0"
"pit-trial","160","1069837","0.0-43.0","battery-v0.2","","""event"",""trial"",""time""
""fullscreenenter"",""1"",""6813""
","
","
","""event"",""trial"",""time""
""fullscreenenter"",""1"",""6813""
","
","","","744.2999999970198","","","13","7256","3859","h","elianto","#f73b6a7A"," "," ","1","0","[1596.5]","1","2","","","7256","39","3","3","lose","go","0"
"pit-trial","161","1074689","0.0-44.0","battery-v0.2","","""event"",""trial"",""time""
""fullscreenenter"",""1"",""6813""
","
","
","""event"",""trial"",""time""
""fullscreenenter"",""1"",""6813""
","
","","","-1","","","13","7256","3859","y","elianto","#f73b6a7A","-1","-1","1","0","[]","0","2","","","7256","40","2","4","lose","no-go","0"
"pit-trial","162","1079543","0.0-45.0","battery-v0.2","","""event"",""trial"",""time""
""fullscreenenter"",""1"",""6813""
","
","
","""event"",""trial"",""time""
""fullscreenenter"",""1"",""6813""
","
","","","-1","","","13","7256","3859","y","elianto","#f73b6a7A","-1","-1","1","0","[]","0","2","","","7256","41","2","4","lose","no-go","0"
"pit-trial","163","1083068","0.0-46.0","battery-v0.2","","""event"",""trial"",""time""
""fullscreenenter"",""1"",""6813""
","
","
","""event"",""trial"",""time""
""fullscreenenter"",""1"",""6813""
","
","","","672.7999999970198","","","13","7256","3859","h","elianto","#f73b6a7A"," "," ","1","-10","[1523.1000000014901]","1","2","","","7256","42","3","3","lose","go","1"
"pit-trial","164","1087920","0.0-47.0","battery-v0.2","","""event"",""trial"",""time""
""fullscreenenter"",""1"",""6813""
","
","
","""event"",""trial"",""time""
""fullscreenenter"",""1"",""6813""
","
","","","-1","","","13","7256","3859","m","elianto","#f73b6a7A","-1","-1","1","0","[]","0","2","","","7256","43","0","4","lose","no-go","0"
"pit-trial","165","1091284","0.0-48.0","battery-v0.2","","""event"",""trial"",""time""
""fullscreenenter"",""1"",""6813""
","
","
","""event"",""trial"",""time""
""fullscreenenter"",""1"",""6813""
","
","","","509.5","","","13","7256","3859","r","elianto","#3366ff99"," "," ","1","+10","[1360.8999999985099]","1","2","","","7256","44","1","1","win","go","0"
"pit-trial","166","1096137","0.0-49.0","battery-v0.2","","""event"",""trial"",""time""
""fullscreenenter"",""1"",""6813""
","
","
","""event"",""trial"",""time""
""fullscreenenter"",""1"",""6813""
","
","","","-1","","","13","7256","3859","m","elianto","#f73b6a7A","-1","-1","1","0","[]","0","2","","","7256","45","0","4","lose","no-go","0"
"pit-trial","167","1100004","0.0-50.0","battery-v0.2","","""event"",""trial"",""time""
""fullscreenenter"",""1"",""6813""
","
","
","""event"",""trial"",""time""
""fullscreenenter"",""1"",""6813""
","
","","","1013.8999999985099","","","13","7256","3859","z","elianto","#3366ff99","-1"," ","0","0","[1864.5999999940395]","1","2","","","7256","46","4","2","win","no-go","0"
"pit-trial","168","1104867","0.0-51.0","battery-v0.2","","""event"",""trial"",""time""
""fullscreenenter"",""1"",""6813""
","
","
","""event"",""trial"",""time""
""fullscreenenter"",""1"",""6813""
","
","","","-1","","","13","7256","3859","y","elianto","#f73b6a7A","-1","-1","1","-10","[]","0","2","","","7256","47","2","4","lose","no-go","1"
"pit-trial","169","1108580","0.0-52.0","battery-v0.2","","""event"",""trial"",""time""
""fullscreenenter"",""1"",""6813""
","
","
","""event"",""trial"",""time""
""fullscreenenter"",""1"",""6813""
","
","","","860.2000000029802","","","13","7256","3859","h","elianto","#f73b6a7A"," "," ","1","-10","[1710.7999999970198]","1","2","","","7256","48","3","3","lose","go","1"
"pit-trial","170","1113432","0.0-53.0","battery-v0.2","","""event"",""trial"",""time""
""fullscreenenter"",""1"",""6813""
","
","
","""event"",""trial"",""time""
""fullscreenenter"",""1"",""6813""
","
","","","-1","","","13","7256","3859","m","elianto","#f73b6a7A","-1","-1","1","0","[]","0","2","","","7256","49","0","4","lose","no-go","0"
"pit-trial","171","1117044","0.0-54.0","battery-v0.2","","""event"",""trial"",""time""
""fullscreenenter"",""1"",""6813""
","
","
","""event"",""trial"",""time""
""fullscreenenter"",""1"",""6813""
","
","","","759.2000000029802","","","13","7256","3859","r","elianto","#3366ff99"," "," ","1","+10","[1609.5]","1","2","","","7256","50","1","1","win","go","0"
"pit-trial","172","1120596","0.0-55.0","battery-v0.2","","""event"",""trial"",""time""
""fullscreenenter"",""1"",""6813""
","
","
","""event"",""trial"",""time""
""fullscreenenter"",""1"",""6813""
","
","","","697.6000000014901","","","13","7256","3859","z","elianto","#3366ff99","-1"," ","0","0","[1549.2999999970198]","1","2","","","7256","51","4","2","win","no-go","0"
"pit-trial","173","1124179","0.0-56.0","battery-v0.2","","""event"",""trial"",""time""
""fullscreenenter"",""1"",""6813""
","
","
","""event"",""trial"",""time""
""fullscreenenter"",""1"",""6813""
","
","","","728.6999999955297","","","13","7256","3859","h","elianto","#f73b6a7A"," "," ","1","0","[1579.7999999970198]","1","2","","","7256","52","3","3","lose","go","0"
"pit-trial","174","1129033","0.0-57.0","battery-v0.2","","""event"",""trial"",""time""
""fullscreenenter"",""1"",""6813""
","
","
","""event"",""trial"",""time""
""fullscreenenter"",""1"",""6813""
","
","","","-1","","","13","7256","3859","m","elianto","#f73b6a7A","-1","-1","1","0","[]","0","2","","","7256","53","0","4","lose","no-go","0"
"pit-trial","175","1132628","0.0-58.0","battery-v0.2","","""event"",""trial"",""time""
""fullscreenenter"",""1"",""6813""
","
","
","""event"",""trial"",""time""
""fullscreenenter"",""1"",""6813""
","
","","","742.6000000014901","","","13","7256","3859","r","elianto","#3366ff99"," "," ","1","+10","[1593]","1","2","","","7256","54","1","1","win","go","0"
"pit-trial","176","1137481","0.0-59.0","battery-v0.2","","""event"",""trial"",""time""
""fullscreenenter"",""1"",""6813""
","
","
","""event"",""trial"",""time""
""fullscreenenter"",""1"",""6813""
","
","","","-1","","","13","7256","3859","z","elianto","#3366ff99","-1","-1","1","0","[]","0","2","","","7256","55","4","2","win","no-go","1"
"pit-trial","177","1141827","0.0-60.0","battery-v0.2","","""event"",""trial"",""time""
""fullscreenenter"",""1"",""6813""
","
","
","""event"",""trial"",""time""
""fullscreenenter"",""1"",""6813""
","
","","","1493.8999999985099","","","13","7256","3859","y","elianto","#f73b6a7A","-1"," ","0","-10","[2344.1999999955297]","1","2","","","7256","56","2","4","lose","no-go","0"
"pit-trial","178","1145732","0.0-61.0","battery-v0.2","","""event"",""trial"",""time""
""fullscreenenter"",""1"",""6813""
","
","
","""event"",""trial"",""time""
""fullscreenenter"",""1"",""6813""
","
","","","1050.8999999985099","","","13","7256","3859","h","elianto","#f73b6a7A"," "," ","1","-10","[1901.6000000014901]","1","2","","","7256","57","3","3","lose","go","1"
"pit-trial","179","1149315","0.0-62.0","battery-v0.2","","""event"",""trial"",""time""
""fullscreenenter"",""1"",""6813""
","
","
","""event"",""trial"",""time""
""fullscreenenter"",""1"",""6813""
","
","","","730.7000000029802","","","13","7256","3859","r","elianto","#3366ff99"," "," ","1","+10","[1581.5]","1","2","","","7256","58","1","1","win","go","0"
"pit-trial","180","1154168","0.0-63.0","battery-v0.2","","""event"",""trial"",""time""
""fullscreenenter"",""1"",""6813""
","
","
","""event"",""trial"",""time""
""fullscreenenter"",""1"",""6813""
","
","","","-1","","","13","7256","3859","m","elianto","#f73b6a7A","-1","-1","1","0","[]","0","2","","","7256","59","0","4","lose","no-go","0"
"pit-trial","181","1159022","0.0-64.0","battery-v0.2","","""event"",""trial"",""time""
""fullscreenenter"",""1"",""6813""
","
","
","""event"",""trial"",""time""
""fullscreenenter"",""1"",""6813""
","
","","","-1","","","13","7256","3859","z","elianto","#3366ff99","-1","-1","1","+10","[]","0","2","","","7256","60","4","2","win","no-go","0"
"pit-trial","182","1163875","0.0-65.0","battery-v0.2","","""event"",""trial"",""time""
""fullscreenenter"",""1"",""6813""
","
","
","""event"",""trial"",""time""
""fullscreenenter"",""1"",""6813""
","
","","","-1","","","13","7256","3859","z","elianto","#3366ff99","-1","-1","1","+10","[]","0","2","","","7256","61","4","2","win","no-go","0"
"pit-trial","183","1167428","0.0-66.0","battery-v0.2","","""event"",""trial"",""time""
""fullscreenenter"",""1"",""6813""
","
","
","""event"",""trial"",""time""
""fullscreenenter"",""1"",""6813""
","
","","","699.8000000044703","","","13","7256","3859","r","elianto","#3366ff99"," "," ","1","+10","[1550.8000000044703]","1","2","","","7256","62","1","1","win","go","0"
"pit-trial","184","1171852","0.0-67.0","battery-v0.2","","""event"",""trial"",""time""
""fullscreenenter"",""1"",""6813""
","
","
","""event"",""trial"",""time""
""fullscreenenter"",""1"",""6813""
","
","","","1571.2999999970198","","","13","7256","3859","h","elianto","#f73b6a7A"," "," ","1","-10","[2421.5]","1","2","","","7256","63","3","3","lose","go","1"
"pit-trial","185","1176705","0.0-68.0","battery-v0.2","","""event"",""trial"",""time""
""fullscreenenter"",""1"",""6813""
","
","
","""event"",""trial"",""time""
""fullscreenenter"",""1"",""6813""
","
","","","-1","","","13","7256","3859","y","elianto","#f73b6a7A","-1","-1","1","0","[]","0","2","","","7256","64","2","4","lose","no-go","0"
"pit-trial","186","1181558","0.0-69.0","battery-v0.2","","""event"",""trial"",""time""
""fullscreenenter"",""1"",""6813""
","
","
","""event"",""trial"",""time""
""fullscreenenter"",""1"",""6813""
","
","","","-1","","","13","7256","3859","y","elianto","#f73b6a7A","-1","-1","1","0","[]","0","2","","","7256","65","2","4","lose","no-go","0"
"pit-trial","187","1185348","0.0-70.0","battery-v0.2","","""event"",""trial"",""time""
""fullscreenenter"",""1"",""6813""
","
","
","""event"",""trial"",""time""
""fullscreenenter"",""1"",""6813""
","
","","","936.1000000014901","","","13","7256","3859","r","elianto","#3366ff99"," "," ","1","+10","[1787]","1","2","","","7256","66","1","1","win","go","0"
"pit-trial","188","1190202","0.0-71.0","battery-v0.2","","""event"",""trial"",""time""
""fullscreenenter"",""1"",""6813""
","
","
","""event"",""trial"",""time""
""fullscreenenter"",""1"",""6813""
","
","","","-1","","","13","7256","3859","h","elianto","#f73b6a7A"," ","-1","0","-10","[]","0","2","","","7256","67","3","3","lose","go","0"
"pit-trial","189","1195056","0.0-72.0","battery-v0.2","","""event"",""trial"",""time""
""fullscreenenter"",""1"",""6813""
","
","
","""event"",""trial"",""time""
""fullscreenenter"",""1"",""6813""
","
","","","-1","","","13","7256","3859","z","elianto","#3366ff99","-1","-1","1","0","[]","0","2","","","7256","68","4","2","win","no-go","1"
"pit-trial","190","1199147","0.0-73.0","battery-v0.2","","""event"",""trial"",""time""
""fullscreenenter"",""1"",""6813""
","
","
","""event"",""trial"",""time""
""fullscreenenter"",""1"",""6813""
","
","","","1239.6999999955297","","","13","7256","3859","h","elianto","#f73b6a7A"," "," ","1","0","[2090]","1","2","","","7256","69","3","3","lose","go","0"
"pit-trial","191","1202709","0.0-74.0","battery-v0.2","","""event"",""trial"",""time""
""fullscreenenter"",""1"",""6813""
","
","
","""event"",""trial"",""time""
""fullscreenenter"",""1"",""6813""
","
","","","707.8999999985099","","","13","7256","3859","r","elianto","#3366ff99"," "," ","1","+10","[1558.0999999940395]","1","2","","","7256","70","1","1","win","go","0"
"pit-trial","192","1206428","0.0-75.0","battery-v0.2","","""event"",""trial"",""time""
""fullscreenenter"",""1"",""6813""
","
","
","""event"",""trial"",""time""
""fullscreenenter"",""1"",""6813""
","
","","","865.5","","","13","7256","3859","c","elianto","#3366ff99"," "," ","1","0","[1716.7000000029802]","1","2","","","7256","71","5","1","win","go","1"
"pit-trial","193","1211286","0.0-76.0","battery-v0.2","","""event"",""trial"",""time""
""fullscreenenter"",""1"",""6813""
","
","
","""event"",""trial"",""time""
""fullscreenenter"",""1"",""6813""
","
","","","-1","","","13","7256","3859","z","elianto","#3366ff99","-1","-1","1","+10","[]","0","2","","","7256","72","4","2","win","no-go","0"
"pit-trial","194","1216140","0.0-77.0","battery-v0.2","","""event"",""trial"",""time""
""fullscreenenter"",""1"",""6813""
","
","
","""event"",""trial"",""time""
""fullscreenenter"",""1"",""6813""
","
","","","-1","","","13","7256","3859","h","elianto","#f73b6a7A"," ","-1","0","-10","[]","0","2","","","7256","73","3","3","lose","go","0"
"pit-trial","195","1220992","0.0-78.0","battery-v0.2","","""event"",""trial"",""time""
""fullscreenenter"",""1"",""6813""
","
","
","""event"",""trial"",""time""
""fullscreenenter"",""1"",""6813""
","
","","","-1","","","13","7256","3859","z","elianto","#3366ff99","-1","-1","1","0","[]","0","2","","","7256","74","4","2","win","no-go","1"
"pit-trial","196","1224539","0.0-79.0","battery-v0.2","","""event"",""trial"",""time""
""fullscreenenter"",""1"",""6813""
","
","
","""event"",""trial"",""time""
""fullscreenenter"",""1"",""6813""
","
","","","693.6000000014901","","","13","7256","3859","r","elianto","#3366ff99"," "," ","1","+10","[1544.1999999955297]","1","2","","","7256","75","1","1","win","go","0"
"pit-trial","197","1229392","0.0-80.0","battery-v0.2","","""event"",""trial"",""time""
""fullscreenenter"",""1"",""6813""
","
","
","""event"",""trial"",""time""
""fullscreenenter"",""1"",""6813""
","
","","","-1","","","13","7256","3859","c","elianto","#3366ff99"," ","-1","0","0","[]","0","2","","","7256","76","5","1","win","go","0"
"pit-trial","198","1233172","0.0-81.0","battery-v0.2","","""event"",""trial"",""time""
""fullscreenenter"",""1"",""6813""
","
","
","""event"",""trial"",""time""
""fullscreenenter"",""1"",""6813""
","
","","","926.5","","","13","7256","3859","c","elianto","#3366ff99"," "," ","1","+10","[1776.6000000014901]","1","2","","","7256","77","5","1","win","go","0"
"pit-trial","199","1237435","0.0-82.0","battery-v0.2","","""event"",""trial"",""time""
""fullscreenenter"",""1"",""6813""
","
","
","""event"",""trial"",""time""
""fullscreenenter"",""1"",""6813""
","
","","","1410.3999999985099","","","13","7256","3859","b","elianto","#f73b6a7A","-1"," ","0","-10","[2261.39999999851]","1","2","","","7256","78","6","4","lose","no-go","0"
"pit-trial","200","1241116","0.0-83.0","battery-v0.2","","""event"",""trial"",""time""
""fullscreenenter"",""1"",""6813""
","
","
","""event"",""trial"",""time""
""fullscreenenter"",""1"",""6813""
","
","","","827.5","","","13","7256","3859","h","elianto","#f73b6a7A"," "," ","1","0","[1677.8000000044703]","1","2","","","7256","79","3","3","lose","go","0"
"pit-trial","201","1245969","0.0-84.0","battery-v0.2","","""event"",""trial"",""time""
""fullscreenenter"",""1"",""6813""
","
","
","""event"",""trial"",""time""
""fullscreenenter"",""1"",""6813""
","
","","","-1","","","13","7256","3859","z","elianto","#3366ff99","-1","-1","1","+10","[]","0","2","","","7256","80","4","2","win","no-go","0"
"pit-trial","202","1250822","0.0-85.0","battery-v0.2","","""event"",""trial"",""time""
""fullscreenenter"",""1"",""6813""
","
","
","""event"",""trial"",""time""
""fullscreenenter"",""1"",""6813""
","
","","","-1","","","13","7256","3859","z","elianto","#3366ff99","-1","-1","1","+10","[]","0","2","","","7256","81","4","2","win","no-go","0"
"pit-trial","203","1254483","0.0-86.0","battery-v0.2","","""event"",""trial"",""time""
""fullscreenenter"",""1"",""6813""
","
","
","""event"",""trial"",""time""
""fullscreenenter"",""1"",""6813""
","
","","","808.4000000059605","","","13","7256","3859","c","elianto","#3366ff99"," "," ","1","+10","[1658.7000000029802]","1","2","","","7256","82","5","1","win","go","0"
"pit-trial","204","1258242","0.0-87.0","battery-v0.2","","""event"",""trial"",""time""
""fullscreenenter"",""1"",""6813""
","
","
","""event"",""trial"",""time""
""fullscreenenter"",""1"",""6813""
","
","","","907.0999999940395","","","13","7256","3859","t","elianto","#f73b6a7A"," "," ","1","0","[1757.5]","1","2","","","7256","83","7","3","lose","go","0"
"pit-trial","205","1262939","0.0-88.0","battery-v0.2","","""event"",""trial"",""time""
""fullscreenenter"",""1"",""6813""
","
","
","""event"",""trial"",""time""
""fullscreenenter"",""1"",""6813""
","
","","","1844.7999999970198","","","13","7256","3859","b","elianto","#f73b6a7A","-1"," ","0","-10","[2695.1999999955297]","1","2","","","7256","84","6","4","lose","no-go","0"
"pit-trial","206","1266444","0.0-89.0","battery-v0.2","","""event"",""trial"",""time""
""fullscreenenter"",""1"",""6813""
","
","
","""event"",""trial"",""time""
""fullscreenenter"",""1"",""6813""
","
","","","651.6000000014901","","","13","7256","3859","c","elianto","#3366ff99"," "," ","1","+10","[1502.1000000014901]","1","2","","","7256","85","5","1","win","go","0"
"pit-trial","207","1270363","0.0-90.0","battery-v0.2","","""event"",""trial"",""time""
""fullscreenenter"",""1"",""6813""
","
","
","""event"",""trial"",""time""
""fullscreenenter"",""1"",""6813""
","
","","","1066.3000000044703","","","13","7256","3859","t","elianto","#f73b6a7A"," "," ","1","0","[1917]","1","2","","","7256","86","7","3","lose","go","0"
"pit-trial","208","1274075","0.0-91.0","battery-v0.2","","""event"",""trial"",""time""
""fullscreenenter"",""1"",""6813""
","
","
","""event"",""trial"",""time""
""fullscreenenter"",""1"",""6813""
","
","","","859.6000000014901","","","13","7256","3859","b","elianto","#f73b6a7A","-1"," ","0","-10","[1710.2000000029802]","1","2","","","7256","87","6","4","lose","no-go","0"
"pit-trial","209","1278928","0.0-92.0","battery-v0.2","","""event"",""trial"",""time""
""fullscreenenter"",""1"",""6813""
","
","
","""event"",""trial"",""time""
""fullscreenenter"",""1"",""6813""
","
","","","-1","","","13","7256","3859","z","elianto","#3366ff99","-1","-1","1","+10","[]","0","2","","","7256","88","4","2","win","no-go","0"
"pit-trial","210","1283783","0.0-93.0","battery-v0.2","","""event"",""trial"",""time""
""fullscreenenter"",""1"",""6813""
","
","
","""event"",""trial"",""time""
""fullscreenenter"",""1"",""6813""
","
","","","-1","","","13","7256","3859","z","elianto","#3366ff99","-1","-1","1","+10","[]","0","2","","","7256","89","4","2","win","no-go","0"
"pit-trial","211","1287509","0.0-94.0","battery-v0.2","","""event"",""trial"",""time""
""fullscreenenter"",""1"",""6813""
","
","
","""event"",""trial"",""time""
""fullscreenenter"",""1"",""6813""
","
","","","872.1999999955297","","","13","7256","3859","t","elianto","#f73b6a7A"," "," ","1","0","[1722.7999999970198]","1","2","","","7256","90","7","3","lose","go","0"
"pit-trial","212","1290996","0.0-95.0","battery-v0.2","","""event"",""trial"",""time""
""fullscreenenter"",""1"",""6813""
","
","
","""event"",""trial"",""time""
""fullscreenenter"",""1"",""6813""
","
","","","633.6000000014901","","","13","7256","3859","c","elianto","#3366ff99"," "," ","1","+10","[1484.3999999985099]","1","2","","","7256","91","5","1","win","go","0"
"pit-trial","213","1295850","0.0-96.0","battery-v0.2","","""event"",""trial"",""time""
""fullscreenenter"",""1"",""6813""
","
","
","""event"",""trial"",""time""
""fullscreenenter"",""1"",""6813""
","
","","","-1","","","13","7256","3859","b","elianto","#f73b6a7A","-1","-1","1","0","[]","0","2","","","7256","92","6","4","lose","no-go","0"
"pit-trial","214","1299332","0.0-97.0","battery-v0.2","","""event"",""trial"",""time""
""fullscreenenter"",""1"",""6813""
","
","
","""event"",""trial"",""time""
""fullscreenenter"",""1"",""6813""
","
","","","629.1999999955297","","","13","7256","3859","c","elianto","#3366ff99"," "," ","1","+10","[1479.8000000044703]","1","2","","","7256","93","5","1","win","go","0"
"pit-trial","215","1303108","0.0-98.0","battery-v0.2","","""event"",""trial"",""time""
""fullscreenenter"",""1"",""6813""
","
","
","""event"",""trial"",""time""
""fullscreenenter"",""1"",""6813""
","
","","","922.3999999985099","","","13","7256","3859","f","elianto","#3366ff99","-1"," ","0","0","[1773]","1","2","","","7256","94","8","2","win","no-go","0"
"pit-trial","216","1307961","0.0-99.0","battery-v0.2","","""event"",""trial"",""time""
""fullscreenenter"",""1"",""6813""
","
","
","""event"",""trial"",""time""
""fullscreenenter"",""1"",""6813""
","
","","","-1","","","13","7256","3859","b","elianto","#f73b6a7A","-1","-1","1","0","[]","0","2","","","7256","95","6","4","lose","no-go","0"
"pit-trial","217","1311707","0.0-100.0","battery-v0.2","","""event"",""trial"",""time""
""fullscreenenter"",""1"",""6813""
","
","
","""event"",""trial"",""time""
""fullscreenenter"",""1"",""6813""
","
","","","893.5","","","13","7256","3859","t","elianto","#f73b6a7A"," "," ","1","0","[1744]","1","2","","","7256","96","7","3","lose","go","0"
"pit-trial","218","1315339","0.0-101.0","battery-v0.2","","""event"",""trial"",""time""
""fullscreenenter"",""1"",""6813""
","
","
","""event"",""trial"",""time""
""fullscreenenter"",""1"",""6813""
","
","","","778.7999999970198","","","13","7256","3859","c","elianto","#3366ff99"," "," ","1","0","[1629.5]","1","2","","","7256","97","5","1","win","go","1"
"pit-trial","219","1320192","0.0-102.0","battery-v0.2","","""event"",""trial"",""time""
""fullscreenenter"",""1"",""6813""
","
","
","""event"",""trial"",""time""
""fullscreenenter"",""1"",""6813""
","
","","","-1","","","13","7256","3859","b","elianto","#f73b6a7A","-1","-1","1","0","[]","0","2","","","7256","98","6","4","lose","no-go","0"
"pit-trial","220","1324204","0.0-103.0","battery-v0.2","","""event"",""trial"",""time""
""fullscreenenter"",""1"",""6813""
","
","
","""event"",""trial"",""time""
""fullscreenenter"",""1"",""6813""
","
","","","1157.6999999955297","","","13","7256","3859","t","elianto","#f73b6a7A"," "," ","1","0","[2008.1000000014901]","1","2","","","7256","99","7","3","lose","go","0"
"pit-trial","221","1327795","0.0-104.0","battery-v0.2","","""event"",""trial"",""time""
""fullscreenenter"",""1"",""6813""
","
","
","""event"",""trial"",""time""
""fullscreenenter"",""1"",""6813""
","
","","","738.2999999970198","","","13","7256","3859","f","elianto","#3366ff99","-1"," ","0","0","[1589.0999999940395]","1","2","","","7256","100","8","2","win","no-go","0"
"pit-trial","222","1332648","0.0-105.0","battery-v0.2","","""event"",""trial"",""time""
""fullscreenenter"",""1"",""6813""
","
","
","""event"",""trial"",""time""
""fullscreenenter"",""1"",""6813""
","
","","","-1","","","13","7256","3859","c","elianto","#3366ff99"," ","-1","0","0","[]","0","2","","","7256","101","5","1","win","go","0"
"pit-trial","223","1337503","0.0-106.0","battery-v0.2","","""event"",""trial"",""time""
""fullscreenenter"",""1"",""6813""
","
","
","""event"",""trial"",""time""
""fullscreenenter"",""1"",""6813""
","
","","","-1","","","13","7256","3859","b","elianto","#f73b6a7A","-1","-1","1","0","[]","0","2","","","7256","102","6","4","lose","no-go","0"
"pit-trial","224","1341419","0.0-107.0","battery-v0.2","","""event"",""trial"",""time""
""fullscreenenter"",""1"",""6813""
","
","
","""event"",""trial"",""time""
""fullscreenenter"",""1"",""6813""
","
","","","1063.7999999970198","","","13","7256","3859","n","elianto","#3366ff99","-1"," ","0","0","[1914.2000000029802]","1","2","","","7256","103","9","2","win","no-go","0"
"pit-trial","225","1345147","0.0-108.0","battery-v0.2","","""event"",""trial"",""time""
""fullscreenenter"",""1"",""6813""
","
","
","""event"",""trial"",""time""
""fullscreenenter"",""1"",""6813""
","
","","","874.1000000014901","","","13","7256","3859","f","elianto","#3366ff99","-1"," ","0","0","[1725.3999999985099]","1","2","","","7256","104","8","2","win","no-go","0"
"pit-trial","226","1350000","0.0-109.0","battery-v0.2","","""event"",""trial"",""time""
""fullscreenenter"",""1"",""6813""
","
","
","""event"",""trial"",""time""
""fullscreenenter"",""1"",""6813""
","
","","","-1","","","13","7256","3859","b","elianto","#f73b6a7A","-1","-1","1","0","[]","0","2","","","7256","105","6","4","lose","no-go","0"
"pit-trial","227","1353836","0.0-110.0","battery-v0.2","","""event"",""trial"",""time""
""fullscreenenter"",""1"",""6813""
","
","
","""event"",""trial"",""time""
""fullscreenenter"",""1"",""6813""
","
","","","981.1000000014901","","","13","7256","3859","n","elianto","#3366ff99","-1"," ","0","0","[1832.1000000014901]","1","2","","","7256","106","9","2","win","no-go","0"
"pit-trial","228","1357531","0.0-111.0","battery-v0.2","","""event"",""trial"",""time""
""fullscreenenter"",""1"",""6813""
","
","
","""event"",""trial"",""time""
""fullscreenenter"",""1"",""6813""
","
","","","842.6999999955297","","","13","7256","3859","c","elianto","#3366ff99"," "," ","1","0","[1693.2999999970198]","1","2","","","7256","107","5","1","win","go","1"
"pit-trial","229","1362384","0.0-112.0","battery-v0.2","","""event"",""trial"",""time""
""fullscreenenter"",""1"",""6813""
","
","
","""event"",""trial"",""time""
""fullscreenenter"",""1"",""6813""
","
","","","-1","","","13","7256","3859","f","elianto","#3366ff99","-1","-1","1","0","[]","0","2","","","7256","108","8","2","win","no-go","1"
"pit-trial","230","1366012","0.0-113.0","battery-v0.2","","""event"",""trial"",""time""
""fullscreenenter"",""1"",""6813""
","
","
","""event"",""trial"",""time""
""fullscreenenter"",""1"",""6813""
","
","","","774","","","13","7256","3859","c","elianto","#3366ff99"," "," ","1","0","[1624.3999999985099]","1","2","","","7256","109","5","1","win","go","1"
"pit-trial","231","1370864","0.0-114.0","battery-v0.2","","""event"",""trial"",""time""
""fullscreenenter"",""1"",""6813""
","
","
","""event"",""trial"",""time""
""fullscreenenter"",""1"",""6813""
","
","","","-1","","","13","7256","3859","n","elianto","#3366ff99","-1","-1","1","0","[]","0","2","","","7256","110","9","2","win","no-go","1"
"pit-trial","232","1375717","0.0-115.0","battery-v0.2","","""event"",""trial"",""time""
""fullscreenenter"",""1"",""6813""
","
","
","""event"",""trial"",""time""
""fullscreenenter"",""1"",""6813""
","
","","","-1","","","13","7256","3859","f","elianto","#3366ff99","-1","-1","1","0","[]","0","2","","","7256","111","8","2","win","no-go","1"
"pit-trial","233","1380571","0.0-116.0","battery-v0.2","","""event"",""trial"",""time""
""fullscreenenter"",""1"",""6813""
","
","
","""event"",""trial"",""time""
""fullscreenenter"",""1"",""6813""
","
","","","-1","","","13","7256","3859","b","elianto","#f73b6a7A","-1","-1","1","-10","[]","0","2","","","7256","112","6","4","lose","no-go","1"
"pit-trial","234","1385067","0.0-117.0","battery-v0.2","","""event"",""trial"",""time""
""fullscreenenter"",""1"",""6813""
","
","
","""event"",""trial"",""time""
""fullscreenenter"",""1"",""6813""
","
","","","1642.9000000059605","","","13","7256","3859","n","elianto","#3366ff99","-1"," ","0","0","[2493.2000000029802]","1","2","","","7256","113","9","2","win","no-go","0"
"pit-trial","235","1389411","0.0-118.0","battery-v0.2","","""event"",""trial"",""time""
""fullscreenenter"",""1"",""6813""
","
","
","""event"",""trial"",""time""
""fullscreenenter"",""1"",""6813""
","
","","","1491.5","","","13","7256","3859","c","elianto","#3366ff99"," "," ","1","0","[2342.2999999970198]","1","2","","","7256","114","5","1","win","go","1"
"pit-trial","236","1393651","0.0-119.0","battery-v0.2","","""event"",""trial"",""time""
""fullscreenenter"",""1"",""6813""
","
","
","""event"",""trial"",""time""
""fullscreenenter"",""1"",""6813""
","
","","","1386.2000000029802","","","13","7256","3859","t","elianto","#f73b6a7A"," "," ","1","0","[2237.4000000059605]","1","2","","","7256","115","7","3","lose","go","0"
"pit-trial","237","1398504","0.0-120.0","battery-v0.2","","""event"",""trial"",""time""
""fullscreenenter"",""1"",""6813""
","
","
","""event"",""trial"",""time""
""fullscreenenter"",""1"",""6813""
","
","","","-1","","","13","7256","3859","f","elianto","#3366ff99","-1","-1","1","0","[]","0","2","","","7256","116","8","2","win","no-go","1"
"pit-trial","238","1402459","0.0-121.0","battery-v0.2","","""event"",""trial"",""time""
""fullscreenenter"",""1"",""6813""
","
","
","""event"",""trial"",""time""
""fullscreenenter"",""1"",""6813""
","
","","","1102.4000000059605","","","13","7256","3859","c","elianto","#3366ff99"," "," ","1","+10","[1952.6000000014901]","1","2","","","7256","117","5","1","win","go","0"
"pit-trial","239","1407313","0.0-122.0","battery-v0.2","","""event"",""trial"",""time""
""fullscreenenter"",""1"",""6813""
","
","
","""event"",""trial"",""time""
""fullscreenenter"",""1"",""6813""
","
","","","-1","","","13","7256","3859","b","elianto","#f73b6a7A","-1","-1","1","0","[]","0","2","","","7256","118","6","4","lose","no-go","0"
"pit-trial","240","1412174","0.0-123.0","battery-v0.2","","""event"",""trial"",""time""
""fullscreenenter"",""1"",""6813""
","
","
","""event"",""trial"",""time""
""fullscreenenter"",""1"",""6813""
","
","","","-1","","","13","7256","3859","n","elianto","#3366ff99","-1","-1","1","0","[]","0","2","","","7256","119","9","2","win","no-go","1"
"pit-trial","241","1417027","0.0-124.0","battery-v0.2","","""event"",""trial"",""time""
""fullscreenenter"",""1"",""6813""
","
","
","""event"",""trial"",""time""
""fullscreenenter"",""1"",""6813""
","
","","","-1","","","13","7256","3859","f","elianto","#3366ff99","-1","-1","1","+10","[]","0","2","","","7256","120","8","2","win","no-go","0"
"pit-trial","242","1420803","0.0-125.0","battery-v0.2","","""event"",""trial"",""time""
""fullscreenenter"",""1"",""6813""
","
","
","""event"",""trial"",""time""
""fullscreenenter"",""1"",""6813""
","
","","","923.8999999985099","","","13","7256","3859","t","elianto","#f73b6a7A"," "," ","1","-10","[1774.1000000014901]","1","2","","","7256","121","7","3","lose","go","1"
"pit-trial","243","1425156","0.0-126.0","battery-v0.2","","""event"",""trial"",""time""
""fullscreenenter"",""1"",""6813""
","
","
","""event"",""trial"",""time""
""fullscreenenter"",""1"",""6813""
","
","","","1498.0999999940395","","","13","7256","3859","n","elianto","#3366ff99","-1"," ","0","0","[2349.2000000029802]","1","2","","","7256","122","9","2","win","no-go","0"
"pit-trial","244","1430008","0.0-127.0","battery-v0.2","","""event"",""trial"",""time""
""fullscreenenter"",""1"",""6813""
","
","
","""event"",""trial"",""time""
""fullscreenenter"",""1"",""6813""
","
","","","-1","","","13","7256","3859","f","elianto","#3366ff99","-1","-1","1","+10","[]","0","2","","","7256","123","8","2","win","no-go","0"
"pit-trial","245","1434861","0.0-128.0","battery-v0.2","","""event"",""trial"",""time""
""fullscreenenter"",""1"",""6813""
","
","
","""event"",""trial"",""time""
""fullscreenenter"",""1"",""6813""
","
","","","-1","","","13","7256","3859","c","elianto","#3366ff99"," ","-1","0","0","[]","0","2","","","7256","124","5","1","win","go","0"
"pit-trial","246","1439115","0.0-129.0","battery-v0.2","","""event"",""trial"",""time""
""fullscreenenter"",""1"",""6813""
","
","
","""event"",""trial"",""time""
""fullscreenenter"",""1"",""6813""
","
","","","1401.7999999970198","","","13","7256","3859","t","elianto","#f73b6a7A"," "," ","1","0","[2252.0999999940395]","1","2","","","7256","125","7","3","lose","go","0"
"pit-trial","247","1443968","0.0-130.0","battery-v0.2","","""event"",""trial"",""time""
""fullscreenenter"",""1"",""6813""
","
","
","""event"",""trial"",""time""
""fullscreenenter"",""1"",""6813""
","
","","","-1","","","13","7256","3859","f","elianto","#3366ff99","-1","-1","1","+10","[]","0","2","","","7256","126","8","2","win","no-go","0"
"pit-trial","248","1448083","0.0-131.0","battery-v0.2","","""event"",""trial"",""time""
""fullscreenenter"",""1"",""6813""
","
","
","""event"",""trial"",""time""
""fullscreenenter"",""1"",""6813""
","
","","","1261.7000000029802","","","13","7256","3859","n","elianto","#3366ff99","-1"," ","0","0","[2112.10000000149]","1","2","","","7256","127","9","2","win","no-go","0"
"pit-trial","249","1452935","0.0-132.0","battery-v0.2","","""event"",""trial"",""time""
""fullscreenenter"",""1"",""6813""
","
","
","""event"",""trial"",""time""
""fullscreenenter"",""1"",""6813""
","
","","","-1","","","13","7256","3859","b","elianto","#f73b6a7A","-1","-1","1","0","[]","0","2","","","7256","128","6","4","lose","no-go","0"
"pit-trial","250","1456883","0.0-133.0","battery-v0.2","","""event"",""trial"",""time""
""fullscreenenter"",""1"",""6813""
","
","
","""event"",""trial"",""time""
""fullscreenenter"",""1"",""6813""
","
","","","1095.5999999940395","","","13","7256","3859","n","elianto","#3366ff99","-1"," ","0","0","[1945.6999999955297]","1","2","","","7256","129","9","2","win","no-go","0"
"pit-trial","251","1461751","0.0-134.0","battery-v0.2","","""event"",""trial"",""time""
""fullscreenenter"",""1"",""6813""
","
","
","""event"",""trial"",""time""
""fullscreenenter"",""1"",""6813""
","
","","","-1","","","13","7256","3859","b","elianto","#f73b6a7A","-1","-1","1","0","[]","0","2","","","7256","130","6","4","lose","no-go","0"
"pit-trial","252","1465562","0.0-135.0","battery-v0.2","","""event"",""trial"",""time""
""fullscreenenter"",""1"",""6813""
","
","
","""event"",""trial"",""time""
""fullscreenenter"",""1"",""6813""
","
","","","958.1000000014901","","","13","7256","3859","t","elianto","#f73b6a7A"," "," ","1","-10","[1808.5]","1","2","","","7256","131","7","3","lose","go","1"
"pit-trial","253","1470416","0.0-136.0","battery-v0.2","","""event"",""trial"",""time""
""fullscreenenter"",""1"",""6813""
","
","
","""event"",""trial"",""time""
""fullscreenenter"",""1"",""6813""
","
","","","-1","","","13","7256","3859","f","elianto","#3366ff99","-1","-1","1","+10","[]","0","2","","","7256","132","8","2","win","no-go","0"
"pit-trial","254","1475268","0.0-137.0","battery-v0.2","","""event"",""trial"",""time""
""fullscreenenter"",""1"",""6813""
","
","
","""event"",""trial"",""time""
""fullscreenenter"",""1"",""6813""
","
","","","-1","","","13","7256","3859","b","elianto","#f73b6a7A","-1","-1","1","0","[]","0","2","","","7256","133","6","4","lose","no-go","0"
"pit-trial","255","1480121","0.0-138.0","battery-v0.2","","""event"",""trial"",""time""
""fullscreenenter"",""1"",""6813""
","
","
","""event"",""trial"",""time""
""fullscreenenter"",""1"",""6813""
","
","","","-1","","","13","7256","3859","f","elianto","#3366ff99","-1","-1","1","+10","[]","0","2","","","7256","134","8","2","win","no-go","0"
"pit-trial","256","1483778","0.0-139.0","battery-v0.2","","""event"",""trial"",""time""
""fullscreenenter"",""1"",""6813""
","
","
","""event"",""trial"",""time""
""fullscreenenter"",""1"",""6813""
","
","","","803.6000000014901","","","13","7256","3859","t","elianto","#f73b6a7A"," "," ","1","0","[1654.7000000029802]","1","2","","","7256","135","7","3","lose","go","0"
"pit-trial","257","1488115","0.0-140.0","battery-v0.2","","""event"",""trial"",""time""
""fullscreenenter"",""1"",""6813""
","
","
","""event"",""trial"",""time""
""fullscreenenter"",""1"",""6813""
","
","","","1484.3000000044703","","","13","7256","3859","n","elianto","#3366ff99","-1"," ","0","0","[2334.7000000029802]","1","2","","","7256","136","9","2","win","no-go","0"
"pit-trial","258","1492968","0.0-141.0","battery-v0.2","","""event"",""trial"",""time""
""fullscreenenter"",""1"",""6813""
","
","
","""event"",""trial"",""time""
""fullscreenenter"",""1"",""6813""
","
","","","-1","","","13","7256","3859","f","elianto","#3366ff99","-1","-1","1","+10","[]","0","2","","","7256","137","8","2","win","no-go","0"
"pit-trial","259","1497823","0.0-142.0","battery-v0.2","","""event"",""trial"",""time""
""fullscreenenter"",""1"",""6813""
","
","
","""event"",""trial"",""time""
""fullscreenenter"",""1"",""6813""
","
","","","-1","","","13","7256","3859","n","elianto","#3366ff99","-1","-1","1","+10","[]","0","2","","","7256","138","9","2","win","no-go","0"
"pit-trial","260","1501339","0.0-143.0","battery-v0.2","","""event"",""trial"",""time""
""fullscreenenter"",""1"",""6813""
","
","
","""event"",""trial"",""time""
""fullscreenenter"",""1"",""6813""
","
","","","664","","","13","7256","3859","t","elianto","#f73b6a7A"," "," ","1","0","[1513.8999999985099]","1","2","","","7256","139","7","3","lose","go","0"
"pit-trial","261","1506193","0.0-144.0","battery-v0.2","","""event"",""trial"",""time""
""fullscreenenter"",""1"",""6813""
","
","
","""event"",""trial"",""time""
""fullscreenenter"",""1"",""6813""
","
","","","-1","","","13","7256","3859","b","elianto","#f73b6a7A","-1","-1","1","0","[]","0","2","","","7256","140","6","4","lose","no-go","0"
"pit-instructions","262","1520890","0.0-145.0","battery-v0.2","","""event"",""trial"",""time""
""fullscreenenter"",""1"",""6813""
","
","
","""event"",""trial"",""time""
""fullscreenenter"",""1"",""6813""
","
","","[{""page_index"":0,""viewing_time"":6493.10000000149},{""page_index"":1,""viewing_time"":8202.10000000149}]","14695.39999999851","","","","","","","","","","","","","","","","","","","","","","","",""
"pit-trial","263","1524881","0.0-146.0","battery-v0.2","","""event"",""trial"",""time""
""fullscreenenter"",""1"",""6813""
","
","
","""event"",""trial"",""time""
""fullscreenenter"",""1"",""6813""
","
","","","1112.6999999955297","","","13","7256","3859","w","elianto","#f73b6a7A","-1"," ","0","0","[1974.0999999940395]","1","3","","","7256","141","3","4","lose","no-go","1"
"pit-trial","264","1528371","0.0-147.0","battery-v0.2","","""event"",""trial"",""time""
""fullscreenenter"",""1"",""6813""
","
","
","""event"",""trial"",""time""
""fullscreenenter"",""1"",""6813""
","
","","","617.3999999985099","","","13","7256","3859","j","elianto","#f73b6a7A"," "," ","1","0","[1471.2999999970198]","1","3","","","7256","142","0","3","lose","go","0"
"pit-trial","265","1531831","0.0-148.0","battery-v0.2","","""event"",""trial"",""time""
""fullscreenenter"",""1"",""6813""
","
","
","""event"",""trial"",""time""
""fullscreenenter"",""1"",""6813""
","
","","","603.2000000029802","","","13","7256","3859","e","elianto","#f73b6a7A"," "," ","1","0","[1453.4000000059605]","1","3","","","7256","143","2","3","lose","go","0"
"pit-trial","266","1535421","0.0-149.0","battery-v0.2","","""event"",""trial"",""time""
""fullscreenenter"",""1"",""6813""
","
","
","""event"",""trial"",""time""
""fullscreenenter"",""1"",""6813""
","
","","","724.1000000014901","","","13","7256","3859","d","elianto","#3366ff99","-1"," ","0","0","[1577.5]","1","3","","","7256","144","1","2","win","no-go","0"
"pit-trial","267","1538881","0.0-150.0","battery-v0.2","","""event"",""trial"",""time""
""fullscreenenter"",""1"",""6813""
","
","
","""event"",""trial"",""time""
""fullscreenenter"",""1"",""6813""
","
