"trial_type","trial_index","time_elapsed","internal_node_id","task_version","subject_id","interactions","blur_events","focus_events","fullscreenenter_events","fullscreenexit_events","success","view_history","rt","responses","num_errors","age","subject","participantId","rune","rune_set","hex","correct","choice","accuracy","outcome","keys","total_keys","block","practice","value","sub","trial","stimulus","robot","valence","action","sham"
"pavlovia","0","6","0.0-0.0","battery-v0.2","","""event"",""trial"",""time""
""fullscreenenter"",""1"",""1846""
","
","
","""event"",""trial"",""time""
""fullscreenenter"",""1"",""1846""
","
","","","","","","","","","","","","","","","","","","","","","","","","","","",""
"fullscreen","1","2843","0.0-1.0","battery-v0.2","","""event"",""trial"",""time""
""fullscreenenter"",""1"",""1846""
","
","
","""event"",""trial"",""time""
""fullscreenenter"",""1"",""1846""
","
","true","","","","","","","","","","","","","","","","","","","","","","","","","",""
"pit-instructions","2","7535","0.0-2.0-0.0","battery-v0.2","","""event"",""trial"",""time""
""fullscreenenter"",""1"",""1846""
","
","
","""event"",""trial"",""time""
""fullscreenenter"",""1"",""1846""
","
","","[{""page_index"":0,""viewing_time"":4687}]","4687.400000095367","","","","","","","","","","","","","","","","","","","","","","","",""
"pit-comprehension","3","10204","0.0-2.0-1.0-0.0","battery-v0.2","","""event"",""trial"",""time""
""fullscreenenter"",""1"",""1846""
","
","
","""event"",""trial"",""time""
""fullscreenenter"",""1"",""1846""
","
","","","2665.7000000476837","[""shark""]","0","18","10845","5249","","","","","","","","","","","","","","","","","","",""
"pit-instructions","4","11279","0.0-2.0-1.0-1.0","battery-v0.2","","""event"",""trial"",""time""
""fullscreenenter"",""1"",""1846""
","
","
","""event"",""trial"",""time""
""fullscreenenter"",""1"",""1846""
","
","","[{""page_index"":0,""viewing_time"":1063.2999999523163}]","1063.5","","","","","","","","","","","","","","","","","","","","","","","",""
"pit-comprehension","5","14945","0.0-2.0-2.0-0.0","battery-v0.2","","""event"",""trial"",""time""
""fullscreenenter"",""1"",""1846""
","
","
","""event"",""trial"",""time""
""fullscreenenter"",""1"",""1846""
","
","","","3663.5999999046326","[""tiger""]","0","18","10845","5249","","","","","","","","","","","","","","","","","","",""
"pit-instructions","6","15931","0.0-2.0-2.0-1.0","battery-v0.2","","""event"",""trial"",""time""
""fullscreenenter"",""1"",""1846""
","
","
","""event"",""trial"",""time""
""fullscreenenter"",""1"",""1846""
","
","","[{""page_index"":0,""viewing_time"":983.2000000476837}]","983.5","","","","","","","","","","","","","","","","","","","","","","","",""
"pit-instructions","7","120831","0.0-2.0-3.0","battery-v0.2","","""event"",""trial"",""time""
""fullscreenenter"",""1"",""1846""
","
","
","""event"",""trial"",""time""
""fullscreenenter"",""1"",""1846""
","
","","[{""page_index"":0,""viewing_time"":8349.299999952316},{""page_index"":1,""viewing_time"":6408.700000047684},{""page_index"":2,""viewing_time"":9240.5},{""page_index"":3,""viewing_time"":7616.199999809265},{""page_index"":4,""viewing_time"":11801.400000095367},{""page_index"":5,""viewing_time"":5426.900000095367},{""page_index"":6,""viewing_time"":7039.199999809265},{""page_index"":7,""viewing_time"":6414.700000047684},{""page_index"":8,""viewing_time"":6007},{""page_index"":9,""viewing_time"":7956.299999952316},{""page_index"":10,""viewing_time"":8124.300000190735},{""page_index"":11,""viewing_time"":7654.199999809265},{""page_index"":12,""viewing_time"":7323.800000190735},{""page_index"":13,""viewing_time"":5534}]","104896.89999985695","","","","","","","","","","","","","","","","","","","","","","","",""
"pit-trial","8","124269","0.0-2.0-4.0-0.0","battery-v0.2","","""event"",""trial"",""time""
""fullscreenenter"",""1"",""1846""
","
","
","""event"",""trial"",""time""
""fullscreenenter"",""1"",""1846""
","
","","","570.5","","","18","10845","5249","&#9784;","elianto","#FFFFF080"," "," ","1","&#10004","[1429.6000001430511]","1","0","0","","","","","","","",""
"pit-trial","9","127688","0.0-2.0-4.1-0.1","battery-v0.2","","""event"",""trial"",""time""
""fullscreenenter"",""1"",""1846""
","
","
","""event"",""trial"",""time""
""fullscreenenter"",""1"",""1846""
","
","","","545","","","18","10845","5249","&#9784;","elianto","#FFFFF080"," "," ","1","&#10004","[1401.0999999046326]","1","0","0","","","","","","","",""
"pit-trial","10","130896","0.0-2.0-4.2-0.2","battery-v0.2","","""event"",""trial"",""time""
""fullscreenenter"",""1"",""1846""
","
","
","""event"",""trial"",""time""
""fullscreenenter"",""1"",""1846""
","
","","","342.09999990463257","","","18","10845","5249","&#9784;","elianto","#FFFFF080"," "," ","1","&#10004","[1197.7999999523163]","1","0","0","","","","","","","",""
"pit-trial","11","134087","0.0-2.0-4.3-0.3","battery-v0.2","","""event"",""trial"",""time""
""fullscreenenter"",""1"",""1846""
","
","
","""event"",""trial"",""time""
""fullscreenenter"",""1"",""1846""
","
","","","323.39999985694885","","","18","10845","5249","&#9784;","elianto","#FFFFF080"," "," ","1","&#10004","[1181.5]","1","0","0","","","","","","","",""
"pit-trial","12","137270","0.0-2.0-4.4-0.4","battery-v0.2","","""event"",""trial"",""time""
""fullscreenenter"",""1"",""1846""
","
","
","""event"",""trial"",""time""
""fullscreenenter"",""1"",""1846""
","
","","","318","","","18","10845","5249","&#9784;","elianto","#FFFFF080"," "," ","1","&#10004","[1171.2999999523163]","1","0","0","","","","","","","",""
"pit-instructions","13","160077","0.0-2.0-5.0","battery-v0.2","","""event"",""trial"",""time""
""fullscreenenter"",""1"",""1846""
","
","
","""event"",""trial"",""time""
""fullscreenenter"",""1"",""1846""
","
","","[{""page_index"":0,""viewing_time"":5790.699999809265},{""page_index"":1,""viewing_time"":6511.400000095367},{""page_index"":2,""viewing_time"":5271.299999952316},{""page_index"":3,""viewing_time"":5229}]","22802.699999809265","","","","","","","","","","","","","","","","","","","","","","","",""
"pit-trial","14","164944","0.0-2.0-6.0-0.0","battery-v0.2","","""event"",""trial"",""time""
""fullscreenenter"",""1"",""1846""
","
","
","""event"",""trial"",""time""
""fullscreenenter"",""1"",""1846""
","
","","","-1","","","18","10845","5249","&#9854;","elianto","#FFFFF080","-1","-1","1","&#10004","[]","0","0","1","","","","","","","",""
"pit-trial","15","169815","0.0-2.0-6.1-0.1","battery-v0.2","","""event"",""trial"",""time""
""fullscreenenter"",""1"",""1846""
","
","
","""event"",""trial"",""time""
""fullscreenenter"",""1"",""1846""
","
","","","-1","","","18","10845","5249","&#9854;","elianto","#FFFFF080","-1","-1","1","&#10004","[]","0","0","1","","","","","","","",""
"pit-trial","16","174688","0.0-2.0-6.2-0.2","battery-v0.2","","""event"",""trial"",""time""
""fullscreenenter"",""1"",""1846""
","
","
","""event"",""trial"",""time""
""fullscreenenter"",""1"",""1846""
","
","","","-1","","","18","10845","5249","&#9854;","elianto","#FFFFF080","-1","-1","1","&#10004","[]","0","0","1","","","","","","","",""
"pit-trial","17","179560","0.0-2.0-6.3-0.3","battery-v0.2","","""event"",""trial"",""time""
""fullscreenenter"",""1"",""1846""
","
","
","""event"",""trial"",""time""
""fullscreenenter"",""1"",""1846""
","
","","","-1","","","18","10845","5249","&#9854;","elianto","#FFFFF080","-1","-1","1","&#10004","[]","0","0","1","","","","","","","",""
"pit-trial","18","184431","0.0-2.0-6.4-0.4","battery-v0.2","","""event"",""trial"",""time""
""fullscreenenter"",""1"",""1846""
","
","
","""event"",""trial"",""time""
""fullscreenenter"",""1"",""1846""
","
","","","-1","","","18","10845","5249","&#9854;","elianto","#FFFFF080","-1","-1","1","&#10004","[]","0","0","1","","","","","","","",""
"pit-instructions","19","301272","0.0-2.0-7.0","battery-v0.2","","""event"",""trial"",""time""
""fullscreenenter"",""1"",""1846""
","
","
","""event"",""trial"",""time""
""fullscreenenter"",""1"",""1846""
","
","","[{""page_index"":0,""viewing_time"":5707},{""page_index"":1,""viewing_time"":6652},{""page_index"":2,""viewing_time"":5955},{""page_index"":3,""viewing_time"":6418.199999809265},{""page_index"":4,""viewing_time"":5645.400000095367},{""page_index"":5,""viewing_time"":5665.400000095367},{""page_index"":6,""viewing_time"":4604.199999809265},{""page_index"":7,""viewing_time"":8032.400000095367},{""page_index"":8,""viewing_time"":6596.5},{""page_index"":9,""viewing_time"":6307.400000095367},{""page_index"":10,""viewing_time"":6254.699999809265},{""page_index"":11,""viewing_time"":4706.200000047684},{""page_index"":12,""viewing_time"":6946.299999952316},{""page_index"":13,""viewing_time"":7343},{""page_index"":14,""viewing_time"":9643.200000047684},{""page_index"":15,""viewing_time"":6478.200000047684},{""page_index"":16,""viewing_time"":6730.799999952316},{""page_index"":17,""viewing_time"":7150.600000143051}]","116837","","","","","","","","","","","","","","","","","","","","","","","",""
"pit-trial","20","304735","0.0-2.0-8.0-0.0","battery-v0.2","","""event"",""trial"",""time""
""fullscreenenter"",""1"",""1846""
","
","
","""event"",""trial"",""time""
""fullscreenenter"",""1"",""1846""
","
","","","595.5999999046326","","","18","10845","5249","&#9776;","elianto","#3366ff99"," "," ","1","+10","[1446.7999999523163]","1","0","1","","","","","","","",""
"pit-trial","21","307979","0.0-2.0-8.0-1.0","battery-v0.2","","""event"",""trial"",""time""
""fullscreenenter"",""1"",""1846""
","
","
","""event"",""trial"",""time""
""fullscreenenter"",""1"",""1846""
","
","","","375.2999999523163","","","18","10845","5249","&#9776;","elianto","#3366ff99"," "," ","1","+10","[1232.5]","1","0","1","","","","","","","",""
"pit-trial","22","311204","0.0-2.0-8.0-2.0","battery-v0.2","","""event"",""trial"",""time""
""fullscreenenter"",""1"",""1846""
","
","
","""event"",""trial"",""time""
""fullscreenenter"",""1"",""1846""
","
","","","359.30000019073486","","","18","10845","5249","&#9776;","elianto","#3366ff99"," "," ","1","+10","[1211.2000000476837]","1","0","1","","","","","","","",""
"pit-trial","23","314404","0.0-2.0-8.0-3.0","battery-v0.2","","""event"",""trial"",""time""
""fullscreenenter"",""1"",""1846""
","
","
","""event"",""trial"",""time""
""fullscreenenter"",""1"",""1846""
","
","","","334","","","18","10845","5249","&#9776;","elianto","#3366ff99"," "," ","1","0","[1188.0999999046326]","1","0","1","","","","","","","",""
"pit-trial","24","317591","0.0-2.0-8.0-4.0","battery-v0.2","","""event"",""trial"",""time""
""fullscreenenter"",""1"",""1846""
","
","
","""event"",""trial"",""time""
""fullscreenenter"",""1"",""1846""
","
","","","320.59999990463257","","","18","10845","5249","&#9776;","elianto","#3366ff99"," "," ","1","+10","[1175.7999999523163]","1","0","1","","","","","","","",""
"pit-trial","25","320779","0.0-2.0-8.1-0.1","battery-v0.2","","""event"",""trial"",""time""
""fullscreenenter"",""1"",""1846""
","
","
","""event"",""trial"",""time""
""fullscreenenter"",""1"",""1846""
","
","","","332","","","18","10845","5249","&#9776;","elianto","#3366ff99"," "," ","1","+10","[1182.1000001430511]","1","0","1","","","","","","","",""
"pit-trial","26","323973","0.0-2.0-8.1-1.1","battery-v0.2","","""event"",""trial"",""time""
""fullscreenenter"",""1"",""1846""
","
","
","""event"",""trial"",""time""
""fullscreenenter"",""1"",""1846""
","
","","","334.10000014305115","","","18","10845","5249","&#9776;","elianto","#3366ff99"," "," ","1","+10","[1186.0999999046326]","1","0","1","","","","","","","",""
"pit-trial","27","327223","0.0-2.0-8.1-2.1","battery-v0.2","","""event"",""trial"",""time""
""fullscreenenter"",""1"",""1846""
","
","
","""event"",""trial"",""time""
""fullscreenenter"",""1"",""1846""
","
","","","383.2999999523163","","","18","10845","5249","&#9776;","elianto","#3366ff99"," "," ","1","+10","[1235.5999999046326]","1","0","1","","","","","","","",""
"pit-trial","28","330423","0.0-2.0-8.1-3.1","battery-v0.2","","""event"",""trial"",""time""
""fullscreenenter"",""1"",""1846""
","
","
","""event"",""trial"",""time""
""fullscreenenter"",""1"",""1846""
","
","","","335.30000019073486","","","18","10845","5249","&#9776;","elianto","#3366ff99"," "," ","1","0","[1187]","1","0","1","","","","","","","",""
"pit-trial","29","333631","0.0-2.0-8.1-4.1","battery-v0.2","","""event"",""trial"",""time""
""fullscreenenter"",""1"",""1846""
","
","
","""event"",""trial"",""time""
""fullscreenenter"",""1"",""1846""
","
","","","344.90000009536743","","","18","10845","5249","&#9776;","elianto","#3366ff99"," "," ","1","+10","[1195.7999999523163]","1","0","1","","","","","","","",""
"pit-trial","30","336822","0.0-2.0-8.2-0.2","battery-v0.2","","""event"",""trial"",""time""
""fullscreenenter"",""1"",""1846""
","
","
","""event"",""trial"",""time""
""fullscreenenter"",""1"",""1846""
","
","","","321.5","","","18","10845","5249","&#9776;","elianto","#3366ff99"," "," ","1","+10","[1177.3999998569489]","1","0","1","","","","","","","",""
"pit-trial","31","340023","0.0-2.0-8.2-1.2","battery-v0.2","","""event"",""trial"",""time""
""fullscreenenter"",""1"",""1846""
","
","
","""event"",""trial"",""time""
""fullscreenenter"",""1"",""1846""
","
","","","333.7999999523163","","","18","10845","5249","&#9776;","elianto","#3366ff99"," "," ","1","+10","[1188.0999999046326]","1","0","1","","","","","","","",""
"pit-trial","32","343241","0.0-2.0-8.2-2.2","battery-v0.2","","""event"",""trial"",""time""
""fullscreenenter"",""1"",""1846""
","
","
","""event"",""trial"",""time""
""fullscreenenter"",""1"",""1846""
","
","","","360.60000014305115","","","18","10845","5249","&#9776;","elianto","#3366ff99"," "," ","1","+10","[1213.5]","1","0","1","","","","","","","",""
"pit-trial","33","346387","0.0-2.0-8.2-3.2","battery-v0.2","","""event"",""trial"",""time""
""fullscreenenter"",""1"",""1846""
","
","
","""event"",""trial"",""time""
""fullscreenenter"",""1"",""1846""
","
","","","289.09999990463257","","","18","10845","5249","&#9776;","elianto","#3366ff99"," "," ","1","0","[1140]","1","0","1","","","","","","","",""
"pit-trial","34","349710","0.0-2.0-8.2-4.2","battery-v0.2","","""event"",""trial"",""time""
""fullscreenenter"",""1"",""1846""
","
","
","""event"",""trial"",""time""
""fullscreenenter"",""1"",""1846""
","
","","","456.2000000476837","","","18","10845","5249","&#9776;","elianto","#3366ff99"," "," ","1","+10","[1308.4000000953674,1451.5]","2","0","1","","","","","","","",""
"call-function","35","349713","0.0-2.0-9.0","battery-v0.2","","""event"",""trial"",""time""
""fullscreenenter"",""1"",""1846""
","
","
","""event"",""trial"",""time""
""fullscreenenter"",""1"",""1846""
","
","","","","","","","","","","","","","","","","","","","","","","","","","","",""
"pit-instructions","36","387603","0.0-2.0-10.0","battery-v0.2","","""event"",""trial"",""time""
""fullscreenenter"",""1"",""1846""
","
","
","""event"",""trial"",""time""
""fullscreenenter"",""1"",""1846""
","
","","[{""page_index"":0,""viewing_time"":5859.700000047684},{""page_index"":1,""viewing_time"":6834.5},{""page_index"":2,""viewing_time"":9205.799999952316},{""page_index"":3,""viewing_time"":8730.400000095367},{""page_index"":4,""viewing_time"":7259.399999856949}]","37890.299999952316","","","","","","","","","","","","","","","","","","","","","","","",""
"pit-trial","37","392470","0.0-2.0-11.0-0.0","battery-v0.2","","""event"",""trial"",""time""
""fullscreenenter"",""1"",""1846""
","
","
","""event"",""trial"",""time""
""fullscreenenter"",""1"",""1846""
","
","","","-1","","","18","10845","5249","&#9761;","elianto","#3366ff99","-1","-1","1","+10","[]","0","0","2","","","","","","","",""
"pit-trial","38","397342","0.0-2.0-11.0-1.0","battery-v0.2","","""event"",""trial"",""time""
""fullscreenenter"",""1"",""1846""
","
","
","""event"",""trial"",""time""
""fullscreenenter"",""1"",""1846""
","
","","","-1","","","18","10845","5249","&#9761;","elianto","#3366ff99","-1","-1","1","+10","[]","0","0","2","","","","","","","",""
"pit-trial","39","402214","0.0-2.0-11.0-2.0","battery-v0.2","","""event"",""trial"",""time""
""fullscreenenter"",""1"",""1846""
","
","
","""event"",""trial"",""time""
""fullscreenenter"",""1"",""1846""
","
","","","-1","","","18","10845","5249","&#9761;","elianto","#3366ff99","-1","-1","1","+10","[]","0","0","2","","","","","","","",""
"pit-trial","40","407087","0.0-2.0-11.0-3.0","battery-v0.2","","""event"",""trial"",""time""
""fullscreenenter"",""1"",""1846""
","
","
","""event"",""trial"",""time""
""fullscreenenter"",""1"",""1846""
","
","","","-1","","","18","10845","5249","&#9761;","elianto","#3366ff99","-1","-1","1","0","[]","0","0","2","","","","","","","",""
"pit-trial","41","411957","0.0-2.0-11.0-4.0","battery-v0.2","","""event"",""trial"",""time""
""fullscreenenter"",""1"",""1846""
","
","
","""event"",""trial"",""time""
""fullscreenenter"",""1"",""1846""
","
","","","-1","","","18","10845","5249","&#9761;","elianto","#3366ff99","-1","-1","1","+10","[]","0","0","2","","","","","","","",""
"pit-trial","42","416826","0.0-2.0-11.1-0.1","battery-v0.2","","""event"",""trial"",""time""
""fullscreenenter"",""1"",""1846""
","
","
","""event"",""trial"",""time""
""fullscreenenter"",""1"",""1846""
","
","","","-1","","","18","10845","5249","&#9761;","elianto","#3366ff99","-1","-1","1","+10","[]","0","0","2","","","","","","","",""
"pit-trial","43","421694","0.0-2.0-11.1-1.1","battery-v0.2","","""event"",""trial"",""time""
""fullscreenenter"",""1"",""1846""
","
","
","""event"",""trial"",""time""
""fullscreenenter"",""1"",""1846""
","
","","","-1","","","18","10845","5249","&#9761;","elianto","#3366ff99","-1","-1","1","+10","[]","0","0","2","","","","","","","",""
"pit-trial","44","426566","0.0-2.0-11.1-2.1","battery-v0.2","","""event"",""trial"",""time""
""fullscreenenter"",""1"",""1846""
","
","
","""event"",""trial"",""time""
""fullscreenenter"",""1"",""1846""
","
","","","-1","","","18","10845","5249","&#9761;","elianto","#3366ff99","-1","-1","1","+10","[]","0","0","2","","","","","","","",""
"pit-trial","45","431438","0.0-2.0-11.1-3.1","battery-v0.2","","""event"",""trial"",""time""
""fullscreenenter"",""1"",""1846""
","
","
","""event"",""trial"",""time""
""fullscreenenter"",""1"",""1846""
","
","","","-1","","","18","10845","5249","&#9761;","elianto","#3366ff99","-1","-1","1","0","[]","0","0","2","","","","","","","",""
"pit-trial","46","436309","0.0-2.0-11.1-4.1","battery-v0.2","","""event"",""trial"",""time""
""fullscreenenter"",""1"",""1846""
","
","
","""event"",""trial"",""time""
""fullscreenenter"",""1"",""1846""
","
","","","-1","","","18","10845","5249","&#9761;","elianto","#3366ff99","-1","-1","1","+10","[]","0","0","2","","","","","","","",""
"pit-trial","47","441181","0.0-2.0-11.2-0.2","battery-v0.2","","""event"",""trial"",""time""
""fullscreenenter"",""1"",""1846""
","
","
","""event"",""trial"",""time""
""fullscreenenter"",""1"",""1846""
","
","","","-1","","","18","10845","5249","&#9761;","elianto","#3366ff99","-1","-1","1","+10","[]","0","0","2","","","","","","","",""
"pit-trial","48","446054","0.0-2.0-11.2-1.2","battery-v0.2","","""event"",""trial"",""time""
""fullscreenenter"",""1"",""1846""
","
","
","""event"",""trial"",""time""
""fullscreenenter"",""1"",""1846""
","
","","","-1","","","18","10845","5249","&#9761;","elianto","#3366ff99","-1","-1","1","+10","[]","0","0","2","","","","","","","",""
"pit-trial","49","450922","0.0-2.0-11.2-2.2","battery-v0.2","","""event"",""trial"",""time""
""fullscreenenter"",""1"",""1846""
","
","
","""event"",""trial"",""time""
""fullscreenenter"",""1"",""1846""
","
","","","-1","","","18","10845","5249","&#9761;","elianto","#3366ff99","-1","-1","1","+10","[]","0","0","2","","","","","","","",""
"pit-trial","50","455786","0.0-2.0-11.2-3.2","battery-v0.2","","""event"",""trial"",""time""
""fullscreenenter"",""1"",""1846""
","
","
","""event"",""trial"",""time""
""fullscreenenter"",""1"",""1846""
","
","","","-1","","","18","10845","5249","&#9761;","elianto","#3366ff99","-1","-1","1","0","[]","0","0","2","","","","","","","",""
"pit-trial","51","460650","0.0-2.0-11.2-4.2","battery-v0.2","","""event"",""trial"",""time""
""fullscreenenter"",""1"",""1846""
","
","
","""event"",""trial"",""time""
""fullscreenenter"",""1"",""1846""
","
","","","-1","","","18","10845","5249","&#9761;","elianto","#3366ff99","-1","-1","1","+10","[]","0","0","2","","","","","","","",""
"pit-trial","52","465525","0.0-2.0-11.3-0.3","battery-v0.2","","""event"",""trial"",""time""
""fullscreenenter"",""1"",""1846""
","
","
","""event"",""trial"",""time""
""fullscreenenter"",""1"",""1846""
","
","","","-1","","","18","10845","5249","&#9761;","elianto","#3366ff99","-1","-1","1","+10","[]","0","0","2","","","","","","","",""
"pit-trial","53","470390","0.0-2.0-11.3-1.3","battery-v0.2","","""event"",""trial"",""time""
""fullscreenenter"",""1"",""1846""
","
","
","""event"",""trial"",""time""
""fullscreenenter"",""1"",""1846""
","
","","","-1","","","18","10845","5249","&#9761;","elianto","#3366ff99","-1","-1","1","+10","[]","0","0","2","","","","","","","",""
"pit-trial","54","475257","0.0-2.0-11.3-2.3","battery-v0.2","","""event"",""trial"",""time""
""fullscreenenter"",""1"",""1846""
","
","
","""event"",""trial"",""time""
""fullscreenenter"",""1"",""1846""
","
","","","-1","","","18","10845","5249","&#9761;","elianto","#3366ff99","-1","-1","1","+10","[]","0","0","2","","","","","","","",""
"pit-trial","55","480126","0.0-2.0-11.3-3.3","battery-v0.2","","""event"",""trial"",""time""
""fullscreenenter"",""1"",""1846""
","
","
","""event"",""trial"",""time""
""fullscreenenter"",""1"",""1846""
","
","","","-1","","","18","10845","5249","&#9761;","elianto","#3366ff99","-1","-1","1","0","[]","0","0","2","","","","","","","",""
"pit-trial","56","484998","0.0-2.0-11.3-4.3","battery-v0.2","","""event"",""trial"",""time""
""fullscreenenter"",""1"",""1846""
","
","
","""event"",""trial"",""time""
""fullscreenenter"",""1"",""1846""
","
","","","-1","","","18","10845","5249","&#9761;","elianto","#3366ff99","-1","-1","1","+10","[]","0","0","2","","","","","","","",""
"call-function","57","485002","0.0-2.0-12.0","battery-v0.2","","""event"",""trial"",""time""
""fullscreenenter"",""1"",""1846""
","
","
","""event"",""trial"",""time""
""fullscreenenter"",""1"",""1846""
","
","","","","","","","","","","","","","","","","","","","","","","","","","","",""
"pit-instructions","58","522049","0.0-2.0-13.0","battery-v0.2","","""event"",""trial"",""time""
""fullscreenenter"",""1"",""1846""
","
","
","""event"",""trial"",""time""
""fullscreenenter"",""1"",""1846""
","
","","[{""page_index"":0,""viewing_time"":5022.900000095367},{""page_index"":1,""viewing_time"":10161.900000095367},{""page_index"":2,""viewing_time"":5800.5},{""page_index"":3,""viewing_time"":10828.599999904633},{""page_index"":4,""viewing_time"":5232.799999952316}]","37047.200000047684","","","","","","","","","","","","","","","","","","","","","","","",""
"pit-trial","59","526166","0.0-2.0-14.0-0.0","battery-v0.2","","""event"",""trial"",""time""
""fullscreenenter"",""1"",""1846""
","
","
","""event"",""trial"",""time""
""fullscreenenter"",""1"",""1846""
","
","","","1250.5","","","18","10845","5249","&#9826;","elianto","#f73b6a7A","-1"," ","0","-10","[2104.100000143051]","1","0","3","","","","","","","",""
"pit-trial","60","531033","0.0-2.0-14.0-1.0","battery-v0.2","","""event"",""trial"",""time""
""fullscreenenter"",""1"",""1846""
","
","
","""event"",""trial"",""time""
""fullscreenenter"",""1"",""1846""
","
","","","-1","","","18","10845","5249","&#9826;","elianto","#f73b6a7A","-1","-1","1","0","[]","0","0","3","","","","","","","",""
"pit-trial","61","535901","0.0-2.0-14.0-2.0","battery-v0.2","","""event"",""trial"",""time""
""fullscreenenter"",""1"",""1846""
","
","
","""event"",""trial"",""time""
""fullscreenenter"",""1"",""1846""
","
","","","-1","","","18","10845","5249","&#9826;","elianto","#f73b6a7A","-1","-1","1","0","[]","0","0","3","","","","","","","",""
"pit-trial","62","540773","0.0-2.0-14.0-3.0","battery-v0.2","","""event"",""trial"",""time""
""fullscreenenter"",""1"",""1846""
","
","
","""event"",""trial"",""time""
""fullscreenenter"",""1"",""1846""
","
","","","-1","","","18","10845","5249","&#9826;","elianto","#f73b6a7A","-1","-1","1","-10","[]","0","0","3","","","","","","","",""
"pit-trial","63","545642","0.0-2.0-14.0-4.0","battery-v0.2","","""event"",""trial"",""time""
""fullscreenenter"",""1"",""1846""
","
","
","""event"",""trial"",""time""
""fullscreenenter"",""1"",""1846""
","
","","","-1","","","18","10845","5249","&#9826;","elianto","#f73b6a7A","-1","-1","1","0","[]","0","0","3","","","","","","","",""
"pit-trial","64","550516","0.0-2.0-14.1-0.1","battery-v0.2","","""event"",""trial"",""time""
""fullscreenenter"",""1"",""1846""
","
","
","""event"",""trial"",""time""
""fullscreenenter"",""1"",""1846""
","
","","","-1","","","18","10845","5249","&#9826;","elianto","#f73b6a7A","-1","-1","1","0","[]","0","0","3","","","","","","","",""
"pit-trial","65","555385","0.0-2.0-14.1-1.1","battery-v0.2","","""event"",""trial"",""time""
""fullscreenenter"",""1"",""1846""
","
","
","""event"",""trial"",""time""
""fullscreenenter"",""1"",""1846""
","
","","","-1","","","18","10845","5249","&#9826;","elianto","#f73b6a7A","-1","-1","1","0","[]","0","0","3","","","","","","","",""
"pit-trial","66","560253","0.0-2.0-14.1-2.1","battery-v0.2","","""event"",""trial"",""time""
""fullscreenenter"",""1"",""1846""
","
","
","""event"",""trial"",""time""
""fullscreenenter"",""1"",""1846""
","
","","","-1","","","18","10845","5249","&#9826;","elianto","#f73b6a7A","-1","-1","1","0","[]","0","0","3","","","","","","","",""
"pit-trial","67","565126","0.0-2.0-14.1-3.1","battery-v0.2","","""event"",""trial"",""time""
""fullscreenenter"",""1"",""1846""
","
","
","""event"",""trial"",""time""
""fullscreenenter"",""1"",""1846""
","
","","","-1","","","18","10845","5249","&#9826;","elianto","#f73b6a7A","-1","-1","1","-10","[]","0","0","3","","","","","","","",""
"pit-trial","68","569998","0.0-2.0-14.1-4.1","battery-v0.2","","""event"",""trial"",""time""
""fullscreenenter"",""1"",""1846""
","
","
","""event"",""trial"",""time""
""fullscreenenter"",""1"",""1846""
","
","","","-1","","","18","10845","5249","&#9826;","elianto","#f73b6a7A","-1","-1","1","0","[]","0","0","3","","","","","","","",""
"pit-trial","69","574869","0.0-2.0-14.2-0.2","battery-v0.2","","""event"",""trial"",""time""
""fullscreenenter"",""1"",""1846""
","
","
","""event"",""trial"",""time""
""fullscreenenter"",""1"",""1846""
","
","","","-1","","","18","10845","5249","&#9826;","elianto","#f73b6a7A","-1","-1","1","0","[]","0","0","3","","","","","","","",""
"pit-trial","70","579739","0.0-2.0-14.2-1.2","battery-v0.2","","""event"",""trial"",""time""
""fullscreenenter"",""1"",""1846""
","
","
","""event"",""trial"",""time""
""fullscreenenter"",""1"",""1846""
","
","","","-1","","","18","10845","5249","&#9826;","elianto","#f73b6a7A","-1","-1","1","0","[]","0","0","3","","","","","","","",""
"pit-trial","71","584603","0.0-2.0-14.2-2.2","battery-v0.2","","""event"",""trial"",""time""
""fullscreenenter"",""1"",""1846""
","
","
","""event"",""trial"",""time""
""fullscreenenter"",""1"",""1846""
","
","","","-1","","","18","10845","5249","&#9826;","elianto","#f73b6a7A","-1","-1","1","0","[]","0","0","3","","","","","","","",""
"pit-trial","72","589477","0.0-2.0-14.2-3.2","battery-v0.2","","""event"",""trial"",""time""
""fullscreenenter"",""1"",""1846""
","
","
","""event"",""trial"",""time""
""fullscreenenter"",""1"",""1846""
","
","","","-1","","","18","10845","5249","&#9826;","elianto","#f73b6a7A","-1","-1","1","-10","[]","0","0","3","","","","","","","",""
"pit-trial","73","594350","0.0-2.0-14.2-4.2","battery-v0.2","","""event"",""trial"",""time""
""fullscreenenter"",""1"",""1846""
","
","
","""event"",""trial"",""time""
""fullscreenenter"",""1"",""1846""
","
","","","-1","","","18","10845","5249","&#9826;","elianto","#f73b6a7A","-1","-1","1","0","[]","0","0","3","","","","","","","",""
"pit-trial","74","599220","0.0-2.0-14.3-0.3","battery-v0.2","","""event"",""trial"",""time""
""fullscreenenter"",""1"",""1846""
","
","
","""event"",""trial"",""time""
""fullscreenenter"",""1"",""1846""
","
","","","-1","","","18","10845","5249","&#9826;","elianto","#f73b6a7A","-1","-1","1","0","[]","0","0","3","","","","","","","",""
"pit-trial","75","604093","0.0-2.0-14.3-1.3","battery-v0.2","","""event"",""trial"",""time""
""fullscreenenter"",""1"",""1846""
","
","
","""event"",""trial"",""time""
""fullscreenenter"",""1"",""1846""
","
","","","-1","","","18","10845","5249","&#9826;","elianto","#f73b6a7A","-1","-1","1","0","[]","0","0","3","","","","","","","",""
"pit-trial","76","608964","0.0-2.0-14.3-2.3","battery-v0.2","","""event"",""trial"",""time""
""fullscreenenter"",""1"",""1846""
","
","
","""event"",""trial"",""time""
""fullscreenenter"",""1"",""1846""
","
","","","-1","","","18","10845","5249","&#9826;","elianto","#f73b6a7A","-1","-1","1","0","[]","0","0","3","","","","","","","",""
"pit-trial","77","613837","0.0-2.0-14.3-3.3","battery-v0.2","","""event"",""trial"",""time""
""fullscreenenter"",""1"",""1846""
","
","
","""event"",""trial"",""time""
""fullscreenenter"",""1"",""1846""
","
","","","-1","","","18","10845","5249","&#9826;","elianto","#f73b6a7A","-1","-1","1","-10","[]","0","0","3","","","","","","","",""
"pit-trial","78","618708","0.0-2.0-14.3-4.3","battery-v0.2","","""event"",""trial"",""time""
""fullscreenenter"",""1"",""1846""
","
","
","""event"",""trial"",""time""
""fullscreenenter"",""1"",""1846""
","
","","","-1","","","18","10845","5249","&#9826;","elianto","#f73b6a7A","-1","-1","1","0","[]","0","0","3","","","","","","","",""
"call-function","79","618709","0.0-2.0-15.0","battery-v0.2","","""event"",""trial"",""time""
""fullscreenenter"",""1"",""1846""
","
","
","""event"",""trial"",""time""
""fullscreenenter"",""1"",""1846""
","
","","","","","","","","","","","","","","","","","","","","","","","","","","",""
"pit-instructions","80","643484","0.0-2.0-16.0","battery-v0.2","","""event"",""trial"",""time""
""fullscreenenter"",""1"",""1846""
","
","
","""event"",""trial"",""time""
""fullscreenenter"",""1"",""1846""
","
","","[{""page_index"":0,""viewing_time"":7089.199999809265},{""page_index"":1,""viewing_time"":8407.600000143051},{""page_index"":2,""viewing_time"":4405.899999856949},{""page_index"":3,""viewing_time"":4871.600000143051}]","24774.799999952316","","","","","","","","","","","","","","","","","","","","","","","",""
"pit-trial","81","647380","0.0-2.0-17.0-0.0","battery-v0.2","","""event"",""trial"",""time""
""fullscreenenter"",""1"",""1846""
","
","
","""event"",""trial"",""time""
""fullscreenenter"",""1"",""1846""
","
","","","1029.9000000953674","","","18","10845","5249","&#9789;","elianto","#f73b6a7A"," "," ","1","0","[1884.7999999523163]","1","0","4","","","","","","","",""
"pit-trial","82","651221","0.0-2.0-17.0-1.0","battery-v0.2","","""event"",""trial"",""time""
""fullscreenenter"",""1"",""1846""
","
","
","""event"",""trial"",""time""
""fullscreenenter"",""1"",""1846""
","
","","","976.5","","","18","10845","5249","&#9789;","elianto","#f73b6a7A"," "," ","1","0","[1829.2999999523163]","1","0","4","","","","","","","",""
"pit-trial","83","654952","0.0-2.0-17.0-2.0","battery-v0.2","","""event"",""trial"",""time""
""fullscreenenter"",""1"",""1846""
","
","
","""event"",""trial"",""time""
""fullscreenenter"",""1"",""1846""
","
","","","870.0999999046326","","","18","10845","5249","&#9789;","elianto","#f73b6a7A"," "," ","1","0","[1723.4000000953674]","1","0","4","","","","","","","",""
"pit-trial","84","658197","0.0-2.0-17.0-3.0","battery-v0.2","","""event"",""trial"",""time""
""fullscreenenter"",""1"",""1846""
","
","
","""event"",""trial"",""time""
""fullscreenenter"",""1"",""1846""
","
","","","380.2999999523163","","","18","10845","5249","&#9789;","elianto","#f73b6a7A"," "," ","1","-10","[1232.9000000953674]","1","0","4","","","","","","","",""
"pit-trial","85","661251","0.0-2.0-17.0-4.0","battery-v0.2","","""event"",""trial"",""time""
""fullscreenenter"",""1"",""1846""
","
","
","""event"",""trial"",""time""
""fullscreenenter"",""1"",""1846""
","
","","","187.70000004768372","","","18","10845","5249","&#9789;","elianto","#f73b6a7A"," "," ","1","0","[1045.2000000476837]","1","0","4","","","","","","","",""
"pit-trial","86","664340","0.0-2.0-17.1-0.1","battery-v0.2","","""event"",""trial"",""time""
""fullscreenenter"",""1"",""1846""
","
","
","""event"",""trial"",""time""
""fullscreenenter"",""1"",""1846""
","
","","","223.60000014305115","","","18","10845","5249","&#9789;","elianto","#f73b6a7A"," "," ","1","0","[1077.8999998569489]","1","0","4","","","","","","","",""
"pit-trial","87","667304","0.0-2.0-17.1-1.1","battery-v0.2","","""event"",""trial"",""time""
""fullscreenenter"",""1"",""1846""
","
","
","""event"",""trial"",""time""
""fullscreenenter"",""1"",""1846""
","
","","","107.79999995231628","","","18","10845","5249","&#9789;","elianto","#f73b6a7A"," "," ","1","0","[958.2999999523163]","1","0","4","","","","","","","",""
"pit-trial","88","670466","0.0-2.0-17.1-2.1","battery-v0.2","","""event"",""trial"",""time""
""fullscreenenter"",""1"",""1846""
","
","
","""event"",""trial"",""time""
""fullscreenenter"",""1"",""1846""
","
","","","301.40000009536743","","","18","10845","5249","&#9789;","elianto","#f73b6a7A"," "," ","1","0","[1152.2999999523163]","1","0","4","","","","","","","",""
"pit-trial","89","673410","0.0-2.0-17.1-3.1","battery-v0.2","","""event"",""trial"",""time""
""fullscreenenter"",""1"",""1846""
","
","
","""event"",""trial"",""time""
""fullscreenenter"",""1"",""1846""
","
","","","81.10000014305115","","","18","10845","5249","&#9789;","elianto","#f73b6a7A"," "," ","1","-10","[933.9000000953674]","1","0","4","","","","","","","",""
"pit-trial","90","676468","0.0-2.0-17.1-4.1","battery-v0.2","","""event"",""trial"",""time""
""fullscreenenter"",""1"",""1846""
","
","
","""event"",""trial"",""time""
""fullscreenenter"",""1"",""1846""
","
","","","198.79999995231628","","","18","10845","5249","&#9789;","elianto","#f73b6a7A"," "," ","1","0","[1049.2000000476837]","1","0","4","","","","","","","",""
"pit-trial","91","679477","0.0-2.0-17.2-0.2","battery-v0.2","","""event"",""trial"",""time""
""fullscreenenter"",""1"",""1846""
","
","
","""event"",""trial"",""time""
""fullscreenenter"",""1"",""1846""
","
","","","140.59999990463257","","","18","10845","5249","&#9789;","elianto","#f73b6a7A"," "," ","1","0","[995.5999999046326]","1","0","4","","","","","","","",""
"pit-trial","92","682474","0.0-2.0-17.2-1.2","battery-v0.2","","""event"",""trial"",""time""
""fullscreenenter"",""1"",""1846""
","
","
","""event"",""trial"",""time""
""fullscreenenter"",""1"",""1846""
","
","","","133.29999995231628","","","18","10845","5249","&#9789;","elianto","#f73b6a7A"," "," ","1","0","[989.7000000476837]","1","0","4","","","","","","","",""
"pit-trial","93","685461","0.0-2.0-17.2-2.2","battery-v0.2","","""event"",""trial"",""time""
""fullscreenenter"",""1"",""1846""
","
","
","""event"",""trial"",""time""
""fullscreenenter"",""1"",""1846""
","
","","","121.59999990463257","","","18","10845","5249","&#9789;","elianto","#f73b6a7A"," "," ","1","0","[972.1000001430511]","1","0","4","","","","","","","",""
"pit-trial","94","688492","0.0-2.0-17.2-3.2","battery-v0.2","","""event"",""trial"",""time""
""fullscreenenter"",""1"",""1846""
","
","
","""event"",""trial"",""time""
""fullscreenenter"",""1"",""1846""
","
","","","161.39999985694885","","","18","10845","5249","&#9789;","elianto","#f73b6a7A"," "," ","1","-10","[1019.0999999046326]","1","0","4","","","","","","","",""
"pit-trial","95","691668","0.0-2.0-17.2-4.2","battery-v0.2","","""event"",""trial"",""time""
""fullscreenenter"",""1"",""1846""
","
","
","""event"",""trial"",""time""
""fullscreenenter"",""1"",""1846""
","
","","","314.5","","","18","10845","5249","&#9789;","elianto","#f73b6a7A"," "," ","1","0","[1164.6999998092651]","1","0","4","","","","","","","",""
"pit-trial","96","694780","0.0-2.0-17.3-0.3","battery-v0.2","","""event"",""trial"",""time""
""fullscreenenter"",""1"",""1846""
","
","
","""event"",""trial"",""time""
""fullscreenenter"",""1"",""1846""
","
","","","247","","","18","10845","5249","&#9789;","elianto","#f73b6a7A"," "," ","1","0","[1103.3000001907349]","1","0","4","","","","","","","",""
"pit-trial","97","697860","0.0-2.0-17.3-1.3","battery-v0.2","","""event"",""trial"",""time""
""fullscreenenter"",""1"",""1846""
","
","
","""event"",""trial"",""time""
""fullscreenenter"",""1"",""1846""
","
","","","210.20000004768372","","","18","10845","5249","&#9789;","elianto","#f73b6a7A"," "," ","1","0","[1069.5]","1","0","4","","","","","","","",""
"pit-trial","98","701084","0.0-2.0-17.3-2.3","battery-v0.2","","""event"",""trial"",""time""
""fullscreenenter"",""1"",""1846""
","
","
","""event"",""trial"",""time""
""fullscreenenter"",""1"",""1846""
","
","","","353","","","18","10845","5249","&#9789;","elianto","#f73b6a7A"," "," ","1","0","[1212.0999999046326]","1","0","4","","","","","","","",""
"pit-trial","99","704205","0.0-2.0-17.3-3.3","battery-v0.2","","""event"",""trial"",""time""
""fullscreenenter"",""1"",""1846""
","
","
","""event"",""trial"",""time""
""fullscreenenter"",""1"",""1846""
","
","","","253.40000009536743","","","18","10845","5249","&#9789;","elianto","#f73b6a7A"," "," ","1","-10","[1110.2000000476837]","1","0","4","","","","","","","",""
"pit-trial","100","707213","0.0-2.0-17.3-4.3","battery-v0.2","","""event"",""trial"",""time""
""fullscreenenter"",""1"",""1846""
","
","
","""event"",""trial"",""time""
""fullscreenenter"",""1"",""1846""
","
","","","141.29999995231628","","","18","10845","5249","&#9789;","elianto","#f73b6a7A"," "," ","1","0","[993.7000000476837]","1","0","4","","","","","","","",""
"call-function","101","707216","0.0-2.0-18.0","battery-v0.2","","""event"",""trial"",""time""
""fullscreenenter"",""1"",""1846""
","
","
","""event"",""trial"",""time""
""fullscreenenter"",""1"",""1846""
","
","","","","","","","","","","","","","","","","","","","","","","","","","","",""
"pit-instructions","102","842614","0.0-2.0-19.0","battery-v0.2","","""event"",""trial"",""time""
""fullscreenenter"",""1"",""1846""
","
","
","""event"",""trial"",""time""
""fullscreenenter"",""1"",""1846""
","
","","[{""page_index"":0,""viewing_time"":9298.799999952316},{""page_index"":1,""viewing_time"":10838.5},{""page_index"":2,""viewing_time"":26986.5},{""page_index"":3,""viewing_time"":8386.799999952316},{""page_index"":4,""viewing_time"":45504.299999952316},{""page_index"":5,""viewing_time"":10123.600000143051},{""page_index"":6,""viewing_time"":12789.599999904633},{""page_index"":7,""viewing_time"":6883.700000047684},{""page_index"":8,""viewing_time"":4586.099999904633}]","135398.5","","","","","","","","","","","","","","","","","","","","","","","",""
"pit-comprehension","103","847491","0.0-2.0-20.0-0.0","battery-v0.2","","""event"",""trial"",""time""
""fullscreenenter"",""1"",""1846""
","
","
","""event"",""trial"",""time""
""fullscreenenter"",""1"",""1846""
","
","","","4871.100000143051","[""SPACE""]","0","18","10845","5249","","","","","","","","","","","","","","","","","","",""
"pit-instructions","104","850564","0.0-2.0-20.0-1.0","battery-v0.2","","""event"",""trial"",""time""
""fullscreenenter"",""1"",""1846""
","
","
","""event"",""trial"",""time""
""fullscreenenter"",""1"",""1846""
","
","","[{""page_index"":0,""viewing_time"":3048.2999999523163}]","3048.7999999523163","","","","","","","","","","","","","","","","","","","","","","","",""
"pit-comprehension","105","857649","0.0-2.0-21.0-0.0","battery-v0.2","","""event"",""trial"",""time""
""fullscreenenter"",""1"",""1846""
","
","
","""event"",""trial"",""time""
""fullscreenenter"",""1"",""1846""
","
","","","7080.399999856949","[""10""]","0","18","10845","5249","","","","","","","","","","","","","","","","","","",""
"pit-instructions","106","861664","0.0-2.0-21.0-1.0","battery-v0.2","","""event"",""trial"",""time""
""fullscreenenter"",""1"",""1846""
","
","
","""event"",""trial"",""time""
""fullscreenenter"",""1"",""1846""
","
","","[{""page_index"":0,""viewing_time"":3990.5}]","3990.9000000953674","","","","","","","","","","","","","","","","","","","","","","","",""
"pit-comprehension","107","869050","0.0-2.0-22.0-0.0","battery-v0.2","","""event"",""trial"",""time""
""fullscreenenter"",""1"",""1846""
","
","
","""event"",""trial"",""time""
""fullscreenenter"",""1"",""1846""
","
","","","7380.299999952316","[""0""]","0","18","10845","5249","","","","","","","","","","","","","","","","","","",""
"pit-instructions","108","872512","0.0-2.0-22.0-1.0","battery-v0.2","","""event"",""trial"",""time""
""fullscreenenter"",""1"",""1846""
","
","
","""event"",""trial"",""time""
""fullscreenenter"",""1"",""1846""
","
","","[{""page_index"":0,""viewing_time"":3430.600000143051}]","3431","","","","","","","","","","","","","","","","","","","","","","","",""
"pit-comprehension","109","880946","0.0-2.0-23.0-0.0","battery-v0.2","","""event"",""trial"",""time""
""fullscreenenter"",""1"",""1846""
","
","
","""event"",""trial"",""time""
""fullscreenenter"",""1"",""1846""
","
","","","8429.800000190735","[""True""]","0","18","10845","5249","","","","","","","","","","","","","","","","","","",""
"pit-instructions","110","886286","0.0-2.0-23.0-1.0","battery-v0.2","","""event"",""trial"",""time""
""fullscreenenter"",""1"",""1846""
","
","
","""event"",""trial"",""time""
""fullscreenenter"",""1"",""1846""
","
","","[{""page_index"":0,""viewing_time"":5313.599999904633}]","5313.799999952316","","","","","","","","","","","","","","","","","","","","","","","",""
"pit-comprehension","111","894375","0.0-2.0-24.0-0.0","battery-v0.2","","""event"",""trial"",""time""
""fullscreenenter"",""1"",""1846""
","
","
","""event"",""trial"",""time""
""fullscreenenter"",""1"",""1846""
","
","","","8086.200000047684","[""True""]","0","18","10845","5249","","","","","","","","","","","","","","","","","","",""
"pit-instructions","112","897039","0.0-2.0-24.0-1.0","battery-v0.2","","""event"",""trial"",""time""
""fullscreenenter"",""1"",""1846""
","
","
","""event"",""trial"",""time""
""fullscreenenter"",""1"",""1846""
","
","","[{""page_index"":0,""viewing_time"":2638.899999856949}]","2639.2000000476837","","","","","","","","","","","","","","","","","","","","","","","",""
"pit-comprehension","113","903473","0.0-2.0-25.0-0.0","battery-v0.2","","""event"",""trial"",""time""
""fullscreenenter"",""1"",""1846""
","
","
","""event"",""trial"",""time""
""fullscreenenter"",""1"",""1846""
","
","","","6432","[""True""]","0","18","10845","5249","","","","","","","","","","","","","","","","","","",""
"pit-instructions","114","905512","0.0-2.0-25.0-1.0","battery-v0.2","","""event"",""trial"",""time""
""fullscreenenter"",""1"",""1846""
","
","
","""event"",""trial"",""time""
""fullscreenenter"",""1"",""1846""
","
","","[{""page_index"":0,""viewing_time"":2014.2999999523163}]","2014.7000000476837","","","","","","","","","","","","","","","","","","","","","","","",""
"pit-comprehension","115","910527","0.0-2.0-26.0-0.0","battery-v0.2","","""event"",""trial"",""time""
""fullscreenenter"",""1"",""1846""
","
","
","""event"",""trial"",""time""
""fullscreenenter"",""1"",""1846""
","
","","","5011","[""False""]","0","18","10845","5249","","","","","","","","","","","","","","","","","","",""
"pit-instructions","116","912723","0.0-2.0-26.0-1.0","battery-v0.2","","""event"",""trial"",""time""
""fullscreenenter"",""1"",""1846""
","
","
","""event"",""trial"",""time""
""fullscreenenter"",""1"",""1846""
","
","","[{""page_index"":0,""viewing_time"":2169.5}]","2169.7999999523163","","","","","","","","","","","","","","","","","","","","","","","",""
"pit-instructions","117","931372","0.0-3.0","battery-v0.2","","""event"",""trial"",""time""
""fullscreenenter"",""1"",""1846""
","
","
","""event"",""trial"",""time""
""fullscreenenter"",""1"",""1846""
","
","","[{""page_index"":0,""viewing_time"":4100.299999952316},{""page_index"":1,""viewing_time"":5977.5},{""page_index"":2,""viewing_time"":8569}]","18647.299999952316","","","","","","","","","","","","","","","","","","","","","","","",""
"pit-trial","118","935395","0.0-4.0","battery-v0.2","","""event"",""trial"",""time""
""fullscreenenter"",""1"",""1846""
","
","
","""event"",""trial"",""time""
""fullscreenenter"",""1"",""1846""
","
","","","1151.5999999046326","","","18","10845","5249","&#9733;","elianto","#3366ff99","-1"," ","0","0","[2002.5999999046326]","1","1","","","10845","1","2","2","win","no-go","0"
"pit-trial","119","939506","0.0-5.0","battery-v0.2","","""event"",""trial"",""time""
""fullscreenenter"",""1"",""1846""
","
","
","""event"",""trial"",""time""
""fullscreenenter"",""1"",""1846""
","
","","","1238.3999998569489","","","18","10845","5249","&#9730;","elianto","#3366ff99"," "," ","1","0","[2096.2000000476837]","1","1","","","10845","2","1","1","win","go","1"
"pit-trial","120","944380","0.0-6.0","battery-v0.2","","""event"",""trial"",""time""
""fullscreenenter"",""1"",""1846""
","
","
","""event"",""trial"",""time""
""fullscreenenter"",""1"",""1846""
","
","","","-1","","","18","10845","5249","&#9752;","elianto","#f73b6a7A"," ","-1","0","-10","[]","0","1","","","10845","3","3","3","lose","go","0"
"pit-trial","121","949248","0.0-7.0","battery-v0.2","","""event"",""trial"",""time""
""fullscreenenter"",""1"",""1846""
","
","
","""event"",""trial"",""time""
""fullscreenenter"",""1"",""1846""
","
","","","-1","","","18","10845","5249","&#9728;","elianto","#f73b6a7A","-1","-1","1","0","[]","0","1","","","10845","4","0","4","lose","no-go","0"
"pit-trial","122","952857","0.0-8.0","battery-v0.2","","""event"",""trial"",""time""
""fullscreenenter"",""1"",""1846""
","
","
","""event"",""trial"",""time""
""fullscreenenter"",""1"",""1846""
","
","","","741.6999998092651","","","18","10845","5249","&#9730;","elianto","#3366ff99"," "," ","1","+10","[1595]","1","1","","","10845","5","1","1","win","go","0"
"pit-trial","123","957728","0.0-9.0","battery-v0.2","","""event"",""trial"",""time""
""fullscreenenter"",""1"",""1846""
","
","
","""event"",""trial"",""time""
""fullscreenenter"",""1"",""1846""
","
","","","-1","","","18","10845","5249","&#9733;","elianto","#3366ff99","-1","-1","1","+10","[]","0","1","","","10845","6","2","2","win","no-go","0"
"pit-trial","124","962594","0.0-10.0","battery-v0.2","","""event"",""trial"",""time""
""fullscreenenter"",""1"",""1846""
","
","
","""event"",""trial"",""time""
""fullscreenenter"",""1"",""1846""
","
","","","-1","","","18","10845","5249","&#9728;","elianto","#f73b6a7A","-1","-1","1","-10","[]","0","1","","","10845","7","0","4","lose","no-go","1"
"pit-trial","125","965975","0.0-11.0","battery-v0.2","","""event"",""trial"",""time""
""fullscreenenter"",""1"",""1846""
","
","
","""event"",""trial"",""time""
""fullscreenenter"",""1"",""1846""
","
","","","514.5","","","18","10845","5249","&#9752;","elianto","#f73b6a7A"," "," ","1","-10","[1373.3999998569489]","1","1","","","10845","8","3","3","lose","go","1"
"pit-trial","126","969939","0.0-12.0","battery-v0.2","","""event"",""trial"",""time""
""fullscreenenter"",""1"",""1846""
","
","
","""event"",""trial"",""time""
""fullscreenenter"",""1"",""1846""
","
","","","1102.4000000953674","","","18","10845","5249","&#9728;","elianto","#f73b6a7A","-1"," ","0","0","[1952.5999999046326]","1","1","","","10845","9","0","4","lose","no-go","1"
"pit-trial","127","974812","0.0-13.0","battery-v0.2","","""event"",""trial"",""time""
""fullscreenenter"",""1"",""1846""
","
","
","""event"",""trial"",""time""
""fullscreenenter"",""1"",""1846""
","
","","","-1","","","18","10845","5249","&#9733;","elianto","#3366ff99","-1","-1","1","+10","[]","0","1","","","10845","10","2","2","win","no-go","0"
"pit-trial","128","978883","0.0-14.0","battery-v0.2","","""event"",""trial"",""time""
""fullscreenenter"",""1"",""1846""
","
","
","""event"",""trial"",""time""
""fullscreenenter"",""1"",""1846""
","
","","","1198.2999999523163","","","18","10845","5249","&#9752;","elianto","#f73b6a7A"," "," ","1","0","[2056]","1","1","","","10845","11","3","3","lose","go","0"
"pit-trial","129","982914","0.0-15.0","battery-v0.2","","""event"",""trial"",""time""
""fullscreenenter"",""1"",""1846""
","
","
","""event"",""trial"",""time""
""fullscreenenter"",""1"",""1846""
","
","","","1165.2999999523163","","","18","10845","5249","&#9730;","elianto","#3366ff99"," "," ","1","+10","[2021.0999999046326]","1","1","","","10845","12","1","1","win","go","0"
"pit-trial","130","986907","0.0-16.0","battery-v0.2","","""event"",""trial"",""time""
""fullscreenenter"",""1"",""1846""
","
","
","""event"",""trial"",""time""
""fullscreenenter"",""1"",""1846""
","
","","","1126.0999999046326","","","18","10845","5249","&#9730;","elianto","#3366ff99"," "," ","1","+10","[1983.5]","1","1","","","10845","13","1","1","win","go","0"
"pit-trial","131","991369","0.0-17.0","battery-v0.2","","""event"",""trial"",""time""
""fullscreenenter"",""1"",""1846""
","
","
","""event"",""trial"",""time""
""fullscreenenter"",""1"",""1846""
","
","","","1596.9000000953674","","","18","10845","5249","&#9752;","elianto","#f73b6a7A"," "," ","1","0","[2453.899999856949]","1","1","","","10845","14","3","3","lose","go","0"
"pit-trial","132","994900","0.0-18.0","battery-v0.2","","""event"",""trial"",""time""
""fullscreenenter"",""1"",""1846""
","
","
","""event"",""trial"",""time""
""fullscreenenter"",""1"",""1846""
","
","","","667","","","18","10845","5249","&#9728;","elianto","#f73b6a7A","-1"," ","0","-10","[1520.6999998092651]","1","1","","","10845","15","0","4","lose","no-go","0"
"pit-trial","133","999767","0.0-19.0","battery-v0.2","","""event"",""trial"",""time""
""fullscreenenter"",""1"",""1846""
","
","
","""event"",""trial"",""time""
""fullscreenenter"",""1"",""1846""
","
","","","-1","","","18","10845","5249","&#9733;","elianto","#3366ff99","-1","-1","1","+10","[]","0","1","","","10845","16","2","2","win","no-go","0"
"pit-trial","134","1003815","0.0-20.0","battery-v0.2","","""event"",""trial"",""time""
""fullscreenenter"",""1"",""1846""
","
","
","""event"",""trial"",""time""
""fullscreenenter"",""1"",""1846""
","
","","","1190.5","","","18","10845","5249","&#9728;","elianto","#f73b6a7A","-1"," ","0","0","[2042]","1","1","","","10845","17","0","4","lose","no-go","1"
"pit-trial","135","1007511","0.0-21.0","battery-v0.2","","""event"",""trial"",""time""
""fullscreenenter"",""1"",""1846""
","
","
","""event"",""trial"",""time""
""fullscreenenter"",""1"",""1846""
","
","","","830.0999999046326","","","18","10845","5249","&#9730;","elianto","#3366ff99"," "," ","1","+10","[1684.5]","1","1","","","10845","18","1","1","win","go","0"
"pit-trial","136","1012379","0.0-22.0","battery-v0.2","","""event"",""trial"",""time""
""fullscreenenter"",""1"",""1846""
","
","
","""event"",""trial"",""time""
""fullscreenenter"",""1"",""1846""
","
","","","-1","","","18","10845","5249","&#9733;","elianto","#3366ff99","-1","-1","1","+10","[]","0","1","","","10845","19","2","2","win","no-go","0"
"pit-trial","137","1017250","0.0-23.0","battery-v0.2","","""event"",""trial"",""time""
""fullscreenenter"",""1"",""1846""
","
","
","""event"",""trial"",""time""
""fullscreenenter"",""1"",""1846""
","
","","","-1","","","18","10845","5249","&#9752;","elianto","#f73b6a7A"," ","-1","0","-10","[]","0","1","","","10845","20","3","3","lose","go","0"
"pit-instructions","138","1034668","0.0-24.0","battery-v0.2","","""event"",""trial"",""time""
""fullscreenenter"",""1"",""1846""
","
","
","""event"",""trial"",""time""
""fullscreenenter"",""1"",""1846""
","
","","[{""page_index"":0,""viewing_time"":6150.5},{""page_index"":1,""viewing_time"":11264.799999952316}]","17415.5","","","","","","","","","","","","","","","","","","","","","","","",""
"pit-trial","139","1038616","0.0-25.0","battery-v0.2","","""event"",""trial"",""time""
""fullscreenenter"",""1"",""1846""
","
","
","""event"",""trial"",""time""
""fullscreenenter"",""1"",""1846""
","
","","","1083.4000000953674","","","18","10845","5249","y","elianto","#f73b6a7A","-1"," ","0","0","[1937.6999998092651]","1","2","","","10845","21","2","4","lose","no-go","1"
"pit-trial","140","1043481","0.0-26.0","battery-v0.2","","""event"",""trial"",""time""
""fullscreenenter"",""1"",""1846""
","
","
","""event"",""trial"",""time""
""fullscreenenter"",""1"",""1846""
","
","","","-1","","","18","10845","5249","h","elianto","#f73b6a7A"," ","-1","0","-10","[]","0","2","","","10845","22","3","3","lose","go","0"
"pit-trial","141","1047035","0.0-27.0","battery-v0.2","","""event"",""trial"",""time""
""fullscreenenter"",""1"",""1846""
","
","
","""event"",""trial"",""time""
""fullscreenenter"",""1"",""1846""
","
","","","681.8999998569489","","","18","10845","5249","m","elianto","#f73b6a7A","-1"," ","0","0","[1538.3999998569489]","1","2","","","10845","23","0","4","lose","no-go","1"
"pit-trial","142","1050795","0.0-28.0","battery-v0.2","","""event"",""trial"",""time""
""fullscreenenter"",""1"",""1846""
","
","
","""event"",""trial"",""time""
""fullscreenenter"",""1"",""1846""
","
","","","889.4000000953674","","","18","10845","5249","r","elianto","#3366ff99"," "," ","1","0","[1742.8999998569489]","1","2","","","10845","24","1","1","win","go","1"
"pit-trial","143","1054665","0.0-29.0","battery-v0.2","","""event"",""trial"",""time""
""fullscreenenter"",""1"",""1846""
","
","
","""event"",""trial"",""time""
""fullscreenenter"",""1"",""1846""
","
","","","998.9000000953674","","","18","10845","5249","y","elianto","#f73b6a7A","-1"," ","0","-10","[1857]","1","2","","","10845","25","2","4","lose","no-go","0"
"pit-trial","144","1058163","0.0-30.0","battery-v0.2","","""event"",""trial"",""time""
""fullscreenenter"",""1"",""1846""
","
","
","""event"",""trial"",""time""
""fullscreenenter"",""1"",""1846""
","
","","","633","","","18","10845","5249","r","elianto","#3366ff99"," "," ","1","0","[1488.2999999523163]","1","2","","","10845","26","1","1","win","go","1"
"pit-trial","145","1063034","0.0-31.0","battery-v0.2","","""event"",""trial"",""time""
""fullscreenenter"",""1"",""1846""
","
","
","""event"",""trial"",""time""
""fullscreenenter"",""1"",""1846""
","
","","","-1","","","18","10845","5249","h","elianto","#f73b6a7A"," ","-1","0","0","[]","0","2","","","10845","27","3","3","lose","go","1"
"pit-trial","146","1067014","0.0-32.0","battery-v0.2","","""event"",""trial"",""time""
""fullscreenenter"",""1"",""1846""
","
","
","""event"",""trial"",""time""
""fullscreenenter"",""1"",""1846""
","
","","","1118.8999998569489","","","18","10845","5249","m","elianto","#f73b6a7A","-1"," ","0","-10","[1974.2000000476837]","1","2","","","10845","28","0","4","lose","no-go","0"
"pit-trial","147","1070922","0.0-33.0","battery-v0.2","","""event"",""trial"",""time""
""fullscreenenter"",""1"",""1846""
","
","
","""event"",""trial"",""time""
""fullscreenenter"",""1"",""1846""
","
","","","1042.0999999046326","","","18","10845","5249","r","elianto","#3366ff99"," "," ","1","+10","[1896.7000000476837]","1","2","","","10845","29","1","1","win","go","0"
"pit-trial","148","1075795","0.0-34.0","battery-v0.2","","""event"",""trial"",""time""
""fullscreenenter"",""1"",""1846""
","
","
","""event"",""trial"",""time""
""fullscreenenter"",""1"",""1846""
","
","","","-1","","","18","10845","5249","y","elianto","#f73b6a7A","-1","-1","1","0","[]","0","2","","","10845","30","2","4","lose","no-go","0"
"pit-trial","149","1080395","0.0-35.0","battery-v0.2","","""event"",""trial"",""time""
""fullscreenenter"",""1"",""1846""
","
","
","""event"",""trial"",""time""
""fullscreenenter"",""1"",""1846""
","
","","","1728.9000000953674","","","18","10845","5249","m","elianto","#f73b6a7A","-1"," ","0","-10","[2586.899999856949]","1","2","","","10845","31","0","4","lose","no-go","0"
"pit-trial","150","1084434","0.0-36.0","battery-v0.2","","""event"",""trial"",""time""
""fullscreenenter"",""1"",""1846""
","
","
","""event"",""trial"",""time""
""fullscreenenter"",""1"",""1846""
","
","","","1169.1000001430511","","","18","10845","5249","h","elianto","#f73b6a7A"," "," ","1","0","[2024.8999998569489]","1","2","","","10845","32","3","3","lose","go","0"
"pit-trial","151","1089306","0.0-37.0","battery-v0.2","","""event"",""trial"",""time""
""fullscreenenter"",""1"",""1846""
","
","
","""event"",""trial"",""time""
""fullscreenenter"",""1"",""1846""
","
","","","-1","","","18","10845","5249","m","elianto","#f73b6a7A","-1","-1","1","0","[]","0","2","","","10845","33","0","4","lose","no-go","0"
"pit-trial","152","1094178","0.0-38.0","battery-v0.2","","""event"",""trial"",""time""
""fullscreenenter"",""1"",""1846""
","
","
","""event"",""trial"",""time""
""fullscreenenter"",""1"",""1846""
","
","","","-1","","","18","10845","5249","y","elianto","#f73b6a7A","-1","-1","1","0","[]","0","2","","","10845","34","2","4","lose","no-go","0"
"pit-trial","153","1098369","0.0-39.0","battery-v0.2","","""event"",""trial"",""time""
""fullscreenenter"",""1"",""1846""
","
","
","""event"",""trial"",""time""
""fullscreenenter"",""1"",""1846""
","
","","","1320.9000000953674","","","18","10845","5249","r","elianto","#3366ff99"," "," ","1","+10","[2179.5]","1","2","","","10845","35","1","1","win","go","0"
"pit-trial","154","1102586","0.0-40.0","battery-v0.2","","""event"",""trial"",""time""
""fullscreenenter"",""1"",""1846""
","
","
","""event"",""trial"",""time""
""fullscreenenter"",""1"",""1846""
","
","","","1347.2999999523163","","","18","10845","5249","h","elianto","#f73b6a7A"," "," ","1","0","[2201.699999809265]","1","2","","","10845","36","3","3","lose","go","0"
"pit-trial","155","1106395","0.0-41.0","battery-v0.2","","""event"",""trial"",""time""
""fullscreenenter"",""1"",""1846""
","
","
","""event"",""trial"",""time""
""fullscreenenter"",""1"",""1846""
","
","","","939.7000000476837","","","18","10845","5249","r","elianto","#3366ff99"," "," ","1","+10","[49.60000014305115,1792.1000001430511]","2","2","","","10845","37","1","1","win","go","0"
"pit-trial","156","1110395","0.0-42.0","battery-v0.2","","""event"",""trial"",""time""
""fullscreenenter"",""1"",""1846""
","
","
","""event"",""trial"",""time""
""fullscreenenter"",""1"",""1846""
","
","","","1129.5","","","18","10845","5249","h","elianto","#f73b6a7A"," "," ","1","0","[1986.5]","1","2","","","10845","38","3","3","lose","go","0"
"pit-trial","157","1115265","0.0-43.0","battery-v0.2","","""event"",""trial"",""time""
""fullscreenenter"",""1"",""1846""
","
","
","""event"",""trial"",""time""
""fullscreenenter"",""1"",""1846""
","
","","","-1","","","18","10845","5249","y","elianto","#f73b6a7A","-1","-1","1","0","[]","0","2","","","10845","39","2","4","lose","no-go","0"
"pit-trial","158","1120138","0.0-44.0","battery-v0.2","","""event"",""trial"",""time""
""fullscreenenter"",""1"",""1846""
","
","
","""event"",""trial"",""time""
""fullscreenenter"",""1"",""1846""
","
","","","-1","","","18","10845","5249","m","elianto","#f73b6a7A","-1","-1","1","-10","[]","0","2","","","10845","40","0","4","lose","no-go","1"
"pit-trial","159","1125009","0.0-45.0","battery-v0.2","","""event"",""trial"",""time""
""fullscreenenter"",""1"",""1846""
","
","
","""event"",""trial"",""time""
""fullscreenenter"",""1"",""1846""
","
","","","-1","","","18","10845","5249","y","elianto","#f73b6a7A","-1","-1","1","0","[]","0","2","","","10845","41","2","4","lose","no-go","0"
"pit-trial","160","1129882","0.0-46.0","battery-v0.2","","""event"",""trial"",""time""
""fullscreenenter"",""1"",""1846""
","
","
","""event"",""trial"",""time""
""fullscreenenter"",""1"",""1846""
","
","","","-1","","","18","10845","5249","m","elianto","#f73b6a7A","-1","-1","1","0","[]","0","2","","","10845","42","0","4","lose","no-go","0"
"pit-trial","161","1133551","0.0-47.0","battery-v0.2","","""event"",""trial"",""time""
""fullscreenenter"",""1"",""1846""
","
","
","""event"",""trial"",""time""
""fullscreenenter"",""1"",""1846""
","
","","","800.2000000476837","","","18","10845","5249","r","elianto","#3366ff99"," "," ","1","+10","[1657.7999999523163]","1","2","","","10845","43","1","1","win","go","0"
"pit-trial","162","1138417","0.0-48.0","battery-v0.2","","""event"",""trial"",""time""
""fullscreenenter"",""1"",""1846""
","
","
","""event"",""trial"",""time""
""fullscreenenter"",""1"",""1846""
","
","","","-1","","","18","10845","5249","h","elianto","#f73b6a7A"," ","-1","0","-10","[]","0","2","","","10845","44","3","3","lose","go","0"
"pit-trial","163","1143290","0.0-49.0","battery-v0.2","","""event"",""trial"",""time""
""fullscreenenter"",""1"",""1846""
","
","
","""event"",""trial"",""time""
""fullscreenenter"",""1"",""1846""
","
","","","-1","","","18","10845","5249","m","elianto","#f73b6a7A","-1","-1","1","0","[]","0","2","","","10845","45","0","4","lose","no-go","0"
"pit-trial","164","1148162","0.0-50.0","battery-v0.2","","""event"",""trial"",""time""
""fullscreenenter"",""1"",""1846""
","
","
","""event"",""trial"",""time""
""fullscreenenter"",""1"",""1846""
","
","","","-1","","","18","10845","5249","y","elianto","#f73b6a7A","-1","-1","1","0","[]","0","2","","","10845","46","2","4","lose","no-go","0"
"pit-trial","165","1153034","0.0-51.0","battery-v0.2","","""event"",""trial"",""time""
""fullscreenenter"",""1"",""1846""
","
","
","""event"",""trial"",""time""
""fullscreenenter"",""1"",""1846""
","
","","","-1","","","18","10845","5249","h","elianto","#f73b6a7A"," ","-1","0","-10","[]","0","2","","","10845","47","3","3","lose","go","0"
"pit-trial","166","1156546","0.0-52.0","battery-v0.2","","""event"",""trial"",""time""
""fullscreenenter"",""1"",""1846""
","
","
","""event"",""trial"",""time""
""fullscreenenter"",""1"",""1846""
","
","","","642.7999999523163","","","18","10845","5249","z","elianto","#3366ff99","-1"," ","0","0","[1498.7000000476837]","1","2","","","10845","48","4","2","win","no-go","0"
"pit-trial","167","1160107","0.0-53.0","battery-v0.2","","""event"",""trial"",""time""
""fullscreenenter"",""1"",""1846""
","
","
","""event"",""trial"",""time""
""fullscreenenter"",""1"",""1846""
","
","","","691.3000001907349","","","18","10845","5249","r","elianto","#3366ff99"," "," ","1","+10","[1549.5]","1","2","","","10845","49","1","1","win","go","0"
"pit-trial","168","1164974","0.0-54.0","battery-v0.2","","""event"",""trial"",""time""
""fullscreenenter"",""1"",""1846""
","
","
","""event"",""trial"",""time""
""fullscreenenter"",""1"",""1846""
","
","","","-1","","","18","10845","5249","m","elianto","#f73b6a7A","-1","-1","1","0","[]","0","2","","","10845","50","0","4","lose","no-go","0"
"pit-trial","169","1168858","0.0-55.0","battery-v0.2","","""event"",""trial"",""time""
""fullscreenenter"",""1"",""1846""
","
","
","""event"",""trial"",""time""
""fullscreenenter"",""1"",""1846""
","
","","","1019.8999998569489","","","18","10845","5249","z","elianto","#3366ff99","-1"," ","0","0","[1872.2999999523163]","1","2","","","10845","51","4","2","win","no-go","0"
"pit-trial","170","1173730","0.0-56.0","battery-v0.2","","""event"",""trial"",""time""
""fullscreenenter"",""1"",""1846""
","
","
","""event"",""trial"",""time""
""fullscreenenter"",""1"",""1846""
","
","","","-1","","","18","10845","5249","h","elianto","#f73b6a7A"," ","-1","0","-10","[]","0","2","","","10845","52","3","3","lose","go","0"
"pit-trial","171","1177314","0.0-57.0","battery-v0.2","","""event"",""trial"",""time""
""fullscreenenter"",""1"",""1846""
","
","
","""event"",""trial"",""time""
""fullscreenenter"",""1"",""1846""
","
","","","710.6000001430511","","","18","10845","5249","r","elianto","#3366ff99"," "," ","1","+10","[1569.2999999523163]","1","2","","","10845","53","1","1","win","go","0"
"pit-trial","172","1182186","0.0-58.0","battery-v0.2","","""event"",""trial"",""time""
""fullscreenenter"",""1"",""1846""
","
","
","""event"",""trial"",""time""
""fullscreenenter"",""1"",""1846""
","
","","","-1","","","18","10845","5249","y","elianto","#f73b6a7A","-1","-1","1","-10","[]","0","2","","","10845","54","2","4","lose","no-go","1"
"pit-trial","173","1187056","0.0-59.0","battery-v0.2","","""event"",""trial"",""time""
""fullscreenenter"",""1"",""1846""
","
","
","""event"",""trial"",""time""
""fullscreenenter"",""1"",""1846""
","
","","","-1","","","18","10845","5249","m","elianto","#f73b6a7A","-1","-1","1","0","[]","0","2","","","10845","55","0","4","lose","no-go","0"
"pit-trial","174","1191931","0.0-60.0","battery-v0.2","","""event"",""trial"",""time""
""fullscreenenter"",""1"",""1846""
","
","
","""event"",""trial"",""time""
""fullscreenenter"",""1"",""1846""
","
","","","-1","","","18","10845","5249","z","elianto","#3366ff99","-1","-1","1","+10","[]","0","2","","","10845","56","4","2","win","no-go","0"
"pit-trial","175","1195810","0.0-61.0","battery-v0.2","","""event"",""trial"",""time""
""fullscreenenter"",""1"",""1846""
","
","
","""event"",""trial"",""time""
""fullscreenenter"",""1"",""1846""
","
","","","1012","","","18","10845","5249","r","elianto","#3366ff99"," "," ","1","+10","[1869.9000000953674]","1","2","","","10845","57","1","1","win","go","0"
"pit-trial","176","1200682","0.0-62.0","battery-v0.2","","""event"",""trial"",""time""
""fullscreenenter"",""1"",""1846""
","
","
","""event"",""trial"",""time""
""fullscreenenter"",""1"",""1846""
","
","","","-1","","","18","10845","5249","h","elianto","#f73b6a7A"," ","-1","0","-10","[]","0","2","","","10845","58","3","3","lose","go","0"
"pit-trial","177","1205546","0.0-63.0","battery-v0.2","","""event"",""trial"",""time""
""fullscreenenter"",""1"",""1846""
","
","
","""event"",""trial"",""time""
""fullscreenenter"",""1"",""1846""
","
","","","-1","","","18","10845","5249","m","elianto","#f73b6a7A","-1","-1","1","0","[]","0","2","","","10845","59","0","4","lose","no-go","0"
"pit-trial","178","1210235","0.0-64.0","battery-v0.2","","""event"",""trial"",""time""
""fullscreenenter"",""1"",""1846""
","
","
","""event"",""trial"",""time""
""fullscreenenter"",""1"",""1846""
","
","","","1819.7000000476837","","","18","10845","5249","z","elianto","#3366ff99","-1"," ","0","0","[2677.7000000476837]","1","2","","","10845","60","4","2","win","no-go","0"
"pit-trial","179","1215106","0.0-65.0","battery-v0.2","","""event"",""trial"",""time""
""fullscreenenter"",""1"",""1846""
","
","
","""event"",""trial"",""time""
""fullscreenenter"",""1"",""1846""
","
","","","-1","","","18","10845","5249","h","elianto","#f73b6a7A"," ","-1","0","0","[]","0","2","","","10845","61","3","3","lose","go","1"
"pit-trial","180","1219978","0.0-66.0","battery-v0.2","","""event"",""trial"",""time""
""fullscreenenter"",""1"",""1846""
","
","
","""event"",""trial"",""time""
""fullscreenenter"",""1"",""1846""
","
","","","-1","","","18","10845","5249","z","elianto","#3366ff99","-1","-1","1","+10","[]","0","2","","","10845","62","4","2","win","no-go","0"
"pit-trial","181","1224842","0.0-67.0","battery-v0.2","","""event"",""trial"",""time""
""fullscreenenter"",""1"",""1846""
","
","
","""event"",""trial"",""time""
""fullscreenenter"",""1"",""1846""
","
","","","-1","","","18","10845","5249","y","elianto","#f73b6a7A","-1","-1","1","0","[]","0","2","","","10845","63","2","4","lose","no-go","0"
"pit-trial","182","1228438","0.0-68.0","battery-v0.2","","""event"",""trial"",""time""
""fullscreenenter"",""1"",""1846""
","
","
","""event"",""trial"",""time""
""fullscreenenter"",""1"",""1846""
","
","","","731.7999999523163","","","18","10845","5249","r","elianto","#3366ff99"," "," ","1","0","[1588.5]","1","2","","","10845","64","1","1","win","go","1"
"pit-trial","183","1232401","0.0-69.0","battery-v0.2","","""event"",""trial"",""time""
""fullscreenenter"",""1"",""1846""
","
","
","""event"",""trial"",""time""
""fullscreenenter"",""1"",""1846""
","
","","","1100.4000000953674","","","18","10845","5249","r","elianto","#3366ff99"," "," ","1","0","[1950.8999998569489]","1","2","","","10845","65","1","1","win","go","1"
"pit-trial","184","1237274","0.0-70.0","battery-v0.2","","""event"",""trial"",""time""
""fullscreenenter"",""1"",""1846""
","
","
","""event"",""trial"",""time""
""fullscreenenter"",""1"",""1846""
","
","","","-1","","","18","10845","5249","z","elianto","#3366ff99","-1","-1","1","+10","[]","0","2","","","10845","66","4","2","win","no-go","0"
"pit-trial","185","1242141","0.0-71.0","battery-v0.2","","""event"",""trial"",""time""
""fullscreenenter"",""1"",""1846""
","
","
","""event"",""trial"",""time""
""fullscreenenter"",""1"",""1846""
","
","","","-1","","","18","10845","5249","y","elianto","#f73b6a7A","-1","-1","1","-10","[]","0","2","","","10845","67","2","4","lose","no-go","1"
"pit-trial","186","1247008","0.0-72.0","battery-v0.2","","""event"",""trial"",""time""
""fullscreenenter"",""1"",""1846""
","
","
","""event"",""trial"",""time""
""fullscreenenter"",""1"",""1846""
","
","","","-1","","","18","10845","5249","h","elianto","#f73b6a7A"," ","-1","0","-10","[]","0","2","","","10845","68","3","3","lose","go","0"
"pit-trial","187","1251114","0.0-73.0","battery-v0.2","","""event"",""trial"",""time""
""fullscreenenter"",""1"",""1846""
","
","
","""event"",""trial"",""time""
""fullscreenenter"",""1"",""1846""
","
","","","1230.1000001430511","","","18","10845","5249","c","elianto","#3366ff99"," "," ","1","+10","[2089.2000000476837]","1","2","","","10845","69","5","1","win","go","0"
"pit-trial","188","1254713","0.0-74.0","battery-v0.2","","""event"",""trial"",""time""
""fullscreenenter"",""1"",""1846""
","
","
","""event"",""trial"",""time""
""fullscreenenter"",""1"",""1846""
","
","","","733.7999999523163","","","18","10845","5249","r","elianto","#3366ff99"," "," ","1","+10","[1590.2000000476837]","1","2","","","10845","70","1","1","win","go","0"
"pit-trial","189","1259586","0.0-75.0","battery-v0.2","","""event"",""trial"",""time""
""fullscreenenter"",""1"",""1846""
","
","
","""event"",""trial"",""time""
""fullscreenenter"",""1"",""1846""
","
","","","-1","","","18","10845","5249","h","elianto","#f73b6a7A"," ","-1","0","-10","[]","0","2","","","10845","71","3","3","lose","go","0"
"pit-trial","190","1264457","0.0-76.0","battery-v0.2","","""event"",""trial"",""time""
""fullscreenenter"",""1"",""1846""
","
","
","""event"",""trial"",""time""
""fullscreenenter"",""1"",""1846""
","
","","","-1","","","18","10845","5249","z","elianto","#3366ff99","-1","-1","1","0","[]","0","2","","","10845","72","4","2","win","no-go","1"
"pit-trial","191","1269330","0.0-77.0","battery-v0.2","","""event"",""trial"",""time""
""fullscreenenter"",""1"",""1846""
","
","
","""event"",""trial"",""time""
""fullscreenenter"",""1"",""1846""
","
","","","-1","","","18","10845","5249","h","elianto","#f73b6a7A"," ","-1","0","-10","[]","0","2","","","10845","73","3","3","lose","go","0"
"pit-trial","192","1274201","0.0-78.0","battery-v0.2","","""event"",""trial"",""time""
""fullscreenenter"",""1"",""1846""
","
","
","""event"",""trial"",""time""
""fullscreenenter"",""1"",""1846""
","
","","","-1","","","18","10845","5249","z","elianto","#3366ff99","-1","-1","1","+10","[]","0","2","","","10845","74","4","2","win","no-go","0"
"pit-trial","193","1279073","0.0-79.0","battery-v0.2","","""event"",""trial"",""time""
""fullscreenenter"",""1"",""1846""
","
","
","""event"",""trial"",""time""
""fullscreenenter"",""1"",""1846""
","
","","","-1","","","18","10845","5249","r","elianto","#3366ff99"," ","-1","0","0","[]","0","2","","","10845","75","1","1","win","go","0"
"pit-trial","194","1283018","0.0-80.0","battery-v0.2","","""event"",""trial"",""time""
""fullscreenenter"",""1"",""1846""
","
","
","""event"",""trial"",""time""
""fullscreenenter"",""1"",""1846""
","
","","","1078.6000001430511","","","18","10845","5249","c","elianto","#3366ff99"," "," ","1","+10","[1929.7999999523163]","1","2","","","10845","76","5","1","win","go","0"
"pit-trial","195","1287697","0.0-81.0","battery-v0.2","","""event"",""trial"",""time""
""fullscreenenter"",""1"",""1846""
","
","
","""event"",""trial"",""time""
""fullscreenenter"",""1"",""1846""
","
","","","1809.6000001430511","","","18","10845","5249","h","elianto","#f73b6a7A"," "," ","1","0","[2663.2999999523163]","1","2","","","10845","77","3","3","lose","go","0"
"pit-trial","196","1291698","0.0-82.0","battery-v0.2","","""event"",""trial"",""time""
""fullscreenenter"",""1"",""1846""
","
","
","""event"",""trial"",""time""
""fullscreenenter"",""1"",""1846""
","
","","","1126.3999998569489","","","18","10845","5249","c","elianto","#3366ff99"," "," ","1","+10","[1983.5999999046326]","1","2","","","10845","78","5","1","win","go","0"
"pit-trial","197","1296569","0.0-83.0","battery-v0.2","","""event"",""trial"",""time""
""fullscreenenter"",""1"",""1846""
","
","
","""event"",""trial"",""time""
""fullscreenenter"",""1"",""1846""
","
","","","-1","","","18","10845","5249","b","elianto","#f73b6a7A","-1","-1","1","0","[]","0","2","","","10845","79","6","4","lose","no-go","0"
"pit-trial","198","1300434","0.0-84.0","battery-v0.2","","""event"",""trial"",""time""
""fullscreenenter"",""1"",""1846""
","
","
","""event"",""trial"",""time""
""fullscreenenter"",""1"",""1846""
","
","","","997.2000000476837","","","18","10845","5249","z","elianto","#3366ff99","-1"," ","0","0","[1848.2999999523163]","1","2","","","10845","80","4","2","win","no-go","0"
"pit-trial","199","1303912","0.0-85.0","battery-v0.2","","""event"",""trial"",""time""
""fullscreenenter"",""1"",""1846""
","
","
","""event"",""trial"",""time""
""fullscreenenter"",""1"",""1846""
","
","","","614.1999998092651","","","18","10845","5249","c","elianto","#3366ff99"," "," ","1","+10","[1469.4000000953674]","1","2","","","10845","81","5","1","win","go","0"
"pit-trial","200","1308785","0.0-86.0","battery-v0.2","","""event"",""trial"",""time""
""fullscreenenter"",""1"",""1846""
","
","
","""event"",""trial"",""time""
""fullscreenenter"",""1"",""1846""
","
","","","-1","","","18","10845","5249","t","elianto","#f73b6a7A"," ","-1","0","-10","[]","0","2","","","10845","82","7","3","lose","go","0"
"pit-trial","201","1312448","0.0-87.0","battery-v0.2","","""event"",""trial"",""time""
""fullscreenenter"",""1"",""1846""
","
","
","""event"",""trial"",""time""
""fullscreenenter"",""1"",""1846""
","
","","","801.7999999523163","","","18","10845","5249","z","elianto","#3366ff99","-1"," ","0","+10","[1655.8999998569489]","1","2","","","10845","83","4","2","win","no-go","1"
"pit-trial","202","1316338","0.0-88.0","battery-v0.2","","""event"",""trial"",""time""
""fullscreenenter"",""1"",""1846""
","
","
","""event"",""trial"",""time""
""fullscreenenter"",""1"",""1846""
","
","","","1027.2000000476837","","","18","10845","5249","b","elianto","#f73b6a7A","-1"," ","0","0","[1884.7999999523163]","1","2","","","10845","84","6","4","lose","no-go","1"
"pit-trial","203","1321210","0.0-89.0","battery-v0.2","","""event"",""trial"",""time""
""fullscreenenter"",""1"",""1846""
","
","
","""event"",""trial"",""time""
""fullscreenenter"",""1"",""1846""
","
","","","-1","","","18","10845","5249","b","elianto","#f73b6a7A","-1","-1","1","0","[]","0","2","","","10845","85","6","4","lose","no-go","0"
"pit-trial","204","1324838","0.0-90.0","battery-v0.2","","""event"",""trial"",""time""
""fullscreenenter"",""1"",""1846""
","
","
","""event"",""trial"",""time""
""fullscreenenter"",""1"",""1846""
","
","","","758.5999999046326","","","18","10845","5249","c","elianto","#3366ff99"," "," ","1","+10","[1615.5]","1","2","","","10845","86","5","1","win","go","0"
"pit-trial","205","1329705","0.0-91.0","battery-v0.2","","""event"",""trial"",""time""
""fullscreenenter"",""1"",""1846""
","
","
","""event"",""trial"",""time""
""fullscreenenter"",""1"",""1846""
","
","","","-1","","","18","10845","5249","z","elianto","#3366ff99","-1","-1","1","0","[]","0","2","","","10845","87","4","2","win","no-go","1"
"pit-trial","206","1334577","0.0-92.0","battery-v0.2","","""event"",""trial"",""time""
""fullscreenenter"",""1"",""1846""
","
","
","""event"",""trial"",""time""
""fullscreenenter"",""1"",""1846""
","
","","","-1","","","18","10845","5249","t","elianto","#f73b6a7A"," ","-1","0","-10","[]","0","2","","","10845","88","7","3","lose","go","0"
"pit-trial","207","1338153","0.0-93.0","battery-v0.2","","""event"",""trial"",""time""
""fullscreenenter"",""1"",""1846""
","
","
","""event"",""trial"",""time""
""fullscreenenter"",""1"",""1846""
","
","","","704.7999999523163","","","18","10845","5249","c","elianto","#3366ff99"," "," ","1","0","[1561.2999999523163]","1","2","","","10845","89","5","1","win","go","1"
"pit-trial","208","1343022","0.0-94.0","battery-v0.2","","""event"",""trial"",""time""
""fullscreenenter"",""1"",""1846""
","
","
","""event"",""trial"",""time""
""fullscreenenter"",""1"",""1846""
","
","","","-1","","","18","10845","5249","t","elianto","#f73b6a7A"," ","-1","0","-10","[]","0","2","","","10845","90","7","3","lose","go","0"
"pit-trial","209","1346553","0.0-95.0","battery-v0.2","","""event"",""trial"",""time""
""fullscreenenter"",""1"",""1846""
","
","
","""event"",""trial"",""time""
""fullscreenenter"",""1"",""1846""
","
","","","666.5","","","18","10845","5249","z","elianto","#3366ff99","-1"," ","0","0","[1517.4000000953674]","1","2","","","10845","91","4","2","win","no-go","0"
"pit-trial","210","1350625","0.0-96.0","battery-v0.2","","""event"",""trial"",""time""
""fullscreenenter"",""1"",""1846""
","
","
","""event"",""trial"",""time""
""fullscreenenter"",""1"",""1846""
","
","","","1207.7000000476837","","","18","10845","5249","b","elianto","#f73b6a7A","-1"," ","0","-10","[2059.0999999046326]","1","2","","","10845","92","6","4","lose","no-go","0"
"pit-trial","211","1355498","0.0-97.0","battery-v0.2","","""event"",""trial"",""time""
""fullscreenenter"",""1"",""1846""
","
","
","""event"",""trial"",""time""
""fullscreenenter"",""1"",""1846""
","
","","","-1","","","18","10845","5249","c","elianto","#3366ff99"," ","-1","0","0","[]","0","2","","","10845","93","5","1","win","go","0"
"pit-trial","212","1359209","0.0-98.0","battery-v0.2","","""event"",""trial"",""time""
""fullscreenenter"",""1"",""1846""
","
","
","""event"",""trial"",""time""
""fullscreenenter"",""1"",""1846""
","
","","","837.3999998569489","","","18","10845","5249","f","elianto","#3366ff99","-1"," ","0","0","[1694.7000000476837]","1","2","","","10845","94","8","2","win","no-go","0"
"pit-trial","213","1364080","0.0-99.0","battery-v0.2","","""event"",""trial"",""time""
""fullscreenenter"",""1"",""1846""
","
","
","""event"",""trial"",""time""
""fullscreenenter"",""1"",""1846""
","
","","","-1","","","18","10845","5249","b","elianto","#f73b6a7A","-1","-1","1","-10","[]","0","2","","","10845","95","6","4","lose","no-go","1"
"pit-trial","214","1368113","0.0-100.0","battery-v0.2","","""event"",""trial"",""time""
""fullscreenenter"",""1"",""1846""
","
","
","""event"",""trial"",""time""
""fullscreenenter"",""1"",""1846""
","
","","","1166","","","18","10845","5249","t","elianto","#f73b6a7A"," "," ","1","0","[2023.7999999523163]","1","2","","","10845","96","7","3","lose","go","0"
"pit-trial","215","1371802","0.0-101.0","battery-v0.2","","""event"",""trial"",""time""
""fullscreenenter"",""1"",""1846""
","
","
","""event"",""trial"",""time""
""fullscreenenter"",""1"",""1846""
","
","","","818.2000000476837","","","18","10845","5249","f","elianto","#3366ff99","-1"," ","0","0","[1676.7000000476837]","1","2","","","10845","97","8","2","win","no-go","0"
"pit-trial","216","1375297","0.0-102.0","battery-v0.2","","""event"",""trial"",""time""
""fullscreenenter"",""1"",""1846""
","
","
","""event"",""trial"",""time""
""fullscreenenter"",""1"",""1846""
","
","","","632.5","","","18","10845","5249","c","elianto","#3366ff99"," "," ","1","+10","[1486]","1","2","","","10845","98","5","1","win","go","0"
"pit-trial","217","1379401","0.0-103.0","battery-v0.2","","""event"",""trial"",""time""
""fullscreenenter"",""1"",""1846""
","
","
","""event"",""trial"",""time""
""fullscreenenter"",""1"",""1846""
","
","","","1231.7000000476837","","","18","10845","5249","t","elianto","#f73b6a7A"," "," ","1","0","[2088.5]","1","2","","","10845","99","7","3","lose","go","0"
"pit-trial","218","1384273","0.0-104.0","battery-v0.2","","""event"",""trial"",""time""
""fullscreenenter"",""1"",""1846""
","
","
","""event"",""trial"",""time""
""fullscreenenter"",""1"",""1846""
","
","","","-1","","","18","10845","5249","b","elianto","#f73b6a7A","-1","-1","1","0","[]","0","2","","","10845","100","6","4","lose","no-go","0"
"pit-trial","219","1388569","0.0-105.0","battery-v0.2","","""event"",""trial"",""time""
""fullscreenenter"",""1"",""1846""
","
","
","""event"",""trial"",""time""
""fullscreenenter"",""1"",""1846""
","
","","","1433.4000000953674","","","18","10845","5249","c","elianto","#3366ff99"," "," ","1","0","[2283.5]","1","2","","","10845","101","5","1","win","go","1"
"pit-trial","220","1392825","0.0-106.0","battery-v0.2","","""event"",""trial"",""time""
""fullscreenenter"",""1"",""1846""
","
","
","""event"",""trial"",""time""
""fullscreenenter"",""1"",""1846""
","
","","","1390.2000000476837","","","18","10845","5249","b","elianto","#f73b6a7A","-1"," ","0","0","[2242.600000143051]","1","2","","","10845","102","6","4","lose","no-go","1"
"pit-trial","221","1396489","0.0-107.0","battery-v0.2","","""event"",""trial"",""time""
""fullscreenenter"",""1"",""1846""
","
","
","""event"",""trial"",""time""
""fullscreenenter"",""1"",""1846""
","
","","","795.2999999523163","","","18","10845","5249","n","elianto","#3366ff99","-1"," ","0","0","[1652.3999998569489]","1","2","","","10845","103","9","2","win","no-go","0"
"pit-trial","222","1400261","0.0-108.0","battery-v0.2","","""event"",""trial"",""time""
""fullscreenenter"",""1"",""1846""
","
","
","""event"",""trial"",""time""
""fullscreenenter"",""1"",""1846""
","
","","","901.4000000953674","","","18","10845","5249","f","elianto","#3366ff99","-1"," ","0","0","[1759.5]","1","2","","","10845","104","8","2","win","no-go","0"
"pit-trial","223","1404062","0.0-109.0","battery-v0.2","","""event"",""trial"",""time""
""fullscreenenter"",""1"",""1846""
","
","
","""event"",""trial"",""time""
""fullscreenenter"",""1"",""1846""
","
","","","939.5","","","18","10845","5249","f","elianto","#3366ff99","-1"," ","0","0","[1793.0999999046326]","1","2","","","10845","105","8","2","win","no-go","0"
"pit-trial","224","1407601","0.0-110.0","battery-v0.2","","""event"",""trial"",""time""
""fullscreenenter"",""1"",""1846""
","
","
","""event"",""trial"",""time""
""fullscreenenter"",""1"",""1846""
","
","","","666.1999998092651","","","18","10845","5249","c","elianto","#3366ff99"," "," ","1","+10","[1522.3000001907349]","1","2","","","10845","106","5","1","win","go","0"
"pit-trial","225","1412473","0.0-111.0","battery-v0.2","","""event"",""trial"",""time""
""fullscreenenter"",""1"",""1846""
","
","
","""event"",""trial"",""time""
""fullscreenenter"",""1"",""1846""
","
","","","-1","","","18","10845","5249","b","elianto","#f73b6a7A","-1","-1","1","0","[]","0","2","","","10845","107","6","4","lose","no-go","0"
"pit-trial","226","1417342","0.0-112.0","battery-v0.2","","""event"",""trial"",""time""
""fullscreenenter"",""1"",""1846""
","
","
","""event"",""trial"",""time""
""fullscreenenter"",""1"",""1846""
","
","","","-1","","","18","10845","5249","n","elianto","#3366ff99","-1","-1","1","+10","[]","0","2","","","10845","108","9","2","win","no-go","0"
"pit-trial","227","1422217","0.0-113.0","battery-v0.2","","""event"",""trial"",""time""
""fullscreenenter"",""1"",""1846""
","
","
","""event"",""trial"",""time""
""fullscreenenter"",""1"",""1846""
","
","","","-1","","","18","10845","5249","n","elianto","#3366ff99","-1","-1","1","+10","[]","0","2","","","10845","109","9","2","win","no-go","0"
"pit-trial","228","1426609","0.0-114.0","battery-v0.2","","""event"",""trial"",""time""
""fullscreenenter"",""1"",""1846""
","
","
","""event"",""trial"",""time""
""fullscreenenter"",""1"",""1846""
","
","","","1523.8999998569489","","","18","10845","5249","f","elianto","#3366ff99","-1"," ","0","+10","[2378.2000000476837]","1","2","","","10845","110","8","2","win","no-go","1"
"pit-trial","229","1430929","0.0-115.0","battery-v0.2","","""event"",""trial"",""time""
""fullscreenenter"",""1"",""1846""
","
","
","""event"",""trial"",""time""
""fullscreenenter"",""1"",""1846""
","
","","","1452.5999999046326","","","18","10845","5249","c","elianto","#3366ff99"," "," ","1","+10","[2310.0999999046326]","1","2","","","10845","111","5","1","win","go","0"
"pit-trial","230","1435801","0.0-116.0","battery-v0.2","","""event"",""trial"",""time""
""fullscreenenter"",""1"",""1846""
","
","
","""event"",""trial"",""time""
""fullscreenenter"",""1"",""1846""
","
","","","-1","","","18","10845","5249","b","elianto","#f73b6a7A","-1","-1","1","-10","[]","0","2","","","10845","112","6","4","lose","no-go","1"
"pit-trial","231","1439353","0.0-117.0","battery-v0.2","","""event"",""trial"",""time""
""fullscreenenter"",""1"",""1846""
","
","
","""event"",""trial"",""time""
""fullscreenenter"",""1"",""1846""
","
","","","685.2999999523163","","","18","10845","5249","c","elianto","#3366ff99"," "," ","1","+10","[1537]","1","2","","","10845","113","5","1","win","go","0"
"pit-trial","232","1444222","0.0-118.0","battery-v0.2","","""event"",""trial"",""time""
""fullscreenenter"",""1"",""1846""
","
","
","""event"",""trial"",""time""
""fullscreenenter"",""1"",""1846""
","
","","","-1","","","18","10845","5249","t","elianto","#f73b6a7A"," ","-1","0","-10","[]","0","2","","","10845","114","7","3","lose","go","0"
"pit-trial","233","1447636","0.0-119.0","battery-v0.2","","""event"",""trial"",""time""
""fullscreenenter"",""1"",""1846""
","
","
","""event"",""trial"",""time""
""fullscreenenter"",""1"",""1846""
","
","","","554.5","","","18","10845","5249","f","elianto","#3366ff99","-1"," ","0","0","[1405]","1","2","","","10845","115","8","2","win","no-go","0"
"pit-trial","234","1452505","0.0-120.0","battery-v0.2","","""event"",""trial"",""time""
""fullscreenenter"",""1"",""1846""
","
","
","""event"",""trial"",""time""
""fullscreenenter"",""1"",""1846""
","
","","","-1","","","18","10845","5249","n","elianto","#3366ff99","-1","-1","1","+10","[]","0","2","","","10845","116","9","2","win","no-go","0"
"pit-trial","235","1456008","0.0-121.0","battery-v0.2","","""event"",""trial"",""time""
""fullscreenenter"",""1"",""1846""
","
","
","""event"",""trial"",""time""
""fullscreenenter"",""1"",""1846""
","
","","","637.9000000953674","","","18","10845","5249","f","elianto","#3366ff99","-1"," ","0","0","[1488.0999999046326]","1","2","","","10845","117","8","2","win","no-go","0"
"pit-trial","236","1459552","0.0-122.0","battery-v0.2","","""event"",""trial"",""time""
""fullscreenenter"",""1"",""1846""
","
","
","""event"",""trial"",""time""
""fullscreenenter"",""1"",""1846""
","
","","","672.7000000476837","","","18","10845","5249","c","elianto","#3366ff99"," "," ","1","+10","[1529.6999998092651]","1","2","","","10845","118","5","1","win","go","0"
"pit-trial","237","1463137","0.0-123.0","battery-v0.2","","""event"",""trial"",""time""
""fullscreenenter"",""1"",""1846""
","
","
","""event"",""trial"",""time""
""fullscreenenter"",""1"",""1846""
","
","","","718","","","18","10845","5249","b","elianto","#f73b6a7A","-1"," ","0","-10","[1569.5]","1","2","","","10845","119","6","4","lose","no-go","0"
"pit-trial","238","1468009","0.0-124.0","battery-v0.2","","""event"",""trial"",""time""
""fullscreenenter"",""1"",""1846""
","
","
","""event"",""trial"",""time""
""fullscreenenter"",""1"",""1846""
","
","","","-1","","","18","10845","5249","n","elianto","#3366ff99","-1","-1","1","+10","[]","0","2","","","10845","120","9","2","win","no-go","0"
"pit-trial","239","1472376","0.0-125.0","battery-v0.2","","""event"",""trial"",""time""
""fullscreenenter"",""1"",""1846""
","
","
","""event"",""trial"",""time""
""fullscreenenter"",""1"",""1846""
","
","","","1498.8000001907349","","","18","10845","5249","t","elianto","#f73b6a7A"," "," ","1","0","[2355.7000000476837]","1","2","","","10845","121","7","3","lose","go","0"
"pit-trial","240","1477249","0.0-126.0","battery-v0.2","","""event"",""trial"",""time""
""fullscreenenter"",""1"",""1846""
","
","
","""event"",""trial"",""time""
""fullscreenenter"",""1"",""1846""
","
","","","-1","","","18","10845","5249","n","elianto","#3366ff99","-1","-1","1","+10","[]","0","2","","","10845","122","9","2","win","no-go","0"
"pit-trial","241","1482120","0.0-127.0","battery-v0.2","","""event"",""trial"",""time""
""fullscreenenter"",""1"",""1846""
","
","
","""event"",""trial"",""time""
""fullscreenenter"",""1"",""1846""
","
","","","-1","","","18","10845","5249","f","elianto","#3366ff99","-1","-1","1","+10","[]","0","2","","","10845","123","8","2","win","no-go","0"
"pit-trial","242","1486993","0.0-128.0","battery-v0.2","","""event"",""trial"",""time""
""fullscreenenter"",""1"",""1846""
","
","
","""event"",""trial"",""time""
""fullscreenenter"",""1"",""1846""
","
","","","-1","","","18","10845","5249","c","elianto","#3366ff99"," ","-1","0","0","[3068]","1","2","","","10845","124","5","1","win","go","0"
"pit-trial","243","1491248","0.0-129.0","battery-v0.2","","""event"",""trial"",""time""
""fullscreenenter"",""1"",""1846""
","
","
","""event"",""trial"",""time""
""fullscreenenter"",""1"",""1846""
","
","","","1383.3999998569489","","","18","10845","5249","t","elianto","#f73b6a7A"," "," ","1","0","[2240.5999999046326]","1","2","","","10845","125","7","3","lose","go","0"
"pit-trial","244","1496120","0.0-130.0","battery-v0.2","","""event"",""trial"",""time""
""fullscreenenter"",""1"",""1846""
","
","
","""event"",""trial"",""time""
""fullscreenenter"",""1"",""1846""
","
","","","-1","","","18","10845","5249","n","elianto","#3366ff99","-1","-1","1","+10","[]","0","2","","","10845","126","9","2","win","no-go","0"
"pit-trial","245","1500992","0.0-131.0","battery-v0.2","","""event"",""trial"",""time""
""fullscreenenter"",""1"",""1846""
","
","
","""event"",""trial"",""time""
""fullscreenenter"",""1"",""1846""
","
","","","-1","","","18","10845","5249","f","elianto","#3366ff99","-1","-1","1","0","[]","0","2","","","10845","127","8","2","win","no-go","1"
"pit-trial","246","1505144","0.0-132.0","battery-v0.2","","""event"",""trial"",""time""
""fullscreenenter"",""1"",""1846""
","
","
","""event"",""trial"",""time""
""fullscreenenter"",""1"",""1846""
","
","","","1278.2000000476837","","","18","10845","5249","b","elianto","#f73b6a7A","-1"," ","0","0","[2136.0999999046326]","1","2","","","10845","128","6","4","lose","no-go","1"
"pit-trial","247","1508937","0.0-133.0","battery-v0.2","","""event"",""trial"",""time""
""fullscreenenter"",""1"",""1846""
","
","
","""event"",""trial"",""time""
""fullscreenenter"",""1"",""1846""
","
","","","919.5","","","18","10845","5249","t","elianto","#f73b6a7A"," "," ","1","-10","[1777.7000000476837]","1","2","","","10845","129","7","3","lose","go","1"
"pit-trial","248","1513177","0.0-134.0","battery-v0.2","","""event"",""trial"",""time""
""fullscreenenter"",""1"",""1846""
","
","
","""event"",""trial"",""time""
""fullscreenenter"",""1"",""1846""
","
","","","1373.7999999523163","","","18","10845","5249","b","elianto","#f73b6a7A","-1"," ","0","-10","[2223.9000000953674]","1","2","","","10845","130","6","4","lose","no-go","0"
"pit-trial","249","1516782","0.0-135.0","battery-v0.2","","""event"",""trial"",""time""
""fullscreenenter"",""1"",""1846""
","
","
","""event"",""trial"",""time""
""fullscreenenter"",""1"",""1846""
","
","","","738.7000000476837","","","18","10845","5249","f","elianto","#3366ff99","-1"," ","0","0","[1596.2000000476837]","1","2","","","10845","131","8","2","win","no-go","0"
"pit-trial","250","1521656","0.0-136.0","battery-v0.2","","""event"",""trial"",""time""
""fullscreenenter"",""1"",""1846""
","
","
","""event"",""trial"",""time""
""fullscreenenter"",""1"",""1846""
","
","","","-1","","","18","10845","5249","n","elianto","#3366ff99","-1","-1","1","0","[]","0","2","","","10845","132","9","2","win","no-go","1"
"pit-trial","251","1526529","0.0-137.0","battery-v0.2","","""event"",""trial"",""time""
""fullscreenenter"",""1"",""1846""
","
","
","""event"",""trial"",""time""
""fullscreenenter"",""1"",""1846""
","
","","","-1","","","18","10845","5249","b","elianto","#f73b6a7A","-1","-1","1","0","[]","0","2","","","10845","133","6","4","lose","no-go","0"
"pit-trial","252","1531400","0.0-138.0","battery-v0.2","","""event"",""trial"",""time""
""fullscreenenter"",""1"",""1846""
","
","
","""event"",""trial"",""time""
""fullscreenenter"",""1"",""1846""
","
","","","-1","","","18","10845","5249","n","elianto","#3366ff99","-1","-1","1","+10","[]","0","2","","","10845","134","9","2","win","no-go","0"
"pit-trial","253","1535301","0.0-139.0","battery-v0.2","","""event"",""trial"",""time""
""fullscreenenter"",""1"",""1846""
","
","
","""event"",""trial"",""time""
""fullscreenenter"",""1"",""1846""
","
","","","1033.4000000953674","","","18","10845","5249","f","elianto","#3366ff99","-1"," ","0","+10","[1889.0999999046326]","1","2","","","10845","135","8","2","win","no-go","1"
"pit-trial","254","1540168","0.0-140.0","battery-v0.2","","""event"",""trial"",""time""
""fullscreenenter"",""1"",""1846""
","
","
","""event"",""trial"",""time""
""fullscreenenter"",""1"",""1846""
","
","","","-1","","","18","10845","5249","t","elianto","#f73b6a7A"," ","-1","0","-10","[]","0","2","","","10845","136","7","3","lose","go","0"
"pit-trial","255","1544384","0.0-141.0","battery-v0.2","","""event"",""trial"",""time""
""fullscreenenter"",""1"",""1846""
","
","
","""event"",""trial"",""time""
""fullscreenenter"",""1"",""1846""
","
","","","1350","","","18","10845","5249","t","elianto","#f73b6a7A"," "," ","1","0","[2205.800000190735]","1","2","","","10845","137","7","3","lose","go","0"
"pit-trial","256","1549256","0.0-142.0","battery-v0.2","","""event"",""trial"",""time""
""fullscreenenter"",""1"",""1846""
","
","
","""event"",""trial"",""time""
""fullscreenenter"",""1"",""1846""
","
","","","-1","","","18","10845","5249","n","elianto","#3366ff99","-1","-1","1","+10","[]","0","2","","","10845","138","9","2","win","no-go","0"
"pit-trial","257","1554129","0.0-143.0","battery-v0.2","","""event"",""trial"",""time""
""fullscreenenter"",""1"",""1846""
","
","
","""event"",""trial"",""time""
""fullscreenenter"",""1"",""1846""
","
","","","-1","","","18","10845","5249","b","elianto","#f73b6a7A","-1","-1","1","0","[]","0","2","","","10845","139","6","4","lose","no-go","0"
"pit-trial","258","1557928","0.0-144.0","battery-v0.2","","""event"",""trial"",""time""
""fullscreenenter"",""1"",""1846""
","
","
","""event"",""trial"",""time""
""fullscreenenter"",""1"",""1846""
","
","","","928.8999998569489","","","18","10845","5249","f","elianto","#3366ff99","-1"," ","0","0","[1786.6999998092651]","1","2","","","10845","140","8","2","win","no-go","0"
"pit-instructions","259","1572177","0.0-145.0","battery-v0.2","","""event"",""trial"",""time""
""fullscreenenter"",""1"",""1846""
","
","
","""event"",""trial"",""time""
""fullscreenenter"",""1"",""1846""
","
","","[{""page_index"":0,""viewing_time"":6009.399999856949},{""page_index"":1,""viewing_time"":8235.800000190735}]","14245.399999856949","","","","","","","","","","","","","","","","","","","","","","","",""
"pit-trial","260","1575920","0.0-146.0","battery-v0.2","","""event"",""trial"",""time""
""fullscreenenter"",""1"",""1846""
","
","
","""event"",""trial"",""time""
""fullscreenenter"",""1"",""1846""
","
","","","874.7000000476837","","","18","10845","5249","w","elianto","#f73b6a7A","-1"," ","0","-10","[1727.2999999523163]","1","3","","","10845","141","3","4","lose","no-go","0"
"pit-trial","261","1579368","0.0-147.0","battery-v0.2","","""event"",""trial"",""time""
""fullscreenenter"",""1"",""1846""
","
","
","""event"",""trial"",""time""
""fullscreenenter"",""1"",""1846""
","
","","","581","","","18","10845","5249","d","elianto","#3366ff99","-1"," ","0","0","[1433.5999999046326]","1","3","","","10845","142","1","2","win","no-go","0"
"pit-trial","262","1584033","0.0-148.0","battery-v0.2","","""event"",""trial"",""time""
""fullscreenenter"",""1"",""1846""
","
","
","""event"",""trial"",""time""
""fullscreenenter"",""1"",""1846""
","
","","","1799.6000001430511","","","18","10845","5249","j","elianto","#f73b6a7A"," "," ","1","0","[2651.7999999523163]","1","3","","","10845","143","0","3","lose","go","0"
"pit-trial","263","1588904","0.0-149.0","battery-v0.2","","""event"",""trial"",""time""
""fullscreenenter"",""1"",""1846""
","
","
","""event"",""trial"",""time""
""fullscreenenter"",""1"",""1846""
","
","","","-1","","","18","10845","5249","e","elianto","#f73b6a7A"," ","-1","0","-10","[]","0","3","","","10845","144","2","3","lose","go","0"
"pit-trial","264","1592376","0.0-150.0","battery-v0.2","","""event"",""trial"",""time""
""fullscreenenter"",""1"",""1846""
","
","
","""event"",""trial"",""time""
""fullscreenenter"",""1"",""1846""
","
","","","605.5","","","18","10845","5249","d","elianto","#3366ff99","-1"," ","0","0","[1461.7999999523163]","1","3","","","10845","145","1","2","win","no-go","0"
"pit-trial","265","1597248","0.0-151.0","battery-v0.2","","""event"",""trial"",""time""
""fullscreenenter"",""1"",""1846""
","
","
","""event"",""trial"",""time""
""fullscreenenter"",""1"",""1846""
","
","","","-1","","","18","10845","5249","w","elianto","#f73b6a7A","-1","-1","1","0","[]","0","3","","","10845","146","3","4","lose","no-go","0"
"pit-trial","266","1600966","0.0-152.0","battery-v0.2","","""event"",""trial"",""time""
""fullscreenenter"",""1"",""1846""
","
","
","""event"",""trial"",""time""
""fullscreenenter"",""1"",""1846""
","
","","","852.2999999523163","","","18","10845","5249","j","elianto","#f73b6a7A"," "," ","1","0","[1709.7999999523163]","1","3","","","10845","147","0","3","lose","go","0"
"pit-trial","267","1605837","0.0-153.0","battery-v0.2","","""event"",""trial"",""time""
""fullscreenenter"",""1"",""1846""
","
","
","""event"",""trial"",""time""
""fullscreenenter"",""1"",""1846""
