"trial_type","trial_index","time_elapsed","internal_node_id","task_version","subject_id","interactions","blur_events","focus_events","fullscreenenter_events","fullscreenexit_events","success","view_history","rt","responses","num_errors","age","subject","participantId","rune","rune_set","hex","correct","choice","accuracy","outcome","keys","total_keys","block","practice","value","sub","trial","stimulus","robot","valence","action","sham"
"pavlovia","0","32","0.0-0.0","battery-v0.2","","""event"",""trial"",""time""
""fullscreenenter"",""1"",""5166""
","
","
","""event"",""trial"",""time""
""fullscreenenter"",""1"",""5166""
","
","","","","","","","","","","","","","","","","","","","","","","","","","","",""
"fullscreen","1","6151","0.0-1.0","battery-v0.2","","""event"",""trial"",""time""
""fullscreenenter"",""1"",""5166""
","
","
","""event"",""trial"",""time""
""fullscreenenter"",""1"",""5166""
","
","true","","","","","","","","","","","","","","","","","","","","","","","","","",""
"pit-instructions","2","11187","0.0-2.0-0.0","battery-v0.2","","""event"",""trial"",""time""
""fullscreenenter"",""1"",""5166""
","
","
","""event"",""trial"",""time""
""fullscreenenter"",""1"",""5166""
","
","","[{""page_index"":0,""viewing_time"":5029.599999904633}]","5030.399999856949","","","","","","","","","","","","","","","","","","","","","","","",""
"pit-comprehension","3","13513","0.0-2.0-1.0-0.0","battery-v0.2","","""event"",""trial"",""time""
""fullscreenenter"",""1"",""5166""
","
","
","""event"",""trial"",""time""
""fullscreenenter"",""1"",""5166""
","
","","","2316.2000000476837","[""shark""]","0","21","6062","1818","","","","","","","","","","","","","","","","","","",""
"pit-instructions","4","16703","0.0-2.0-1.0-1.0","battery-v0.2","","""event"",""trial"",""time""
""fullscreenenter"",""1"",""5166""
","
","
","""event"",""trial"",""time""
""fullscreenenter"",""1"",""5166""
","
","","[{""page_index"":0,""viewing_time"":3176.899999856949}]","3177.5","","","","","","","","","","","","","","","","","","","","","","","",""
"pit-comprehension","5","19172","0.0-2.0-2.0-0.0","battery-v0.2","","""event"",""trial"",""time""
""fullscreenenter"",""1"",""5166""
","
","
","""event"",""trial"",""time""
""fullscreenenter"",""1"",""5166""
","
","","","2460.600000143051","[""tiger""]","0","21","6062","1818","","","","","","","","","","","","","","","","","","",""
"pit-instructions","6","20057","0.0-2.0-2.0-1.0","battery-v0.2","","""event"",""trial"",""time""
""fullscreenenter"",""1"",""5166""
","
","
","""event"",""trial"",""time""
""fullscreenenter"",""1"",""5166""
","
","","[{""page_index"":0,""viewing_time"":877}]","877.5999999046326","","","","","","","","","","","","","","","","","","","","","","","",""
"pit-instructions","7","111614","0.0-2.0-3.0","battery-v0.2","","""event"",""trial"",""time""
""fullscreenenter"",""1"",""5166""
","
","
","""event"",""trial"",""time""
""fullscreenenter"",""1"",""5166""
","
","","[{""page_index"":0,""viewing_time"":8080.100000143051},{""page_index"":1,""viewing_time"":5398},{""page_index"":2,""viewing_time"":6285.200000047684},{""page_index"":3,""viewing_time"":5389.799999952316},{""page_index"":4,""viewing_time"":5892.700000047684},{""page_index"":5,""viewing_time"":5234.899999856949},{""page_index"":6,""viewing_time"":6722.600000143051},{""page_index"":7,""viewing_time"":6573.199999809265},{""page_index"":8,""viewing_time"":6714.900000095367},{""page_index"":9,""viewing_time"":7861.700000047684},{""page_index"":10,""viewing_time"":7643.700000047684},{""page_index"":11,""viewing_time"":7970},{""page_index"":12,""viewing_time"":6235.099999904633},{""page_index"":13,""viewing_time"":5550.299999952316}]","91553.20000004768","","","","","","","","","","","","","","","","","","","","","","","",""
"pit-trial","8","115070","0.0-2.0-4.0-0.0","battery-v0.2","","""event"",""trial"",""time""
""fullscreenenter"",""1"",""5166""
","
","
","""event"",""trial"",""time""
""fullscreenenter"",""1"",""5166""
","
","","","594.2999999523163","","","21","6062","1818","&#9784;","elianto","#FFFFF080"," "," ","1","&#10004","[1445.9000000953674]","1","0","0","","","","","","","",""
"pit-trial","9","118668","0.0-2.0-4.1-0.1","battery-v0.2","","""event"",""trial"",""time""
""fullscreenenter"",""1"",""5166""
","
","
","""event"",""trial"",""time""
""fullscreenenter"",""1"",""5166""
","
","","","735.5","","","21","6062","1818","&#9784;","elianto","#FFFFF080"," "," ","1","&#10004","[1589.7000000476837]","1","0","0","","","","","","","",""
"pit-trial","10","122535","0.0-2.0-4.2-0.2","battery-v0.2","","""event"",""trial"",""time""
""fullscreenenter"",""1"",""5166""
","
","
","""event"",""trial"",""time""
""fullscreenenter"",""1"",""5166""
","
","","","1003.0999999046326","","","21","6062","1818","&#9784;","elianto","#FFFFF080"," "," ","1","&#10004","[1855.7000000476837]","1","0","0","","","","","","","",""
"pit-trial","11","125885","0.0-2.0-4.3-0.3","battery-v0.2","","""event"",""trial"",""time""
""fullscreenenter"",""1"",""5166""
","
","
","""event"",""trial"",""time""
""fullscreenenter"",""1"",""5166""
","
","","","487.2999999523163","","","21","6062","1818","&#9784;","elianto","#FFFFF080"," "," ","1","&#10004","[1339.1999998092651]","1","0","0","","","","","","","",""
"pit-trial","12","129242","0.0-2.0-4.4-0.4","battery-v0.2","","""event"",""trial"",""time""
""fullscreenenter"",""1"",""5166""
","
","
","""event"",""trial"",""time""
""fullscreenenter"",""1"",""5166""
","
","","","495","","","21","6062","1818","&#9784;","elianto","#FFFFF080"," "," ","1","&#10004","[1349.1999998092651]","1","0","0","","","","","","","",""
"pit-instructions","13","182558","0.0-2.0-5.0","battery-v0.2","","""event"",""trial"",""time""
""fullscreenenter"",""1"",""5166""
","
","
","""event"",""trial"",""time""
""fullscreenenter"",""1"",""5166""
","
","","[{""page_index"":0,""viewing_time"":7316.399999856949},{""page_index"":1,""viewing_time"":7197.400000095367},{""page_index"":2,""viewing_time"":32030},{""page_index"":3,""viewing_time"":6767.099999904633}]","53311.89999985695","","","","","","","","","","","","","","","","","","","","","","","",""
"pit-trial","14","187424","0.0-2.0-6.0-0.0","battery-v0.2","","""event"",""trial"",""time""
""fullscreenenter"",""1"",""5166""
","
","
","""event"",""trial"",""time""
""fullscreenenter"",""1"",""5166""
","
","","","-1","","","21","6062","1818","&#9854;","elianto","#FFFFF080","-1","-1","1","&#10004","[]","0","0","1","","","","","","","",""
"pit-trial","15","192287","0.0-2.0-6.1-0.1","battery-v0.2","","""event"",""trial"",""time""
""fullscreenenter"",""1"",""5166""
","
","
","""event"",""trial"",""time""
""fullscreenenter"",""1"",""5166""
","
","","","-1","","","21","6062","1818","&#9854;","elianto","#FFFFF080","-1","-1","1","&#10004","[]","0","0","1","","","","","","","",""
"pit-trial","16","197145","0.0-2.0-6.2-0.2","battery-v0.2","","""event"",""trial"",""time""
""fullscreenenter"",""1"",""5166""
","
","
","""event"",""trial"",""time""
""fullscreenenter"",""1"",""5166""
","
","","","-1","","","21","6062","1818","&#9854;","elianto","#FFFFF080","-1","-1","1","&#10004","[]","0","0","1","","","","","","","",""
"pit-trial","17","202008","0.0-2.0-6.3-0.3","battery-v0.2","","""event"",""trial"",""time""
""fullscreenenter"",""1"",""5166""
","
","
","""event"",""trial"",""time""
""fullscreenenter"",""1"",""5166""
","
","","","-1","","","21","6062","1818","&#9854;","elianto","#FFFFF080","-1","-1","1","&#10004","[]","0","0","1","","","","","","","",""
"pit-trial","18","206873","0.0-2.0-6.4-0.4","battery-v0.2","","""event"",""trial"",""time""
""fullscreenenter"",""1"",""5166""
","
","
","""event"",""trial"",""time""
""fullscreenenter"",""1"",""5166""
","
","","","-1","","","21","6062","1818","&#9854;","elianto","#FFFFF080","-1","-1","1","&#10004","[]","0","0","1","","","","","","","",""
"pit-instructions","19","342567","0.0-2.0-7.0","battery-v0.2","","""event"",""trial"",""time""
""fullscreenenter"",""1"",""5166""
","
","
","""event"",""trial"",""time""
""fullscreenenter"",""1"",""5166""
","
","","[{""page_index"":0,""viewing_time"":8324},{""page_index"":1,""viewing_time"":10417.200000047684},{""page_index"":2,""viewing_time"":7507.100000143051},{""page_index"":3,""viewing_time"":9067.399999856949},{""page_index"":4,""viewing_time"":5046.900000095367},{""page_index"":5,""viewing_time"":8308.399999856949},{""page_index"":6,""viewing_time"":7482},{""page_index"":7,""viewing_time"":10220.700000047684},{""page_index"":8,""viewing_time"":8111.100000143051},{""page_index"":9,""viewing_time"":7097.099999904633},{""page_index"":10,""viewing_time"":6256.700000047684},{""page_index"":11,""viewing_time"":4310.599999904633},{""page_index"":12,""viewing_time"":7797.900000095367},{""page_index"":13,""viewing_time"":7164},{""page_index"":14,""viewing_time"":7475.099999904633},{""page_index"":15,""viewing_time"":7397.400000095367},{""page_index"":16,""viewing_time"":6426.599999904633},{""page_index"":17,""viewing_time"":7282}]","135692.40000009537","","","","","","","","","","","","","","","","","","","","","","","",""
"pit-trial","20","346093","0.0-2.0-8.0-0.0","battery-v0.2","","""event"",""trial"",""time""
""fullscreenenter"",""1"",""5166""
","
","
","""event"",""trial"",""time""
""fullscreenenter"",""1"",""5166""
","
","","","665.0999999046326","","","21","6062","1818","&#9776;","elianto","#3366ff99"," "," ","1","+10","[1517.4000000953674]","1","0","1","","","","","","","",""
"pit-trial","21","349357","0.0-2.0-8.0-1.0","battery-v0.2","","""event"",""trial"",""time""
""fullscreenenter"",""1"",""5166""
","
","
","""event"",""trial"",""time""
""fullscreenenter"",""1"",""5166""
","
","","","406.5","","","21","6062","1818","&#9776;","elianto","#3366ff99"," "," ","1","+10","[1260.8999998569489]","1","0","1","","","","","","","",""
"pit-trial","22","352614","0.0-2.0-8.0-2.0","battery-v0.2","","""event"",""trial"",""time""
""fullscreenenter"",""1"",""5166""
","
","
","""event"",""trial"",""time""
""fullscreenenter"",""1"",""5166""
","
","","","402","","","21","6062","1818","&#9776;","elianto","#3366ff99"," "," ","1","+10","[1253.6999998092651]","1","0","1","","","","","","","",""
"pit-trial","23","355661","0.0-2.0-8.0-3.0","battery-v0.2","","""event"",""trial"",""time""
""fullscreenenter"",""1"",""5166""
","
","
","""event"",""trial"",""time""
""fullscreenenter"",""1"",""5166""
","
","","","187.30000019073486","","","21","6062","1818","&#9776;","elianto","#3366ff99"," "," ","1","0","[1040.3000001907349]","1","0","1","","","","","","","",""
"pit-trial","24","358777","0.0-2.0-8.0-4.0","battery-v0.2","","""event"",""trial"",""time""
""fullscreenenter"",""1"",""5166""
","
","
","""event"",""trial"",""time""
""fullscreenenter"",""1"",""5166""
","
","","","255.40000009536743","","","21","6062","1818","&#9776;","elianto","#3366ff99"," "," ","1","+10","[1109.2000000476837]","1","0","1","","","","","","","",""
"pit-trial","25","361848","0.0-2.0-8.1-0.1","battery-v0.2","","""event"",""trial"",""time""
""fullscreenenter"",""1"",""5166""
","
","
","""event"",""trial"",""time""
""fullscreenenter"",""1"",""5166""
","
","","","210.90000009536743","","","21","6062","1818","&#9776;","elianto","#3366ff99"," "," ","1","+10","[1064.7999999523163]","1","0","1","","","","","","","",""
"pit-trial","26","364867","0.0-2.0-8.1-1.1","battery-v0.2","","""event"",""trial"",""time""
""fullscreenenter"",""1"",""5166""
","
","
","""event"",""trial"",""time""
""fullscreenenter"",""1"",""5166""
","
","","","160.5","","","21","6062","1818","&#9776;","elianto","#3366ff99"," "," ","1","+10","[1013.5999999046326]","1","0","1","","","","","","","",""
"pit-trial","27","367869","0.0-2.0-8.1-2.1","battery-v0.2","","""event"",""trial"",""time""
""fullscreenenter"",""1"",""5166""
","
","
","""event"",""trial"",""time""
""fullscreenenter"",""1"",""5166""
","
","","","140.60000014305115","","","21","6062","1818","&#9776;","elianto","#3366ff99"," "," ","1","+10","[993.7000000476837]","1","0","1","","","","","","","",""
"pit-trial","28","370906","0.0-2.0-8.1-3.1","battery-v0.2","","""event"",""trial"",""time""
""fullscreenenter"",""1"",""5166""
","
","
","""event"",""trial"",""time""
""fullscreenenter"",""1"",""5166""
","
","","","180.29999995231628","","","21","6062","1818","&#9776;","elianto","#3366ff99"," "," ","1","0","[1031.7999999523163]","1","0","1","","","","","","","",""
"pit-trial","29","374074","0.0-2.0-8.1-4.1","battery-v0.2","","""event"",""trial"",""time""
""fullscreenenter"",""1"",""5166""
","
","
","""event"",""trial"",""time""
""fullscreenenter"",""1"",""5166""
","
","","","305.39999985694885","","","21","6062","1818","&#9776;","elianto","#3366ff99"," "," ","1","+10","[1159.5999999046326]","1","0","1","","","","","","","",""
"pit-trial","30","377170","0.0-2.0-8.2-0.2","battery-v0.2","","""event"",""trial"",""time""
""fullscreenenter"",""1"",""5166""
","
","
","""event"",""trial"",""time""
""fullscreenenter"",""1"",""5166""
","
","","","239.20000004768372","","","21","6062","1818","&#9776;","elianto","#3366ff99"," "," ","1","+10","[1089.4000000953674]","1","0","1","","","","","","","",""
"pit-trial","31","380328","0.0-2.0-8.2-1.2","battery-v0.2","","""event"",""trial"",""time""
""fullscreenenter"",""1"",""5166""
","
","
","""event"",""trial"",""time""
""fullscreenenter"",""1"",""5166""
","
","","","294.2999999523163","","","21","6062","1818","&#9776;","elianto","#3366ff99"," "," ","1","+10","[1147.4000000953674]","1","0","1","","","","","","","",""
"pit-trial","32","383405","0.0-2.0-8.2-2.2","battery-v0.2","","""event"",""trial"",""time""
""fullscreenenter"",""1"",""5166""
","
","
","""event"",""trial"",""time""
""fullscreenenter"",""1"",""5166""
","
","","","213.39999985694885","","","21","6062","1818","&#9776;","elianto","#3366ff99"," "," ","1","+10","[1066.7999999523163]","1","0","1","","","","","","","",""
"pit-trial","33","386450","0.0-2.0-8.2-3.2","battery-v0.2","","""event"",""trial"",""time""
""fullscreenenter"",""1"",""5166""
","
","
","""event"",""trial"",""time""
""fullscreenenter"",""1"",""5166""
","
","","","181.79999995231628","","","21","6062","1818","&#9776;","elianto","#3366ff99"," "," ","1","0","[1035.5]","1","0","1","","","","","","","",""
"pit-trial","34","389458","0.0-2.0-8.2-4.2","battery-v0.2","","""event"",""trial"",""time""
""fullscreenenter"",""1"",""5166""
","
","
","""event"",""trial"",""time""
""fullscreenenter"",""1"",""5166""
","
","","","148.90000009536743","","","21","6062","1818","&#9776;","elianto","#3366ff99"," "," ","1","+10","[1002.7999999523163]","1","0","1","","","","","","","",""
"call-function","35","389463","0.0-2.0-9.0","battery-v0.2","","""event"",""trial"",""time""
""fullscreenenter"",""1"",""5166""
","
","
","""event"",""trial"",""time""
""fullscreenenter"",""1"",""5166""
","
","","","","","","","","","","","","","","","","","","","","","","","","","","",""
"pit-instructions","36","430848","0.0-2.0-10.0","battery-v0.2","","""event"",""trial"",""time""
""fullscreenenter"",""1"",""5166""
","
","
","""event"",""trial"",""time""
""fullscreenenter"",""1"",""5166""
","
","","[{""page_index"":0,""viewing_time"":8286.5},{""page_index"":1,""viewing_time"":6687.700000047684},{""page_index"":2,""viewing_time"":9431.200000047684},{""page_index"":3,""viewing_time"":9133.399999856949},{""page_index"":4,""viewing_time"":7846.100000143051}]","41385.40000009537","","","","","","","","","","","","","","","","","","","","","","","",""
"pit-trial","37","435709","0.0-2.0-11.0-0.0","battery-v0.2","","""event"",""trial"",""time""
""fullscreenenter"",""1"",""5166""
","
","
","""event"",""trial"",""time""
""fullscreenenter"",""1"",""5166""
","
","","","-1","","","21","6062","1818","&#9761;","elianto","#3366ff99","-1","-1","1","+10","[]","0","0","2","","","","","","","",""
"pit-trial","38","440573","0.0-2.0-11.0-1.0","battery-v0.2","","""event"",""trial"",""time""
""fullscreenenter"",""1"",""5166""
","
","
","""event"",""trial"",""time""
""fullscreenenter"",""1"",""5166""
","
","","","-1","","","21","6062","1818","&#9761;","elianto","#3366ff99","-1","-1","1","+10","[]","0","0","2","","","","","","","",""
"pit-trial","39","445436","0.0-2.0-11.0-2.0","battery-v0.2","","""event"",""trial"",""time""
""fullscreenenter"",""1"",""5166""
","
","
","""event"",""trial"",""time""
""fullscreenenter"",""1"",""5166""
","
","","","-1","","","21","6062","1818","&#9761;","elianto","#3366ff99","-1","-1","1","+10","[]","0","0","2","","","","","","","",""
"pit-trial","40","450295","0.0-2.0-11.0-3.0","battery-v0.2","","""event"",""trial"",""time""
""fullscreenenter"",""1"",""5166""
","
","
","""event"",""trial"",""time""
""fullscreenenter"",""1"",""5166""
","
","","","-1","","","21","6062","1818","&#9761;","elianto","#3366ff99","-1","-1","1","0","[]","0","0","2","","","","","","","",""
"pit-trial","41","455153","0.0-2.0-11.0-4.0","battery-v0.2","","""event"",""trial"",""time""
""fullscreenenter"",""1"",""5166""
","
","
","""event"",""trial"",""time""
""fullscreenenter"",""1"",""5166""
","
","","","-1","","","21","6062","1818","&#9761;","elianto","#3366ff99","-1","-1","1","+10","[]","0","0","2","","","","","","","",""
"pit-trial","42","460016","0.0-2.0-11.1-0.1","battery-v0.2","","""event"",""trial"",""time""
""fullscreenenter"",""1"",""5166""
","
","
","""event"",""trial"",""time""
""fullscreenenter"",""1"",""5166""
","
","","","-1","","","21","6062","1818","&#9761;","elianto","#3366ff99","-1","-1","1","+10","[]","0","0","2","","","","","","","",""
"pit-trial","43","464873","0.0-2.0-11.1-1.1","battery-v0.2","","""event"",""trial"",""time""
""fullscreenenter"",""1"",""5166""
","
","
","""event"",""trial"",""time""
""fullscreenenter"",""1"",""5166""
","
","","","-1","","","21","6062","1818","&#9761;","elianto","#3366ff99","-1","-1","1","+10","[]","0","0","2","","","","","","","",""
"pit-trial","44","469735","0.0-2.0-11.1-2.1","battery-v0.2","","""event"",""trial"",""time""
""fullscreenenter"",""1"",""5166""
","
","
","""event"",""trial"",""time""
""fullscreenenter"",""1"",""5166""
","
","","","-1","","","21","6062","1818","&#9761;","elianto","#3366ff99","-1","-1","1","+10","[]","0","0","2","","","","","","","",""
"pit-trial","45","474594","0.0-2.0-11.1-3.1","battery-v0.2","","""event"",""trial"",""time""
""fullscreenenter"",""1"",""5166""
","
","
","""event"",""trial"",""time""
""fullscreenenter"",""1"",""5166""
","
","","","-1","","","21","6062","1818","&#9761;","elianto","#3366ff99","-1","-1","1","0","[]","0","0","2","","","","","","","",""
"pit-trial","46","479457","0.0-2.0-11.1-4.1","battery-v0.2","","""event"",""trial"",""time""
""fullscreenenter"",""1"",""5166""
","
","
","""event"",""trial"",""time""
""fullscreenenter"",""1"",""5166""
","
","","","-1","","","21","6062","1818","&#9761;","elianto","#3366ff99","-1","-1","1","+10","[]","0","0","2","","","","","","","",""
"pit-trial","47","484318","0.0-2.0-11.2-0.2","battery-v0.2","","""event"",""trial"",""time""
""fullscreenenter"",""1"",""5166""
","
","
","""event"",""trial"",""time""
""fullscreenenter"",""1"",""5166""
","
","","","-1","","","21","6062","1818","&#9761;","elianto","#3366ff99","-1","-1","1","+10","[]","0","0","2","","","","","","","",""
"pit-trial","48","489182","0.0-2.0-11.2-1.2","battery-v0.2","","""event"",""trial"",""time""
""fullscreenenter"",""1"",""5166""
","
","
","""event"",""trial"",""time""
""fullscreenenter"",""1"",""5166""
","
","","","-1","","","21","6062","1818","&#9761;","elianto","#3366ff99","-1","-1","1","+10","[]","0","0","2","","","","","","","",""
"pit-trial","49","494044","0.0-2.0-11.2-2.2","battery-v0.2","","""event"",""trial"",""time""
""fullscreenenter"",""1"",""5166""
","
","
","""event"",""trial"",""time""
""fullscreenenter"",""1"",""5166""
","
","","","-1","","","21","6062","1818","&#9761;","elianto","#3366ff99","-1","-1","1","+10","[]","0","0","2","","","","","","","",""
"pit-trial","50","498910","0.0-2.0-11.2-3.2","battery-v0.2","","""event"",""trial"",""time""
""fullscreenenter"",""1"",""5166""
","
","
","""event"",""trial"",""time""
""fullscreenenter"",""1"",""5166""
","
","","","-1","","","21","6062","1818","&#9761;","elianto","#3366ff99","-1","-1","1","0","[]","0","0","2","","","","","","","",""
"pit-trial","51","503772","0.0-2.0-11.2-4.2","battery-v0.2","","""event"",""trial"",""time""
""fullscreenenter"",""1"",""5166""
","
","
","""event"",""trial"",""time""
""fullscreenenter"",""1"",""5166""
","
","","","-1","","","21","6062","1818","&#9761;","elianto","#3366ff99","-1","-1","1","+10","[]","0","0","2","","","","","","","",""
"pit-trial","52","508635","0.0-2.0-11.3-0.3","battery-v0.2","","""event"",""trial"",""time""
""fullscreenenter"",""1"",""5166""
","
","
","""event"",""trial"",""time""
""fullscreenenter"",""1"",""5166""
","
","","","-1","","","21","6062","1818","&#9761;","elianto","#3366ff99","-1","-1","1","+10","[]","0","0","2","","","","","","","",""
"pit-trial","53","513496","0.0-2.0-11.3-1.3","battery-v0.2","","""event"",""trial"",""time""
""fullscreenenter"",""1"",""5166""
","
","
","""event"",""trial"",""time""
""fullscreenenter"",""1"",""5166""
","
","","","-1","","","21","6062","1818","&#9761;","elianto","#3366ff99","-1","-1","1","+10","[]","0","0","2","","","","","","","",""
"pit-trial","54","518358","0.0-2.0-11.3-2.3","battery-v0.2","","""event"",""trial"",""time""
""fullscreenenter"",""1"",""5166""
","
","
","""event"",""trial"",""time""
""fullscreenenter"",""1"",""5166""
","
","","","-1","","","21","6062","1818","&#9761;","elianto","#3366ff99","-1","-1","1","+10","[]","0","0","2","","","","","","","",""
"pit-trial","55","523221","0.0-2.0-11.3-3.3","battery-v0.2","","""event"",""trial"",""time""
""fullscreenenter"",""1"",""5166""
","
","
","""event"",""trial"",""time""
""fullscreenenter"",""1"",""5166""
","
","","","-1","","","21","6062","1818","&#9761;","elianto","#3366ff99","-1","-1","1","0","[]","0","0","2","","","","","","","",""
"pit-trial","56","528082","0.0-2.0-11.3-4.3","battery-v0.2","","""event"",""trial"",""time""
""fullscreenenter"",""1"",""5166""
","
","
","""event"",""trial"",""time""
""fullscreenenter"",""1"",""5166""
","
","","","-1","","","21","6062","1818","&#9761;","elianto","#3366ff99","-1","-1","1","+10","[]","0","0","2","","","","","","","",""
"call-function","57","528086","0.0-2.0-12.0","battery-v0.2","","""event"",""trial"",""time""
""fullscreenenter"",""1"",""5166""
","
","
","""event"",""trial"",""time""
""fullscreenenter"",""1"",""5166""
","
","","","","","","","","","","","","","","","","","","","","","","","","","","",""
"pit-instructions","58","585811","0.0-2.0-13.0","battery-v0.2","","""event"",""trial"",""time""
""fullscreenenter"",""1"",""5166""
","
","
","""event"",""trial"",""time""
""fullscreenenter"",""1"",""5166""
","
","","[{""page_index"":0,""viewing_time"":20582.799999952316},{""page_index"":1,""viewing_time"":9846.099999904633},{""page_index"":2,""viewing_time"":3447.7000000476837},{""page_index"":3,""viewing_time"":17109.200000047684},{""page_index"":4,""viewing_time"":6739.299999952316}]","57725.699999809265","","","","","","","","","","","","","","","","","","","","","","","",""
"pit-trial","59","589102","0.0-2.0-14.0-0.0","battery-v0.2","","""event"",""trial"",""time""
""fullscreenenter"",""1"",""5166""
","
","
","""event"",""trial"",""time""
""fullscreenenter"",""1"",""5166""
","
","","","430.2000000476837","","","21","6062","1818","&#9826;","elianto","#f73b6a7A","-1"," ","0","-10","[1283.7000000476837]","1","0","3","","","","","","","",""
"pit-trial","60","592110","0.0-2.0-14.0-1.0","battery-v0.2","","""event"",""trial"",""time""
""fullscreenenter"",""1"",""5166""
","
","
","""event"",""trial"",""time""
""fullscreenenter"",""1"",""5166""
","
","","","148.70000004768372","","","21","6062","1818","&#9826;","elianto","#f73b6a7A","-1"," ","0","-10","[999.5]","1","0","3","","","","","","","",""
"pit-trial","61","596974","0.0-2.0-14.0-2.0","battery-v0.2","","""event"",""trial"",""time""
""fullscreenenter"",""1"",""5166""
","
","
","""event"",""trial"",""time""
""fullscreenenter"",""1"",""5166""
","
","","","-1","","","21","6062","1818","&#9826;","elianto","#f73b6a7A","-1","-1","1","0","[]","0","0","3","","","","","","","",""
"pit-trial","62","601838","0.0-2.0-14.0-3.0","battery-v0.2","","""event"",""trial"",""time""
""fullscreenenter"",""1"",""5166""
","
","
","""event"",""trial"",""time""
""fullscreenenter"",""1"",""5166""
","
","","","-1","","","21","6062","1818","&#9826;","elianto","#f73b6a7A","-1","-1","1","-10","[]","0","0","3","","","","","","","",""
"pit-trial","63","606702","0.0-2.0-14.0-4.0","battery-v0.2","","""event"",""trial"",""time""
""fullscreenenter"",""1"",""5166""
","
","
","""event"",""trial"",""time""
""fullscreenenter"",""1"",""5166""
","
","","","-1","","","21","6062","1818","&#9826;","elianto","#f73b6a7A","-1","-1","1","0","[]","0","0","3","","","","","","","",""
"pit-trial","64","611565","0.0-2.0-14.1-0.1","battery-v0.2","","""event"",""trial"",""time""
""fullscreenenter"",""1"",""5166""
","
","
","""event"",""trial"",""time""
""fullscreenenter"",""1"",""5166""
","
","","","-1","","","21","6062","1818","&#9826;","elianto","#f73b6a7A","-1","-1","1","0","[]","0","0","3","","","","","","","",""
"pit-trial","65","616432","0.0-2.0-14.1-1.1","battery-v0.2","","""event"",""trial"",""time""
""fullscreenenter"",""1"",""5166""
","
","
","""event"",""trial"",""time""
""fullscreenenter"",""1"",""5166""
","
","","","-1","","","21","6062","1818","&#9826;","elianto","#f73b6a7A","-1","-1","1","0","[]","0","0","3","","","","","","","",""
"pit-trial","66","621296","0.0-2.0-14.1-2.1","battery-v0.2","","""event"",""trial"",""time""
""fullscreenenter"",""1"",""5166""
","
","
","""event"",""trial"",""time""
""fullscreenenter"",""1"",""5166""
","
","","","-1","","","21","6062","1818","&#9826;","elianto","#f73b6a7A","-1","-1","1","0","[]","0","0","3","","","","","","","",""
"pit-trial","67","626158","0.0-2.0-14.1-3.1","battery-v0.2","","""event"",""trial"",""time""
""fullscreenenter"",""1"",""5166""
","
","
","""event"",""trial"",""time""
""fullscreenenter"",""1"",""5166""
","
","","","-1","","","21","6062","1818","&#9826;","elianto","#f73b6a7A","-1","-1","1","-10","[]","0","0","3","","","","","","","",""
"pit-trial","68","631019","0.0-2.0-14.1-4.1","battery-v0.2","","""event"",""trial"",""time""
""fullscreenenter"",""1"",""5166""
","
","
","""event"",""trial"",""time""
""fullscreenenter"",""1"",""5166""
","
","","","-1","","","21","6062","1818","&#9826;","elianto","#f73b6a7A","-1","-1","1","0","[]","0","0","3","","","","","","","",""
"pit-trial","69","635877","0.0-2.0-14.2-0.2","battery-v0.2","","""event"",""trial"",""time""
""fullscreenenter"",""1"",""5166""
","
","
","""event"",""trial"",""time""
""fullscreenenter"",""1"",""5166""
","
","","","-1","","","21","6062","1818","&#9826;","elianto","#f73b6a7A","-1","-1","1","0","[]","0","0","3","","","","","","","",""
"pit-trial","70","640741","0.0-2.0-14.2-1.2","battery-v0.2","","""event"",""trial"",""time""
""fullscreenenter"",""1"",""5166""
","
","
","""event"",""trial"",""time""
""fullscreenenter"",""1"",""5166""
","
","","","-1","","","21","6062","1818","&#9826;","elianto","#f73b6a7A","-1","-1","1","0","[]","0","0","3","","","","","","","",""
"pit-trial","71","645603","0.0-2.0-14.2-2.2","battery-v0.2","","""event"",""trial"",""time""
""fullscreenenter"",""1"",""5166""
","
","
","""event"",""trial"",""time""
""fullscreenenter"",""1"",""5166""
","
","","","-1","","","21","6062","1818","&#9826;","elianto","#f73b6a7A","-1","-1","1","0","[]","0","0","3","","","","","","","",""
"pit-trial","72","650461","0.0-2.0-14.2-3.2","battery-v0.2","","""event"",""trial"",""time""
""fullscreenenter"",""1"",""5166""
","
","
","""event"",""trial"",""time""
""fullscreenenter"",""1"",""5166""
","
","","","-1","","","21","6062","1818","&#9826;","elianto","#f73b6a7A","-1","-1","1","-10","[]","0","0","3","","","","","","","",""
"pit-trial","73","655320","0.0-2.0-14.2-4.2","battery-v0.2","","""event"",""trial"",""time""
""fullscreenenter"",""1"",""5166""
","
","
","""event"",""trial"",""time""
""fullscreenenter"",""1"",""5166""
","
","","","-1","","","21","6062","1818","&#9826;","elianto","#f73b6a7A","-1","-1","1","0","[]","0","0","3","","","","","","","",""
"pit-trial","74","660184","0.0-2.0-14.3-0.3","battery-v0.2","","""event"",""trial"",""time""
""fullscreenenter"",""1"",""5166""
","
","
","""event"",""trial"",""time""
""fullscreenenter"",""1"",""5166""
","
","","","-1","","","21","6062","1818","&#9826;","elianto","#f73b6a7A","-1","-1","1","0","[]","0","0","3","","","","","","","",""
"pit-trial","75","665047","0.0-2.0-14.3-1.3","battery-v0.2","","""event"",""trial"",""time""
""fullscreenenter"",""1"",""5166""
","
","
","""event"",""trial"",""time""
""fullscreenenter"",""1"",""5166""
","
","","","-1","","","21","6062","1818","&#9826;","elianto","#f73b6a7A","-1","-1","1","0","[]","0","0","3","","","","","","","",""
"pit-trial","76","669911","0.0-2.0-14.3-2.3","battery-v0.2","","""event"",""trial"",""time""
""fullscreenenter"",""1"",""5166""
","
","
","""event"",""trial"",""time""
""fullscreenenter"",""1"",""5166""
","
","","","-1","","","21","6062","1818","&#9826;","elianto","#f73b6a7A","-1","-1","1","0","[]","0","0","3","","","","","","","",""
"pit-trial","77","674777","0.0-2.0-14.3-3.3","battery-v0.2","","""event"",""trial"",""time""
""fullscreenenter"",""1"",""5166""
","
","
","""event"",""trial"",""time""
""fullscreenenter"",""1"",""5166""
","
","","","-1","","","21","6062","1818","&#9826;","elianto","#f73b6a7A","-1","-1","1","-10","[]","0","0","3","","","","","","","",""
"pit-trial","78","679639","0.0-2.0-14.3-4.3","battery-v0.2","","""event"",""trial"",""time""
""fullscreenenter"",""1"",""5166""
","
","
","""event"",""trial"",""time""
""fullscreenenter"",""1"",""5166""
","
","","","-1","","","21","6062","1818","&#9826;","elianto","#f73b6a7A","-1","-1","1","0","[]","0","0","3","","","","","","","",""
"call-function","79","679643","0.0-2.0-15.0","battery-v0.2","","""event"",""trial"",""time""
""fullscreenenter"",""1"",""5166""
","
","
","""event"",""trial"",""time""
""fullscreenenter"",""1"",""5166""
","
","","","","","","","","","","","","","","","","","","","","","","","","","","",""
"pit-instructions","80","708395","0.0-2.0-16.0","battery-v0.2","","""event"",""trial"",""time""
""fullscreenenter"",""1"",""5166""
","
","
","""event"",""trial"",""time""
""fullscreenenter"",""1"",""5166""
","
","","[{""page_index"":0,""viewing_time"":8210.200000047684},{""page_index"":1,""viewing_time"":10512},{""page_index"":2,""viewing_time"":4961.400000095367},{""page_index"":3,""viewing_time"":5068.099999904633}]","28752.200000047684","","","","","","","","","","","","","","","","","","","","","","","",""
"pit-trial","81","711800","0.0-2.0-17.0-0.0","battery-v0.2","","""event"",""trial"",""time""
""fullscreenenter"",""1"",""5166""
","
","
","""event"",""trial"",""time""
""fullscreenenter"",""1"",""5166""
","
","","","544.9000000953674","","","21","6062","1818","&#9789;","elianto","#f73b6a7A"," "," ","1","0","[1396.8999998569489]","1","0","4","","","","","","","",""
"pit-trial","82","714893","0.0-2.0-17.0-1.0","battery-v0.2","","""event"",""trial"",""time""
""fullscreenenter"",""1"",""5166""
","
","
","""event"",""trial"",""time""
""fullscreenenter"",""1"",""5166""
","
","","","233.20000004768372","","","21","6062","1818","&#9789;","elianto","#f73b6a7A"," "," ","1","0","[1087]","1","0","4","","","","","","","",""
"pit-trial","83","717893","0.0-2.0-17.0-2.0","battery-v0.2","","""event"",""trial"",""time""
""fullscreenenter"",""1"",""5166""
","
","
","""event"",""trial"",""time""
""fullscreenenter"",""1"",""5166""
","
","","","138.39999985694885","","","21","6062","1818","&#9789;","elianto","#f73b6a7A"," "," ","1","0","[990.5999999046326]","1","0","4","","","","","","","",""
"pit-trial","84","721065","0.0-2.0-17.0-3.0","battery-v0.2","","""event"",""trial"",""time""
""fullscreenenter"",""1"",""5166""
","
","
","""event"",""trial"",""time""
""fullscreenenter"",""1"",""5166""
","
","","","313.09999990463257","","","21","6062","1818","&#9789;","elianto","#f73b6a7A"," "," ","1","-10","[1166.9000000953674]","1","0","4","","","","","","","",""
"pit-trial","85","724124","0.0-2.0-17.0-4.0","battery-v0.2","","""event"",""trial"",""time""
""fullscreenenter"",""1"",""5166""
","
","
","""event"",""trial"",""time""
""fullscreenenter"",""1"",""5166""
","
","","","198.10000014305115","","","21","6062","1818","&#9789;","elianto","#f73b6a7A"," "," ","1","0","[1050.1000001430511]","1","0","4","","","","","","","",""
"pit-trial","86","727186","0.0-2.0-17.1-0.1","battery-v0.2","","""event"",""trial"",""time""
""fullscreenenter"",""1"",""5166""
","
","
","""event"",""trial"",""time""
""fullscreenenter"",""1"",""5166""
","
","","","197","","","21","6062","1818","&#9789;","elianto","#f73b6a7A"," "," ","1","0","[1051.0999999046326,1513.3999998569489]","2","0","4","","","","","","","",""
"pit-trial","87","730205","0.0-2.0-17.1-1.1","battery-v0.2","","""event"",""trial"",""time""
""fullscreenenter"",""1"",""5166""
","
","
","""event"",""trial"",""time""
""fullscreenenter"",""1"",""5166""
","
","","","158.79999995231628","","","21","6062","1818","&#9789;","elianto","#f73b6a7A"," "," ","1","0","[1012.7000000476837]","1","0","4","","","","","","","",""
"pit-trial","88","733214","0.0-2.0-17.1-2.1","battery-v0.2","","""event"",""trial"",""time""
""fullscreenenter"",""1"",""5166""
","
","
","""event"",""trial"",""time""
""fullscreenenter"",""1"",""5166""
","
","","","152.20000004768372","","","21","6062","1818","&#9789;","elianto","#f73b6a7A"," "," ","1","0","[1004.2000000476837]","1","0","4","","","","","","","",""
"pit-trial","89","736305","0.0-2.0-17.1-3.1","battery-v0.2","","""event"",""trial"",""time""
""fullscreenenter"",""1"",""5166""
","
","
","""event"",""trial"",""time""
""fullscreenenter"",""1"",""5166""
","
","","","229.5","","","21","6062","1818","&#9789;","elianto","#f73b6a7A"," "," ","1","-10","[596.3999998569489,1082.8999998569489]","2","0","4","","","","","","","",""
"pit-trial","90","739375","0.0-2.0-17.1-4.1","battery-v0.2","","""event"",""trial"",""time""
""fullscreenenter"",""1"",""5166""
","
","
","""event"",""trial"",""time""
""fullscreenenter"",""1"",""5166""
","
","","","208.10000014305115","","","21","6062","1818","&#9789;","elianto","#f73b6a7A"," "," ","1","0","[1058.6999998092651]","1","0","4","","","","","","","",""
"pit-trial","91","742399","0.0-2.0-17.2-0.2","battery-v0.2","","""event"",""trial"",""time""
""fullscreenenter"",""1"",""5166""
","
","
","""event"",""trial"",""time""
""fullscreenenter"",""1"",""5166""
","
","","","165.69999980926514","","","21","6062","1818","&#9789;","elianto","#f73b6a7A"," "," ","1","0","[1016.9000000953674]","1","0","4","","","","","","","",""
"pit-trial","92","745390","0.0-2.0-17.2-1.2","battery-v0.2","","""event"",""trial"",""time""
""fullscreenenter"",""1"",""5166""
","
","
","""event"",""trial"",""time""
""fullscreenenter"",""1"",""5166""
","
","","","133","","","21","6062","1818","&#9789;","elianto","#f73b6a7A"," "," ","1","0","[986.0999999046326]","1","0","4","","","","","","","",""
"pit-trial","93","748292","0.0-2.0-17.2-2.2","battery-v0.2","","""event"",""trial"",""time""
""fullscreenenter"",""1"",""5166""
","
","
","""event"",""trial"",""time""
""fullscreenenter"",""1"",""5166""
","
","","","37.299999952316284","","","21","6062","1818","&#9789;","elianto","#f73b6a7A"," "," ","1","0","[889]","1","0","4","","","","","","","",""
"pit-trial","94","751687","0.0-2.0-17.2-3.2","battery-v0.2","","""event"",""trial"",""time""
""fullscreenenter"",""1"",""5166""
","
","
","""event"",""trial"",""time""
""fullscreenenter"",""1"",""5166""
","
","","","535.5","","","21","6062","1818","&#9789;","elianto","#f73b6a7A"," "," ","1","-10","[1386.6999998092651]","1","0","4","","","","","","","",""
"pit-trial","95","754973","0.0-2.0-17.2-4.2","battery-v0.2","","""event"",""trial"",""time""
""fullscreenenter"",""1"",""5166""
","
","
","""event"",""trial"",""time""
""fullscreenenter"",""1"",""5166""
","
","","","422.5","","","21","6062","1818","&#9789;","elianto","#f73b6a7A"," "," ","1","0","[1277]","1","0","4","","","","","","","",""
"pit-trial","96","758361","0.0-2.0-17.3-0.3","battery-v0.2","","""event"",""trial"",""time""
""fullscreenenter"",""1"",""5166""
","
","
","""event"",""trial"",""time""
""fullscreenenter"",""1"",""5166""
","
","","","523","","","21","6062","1818","&#9789;","elianto","#f73b6a7A"," "," ","1","0","[1376.2000000476837]","1","0","4","","","","","","","",""
"pit-trial","97","761748","0.0-2.0-17.3-1.3","battery-v0.2","","""event"",""trial"",""time""
""fullscreenenter"",""1"",""5166""
","
","
","""event"",""trial"",""time""
""fullscreenenter"",""1"",""5166""
","
","","","527.5999999046326","","","21","6062","1818","&#9789;","elianto","#f73b6a7A"," "," ","1","0","[1379.2999999523163]","1","0","4","","","","","","","",""
"pit-trial","98","765287","0.0-2.0-17.3-2.3","battery-v0.2","","""event"",""trial"",""time""
""fullscreenenter"",""1"",""5166""
","
","
","""event"",""trial"",""time""
""fullscreenenter"",""1"",""5166""
","
","","","681.8000001907349","","","21","6062","1818","&#9789;","elianto","#f73b6a7A"," "," ","1","0","[1532.9000000953674]","1","0","4","","","","","","","",""
"pit-trial","99","768710","0.0-2.0-17.3-3.3","battery-v0.2","","""event"",""trial"",""time""
""fullscreenenter"",""1"",""5166""
","
","
","""event"",""trial"",""time""
""fullscreenenter"",""1"",""5166""
","
","","","559.4000000953674","","","21","6062","1818","&#9789;","elianto","#f73b6a7A"," "," ","1","-10","[1413.1000001430511]","1","0","4","","","","","","","",""
"pit-trial","100","771832","0.0-2.0-17.3-4.3","battery-v0.2","","""event"",""trial"",""time""
""fullscreenenter"",""1"",""5166""
","
","
","""event"",""trial"",""time""
""fullscreenenter"",""1"",""5166""
","
","","","264.2999999523163","","","21","6062","1818","&#9789;","elianto","#f73b6a7A"," "," ","1","0","[1115.5999999046326]","1","0","4","","","","","","","",""
"call-function","101","771837","0.0-2.0-18.0","battery-v0.2","","""event"",""trial"",""time""
""fullscreenenter"",""1"",""5166""
","
","
","""event"",""trial"",""time""
""fullscreenenter"",""1"",""5166""
","
","","","","","","","","","","","","","","","","","","","","","","","","","","",""
"pit-instructions","102","849990","0.0-2.0-19.0","battery-v0.2","","""event"",""trial"",""time""
""fullscreenenter"",""1"",""5166""
","
","
","""event"",""trial"",""time""
""fullscreenenter"",""1"",""5166""
","
","","[{""page_index"":0,""viewing_time"":9948.700000047684},{""page_index"":1,""viewing_time"":8062.599999904633},{""page_index"":2,""viewing_time"":15414.100000143051},{""page_index"":3,""viewing_time"":8048.799999952316},{""page_index"":4,""viewing_time"":10057.900000095367},{""page_index"":5,""viewing_time"":8786.299999952316},{""page_index"":6,""viewing_time"":8315.099999904633},{""page_index"":7,""viewing_time"":5708.299999952316},{""page_index"":8,""viewing_time"":3812.800000190735}]","78154.90000009537","","","","","","","","","","","","","","","","","","","","","","","",""
"pit-comprehension","103","854491","0.0-2.0-20.0-0.0","battery-v0.2","","""event"",""trial"",""time""
""fullscreenenter"",""1"",""5166""
","
","
","""event"",""trial"",""time""
""fullscreenenter"",""1"",""5166""
","
","","","4493","[""SPACE""]","0","21","6062","1818","","","","","","","","","","","","","","","","","","",""
"pit-instructions","104","857721","0.0-2.0-20.0-1.0","battery-v0.2","","""event"",""trial"",""time""
""fullscreenenter"",""1"",""5166""
","
","
","""event"",""trial"",""time""
""fullscreenenter"",""1"",""5166""
","
","","[{""page_index"":0,""viewing_time"":3182.7000000476837}]","3183.300000190735","","","","","","","","","","","","","","","","","","","","","","","",""
"pit-comprehension","105","863663","0.0-2.0-21.0-0.0","battery-v0.2","","""event"",""trial"",""time""
""fullscreenenter"",""1"",""5166""
","
","
","""event"",""trial"",""time""
""fullscreenenter"",""1"",""5166""
","
","","","5933.199999809265","[""10""]","0","21","6062","1818","","","","","","","","","","","","","","","","","","",""
"pit-instructions","106","865937","0.0-2.0-21.0-1.0","battery-v0.2","","""event"",""trial"",""time""
""fullscreenenter"",""1"",""5166""
","
","
","""event"",""trial"",""time""
""fullscreenenter"",""1"",""5166""
","
","","[{""page_index"":0,""viewing_time"":2225.7999999523163}]","2226.600000143051","","","","","","","","","","","","","","","","","","","","","","","",""
"pit-comprehension","107","874454","0.0-2.0-22.0-0.0","battery-v0.2","","""event"",""trial"",""time""
""fullscreenenter"",""1"",""5166""
","
","
","""event"",""trial"",""time""
""fullscreenenter"",""1"",""5166""
","
","","","8509.399999856949","[""0""]","0","21","6062","1818","","","","","","","","","","","","","","","","","","",""
"pit-instructions","108","880052","0.0-2.0-22.0-1.0","battery-v0.2","","""event"",""trial"",""time""
""fullscreenenter"",""1"",""5166""
","
","
","""event"",""trial"",""time""
""fullscreenenter"",""1"",""5166""
","
","","[{""page_index"":0,""viewing_time"":5558.800000190735}]","5559.400000095367","","","","","","","","","","","","","","","","","","","","","","","",""
"pit-comprehension","109","892566","0.0-2.0-23.0-0.0","battery-v0.2","","""event"",""trial"",""time""
""fullscreenenter"",""1"",""5166""
","
","
","""event"",""trial"",""time""
""fullscreenenter"",""1"",""5166""
","
","","","12507","[""True""]","0","21","6062","1818","","","","","","","","","","","","","","","","","","",""
"pit-instructions","110","894529","0.0-2.0-23.0-1.0","battery-v0.2","","""event"",""trial"",""time""
""fullscreenenter"",""1"",""5166""
","
","
","""event"",""trial"",""time""
""fullscreenenter"",""1"",""5166""
","
","","[{""page_index"":0,""viewing_time"":1914.6000001430511}]","1915.4000000953674","","","","","","","","","","","","","","","","","","","","","","","",""
"pit-comprehension","111","902219","0.0-2.0-24.0-0.0","battery-v0.2","","""event"",""trial"",""time""
""fullscreenenter"",""1"",""5166""
","
","
","""event"",""trial"",""time""
""fullscreenenter"",""1"",""5166""
","
","","","7682","[""True""]","0","21","6062","1818","","","","","","","","","","","","","","","","","","",""
"pit-instructions","112","903927","0.0-2.0-24.0-1.0","battery-v0.2","","""event"",""trial"",""time""
""fullscreenenter"",""1"",""5166""
","
","
","""event"",""trial"",""time""
""fullscreenenter"",""1"",""5166""
","
","","[{""page_index"":0,""viewing_time"":1659.6999998092651}]","1660.2999999523163","","","","","","","","","","","","","","","","","","","","","","","",""
"pit-comprehension","113","910417","0.0-2.0-25.0-0.0","battery-v0.2","","""event"",""trial"",""time""
""fullscreenenter"",""1"",""5166""
","
","
","""event"",""trial"",""time""
""fullscreenenter"",""1"",""5166""
","
","","","6483.600000143051","[""True""]","0","21","6062","1818","","","","","","","","","","","","","","","","","","",""
"pit-instructions","114","912836","0.0-2.0-25.0-1.0","battery-v0.2","","""event"",""trial"",""time""
""fullscreenenter"",""1"",""5166""
","
","
","""event"",""trial"",""time""
""fullscreenenter"",""1"",""5166""
","
","","[{""page_index"":0,""viewing_time"":2370.2999999523163}]","2371","","","","","","","","","","","","","","","","","","","","","","","",""
"pit-comprehension","115","917827","0.0-2.0-26.0-0.0","battery-v0.2","","""event"",""trial"",""time""
""fullscreenenter"",""1"",""5166""
","
","
","""event"",""trial"",""time""
""fullscreenenter"",""1"",""5166""
","
","","","4982.900000095367","[""False""]","0","21","6062","1818","","","","","","","","","","","","","","","","","","",""
"pit-instructions","116","919486","0.0-2.0-26.0-1.0","battery-v0.2","","""event"",""trial"",""time""
""fullscreenenter"",""1"",""5166""
","
","
","""event"",""trial"",""time""
""fullscreenenter"",""1"",""5166""
","
","","[{""page_index"":0,""viewing_time"":1611.7000000476837}]","1612.2000000476837","","","","","","","","","","","","","","","","","","","","","","","",""
"pit-instructions","117","936716","0.0-3.0","battery-v0.2","","""event"",""trial"",""time""
""fullscreenenter"",""1"",""5166""
","
","
","""event"",""trial"",""time""
""fullscreenenter"",""1"",""5166""
","
","","[{""page_index"":0,""viewing_time"":4002.7000000476837},{""page_index"":1,""viewing_time"":5460.900000095367},{""page_index"":2,""viewing_time"":7760.799999952316}]","17224.900000095367","","","","","","","","","","","","","","","","","","","","","","","",""
"pit-trial","118","940043","0.0-4.0","battery-v0.2","","""event"",""trial"",""time""
""fullscreenenter"",""1"",""5166""
","
","
","""event"",""trial"",""time""
""fullscreenenter"",""1"",""5166""
","
","","","466.5","","","21","6062","1818","&#9733;","elianto","#3366ff99","-1"," ","0","+10","[1317.6999998092651]","1","1","","","6062","1","2","2","win","no-go","1"
"pit-trial","119","944902","0.0-5.0","battery-v0.2","","""event"",""trial"",""time""
""fullscreenenter"",""1"",""5166""
","
","
","""event"",""trial"",""time""
""fullscreenenter"",""1"",""5166""
","
","","","-1","","","21","6062","1818","&#9752;","elianto","#f73b6a7A"," ","-1","0","-10","[]","0","1","","","6062","2","3","3","lose","go","0"
"pit-trial","120","948542","0.0-6.0","battery-v0.2","","""event"",""trial"",""time""
""fullscreenenter"",""1"",""5166""
","
","
","""event"",""trial"",""time""
""fullscreenenter"",""1"",""5166""
","
","","","781.3999998569489","","","21","6062","1818","&#9730;","elianto","#3366ff99"," "," ","1","+10","[1633.5]","1","1","","","6062","3","1","1","win","go","0"
"pit-trial","121","952383","0.0-7.0","battery-v0.2","","""event"",""trial"",""time""
""fullscreenenter"",""1"",""5166""
","
","
","""event"",""trial"",""time""
""fullscreenenter"",""1"",""5166""
","
","","","979.1999998092651","","","21","6062","1818","&#9728;","elianto","#f73b6a7A","-1"," ","0","-10","[1831.5]","1","1","","","6062","4","0","4","lose","no-go","0"
"pit-trial","122","956393","0.0-8.0","battery-v0.2","","""event"",""trial"",""time""
""fullscreenenter"",""1"",""5166""
","
","
","""event"",""trial"",""time""
""fullscreenenter"",""1"",""5166""
","
","","","1151.2000000476837","","","21","6062","1818","&#9752;","elianto","#f73b6a7A"," "," ","1","0","[2003.9000000953674]","1","1","","","6062","5","3","3","lose","go","0"
"pit-trial","123","959866","0.0-9.0","battery-v0.2","","""event"",""trial"",""time""
""fullscreenenter"",""1"",""5166""
","
","
","""event"",""trial"",""time""
""fullscreenenter"",""1"",""5166""
","
","","","614.1999998092651","","","21","6062","1818","&#9733;","elianto","#3366ff99","-1"," ","0","0","[1464.7999999523163]","1","1","","","6062","6","2","2","win","no-go","0"
"pit-trial","124","964724","0.0-10.0","battery-v0.2","","""event"",""trial"",""time""
""fullscreenenter"",""1"",""5166""
","
","
","""event"",""trial"",""time""
""fullscreenenter"",""1"",""5166""
","
","","","-1","","","21","6062","1818","&#9728;","elianto","#f73b6a7A","-1","-1","1","0","[]","0","1","","","6062","7","0","4","lose","no-go","0"
"pit-trial","125","968231","0.0-11.0","battery-v0.2","","""event"",""trial"",""time""
""fullscreenenter"",""1"",""5166""
","
","
","""event"",""trial"",""time""
""fullscreenenter"",""1"",""5166""
","
","","","648.8999998569489","","","21","6062","1818","&#9730;","elianto","#3366ff99"," "," ","1","+10","[1500.5]","1","1","","","6062","8","1","1","win","go","0"
"pit-trial","126","973093","0.0-12.0","battery-v0.2","","""event"",""trial"",""time""
""fullscreenenter"",""1"",""5166""
","
","
","""event"",""trial"",""time""
""fullscreenenter"",""1"",""5166""
","
","","","-1","","","21","6062","1818","&#9728;","elianto","#f73b6a7A","-1","-1","1","0","[]","0","1","","","6062","9","0","4","lose","no-go","0"
"pit-trial","127","977125","0.0-13.0","battery-v0.2","","""event"",""trial"",""time""
""fullscreenenter"",""1"",""5166""
","
","
","""event"",""trial"",""time""
""fullscreenenter"",""1"",""5166""
","
","","","1173.6000001430511","","","21","6062","1818","&#9752;","elianto","#f73b6a7A"," "," ","1","0","[2025]","1","1","","","6062","10","3","3","lose","go","0"
"pit-trial","128","981983","0.0-14.0","battery-v0.2","","""event"",""trial"",""time""
""fullscreenenter"",""1"",""5166""
","
","
","""event"",""trial"",""time""
""fullscreenenter"",""1"",""5166""
","
","","","-1","","","21","6062","1818","&#9730;","elianto","#3366ff99"," ","-1","0","0","[]","0","1","","","6062","11","1","1","win","go","0"
"pit-trial","129","986843","0.0-15.0","battery-v0.2","","""event"",""trial"",""time""
""fullscreenenter"",""1"",""5166""
","
","
","""event"",""trial"",""time""
""fullscreenenter"",""1"",""5166""
","
","","","-1","","","21","6062","1818","&#9733;","elianto","#3366ff99","-1","-1","1","0","[]","0","1","","","6062","12","2","2","win","no-go","1"
"pit-trial","130","990484","0.0-16.0","battery-v0.2","","""event"",""trial"",""time""
""fullscreenenter"",""1"",""5166""
","
","
","""event"",""trial"",""time""
""fullscreenenter"",""1"",""5166""
","
","","","783.8000001907349","","","21","6062","1818","&#9733;","elianto","#3366ff99","-1"," ","0","0","[1634.3000001907349]","1","1","","","6062","13","2","2","win","no-go","0"
"pit-trial","131","994095","0.0-17.0","battery-v0.2","","""event"",""trial"",""time""
""fullscreenenter"",""1"",""5166""
","
","
","""event"",""trial"",""time""
""fullscreenenter"",""1"",""5166""
","
","","","746.6999998092651","","","21","6062","1818","&#9730;","elianto","#3366ff99"," "," ","1","+10","[1601.5999999046326]","1","1","","","6062","14","1","1","win","go","0"
"pit-trial","132","998959","0.0-18.0","battery-v0.2","","""event"",""trial"",""time""
""fullscreenenter"",""1"",""5166""
","
","
","""event"",""trial"",""time""
""fullscreenenter"",""1"",""5166""
","
","","","-1","","","21","6062","1818","&#9728;","elianto","#f73b6a7A","-1","-1","1","0","[]","0","1","","","6062","15","0","4","lose","no-go","0"
"pit-trial","133","1002699","0.0-19.0","battery-v0.2","","""event"",""trial"",""time""
""fullscreenenter"",""1"",""5166""
","
","
","""event"",""trial"",""time""
""fullscreenenter"",""1"",""5166""
","
","","","883.6000001430511","","","21","6062","1818","&#9752;","elianto","#f73b6a7A"," "," ","1","0","[1733.8000001907349]","1","1","","","6062","16","3","3","lose","go","0"
"pit-trial","134","1006176","0.0-20.0","battery-v0.2","","""event"",""trial"",""time""
""fullscreenenter"",""1"",""5166""
","
","
","""event"",""trial"",""time""
""fullscreenenter"",""1"",""5166""
","
","","","612.7000000476837","","","21","6062","1818","&#9730;","elianto","#3366ff99"," "," ","1","+10","[1468]","1","1","","","6062","17","1","1","win","go","0"
"pit-trial","135","1010745","0.0-21.0","battery-v0.2","","""event"",""trial"",""time""
""fullscreenenter"",""1"",""5166""
","
","
","""event"",""trial"",""time""
""fullscreenenter"",""1"",""5166""
","
","","","1710.2999999523163","","","21","6062","1818","&#9728;","elianto","#f73b6a7A","-1"," ","0","-10","[2562.0999999046326]","1","1","","","6062","18","0","4","lose","no-go","0"
"pit-trial","136","1014760","0.0-22.0","battery-v0.2","","""event"",""trial"",""time""
""fullscreenenter"",""1"",""5166""
","
","
","""event"",""trial"",""time""
""fullscreenenter"",""1"",""5166""
","
","","","1155.0999999046326","","","21","6062","1818","&#9752;","elianto","#f73b6a7A"," "," ","1","0","[2010.4000000953674]","1","1","","","6062","19","3","3","lose","go","0"
"pit-trial","137","1018350","0.0-23.0","battery-v0.2","","""event"",""trial"",""time""
""fullscreenenter"",""1"",""5166""
","
","
","""event"",""trial"",""time""
""fullscreenenter"",""1"",""5166""
","
","","","725.0999999046326","","","21","6062","1818","&#9733;","elianto","#3366ff99","-1"," ","0","+10","[1580.7999999523163]","1","1","","","6062","20","2","2","win","no-go","1"
"pit-instructions","138","1031057","0.0-24.0","battery-v0.2","","""event"",""trial"",""time""
""fullscreenenter"",""1"",""5166""
","
","
","""event"",""trial"",""time""
""fullscreenenter"",""1"",""5166""
","
","","[{""page_index"":0,""viewing_time"":5659.299999952316},{""page_index"":1,""viewing_time"":7042.900000095367}]","12703","","","","","","","","","","","","","","","","","","","","","","","",""
"pit-trial","139","1034782","0.0-25.0","battery-v0.2","","""event"",""trial"",""time""
""fullscreenenter"",""1"",""5166""
","
","
","""event"",""trial"",""time""
""fullscreenenter"",""1"",""5166""
","
","","","861.1999998092651","","","21","6062","1818","g","elianto","#f73b6a7A"," "," ","1","0","[1716.2000000476837]","1","2","","","6062","21","3","3","lose","go","0"
"pit-trial","140","1038276","0.0-26.0","battery-v0.2","","""event"",""trial"",""time""
""fullscreenenter"",""1"",""5166""
","
","
","""event"",""trial"",""time""
""fullscreenenter"",""1"",""5166""
","
","","","636.7000000476837","","","21","6062","1818","l","elianto","#3366ff99"," "," ","1","0","[1487.6000001430511]","1","2","","","6062","22","1","1","win","go","1"
"pit-trial","141","1043134","0.0-27.0","battery-v0.2","","""event"",""trial"",""time""
""fullscreenenter"",""1"",""5166""
","
","
","""event"",""trial"",""time""
""fullscreenenter"",""1"",""5166""
","
","","","-1","","","21","6062","1818","u","elianto","#f73b6a7A","-1","-1","1","-10","[2930.5]","1","2","","","6062","23","0","4","lose","no-go","1"
"pit-trial","142","1047998","0.0-28.0","battery-v0.2","","""event"",""trial"",""time""
""fullscreenenter"",""1"",""5166""
","
","
","""event"",""trial"",""time""
""fullscreenenter"",""1"",""5166""
","
","","","-1","","","21","6062","1818","a","elianto","#f73b6a7A","-1","-1","1","0","[]","0","2","","","6062","24","2","4","lose","no-go","0"
"pit-trial","143","1052446","0.0-29.0","battery-v0.2","","""event"",""trial"",""time""
""fullscreenenter"",""1"",""5166""
","
","
","""event"",""trial"",""time""
""fullscreenenter"",""1"",""5166""
","
","","","1588.8000001907349","","","21","6062","1818","l","elianto","#3366ff99"," "," ","1","+10","[2441.600000143051]","1","2","","","6062","25","1","1","win","go","0"
"pit-trial","144","1057309","0.0-30.0","battery-v0.2","","""event"",""trial"",""time""
""fullscreenenter"",""1"",""5166""
","
","
","""event"",""trial"",""time""
""fullscreenenter"",""1"",""5166""
","
","","","-1","","","21","6062","1818","a","elianto","#f73b6a7A","-1","-1","1","0","[]","0","2","","","6062","26","2","4","lose","no-go","0"
"pit-trial","145","1061950","0.0-31.0","battery-v0.2","","""event"",""trial"",""time""
""fullscreenenter"",""1"",""5166""
","
","
","""event"",""trial"",""time""
""fullscreenenter"",""1"",""5166""
","
","","","1779.5999999046326","","","21","6062","1818","g","elianto","#f73b6a7A"," "," ","1","0","[2631.2000000476837]","1","2","","","6062","27","3","3","lose","go","0"
"pit-trial","146","1066814","0.0-32.0","battery-v0.2","","""event"",""trial"",""time""
""fullscreenenter"",""1"",""5166""
","
","
","""event"",""trial"",""time""
""fullscreenenter"",""1"",""5166""
","
","","","-1","","","21","6062","1818","u","elianto","#f73b6a7A","-1","-1","1","0","[]","0","2","","","6062","28","0","4","lose","no-go","0"
"pit-trial","147","1070389","0.0-33.0","battery-v0.2","","""event"",""trial"",""time""
""fullscreenenter"",""1"",""5166""
","
","
","""event"",""trial"",""time""
""fullscreenenter"",""1"",""5166""
","
","","","715.1000001430511","","","21","6062","1818","g","elianto","#f73b6a7A"," "," ","1","0","[1565.6000001430511]","1","2","","","6062","29","3","3","lose","go","0"
"pit-trial","148","1075248","0.0-34.0","battery-v0.2","","""event"",""trial"",""time""
""fullscreenenter"",""1"",""5166""
","
","
","""event"",""trial"",""time""
""fullscreenenter"",""1"",""5166""
","
","","","-1","","","21","6062","1818","u","elianto","#f73b6a7A","-1","-1","1","0","[]","0","2","","","6062","30","0","4","lose","no-go","0"
"pit-trial","149","1078629","0.0-35.0","battery-v0.2","","""event"",""trial"",""time""
""fullscreenenter"",""1"",""5166""
","
","
","""event"",""trial"",""time""
""fullscreenenter"",""1"",""5166""
","
","","","524.5999999046326","","","21","6062","1818","l","elianto","#3366ff99"," "," ","1","0","[1375.5999999046326]","1","2","","","6062","31","1","1","win","go","1"
"pit-trial","150","1083490","0.0-36.0","battery-v0.2","","""event"",""trial"",""time""
""fullscreenenter"",""1"",""5166""
","
","
","""event"",""trial"",""time""
""fullscreenenter"",""1"",""5166""
","
","","","-1","","","21","6062","1818","a","elianto","#f73b6a7A","-1","-1","1","0","[]","0","2","","","6062","32","2","4","lose","no-go","0"
"pit-trial","151","1087093","0.0-37.0","battery-v0.2","","""event"",""trial"",""time""
""fullscreenenter"",""1"",""5166""
","
","
","""event"",""trial"",""time""
""fullscreenenter"",""1"",""5166""
","
","","","740.9000000953674","","","21","6062","1818","g","elianto","#f73b6a7A"," "," ","1","0","[1595.2000000476837]","1","2","","","6062","33","3","3","lose","go","0"
"pit-trial","152","1091954","0.0-38.0","battery-v0.2","","""event"",""trial"",""time""
""fullscreenenter"",""1"",""5166""
","
","
","""event"",""trial"",""time""
""fullscreenenter"",""1"",""5166""
","
","","","-1","","","21","6062","1818","a","elianto","#f73b6a7A","-1","-1","1","0","[]","0","2","","","6062","34","2","4","lose","no-go","0"
"pit-trial","153","1096813","0.0-39.0","battery-v0.2","","""event"",""trial"",""time""
""fullscreenenter"",""1"",""5166""
","
","
","""event"",""trial"",""time""
""fullscreenenter"",""1"",""5166""
","
","","","-1","","","21","6062","1818","u","elianto","#f73b6a7A","-1","-1","1","0","[]","0","2","","","6062","35","0","4","lose","no-go","0"
"pit-trial","154","1100191","0.0-40.0","battery-v0.2","","""event"",""trial"",""time""
""fullscreenenter"",""1"",""5166""
","
","
","""event"",""trial"",""time""
""fullscreenenter"",""1"",""5166""
","
","","","517.3999998569489","","","21","6062","1818","l","elianto","#3366ff99"," "," ","1","+10","[1371.5999999046326]","1","2","","","6062","36","1","1","win","go","0"
"pit-trial","155","1105055","0.0-41.0","battery-v0.2","","""event"",""trial"",""time""
""fullscreenenter"",""1"",""5166""
","
","
","""event"",""trial"",""time""
""fullscreenenter"",""1"",""5166""
","
","","","-1","","","21","6062","1818","u","elianto","#f73b6a7A","-1","-1","1","0","[]","0","2","","","6062","37","0","4","lose","no-go","0"
"pit-trial","156","1109919","0.0-42.0","battery-v0.2","","""event"",""trial"",""time""
""fullscreenenter"",""1"",""5166""
","
","
","""event"",""trial"",""time""
""fullscreenenter"",""1"",""5166""
","
","","","-1","","","21","6062","1818","a","elianto","#f73b6a7A","-1","-1","1","0","[]","0","2","","","6062","38","2","4","lose","no-go","0"
"pit-trial","157","1113295","0.0-43.0","battery-v0.2","","""event"",""trial"",""time""
""fullscreenenter"",""1"",""5166""
","
","
","""event"",""trial"",""time""
""fullscreenenter"",""1"",""5166""
","
","","","517.4000000953674","","","21","6062","1818","g","elianto","#f73b6a7A"," "," ","1","0","[1370.6999998092651]","1","2","","","6062","39","3","3","lose","go","0"
"pit-trial","158","1116599","0.0-44.0","battery-v0.2","","""event"",""trial"",""time""
""fullscreenenter"",""1"",""5166""
","
","
","""event"",""trial"",""time""
""fullscreenenter"",""1"",""5166""
","
","","","447.7000000476837","","","21","6062","1818","l","elianto","#3366ff99"," "," ","1","0","[1299.4000000953674]","1","2","","","6062","40","1","1","win","go","1"
"pit-trial","159","1121458","0.0-45.0","battery-v0.2","","""event"",""trial"",""time""
""fullscreenenter"",""1"",""5166""
","
","
","""event"",""trial"",""time""
""fullscreenenter"",""1"",""5166""
","
","","","-1","","","21","6062","1818","a","elianto","#f73b6a7A","-1","-1","1","0","[]","0","2","","","6062","41","2","4","lose","no-go","0"
"pit-trial","160","1126318","0.0-46.0","battery-v0.2","","""event"",""trial"",""time""
""fullscreenenter"",""1"",""5166""
","
","
","""event"",""trial"",""time""
""fullscreenenter"",""1"",""5166""
","
","","","-1","","","21","6062","1818","u","elianto","#f73b6a7A","-1","-1","1","0","[]","0","2","","","6062","42","0","4","lose","no-go","0"
"pit-trial","161","1129982","0.0-47.0","battery-v0.2","","""event"",""trial"",""time""
""fullscreenenter"",""1"",""5166""
","
","
","""event"",""trial"",""time""
""fullscreenenter"",""1"",""5166""
","
","","","801.5999999046326","","","21","6062","1818","g","elianto","#f73b6a7A"," "," ","1","-10","[1654.0999999046326]","1","2","","","6062","43","3","3","lose","go","1"
"pit-trial","162","1133331","0.0-48.0","battery-v0.2","","""event"",""trial"",""time""
""fullscreenenter"",""1"",""5166""
","
","
","""event"",""trial"",""time""
""fullscreenenter"",""1"",""5166""
","
","","","486.2999999523163","","","21","6062","1818","l","elianto","#3366ff99"," "," ","1","0","[1341.2999999523163]","1","2","","","6062","44","1","1","win","go","1"
"pit-trial","163","1138195","0.0-49.0","battery-v0.2","","""event"",""trial"",""time""
""fullscreenenter"",""1"",""5166""
","
","
","""event"",""trial"",""time""
""fullscreenenter"",""1"",""5166""
","
","","","-1","","","21","6062","1818","u","elianto","#f73b6a7A","-1","-1","1","0","[]","0","2","","","6062","45","0","4","lose","no-go","0"
"pit-trial","164","1141729","0.0-50.0","battery-v0.2","","""event"",""trial"",""time""
""fullscreenenter"",""1"",""5166""
","
","
","""event"",""trial"",""time""
""fullscreenenter"",""1"",""5166""
","
","","","674.5999999046326","","","21","6062","1818","g","elianto","#f73b6a7A"," "," ","1","0","[1526.2999999523163]","1","2","","","6062","46","3","3","lose","go","0"
"pit-trial","165","1145016","0.0-51.0","battery-v0.2","","""event"",""trial"",""time""
""fullscreenenter"",""1"",""5166""
","
","
","""event"",""trial"",""time""
""fullscreenenter"",""1"",""5166""
","
","","","420.90000009536743","","","21","6062","1818","p","elianto","#3366ff99","-1"," ","0","+10","[1274.5]","1","2","","","6062","47","4","2","win","no-go","1"
"pit-trial","166","1149875","0.0-52.0","battery-v0.2","","""event"",""trial"",""time""
""fullscreenenter"",""1"",""5166""
","
","
","""event"",""trial"",""time""
""fullscreenenter"",""1"",""5166""
","
","","","-1","","","21","6062","1818","a","elianto","#f73b6a7A","-1","-1","1","0","[]","0","2","","","6062","48","2","4","lose","no-go","0"
"pit-trial","167","1153409","0.0-53.0","battery-v0.2","","""event"",""trial"",""time""
""fullscreenenter"",""1"",""5166""
","
","
","""event"",""trial"",""time""
""fullscreenenter"",""1"",""5166""
","
","","","674.9000000953674","","","21","6062","1818","p","elianto","#3366ff99","-1"," ","0","+10","[1526.4000000953674]","1","2","","","6062","49","4","2","win","no-go","1"
"pit-trial","168","1156832","0.0-54.0","battery-v0.2","","""event"",""trial"",""time""
""fullscreenenter"",""1"",""5166""
","
","
","""event"",""trial"",""time""
""fullscreenenter"",""1"",""5166""
","
","","","565","","","21","6062","1818","l","elianto","#3366ff99"," "," ","1","+10","[1418.5999999046326]","1","2","","","6062","50","1","1","win","go","0"
"pit-trial","169","1160595","0.0-55.0","battery-v0.2","","""event"",""trial"",""time""
""fullscreenenter"",""1"",""5166""
","
","
","""event"",""trial"",""time""
""fullscreenenter"",""1"",""5166""
","
","","","903","","","21","6062","1818","g","elianto","#f73b6a7A"," "," ","1","-10","[1754.8999998569489]","1","2","","","6062","51","3","3","lose","go","1"
"pit-trial","170","1165459","0.0-56.0","battery-v0.2","","""event"",""trial"",""time""
""fullscreenenter"",""1"",""5166""
","
","
","""event"",""trial"",""time""
""fullscreenenter"",""1"",""5166""
","
","","","-1","","","21","6062","1818","u","elianto","#f73b6a7A","-1","-1","1","-10","[]","0","2","","","6062","52","0","4","lose","no-go","1"
"pit-trial","171","1170320","0.0-57.0","battery-v0.2","","""event"",""trial"",""time""
""fullscreenenter"",""1"",""5166""
","
","
","""event"",""trial"",""time""
""fullscreenenter"",""1"",""5166""
","
","","","-1","","","21","6062","1818","u","elianto","#f73b6a7A","-1","-1","1","0","[]","0","2","","","6062","53","0","4","lose","no-go","0"
"pit-trial","172","1173754","0.0-58.0","battery-v0.2","","""event"",""trial"",""time""
""fullscreenenter"",""1"",""5166""
","
","
","""event"",""trial"",""time""
""fullscreenenter"",""1"",""5166""
","
","","","575.2000000476837","","","21","6062","1818","l","elianto","#3366ff99"," "," ","1","+10","[1428.7999999523163]","1","2","","","6062","54","1","1","win","go","0"
"pit-trial","173","1178618","0.0-59.0","battery-v0.2","","""event"",""trial"",""time""
""fullscreenenter"",""1"",""5166""
","
","
","""event"",""trial"",""time""
""fullscreenenter"",""1"",""5166""
","
","","","-1","","","21","6062","1818","a","elianto","#f73b6a7A","-1","-1","1","-10","[]","0","2","","","6062","55","2","4","lose","no-go","1"
"pit-trial","174","1182652","0.0-60.0","battery-v0.2","","""event"",""trial"",""time""
""fullscreenenter"",""1"",""5166""
","
","
","""event"",""trial"",""time""
""fullscreenenter"",""1"",""5166""
","
","","","1170.7999999523163","","","21","6062","1818","p","elianto","#3366ff99","-1"," ","0","0","[2025.3999998569489]","1","2","","","6062","56","4","2","win","no-go","0"
"pit-trial","175","1186362","0.0-61.0","battery-v0.2","","""event"",""trial"",""time""
""fullscreenenter"",""1"",""5166""
","
","
","""event"",""trial"",""time""
""fullscreenenter"",""1"",""5166""
","
","","","851.6999998092651","","","21","6062","1818","p","elianto","#3366ff99","-1"," ","0","0","[1703.2999999523163]","1","2","","","6062","57","4","2","win","no-go","0"
"pit-trial","176","1190055","0.0-62.0","battery-v0.2","","""event"",""trial"",""time""
""fullscreenenter"",""1"",""5166""
","
","
","""event"",""trial"",""time""
""fullscreenenter"",""1"",""5166""
","
","","","827.7999999523163","","","21","6062","1818","l","elianto","#3366ff99"," "," ","1","+10","[1682]","1","2","","","6062","58","1","1","win","go","0"
"pit-trial","177","1194143","0.0-63.0","battery-v0.2","","""event"",""trial"",""time""
""fullscreenenter"",""1"",""5166""
","
","
","""event"",""trial"",""time""
""fullscreenenter"",""1"",""5166""
","
","","","1230.1000001430511","","","21","6062","1818","g","elianto","#f73b6a7A"," "," ","1","0","[2081.7000000476837]","1","2","","","6062","59","3","3","lose","go","0"
"pit-trial","178","1199004","0.0-64.0","battery-v0.2","","""event"",""trial"",""time""
""fullscreenenter"",""1"",""5166""
","
","
","""event"",""trial"",""time""
""fullscreenenter"",""1"",""5166""
","
","","","-1","","","21","6062","1818","u","elianto","#f73b6a7A","-1","-1","1","0","[]","0","2","","","6062","60","0","4","lose","no-go","0"
"pit-trial","179","1202495","0.0-65.0","battery-v0.2","","""event"",""trial"",""time""
""fullscreenenter"",""1"",""5166""
","
","
","""event"",""trial"",""time""
""fullscreenenter"",""1"",""5166""
","
","","","629.5","","","21","6062","1818","l","elianto","#3366ff99"," "," ","1","+10","[1481.7000000476837]","1","2","","","6062","61","1","1","win","go","0"
"pit-trial","180","1207353","0.0-66.0","battery-v0.2","","""event"",""trial"",""time""
""fullscreenenter"",""1"",""5166""
","
","
","""event"",""trial"",""time""
""fullscreenenter"",""1"",""5166""
","
","","","-1","","","21","6062","1818","a","elianto","#f73b6a7A","-1","-1","1","-10","[]","0","2","","","6062","62","2","4","lose","no-go","1"
"pit-trial","181","1210916","0.0-67.0","battery-v0.2","","""event"",""trial"",""time""
""fullscreenenter"",""1"",""5166""
","
","
","""event"",""trial"",""time""
""fullscreenenter"",""1"",""5166""
","
","","","701.1999998092651","","","21","6062","1818","g","elianto","#f73b6a7A"," "," ","1","0","[1552.5]","1","2","","","6062","63","3","3","lose","go","0"
"pit-trial","182","1214489","0.0-68.0","battery-v0.2","","""event"",""trial"",""time""
""fullscreenenter"",""1"",""5166""
","
","
","""event"",""trial"",""time""
""fullscreenenter"",""1"",""5166""
","
","","","715.2000000476837","","","21","6062","1818","p","elianto","#3366ff99","-1"," ","0","+10","[1566.7000000476837]","1","2","","","6062","64","4","2","win","no-go","1"
"pit-trial","183","1218155","0.0-69.0","battery-v0.2","","""event"",""trial"",""time""
""fullscreenenter"",""1"",""5166""
","
","
","""event"",""trial"",""time""
""fullscreenenter"",""1"",""5166""
","
","","","801.2999999523163","","","21","6062","1818","g","elianto","#f73b6a7A"," "," ","1","-10","[1655.0999999046326]","1","2","","","6062","65","3","3","lose","go","1"
"pit-trial","184","1223017","0.0-70.0","battery-v0.2","","""event"",""trial"",""time""
""fullscreenenter"",""1"",""5166""
","
","
","""event"",""trial"",""time""
""fullscreenenter"",""1"",""5166""
","
","","","-1","","","21","6062","1818","a","elianto","#f73b6a7A","-1","-1","1","-10","[]","0","2","","","6062","66","2","4","lose","no-go","1"
"pit-trial","185","1226622","0.0-71.0","battery-v0.2","","""event"",""trial"",""time""
""fullscreenenter"",""1"",""5166""
","
","
","""event"",""trial"",""time""
""fullscreenenter"",""1"",""5166""
","
","","","744.9000000953674","","","21","6062","1818","l","elianto","#3366ff99"," "," ","1","+10","[1598]","1","2","","","6062","67","1","1","win","go","0"
"pit-trial","186","1230633","0.0-72.0","battery-v0.2","","""event"",""trial"",""time""
""fullscreenenter"",""1"",""5166""
","
","
","""event"",""trial"",""time""
""fullscreenenter"",""1"",""5166""
","
","","","1148.9000000953674","","","21","6062","1818","p","elianto","#3366ff99","-1"," ","0","0","[2003.0999999046326]","1","2","","","6062","68","4","2","win","no-go","0"
"pit-trial","187","1235460","0.0-73.0","battery-v0.2","","""event"",""trial"",""time""
""fullscreenenter"",""1"",""5166""
","
","
","""event"",""trial"",""time""
""fullscreenenter"",""1"",""5166""
","
","","","1962.9000000953674","","","21","6062","1818","g","elianto","#f73b6a7A"," "," ","1","0","[2817.5999999046326]","1","2","","","6062","69","3","3","lose","go","0"
"pit-trial","188","1239184","0.0-74.0","battery-v0.2","","""event"",""trial"",""time""
""fullscreenenter"",""1"",""5166""
","
","
","""event"",""trial"",""time""
""fullscreenenter"",""1"",""5166""
","
","","","861.3999998569489","","","21","6062","1818","s","elianto","#3366ff99"," "," ","1","0","[1715.0999999046326]","1","2","","","6062","70","5","1","win","go","1"
"pit-trial","189","1242713","0.0-75.0","battery-v0.2","","""event"",""trial"",""time""
""fullscreenenter"",""1"",""5166""
","
","
","""event"",""trial"",""time""
""fullscreenenter"",""1"",""5166""
","
","","","667.4000000953674","","","21","6062","1818","p","elianto","#3366ff99","-1"," ","0","0","[1519.5999999046326]","1","2","","","6062","71","4","2","win","no-go","0"
"pit-trial","190","1246243","0.0-76.0","battery-v0.2","","""event"",""trial"",""time""
""fullscreenenter"",""1"",""5166""
","
","
","""event"",""trial"",""time""
""fullscreenenter"",""1"",""5166""
","
","","","668.2000000476837","","","21","6062","1818","l","elianto","#3366ff99"," "," ","1","+10","[1520.2000000476837]","1","2","","","6062","72","1","1","win","go","0"
"pit-trial","191","1250629","0.0-77.0","battery-v0.2","","""event"",""trial"",""time""
""fullscreenenter"",""1"",""5166""
","
","
","""event"",""trial"",""time""
""fullscreenenter"",""1"",""5166""
","
","","","1521.1000001430511","","","21","6062","1818","p","elianto","#3366ff99","-1"," ","0","0","[2375.300000190735]","1","2","","","6062","73","4","2","win","no-go","0"
"pit-trial","192","1254243","0.0-78.0","battery-v0.2","","""event"",""trial"",""time""
""fullscreenenter"",""1"",""5166""
","
","
","""event"",""trial"",""time""
""fullscreenenter"",""1"",""5166""
","
","","","753.5","","","21","6062","1818","l","elianto","#3366ff99"," "," ","1","+10","[1605.0999999046326]","1","2","","","6062","74","1","1","win","go","0"
"pit-trial","193","1259101","0.0-79.0","battery-v0.2","","""event"",""trial"",""time""
""fullscreenenter"",""1"",""5166""
","
","
","""event"",""trial"",""time""
""fullscreenenter"",""1"",""5166""
","
","","","-1","","","21","6062","1818","s","elianto","#3366ff99"," ","-1","0","0","[]","0","2","","","6062","75","5","1","win","go","0"
"pit-trial","194","1262745","0.0-80.0","battery-v0.2","","""event"",""trial"",""time""
""fullscreenenter"",""1"",""5166""
","
","
","""event"",""trial"",""time""
""fullscreenenter"",""1"",""5166""
","
","","","781.0999999046326","","","21","6062","1818","g","elianto","#f73b6a7A"," "," ","1","-10","[1635.2000000476837]","1","2","","","6062","76","3","3","lose","go","1"
"pit-trial","195","1266584","0.0-81.0","battery-v0.2","","""event"",""trial"",""time""
""fullscreenenter"",""1"",""5166""
","
","
","""event"",""trial"",""time""
""fullscreenenter"",""1"",""5166""
","
","","","979.5","","","21","6062","1818","w","elianto","#f73b6a7A","-1"," ","0","-10","[1830.5]","1","2","","","6062","77","6","4","lose","no-go","0"
"pit-trial","196","1270077","0.0-82.0","battery-v0.2","","""event"",""trial"",""time""
""fullscreenenter"",""1"",""5166""
","
","
","""event"",""trial"",""time""
""fullscreenenter"",""1"",""5166""
","
","","","634.0999999046326","","","21","6062","1818","p","elianto","#3366ff99","-1"," ","0","+10","[1488]","1","2","","","6062","78","4","2","win","no-go","1"
"pit-trial","197","1274112","0.0-83.0","battery-v0.2","","""event"",""trial"",""time""
""fullscreenenter"",""1"",""5166""
","
","
","""event"",""trial"",""time""
""fullscreenenter"",""1"",""5166""
","
","","","1176.3000001907349","","","21","6062","1818","s","elianto","#3366ff99"," "," ","1","0","[2027.3999998569489]","1","2","","","6062","79","5","1","win","go","1"
"pit-trial","198","1278079","0.0-84.0","battery-v0.2","","""event"",""trial"",""time""
""fullscreenenter"",""1"",""5166""
","
","
","""event"",""trial"",""time""
""fullscreenenter"",""1"",""5166""
","
","","","1109.5999999046326","","","21","6062","1818","g","elianto","#f73b6a7A"," "," ","1","-10","[1960.5999999046326]","1","2","","","6062","80","3","3","lose","go","1"
"pit-trial","199","1281761","0.0-85.0","battery-v0.2","","""event"",""trial"",""time""
""fullscreenenter"",""1"",""5166""
","
","
","""event"",""trial"",""time""
""fullscreenenter"",""1"",""5166""
","
","","","822.7999999523163","","","21","6062","1818","p","elianto","#3366ff99","-1"," ","0","0","[1674.1999998092651]","1","2","","","6062","81","4","2","win","no-go","0"
"pit-trial","200","1286023","0.0-86.0","battery-v0.2","","""event"",""trial"",""time""
""fullscreenenter"",""1"",""5166""
","
","
","""event"",""trial"",""time""
""fullscreenenter"",""1"",""5166""
","
","","","1406.2999999523163","","","21","6062","1818","w","elianto","#f73b6a7A","-1"," ","0","-10","[2256.899999856949]","1","2","","","6062","82","6","4","lose","no-go","0"
"pit-trial","201","1289945","0.0-87.0","battery-v0.2","","""event"",""trial"",""time""
""fullscreenenter"",""1"",""5166""
","
","
","""event"",""trial"",""time""
""fullscreenenter"",""1"",""5166""
","
","","","1061.7000000476837","","","21","6062","1818","s","elianto","#3366ff99"," "," ","1","+10","[1915.3000001907349]","1","2","","","6062","83","5","1","win","go","0"
"pit-trial","202","1293753","0.0-88.0","battery-v0.2","","""event"",""trial"",""time""
""fullscreenenter"",""1"",""5166""
","
","
","""event"",""trial"",""time""
""fullscreenenter"",""1"",""5166""
","
","","","949.5999999046326","","","21","6062","1818","e","elianto","#f73b6a7A"," "," ","1","0","[1801.1999998092651]","1","2","","","6062","84","7","3","lose","go","0"
"pit-trial","203","1297479","0.0-89.0","battery-v0.2","","""event"",""trial"",""time""
""fullscreenenter"",""1"",""5166""
","
","
","""event"",""trial"",""time""
""fullscreenenter"",""1"",""5166""
","
","","","866.2000000476837","","","21","6062","1818","p","elianto","#3366ff99","-1"," ","0","0","[1718]","1","2","","","6062","85","4","2","win","no-go","0"
"pit-trial","204","1302076","0.0-90.0","battery-v0.2","","""event"",""trial"",""time""
""fullscreenenter"",""1"",""5166""
","
","
","""event"",""trial"",""time""
""fullscreenenter"",""1"",""5166""
","
","","","1733.4000000953674","","","21","6062","1818","e","elianto","#f73b6a7A"," "," ","1","0","[2588.7000000476837]","1","2","","","6062","86","7","3","lose","go","0"
"pit-trial","205","1306934","0.0-91.0","battery-v0.2","","""event"",""trial"",""time""
""fullscreenenter"",""1"",""5166""
","
","
","""event"",""trial"",""time""
""fullscreenenter"",""1"",""5166""
","
","","","-1","","","21","6062","1818","w","elianto","#f73b6a7A","-1","-1","1","0","[]","0","2","","","6062","87","6","4","lose","no-go","0"
"pit-trial","206","1311292","0.0-92.0","battery-v0.2","","""event"",""trial"",""time""
""fullscreenenter"",""1"",""5166""
","
","
","""event"",""trial"",""time""
""fullscreenenter"",""1"",""5166""
","
","","","1498.2000000476837","","","21","6062","1818","s","elianto","#3366ff99"," "," ","1","+10","[2352]","1","2","","","6062","88","5","1","win","go","0"
"pit-trial","207","1315580","0.0-93.0","battery-v0.2","","""event"",""trial"",""time""
""fullscreenenter"",""1"",""5166""
","
","
","""event"",""trial"",""time""
""fullscreenenter"",""1"",""5166""
","
","","","1427.5","","","21","6062","1818","s","elianto","#3366ff99"," "," ","1","0","[2281.600000143051]","1","2","","","6062","89","5","1","win","go","1"
"pit-trial","208","1320443","0.0-94.0","battery-v0.2","","""event"",""trial"",""time""
""fullscreenenter"",""1"",""5166""
","
","
","""event"",""trial"",""time""
""fullscreenenter"",""1"",""5166""
","
","","","-1","","","21","6062","1818","w","elianto","#f73b6a7A","-1","-1","1","0","[]","0","2","","","6062","90","6","4","lose","no-go","0"
"pit-trial","209","1324483","0.0-95.0","battery-v0.2","","""event"",""trial"",""time""
""fullscreenenter"",""1"",""5166""
","
","
","""event"",""trial"",""time""
""fullscreenenter"",""1"",""5166""
","
","","","1178.2999999523163","","","21","6062","1818","e","elianto","#f73b6a7A"," "," ","1","0","[2030.6999998092651]","1","2","","","6062","91","7","3","lose","go","0"
"pit-trial","210","1328952","0.0-96.0","battery-v0.2","","""event"",""trial"",""time""
""fullscreenenter"",""1"",""5166""
","
","
","""event"",""trial"",""time""
""fullscreenenter"",""1"",""5166""
","
","","","1605.6999998092651","","","21","6062","1818","p","elianto","#3366ff99","-1"," ","0","0","[2456.4000000953674]","1","2","","","6062","92","4","2","win","no-go","0"
"pit-trial","211","1332971","0.0-97.0","battery-v0.2","","""event"",""trial"",""time""
""fullscreenenter"",""1"",""5166""
","
","
","""event"",""trial"",""time""
""fullscreenenter"",""1"",""5166""
","
","","","1158.2999999523163","","","21","6062","1818","s","elianto","#3366ff99"," "," ","1","+10","[2012.4000000953674]","1","2","","","6062","93","5","1","win","go","0"
"pit-trial","212","1336634","0.0-98.0","battery-v0.2","","""event"",""trial"",""time""
""fullscreenenter"",""1"",""5166""
","
","
","""event"",""trial"",""time""
""fullscreenenter"",""1"",""5166""
","
","","","801.0999999046326","","","21","6062","1818","d","elianto","#3366ff99","-1"," ","0","0","[1655.7999999523163]","1","2","","","6062","94","8","2","win","no-go","0"
"pit-trial","213","1341493","0.0-99.0","battery-v0.2","","""event"",""trial"",""time""
""fullscreenenter"",""1"",""5166""
","
","
","""event"",""trial"",""time""
""fullscreenenter"",""1"",""5166""
","
","","","-1","","","21","6062","1818","w","elianto","#f73b6a7A","-1","-1","1","-10","[]","0","2","","","6062","95","6","4","lose","no-go","1"
"pit-trial","214","1345418","0.0-100.0","battery-v0.2","","""event"",""trial"",""time""
""fullscreenenter"",""1"",""5166""
","
","
","""event"",""trial"",""time""
""fullscreenenter"",""1"",""5166""
","
","","","1067.8999998569489","","","21","6062","1818","e","elianto","#f73b6a7A"," "," ","1","0","[1918.7999999523163]","1","2","","","6062","96","7","3","lose","go","0"
"pit-trial","215","1349716","0.0-101.0","battery-v0.2","","""event"",""trial"",""time""
""fullscreenenter"",""1"",""5166""
","
","
","""event"",""trial"",""time""
""fullscreenenter"",""1"",""5166""
","
","","","1446.2000000476837","","","21","6062","1818","e","elianto","#f73b6a7A"," "," ","1","0","[2296.5999999046326]","1","2","","","6062","97","7","3","lose","go","0"
"pit-trial","216","1354571","0.0-102.0","battery-v0.2","","""event"",""trial"",""time""
""fullscreenenter"",""1"",""5166""
","
","
","""event"",""trial"",""time""
""fullscreenenter"",""1"",""5166""
","
","","","-1","","","21","6062","1818","w","elianto","#f73b6a7A","-1","-1","1","0","[]","0","2","","","6062","98","6","4","lose","no-go","0"
"pit-trial","217","1358725","0.0-103.0","battery-v0.2","","""event"",""trial"",""time""
""fullscreenenter"",""1"",""5166""
","
","
","""event"",""trial"",""time""
""fullscreenenter"",""1"",""5166""
","
","","","1300.6000001430511","","","21","6062","1818","d","elianto","#3366ff99","-1"," ","0","0","[2151.4000000953674]","1","2","","","6062","99","8","2","win","no-go","0"
"pit-trial","218","1363247","0.0-104.0","battery-v0.2","","""event"",""trial"",""time""
""fullscreenenter"",""1"",""5166""
","
","
","""event"",""trial"",""time""
""fullscreenenter"",""1"",""5166""
","
","","","1662.0999999046326","","","21","6062","1818","s","elianto","#3366ff99"," "," ","1","+10","[2514.5]","1","2","","","6062","100","5","1","win","go","0"
"pit-trial","219","1368108","0.0-105.0","battery-v0.2","","""event"",""trial"",""time""
""fullscreenenter"",""1"",""5166""
","
","
","""event"",""trial"",""time""
""fullscreenenter"",""1"",""5166""
","
","","","-1","","","21","6062","1818","d","elianto","#3366ff99","-1","-1","1","+10","[]","0","2","","","6062","101","8","2","win","no-go","0"
"pit-trial","220","1372970","0.0-106.0","battery-v0.2","","""event"",""trial"",""time""
""fullscreenenter"",""1"",""5166""
","
","
","""event"",""trial"",""time""
""fullscreenenter"",""1"",""5166""
","
","","","-1","","","21","6062","1818","w","elianto","#f73b6a7A","-1","-1","1","0","[]","0","2","","","6062","102","6","4","lose","no-go","0"
"pit-trial","221","1376999","0.0-107.0","battery-v0.2","","""event"",""trial"",""time""
""fullscreenenter"",""1"",""5166""
","
","
","""event"",""trial"",""time""
""fullscreenenter"",""1"",""5166""
","
","","","1166.5","","","21","6062","1818","s","elianto","#3366ff99"," "," ","1","0","[2020.5]","1","2","","","6062","103","5","1","win","go","1"
"pit-trial","222","1380777","0.0-108.0","battery-v0.2","","""event"",""trial"",""time""
""fullscreenenter"",""1"",""5166""
","
","
","""event"",""trial"",""time""
""fullscreenenter"",""1"",""5166""
","
","","","918","","","21","6062","1818","j","elianto","#3366ff99","-1"," ","0","0","[1771.3000001907349]","1","2","","","6062","104","9","2","win","no-go","0"
"pit-trial","223","1385643","0.0-109.0","battery-v0.2","","""event"",""trial"",""time""
""fullscreenenter"",""1"",""5166""
","
","
","""event"",""trial"",""time""
""fullscreenenter"",""1"",""5166""
","
","","","-1","","","21","6062","1818","w","elianto","#f73b6a7A","-1","-1","1","0","[]","0","2","","","6062","105","6","4","lose","no-go","0"
"pit-trial","224","1390505","0.0-110.0","battery-v0.2","","""event"",""trial"",""time""
""fullscreenenter"",""1"",""5166""
","
","
","""event"",""trial"",""time""
""fullscreenenter"",""1"",""5166""
","
","","","-1","","","21","6062","1818","d","elianto","#3366ff99","-1","-1","1","+10","[]","0","2","","","6062","106","8","2","win","no-go","0"
"pit-trial","225","1395366","0.0-111.0","battery-v0.2","","""event"",""trial"",""time""
""fullscreenenter"",""1"",""5166""
","
","
","""event"",""trial"",""time""
""fullscreenenter"",""1"",""5166""
","
","","","-1","","","21","6062","1818","j","elianto","#3366ff99","-1","-1","1","+10","[]","0","2","","","6062","107","9","2","win","no-go","0"
"pit-trial","226","1399047","0.0-112.0","battery-v0.2","","""event"",""trial"",""time""
""fullscreenenter"",""1"",""5166""
","
","
","""event"",""trial"",""time""
""fullscreenenter"",""1"",""5166""
","
","","","818.9000000953674","","","21","6062","1818","s","elianto","#3366ff99"," "," ","1","0","[1671.5999999046326]","1","2","","","6062","108","5","1","win","go","1"
"pit-trial","227","1403907","0.0-113.0","battery-v0.2","","""event"",""trial"",""time""
""fullscreenenter"",""1"",""5166""
","
","
","""event"",""trial"",""time""
""fullscreenenter"",""1"",""5166""
","
","","","-1","","","21","6062","1818","d","elianto","#3366ff99","-1","-1","1","+10","[]","0","2","","","6062","109","8","2","win","no-go","0"
"pit-trial","228","1408768","0.0-114.0","battery-v0.2","","""event"",""trial"",""time""
""fullscreenenter"",""1"",""5166""
","
","
","""event"",""trial"",""time""
""fullscreenenter"",""1"",""5166""
","
","","","-1","","","21","6062","1818","w","elianto","#f73b6a7A","-1","-1","1","0","[]","0","2","","","6062","110","6","4","lose","no-go","0"
"pit-trial","229","1412526","0.0-115.0","battery-v0.2","","""event"",""trial"",""time""
""fullscreenenter"",""1"",""5166""
","
","
","""event"",""trial"",""time""
""fullscreenenter"",""1"",""5166""
","
","","","898","","","21","6062","1818","s","elianto","#3366ff99"," "," ","1","0","[1749.1000001430511]","1","2","","","6062","111","5","1","win","go","1"
"pit-trial","230","1417390","0.0-116.0","battery-v0.2","","""event"",""trial"",""time""
""fullscreenenter"",""1"",""5166""
","
","
","""event"",""trial"",""time""
""fullscreenenter"",""1"",""5166""
","
","","","-1","","","21","6062","1818","j","elianto","#3366ff99","-1","-1","1","+10","[]","0","2","","","6062","112","9","2","win","no-go","0"
"pit-trial","231","1421306","0.0-117.0","battery-v0.2","","""event"",""trial"",""time""
""fullscreenenter"",""1"",""5166""
","
","
","""event"",""trial"",""time""
""fullscreenenter"",""1"",""5166""
","
","","","1055.7999999523163","","","21","6062","1818","s","elianto","#3366ff99"," "," ","1","0","[1909.3999998569489]","1","2","","","6062","113","5","1","win","go","1"
"pit-trial","232","1425352","0.0-118.0","battery-v0.2","","""event"",""trial"",""time""
""fullscreenenter"",""1"",""5166""
","
","
","""event"",""trial"",""time""
""fullscreenenter"",""1"",""5166""
","
","","","1181.5","","","21","6062","1818","e","elianto","#f73b6a7A"," "," ","1","0","[2036.2999999523163]","1","2","","","6062","114","7","3","lose","go","0"
"pit-trial","233","1430218","0.0-119.0","battery-v0.2","","""event"",""trial"",""time""
""fullscreenenter"",""1"",""5166""
","
","
","""event"",""trial"",""time""
""fullscreenenter"",""1"",""5166""
","
","","","-1","","","21","6062","1818","j","elianto","#3366ff99","-1","-1","1","0","[]","0","2","","","6062","115","9","2","win","no-go","1"
"pit-trial","234","1435080","0.0-120.0","battery-v0.2","","""event"",""trial"",""time""
""fullscreenenter"",""1"",""5166""
","
","
","""event"",""trial"",""time""
""fullscreenenter"",""1"",""5166""
","
","","","-1","","","21","6062","1818","d","elianto","#3366ff99","-1","-1","1","0","[]","0","2","","","6062","116","8","2","win","no-go","1"
"pit-trial","235","1439941","0.0-121.0","battery-v0.2","","""event"",""trial"",""time""
""fullscreenenter"",""1"",""5166""
","
","
","""event"",""trial"",""time""
""fullscreenenter"",""1"",""5166""
","
","","","-1","","","21","6062","1818","j","elianto","#3366ff99","-1","-1","1","+10","[]","0","2","","","6062","117","9","2","win","no-go","0"
"pit-trial","236","1444802","0.0-122.0","battery-v0.2","","""event"",""trial"",""time""
""fullscreenenter"",""1"",""5166""
","
","
","""event"",""trial"",""time""
""fullscreenenter"",""1"",""5166""
","
","","","-1","","","21","6062","1818","w","elianto","#f73b6a7A","-1","-1","1","-10","[]","0","2","","","6062","118","6","4","lose","no-go","1"
"pit-trial","237","1449661","0.0-123.0","battery-v0.2","","""event"",""trial"",""time""
""fullscreenenter"",""1"",""5166""
","
","
","""event"",""trial"",""time""
""fullscreenenter"",""1"",""5166""
","
","","","-1","","","21","6062","1818","d","elianto","#3366ff99","-1","-1","1","0","[]","0","2","","","6062","119","8","2","win","no-go","1"
"pit-trial","238","1453721","0.0-124.0","battery-v0.2","","""event"",""trial"",""time""
""fullscreenenter"",""1"",""5166""
","
","
","""event"",""trial"",""time""
""fullscreenenter"",""1"",""5166""
","
","","","1194.5","","","21","6062","1818","s","elianto","#3366ff99"," "," ","1","+10","[2049.4000000953674]","1","2","","","6062","120","5","1","win","go","0"
"pit-trial","239","1457383","0.0-125.0","battery-v0.2","","""event"",""trial"",""time""
""fullscreenenter"",""1"",""5166""
","
","
","""event"",""trial"",""time""
""fullscreenenter"",""1"",""5166""
","
","","","803.2000000476837","","","21","6062","1818","s","elianto","#3366ff99"," "," ","1","0","[1654.9000000953674]","1","2","","","6062","121","5","1","win","go","1"
"pit-trial","240","1462244","0.0-126.0","battery-v0.2","","""event"",""trial"",""time""
""fullscreenenter"",""1"",""5166""
","
","
","""event"",""trial"",""time""
""fullscreenenter"",""1"",""5166""
","
","","","-1","","","21","6062","1818","e","elianto","#f73b6a7A"," ","-1","0","-10","[]","0","2","","","6062","122","7","3","lose","go","0"
"pit-trial","241","1467105","0.0-127.0","battery-v0.2","","""event"",""trial"",""time""
""fullscreenenter"",""1"",""5166""
","
","
","""event"",""trial"",""time""
""fullscreenenter"",""1"",""5166""
","
","","","-1","","","21","6062","1818","j","elianto","#3366ff99","-1","-1","1","0","[]","0","2","","","6062","123","9","2","win","no-go","1"
"pit-trial","242","1471966","0.0-128.0","battery-v0.2","","""event"",""trial"",""time""
""fullscreenenter"",""1"",""5166""
","
","
","""event"",""trial"",""time""
""fullscreenenter"",""1"",""5166""
","
","","","-1","","","21","6062","1818","d","elianto","#3366ff99","-1","-1","1","+10","[]","0","2","","","6062","124","8","2","win","no-go","0"
"pit-trial","243","1476828","0.0-129.0","battery-v0.2","","""event"",""trial"",""time""
""fullscreenenter"",""1"",""5166""
","
","
","""event"",""trial"",""time""
""fullscreenenter"",""1"",""5166""
","
","","","-1","","","21","6062","1818","j","elianto","#3366ff99","-1","-1","1","+10","[]","0","2","","","6062","125","9","2","win","no-go","0"
"pit-trial","244","1481692","0.0-130.0","battery-v0.2","","""event"",""trial"",""time""
""fullscreenenter"",""1"",""5166""
","
","
","""event"",""trial"",""time""
""fullscreenenter"",""1"",""5166""
","
","","","-1","","","21","6062","1818","d","elianto","#3366ff99","-1","-1","1","+10","[]","0","2","","","6062","126","8","2","win","no-go","0"
"pit-trial","245","1486059","0.0-131.0","battery-v0.2","","""event"",""trial"",""time""
""fullscreenenter"",""1"",""5166""
","
","
","""event"",""trial"",""time""
""fullscreenenter"",""1"",""5166""
","
","","","1505.5999999046326","","","21","6062","1818","e","elianto","#f73b6a7A"," "," ","1","-10","[2359.300000190735]","1","2","","","6062","127","7","3","lose","go","1"
"pit-trial","246","1490926","0.0-132.0","battery-v0.2","","""event"",""trial"",""time""
""fullscreenenter"",""1"",""5166""
","
","
","""event"",""trial"",""time""
""fullscreenenter"",""1"",""5166""
","
","","","-1","","","21","6062","1818","w","elianto","#f73b6a7A","-1","-1","1","0","[]","0","2","","","6062","128","6","4","lose","no-go","0"
"pit-trial","247","1494923","0.0-133.0","battery-v0.2","","""event"",""trial"",""time""
""fullscreenenter"",""1"",""5166""
","
","
","""event"",""trial"",""time""
""fullscreenenter"",""1"",""5166""
","
","","","1138.7000000476837","","","21","6062","1818","e","elianto","#f73b6a7A"," "," ","1","0","[1990.2999999523163]","1","2","","","6062","129","7","3","lose","go","0"
"pit-trial","248","1499784","0.0-134.0","battery-v0.2","","""event"",""trial"",""time""
""fullscreenenter"",""1"",""5166""
","
","
","""event"",""trial"",""time""
""fullscreenenter"",""1"",""5166""
","
","","","-1","","","21","6062","1818","w","elianto","#f73b6a7A","-1","-1","1","0","[]","0","2","","","6062","130","6","4","lose","no-go","0"
"pit-trial","249","1504648","0.0-135.0","battery-v0.2","","""event"",""trial"",""time""
""fullscreenenter"",""1"",""5166""
","
","
","""event"",""trial"",""time""
""fullscreenenter"",""1"",""5166""
","
","","","-1","","","21","6062","1818","d","elianto","#3366ff99","-1","-1","1","0","[]","0","2","","","6062","131","8","2","win","no-go","1"
"pit-trial","250","1509506","0.0-136.0","battery-v0.2","","""event"",""trial"",""time""
""fullscreenenter"",""1"",""5166""
","
","
","""event"",""trial"",""time""
""fullscreenenter"",""1"",""5166""
","
","","","-1","","","21","6062","1818","j","elianto","#3366ff99","-1","-1","1","0","[]","0","2","","","6062","132","9","2","win","no-go","1"
"pit-trial","251","1513334","0.0-137.0","battery-v0.2","","""event"",""trial"",""time""
""fullscreenenter"",""1"",""5166""
","
","
","""event"",""trial"",""time""
""fullscreenenter"",""1"",""5166""
","
","","","968.3000001907349","","","21","6062","1818","e","elianto","#f73b6a7A"," "," ","1","0","[1822.3000001907349]","1","2","","","6062","133","7","3","lose","go","0"
"pit-trial","252","1518197","0.0-138.0","battery-v0.2","","""event"",""trial"",""time""
""fullscreenenter"",""1"",""5166""
","
","
","""event"",""trial"",""time""
""fullscreenenter"",""1"",""5166""
","
","","","-1","","","21","6062","1818","d","elianto","#3366ff99","-1","-1","1","+10","[]","0","2","","","6062","134","8","2","win","no-go","0"
"pit-trial","253","1523058","0.0-139.0","battery-v0.2","","""event"",""trial"",""time""
""fullscreenenter"",""1"",""5166""
","
","
","""event"",""trial"",""time""
""fullscreenenter"",""1"",""5166""
","
","","","-1","","","21","6062","1818","w","elianto","#f73b6a7A","-1","-1","1","0","[]","0","2","","","6062","135","6","4","lose","no-go","0"
"pit-trial","254","1527922","0.0-140.0","battery-v0.2","","""event"",""trial"",""time""
""fullscreenenter"",""1"",""5166""
","
","
","""event"",""trial"",""time""
""fullscreenenter"",""1"",""5166""
","
","","","-1","","","21","6062","1818","j","elianto","#3366ff99","-1","-1","1","+10","[]","0","2","","","6062","136","9","2","win","no-go","0"
"pit-trial","255","1532783","0.0-141.0","battery-v0.2","","""event"",""trial"",""time""
""fullscreenenter"",""1"",""5166""
","
","
","""event"",""trial"",""time""
""fullscreenenter"",""1"",""5166""
","
","","","-1","","","21","6062","1818","w","elianto","#f73b6a7A","-1","-1","1","-10","[]","0","2","","","6062","137","6","4","lose","no-go","1"
"pit-trial","256","1537650","0.0-142.0","battery-v0.2","","""event"",""trial"",""time""
""fullscreenenter"",""1"",""5166""
","
","
","""event"",""trial"",""time""
""fullscreenenter"",""1"",""5166""
","
","","","-1","","","21","6062","1818","d","elianto","#3366ff99","-1","-1","1","+10","[]","0","2","","","6062","138","8","2","win","no-go","0"
"pit-trial","257","1541231","0.0-143.0","battery-v0.2","","""event"",""trial"",""time""
""fullscreenenter"",""1"",""5166""
","
","
","""event"",""trial"",""time""
""fullscreenenter"",""1"",""5166""
","
","","","723","","","21","6062","1818","e","elianto","#f73b6a7A"," "," ","1","0","[1574.2999999523163]","1","2","","","6062","139","7","3","lose","go","0"
"pit-trial","258","1546097","0.0-144.0","battery-v0.2","","""event"",""trial"",""time""
""fullscreenenter"",""1"",""5166""
","
","
","""event"",""trial"",""time""
""fullscreenenter"",""1"",""5166""
","
","","","-1","","","21","6062","1818","j","elianto","#3366ff99","-1","-1","1","+10","[]","0","2","","","6062","140","9","2","win","no-go","0"
"pit-instructions","259","1580838","0.0-145.0","battery-v0.2","","""event"",""trial"",""time""
""fullscreenenter"",""1"",""5166""
","
","
","""event"",""trial"",""time""
""fullscreenenter"",""1"",""5166""
","
","","[{""page_index"":0,""viewing_time"":20989.900000095367},{""page_index"":1,""viewing_time"":13746.700000047684}]","34737.60000014305","","","","","","","","","","","","","","","","","","","","","","","",""
"pit-trial","260","1584642","0.0-146.0","battery-v0.2","","""event"",""trial"",""time""
""fullscreenenter"",""1"",""5166""
","
","
","""event"",""trial"",""time""
""fullscreenenter"",""1"",""5166""
","
","","","943.9000000953674","","","21","6062","1818","b","elianto","#f73b6a7A","-1"," ","0","-10","[1794.2999999523163]","1","3","","","6062","141","3","4","lose","no-go","0"
"pit-trial","261","1588360","0.0-147.0","battery-v0.2","","""event"",""trial"",""time""
""fullscreenenter"",""1"",""5166""
","
","
","""event"",""trial"",""time""
""fullscreenenter"",""1"",""5166""
","
","","","852.8000001907349","","","21","6062","1818","t","elianto","#f73b6a7A"," "," ","1","0","[1707.2000000476837]","1","3","","","6062","142","2","3","lose","go","0"
"pit-trial","262","1592332","0.0-148.0","battery-v0.2","","""event"",""trial"",""time""
""fullscreenenter"",""1"",""5166""
","
","
","""event"",""trial"",""time""
""fullscreenenter"",""1"",""5166""
","
","","","1109.2000000476837","","","21","6062","1818","f","elianto","#3366ff99","-1"," ","0","0","[1963.1000001430511]","1","3","","","6062","143","1","2","win","no-go","0"
"pit-trial","263","1596818","0.0-149.0","battery-v0.2","","""event"",""trial"",""time""
""fullscreenenter"",""1"",""5166""
","
","
","""event"",""trial"",""time""
""fullscreenenter"",""1"",""5166""
","
","","","1626.8000001907349","","","21","6062","1818","n","elianto","#f73b6a7A"," "," ","1","0","[2477.7000000476837]","1","3","","","6062","144","0","3","lose","go","0"
"pit-trial","264","1600744","0.0-150.0","battery-v0.2","","""event"",""trial"",""time""
""fullscreenenter"",""1"",""5166""
","
","
","""event"",""trial"",""time""
""fullscreenenter"",""1"",""5166""
","
","","","1068.2999999523163","","","21","6062","1818","n","elianto","#f73b6a7A"," "," ","1","0","[1918.5999999046326]","1","3","","","6062","145","0","3","lose","go","0"
"pit-trial","265","1604972","0.0-151.0","battery-v0.2","","""event"",""trial"",""time""
""fullscreenenter"",""1"",""5166""
","
","
","""event"",""trial"",""time""
""fullscreenenter"",""1"",""5166""
","
","","","1369.4000000953674","","","21","6062","1818","t","elianto","#f73b6a7A"," "," ","1","0","[2222.4000000953674]","1","3","","","6062","146","2","3","lose","go","0"
"pit-trial","266","1609474","0.0-152.0","battery-v0.2","","""event"",""trial"",""time""
""fullscreenenter"",""1"",""5166""
","
","
","""event"",""trial"",""time""
""fullscreenenter"",""1"",""5166""
","
","","","1641.7000000476837","","","21","6062","1818","f","elianto","#3366ff99","-1"," ","0","0","[2495.9000000953674]","1","3","","","6062","147","1","2","win","no-go","0"
"pit-trial","267","1613989","0.0-153.0","battery-v0.2","","""event"",""trial"",""time""
