"trial_type","trial_index","time_elapsed","internal_node_id","task_version","subject_id","interactions","blur_events","focus_events","fullscreenenter_events","fullscreenexit_events","success","view_history","rt","responses","num_errors","age","subject","participantId","rune","rune_set","hex","correct","choice","accuracy","outcome","keys","total_keys","block","practice","value","sub","trial","stimulus","robot","valence","action","sham"
"pavlovia","0","17","0.0-0.0","battery-v0.2","","""event"",""trial"",""time""
""fullscreenenter"",""1"",""3610""
","
","
","""event"",""trial"",""time""
""fullscreenenter"",""1"",""3610""
","
","","","","","","","","","","","","","","","","","","","","","","","","","","",""
"fullscreen","1","4590","0.0-1.0","battery-v0.2","","""event"",""trial"",""time""
""fullscreenenter"",""1"",""3610""
","
","
","""event"",""trial"",""time""
""fullscreenenter"",""1"",""3610""
","
","true","","","","","","","","","","","","","","","","","","","","","","","","","",""
"pit-instructions","2","8401","0.0-2.0-0.0","battery-v0.2","","""event"",""trial"",""time""
""fullscreenenter"",""1"",""3610""
","
","
","""event"",""trial"",""time""
""fullscreenenter"",""1"",""3610""
","
","","[{""page_index"":0,""viewing_time"":3804.7999999523163}]","3805.2999999523163","","","","","","","","","","","","","","","","","","","","","","","",""
"pit-comprehension","3","11569","0.0-2.0-1.0-0.0","battery-v0.2","","""event"",""trial"",""time""
""fullscreenenter"",""1"",""3610""
","
","
","""event"",""trial"",""time""
""fullscreenenter"",""1"",""3610""
","
","","","3162.100000143051","[""shark""]","0","23","11605","5345","","","","","","","","","","","","","","","","","","",""
"pit-instructions","4","13468","0.0-2.0-1.0-1.0","battery-v0.2","","""event"",""trial"",""time""
""fullscreenenter"",""1"",""3610""
","
","
","""event"",""trial"",""time""
""fullscreenenter"",""1"",""3610""
","
","","[{""page_index"":0,""viewing_time"":1892.5}]","1893.0999999046326","","","","","","","","","","","","","","","","","","","","","","","",""
"pit-comprehension","5","16532","0.0-2.0-2.0-0.0","battery-v0.2","","""event"",""trial"",""time""
""fullscreenenter"",""1"",""3610""
","
","
","""event"",""trial"",""time""
""fullscreenenter"",""1"",""3610""
","
","","","3060.600000143051","[""tiger""]","0","23","11605","5345","","","","","","","","","","","","","","","","","","",""
"pit-instructions","6","19150","0.0-2.0-2.0-1.0","battery-v0.2","","""event"",""trial"",""time""
""fullscreenenter"",""1"",""3610""
","
","
","""event"",""trial"",""time""
""fullscreenenter"",""1"",""3610""
","
","","[{""page_index"":0,""viewing_time"":2615.600000143051}]","2616.100000143051","","","","","","","","","","","","","","","","","","","","","","","",""
"pit-instructions","7","123466","0.0-2.0-3.0","battery-v0.2","","""event"",""trial"",""time""
""fullscreenenter"",""1"",""3610""
","
","
","""event"",""trial"",""time""
""fullscreenenter"",""1"",""3610""
","
","","[{""page_index"":0,""viewing_time"":11345.5},{""page_index"":1,""viewing_time"":6584.900000095367},{""page_index"":2,""viewing_time"":7450.200000047684},{""page_index"":3,""viewing_time"":5483.200000047684},{""page_index"":4,""viewing_time"":5867.699999809265},{""page_index"":5,""viewing_time"":5750.200000047684},{""page_index"":6,""viewing_time"":6934.200000047684},{""page_index"":7,""viewing_time"":6465.799999952316},{""page_index"":8,""viewing_time"":6217.700000047684},{""page_index"":9,""viewing_time"":14033.200000047684},{""page_index"":10,""viewing_time"":7701.200000047684},{""page_index"":11,""viewing_time"":7666.199999809265},{""page_index"":12,""viewing_time"":6917.100000143051},{""page_index"":13,""viewing_time"":5899.899999856949}]","104318","","","","","","","","","","","","","","","","","","","","","","","",""
"pit-trial","8","127018","0.0-2.0-4.0-0.0","battery-v0.2","","""event"",""trial"",""time""
""fullscreenenter"",""1"",""3610""
","
","
","""event"",""trial"",""time""
""fullscreenenter"",""1"",""3610""
","
","","","690.7000000476837","","","23","11605","5345","&#9784;","elianto","#FFFFF080"," "," ","1","&#10004","[1542.1000001430511]","1","0","0","","","","","","","",""
"pit-trial","9","130620","0.0-2.0-4.1-0.1","battery-v0.2","","""event"",""trial"",""time""
""fullscreenenter"",""1"",""3610""
","
","
","""event"",""trial"",""time""
""fullscreenenter"",""1"",""3610""
","
","","","740.4000000953674","","","23","11605","5345","&#9784;","elianto","#FFFFF080"," "," ","1","&#10004","[1593.4000000953674]","1","0","0","","","","","","","",""
"pit-trial","10","134110","0.0-2.0-4.2-0.2","battery-v0.2","","""event"",""trial"",""time""
""fullscreenenter"",""1"",""3610""
","
","
","""event"",""trial"",""time""
""fullscreenenter"",""1"",""3610""
","
","","","628.5","","","23","11605","5345","&#9784;","elianto","#FFFFF080"," "," ","1","&#10004","[1480.3000001907349]","1","0","0","","","","","","","",""
"pit-trial","11","137638","0.0-2.0-4.3-0.3","battery-v0.2","","""event"",""trial"",""time""
""fullscreenenter"",""1"",""3610""
","
","
","""event"",""trial"",""time""
""fullscreenenter"",""1"",""3610""
","
","","","671.9000000953674","","","23","11605","5345","&#9784;","elianto","#FFFFF080"," "," ","1","&#10004","[1522.9000000953674]","1","0","0","","","","","","","",""
"pit-trial","12","141058","0.0-2.0-4.4-0.4","battery-v0.2","","""event"",""trial"",""time""
""fullscreenenter"",""1"",""3610""
","
","
","""event"",""trial"",""time""
""fullscreenenter"",""1"",""3610""
","
","","","561.6000001430511","","","23","11605","5345","&#9784;","elianto","#FFFFF080"," "," ","1","&#10004","[1413]","1","0","0","","","","","","","",""
"pit-instructions","13","162148","0.0-2.0-5.0","battery-v0.2","","""event"",""trial"",""time""
""fullscreenenter"",""1"",""3610""
","
","
","""event"",""trial"",""time""
""fullscreenenter"",""1"",""3610""
","
","","[{""page_index"":0,""viewing_time"":4985.399999856949},{""page_index"":1,""viewing_time"":5033.5},{""page_index"":2,""viewing_time"":5851.200000047684},{""page_index"":3,""viewing_time"":5215.900000095367}]","21086.5","","","","","","","","","","","","","","","","","","","","","","","",""
"pit-trial","14","167013","0.0-2.0-6.0-0.0","battery-v0.2","","""event"",""trial"",""time""
""fullscreenenter"",""1"",""3610""
","
","
","""event"",""trial"",""time""
""fullscreenenter"",""1"",""3610""
","
","","","-1","","","23","11605","5345","&#9854;","elianto","#FFFFF080","-1","-1","1","&#10004","[]","0","0","1","","","","","","","",""
"pit-trial","15","171876","0.0-2.0-6.1-0.1","battery-v0.2","","""event"",""trial"",""time""
""fullscreenenter"",""1"",""3610""
","
","
","""event"",""trial"",""time""
""fullscreenenter"",""1"",""3610""
","
","","","-1","","","23","11605","5345","&#9854;","elianto","#FFFFF080","-1","-1","1","&#10004","[]","0","0","1","","","","","","","",""
"pit-trial","16","176741","0.0-2.0-6.2-0.2","battery-v0.2","","""event"",""trial"",""time""
""fullscreenenter"",""1"",""3610""
","
","
","""event"",""trial"",""time""
""fullscreenenter"",""1"",""3610""
","
","","","-1","","","23","11605","5345","&#9854;","elianto","#FFFFF080","-1","-1","1","&#10004","[]","0","0","1","","","","","","","",""
"pit-trial","17","181600","0.0-2.0-6.3-0.3","battery-v0.2","","""event"",""trial"",""time""
""fullscreenenter"",""1"",""3610""
","
","
","""event"",""trial"",""time""
""fullscreenenter"",""1"",""3610""
","
","","","-1","","","23","11605","5345","&#9854;","elianto","#FFFFF080","-1","-1","1","&#10004","[]","0","0","1","","","","","","","",""
"pit-trial","18","186463","0.0-2.0-6.4-0.4","battery-v0.2","","""event"",""trial"",""time""
""fullscreenenter"",""1"",""3610""
","
","
","""event"",""trial"",""time""
""fullscreenenter"",""1"",""3610""
","
","","","-1","","","23","11605","5345","&#9854;","elianto","#FFFFF080","-1","-1","1","&#10004","[]","0","0","1","","","","","","","",""
"pit-instructions","19","345947","0.0-2.0-7.0","battery-v0.2","","""event"",""trial"",""time""
""fullscreenenter"",""1"",""3610""
","
","
","""event"",""trial"",""time""
""fullscreenenter"",""1"",""3610""
","
","","[{""page_index"":0,""viewing_time"":15863.599999904633},{""page_index"":1,""viewing_time"":12466.900000095367},{""page_index"":2,""viewing_time"":7634.5},{""page_index"":3,""viewing_time"":6650.299999952316},{""page_index"":4,""viewing_time"":6217.299999952316},{""page_index"":5,""viewing_time"":5652.600000143051},{""page_index"":6,""viewing_time"":12099.099999904633},{""page_index"":7,""viewing_time"":9215.799999952316},{""page_index"":8,""viewing_time"":7234.100000143051},{""page_index"":9,""viewing_time"":6100.299999952316},{""page_index"":10,""viewing_time"":6433.299999952316},{""page_index"":11,""viewing_time"":10770.5},{""page_index"":12,""viewing_time"":7096.299999952316},{""page_index"":13,""viewing_time"":7534},{""page_index"":14,""viewing_time"":7216.900000095367},{""page_index"":15,""viewing_time"":6269},{""page_index"":16,""viewing_time"":16901.39999985695},{""page_index"":17,""viewing_time"":8133}]","159489.59999990463","","","","","","","","","","","","","","","","","","","","","","","",""
"pit-trial","20","349707","0.0-2.0-8.0-0.0","battery-v0.2","","""event"",""trial"",""time""
""fullscreenenter"",""1"",""3610""
","
","
","""event"",""trial"",""time""
""fullscreenenter"",""1"",""3610""
","
","","","901.0999999046326","","","23","11605","5345","&#9776;","elianto","#3366ff99"," "," ","1","+10","[1753.9000000953674]","1","0","1","","","","","","","",""
"pit-trial","21","353086","0.0-2.0-8.0-1.0","battery-v0.2","","""event"",""trial"",""time""
""fullscreenenter"",""1"",""3610""
","
","
","""event"",""trial"",""time""
""fullscreenenter"",""1"",""3610""
","
","","","521.5","","","23","11605","5345","&#9776;","elianto","#3366ff99"," "," ","1","+10","[1371.9000000953674]","1","0","1","","","","","","","",""
"pit-trial","22","356352","0.0-2.0-8.0-2.0","battery-v0.2","","""event"",""trial"",""time""
""fullscreenenter"",""1"",""3610""
","
","
","""event"",""trial"",""time""
""fullscreenenter"",""1"",""3610""
","
","","","406.60000014305115","","","23","11605","5345","&#9776;","elianto","#3366ff99"," "," ","1","+10","[1258.7000000476837]","1","0","1","","","","","","","",""
"pit-trial","23","359592","0.0-2.0-8.0-3.0","battery-v0.2","","""event"",""trial"",""time""
""fullscreenenter"",""1"",""3610""
","
","
","""event"",""trial"",""time""
""fullscreenenter"",""1"",""3610""
","
","","","383.7000000476837","","","23","11605","5345","&#9776;","elianto","#3366ff99"," "," ","1","0","[1236]","1","0","1","","","","","","","",""
"pit-trial","24","362899","0.0-2.0-8.0-4.0","battery-v0.2","","""event"",""trial"",""time""
""fullscreenenter"",""1"",""3610""
","
","
","""event"",""trial"",""time""
""fullscreenenter"",""1"",""3610""
","
","","","452.2000000476837","","","23","11605","5345","&#9776;","elianto","#3366ff99"," "," ","1","+10","[1303.2000000476837]","1","0","1","","","","","","","",""
"pit-trial","25","366303","0.0-2.0-8.1-0.1","battery-v0.2","","""event"",""trial"",""time""
""fullscreenenter"",""1"",""3610""
","
","
","""event"",""trial"",""time""
""fullscreenenter"",""1"",""3610""
","
","","","540.7000000476837","","","23","11605","5345","&#9776;","elianto","#3366ff99"," "," ","1","+10","[1392.3000001907349]","1","0","1","","","","","","","",""
"pit-trial","26","369474","0.0-2.0-8.1-1.1","battery-v0.2","","""event"",""trial"",""time""
""fullscreenenter"",""1"",""3610""
","
","
","""event"",""trial"",""time""
""fullscreenenter"",""1"",""3610""
","
","","","310.7999999523163","","","23","11605","5345","&#9776;","elianto","#3366ff99"," "," ","1","+10","[1163.0999999046326]","1","0","1","","","","","","","",""
"pit-trial","27","372672","0.0-2.0-8.1-2.1","battery-v0.2","","""event"",""trial"",""time""
""fullscreenenter"",""1"",""3610""
","
","
","""event"",""trial"",""time""
""fullscreenenter"",""1"",""3610""
","
","","","341.7000000476837","","","23","11605","5345","&#9776;","elianto","#3366ff99"," "," ","1","+10","[1192.6000001430511]","1","0","1","","","","","","","",""
"pit-trial","28","375964","0.0-2.0-8.1-3.1","battery-v0.2","","""event"",""trial"",""time""
""fullscreenenter"",""1"",""3610""
","
","
","""event"",""trial"",""time""
""fullscreenenter"",""1"",""3610""
","
","","","436","","","23","11605","5345","&#9776;","elianto","#3366ff99"," "," ","1","0","[1286.9000000953674]","1","0","1","","","","","","","",""
"pit-trial","29","379344","0.0-2.0-8.1-4.1","battery-v0.2","","""event"",""trial"",""time""
""fullscreenenter"",""1"",""3610""
","
","
","""event"",""trial"",""time""
""fullscreenenter"",""1"",""3610""
","
","","","520.7000000476837","","","23","11605","5345","&#9776;","elianto","#3366ff99"," "," ","1","+10","[1373.8999998569489]","1","0","1","","","","","","","",""
"pit-trial","30","384206","0.0-2.0-8.2-0.2","battery-v0.2","","""event"",""trial"",""time""
""fullscreenenter"",""1"",""3610""
","
","
","""event"",""trial"",""time""
""fullscreenenter"",""1"",""3610""
","
","","","-1","","","23","11605","5345","&#9776;","elianto","#3366ff99"," ","-1","0","0","[]","0","0","1","","","","","","","",""
"pit-trial","31","387512","0.0-2.0-8.2-1.2","battery-v0.2","","""event"",""trial"",""time""
""fullscreenenter"",""1"",""3610""
","
","
","""event"",""trial"",""time""
""fullscreenenter"",""1"",""3610""
","
","","","446.30000019073486","","","23","11605","5345","&#9776;","elianto","#3366ff99"," "," ","1","+10","[1297.2000000476837]","1","0","1","","","","","","","",""
"pit-trial","32","390766","0.0-2.0-8.2-2.2","battery-v0.2","","""event"",""trial"",""time""
""fullscreenenter"",""1"",""3610""
","
","
","""event"",""trial"",""time""
""fullscreenenter"",""1"",""3610""
","
","","","398.09999990463257","","","23","11605","5345","&#9776;","elianto","#3366ff99"," "," ","1","+10","[1250.6000001430511]","1","0","1","","","","","","","",""
"pit-trial","33","394047","0.0-2.0-8.2-3.2","battery-v0.2","","""event"",""trial"",""time""
""fullscreenenter"",""1"",""3610""
","
","
","""event"",""trial"",""time""
""fullscreenenter"",""1"",""3610""
","
","","","420.89999985694885","","","23","11605","5345","&#9776;","elianto","#3366ff99"," "," ","1","0","[1272.8999998569489]","1","0","1","","","","","","","",""
"pit-trial","34","397341","0.0-2.0-8.2-4.2","battery-v0.2","","""event"",""trial"",""time""
""fullscreenenter"",""1"",""3610""
","
","
","""event"",""trial"",""time""
""fullscreenenter"",""1"",""3610""
","
","","","434.2000000476837","","","23","11605","5345","&#9776;","elianto","#3366ff99"," "," ","1","+10","[1287.0999999046326]","1","0","1","","","","","","","",""
"call-function","35","397345","0.0-2.0-9.0","battery-v0.2","","""event"",""trial"",""time""
""fullscreenenter"",""1"",""3610""
","
","
","""event"",""trial"",""time""
""fullscreenenter"",""1"",""3610""
","
","","","","","","","","","","","","","","","","","","","","","","","","","","",""
"pit-instructions","36","436126","0.0-2.0-10.0","battery-v0.2","","""event"",""trial"",""time""
""fullscreenenter"",""1"",""3610""
","
","
","""event"",""trial"",""time""
""fullscreenenter"",""1"",""3610""
","
","","[{""page_index"":0,""viewing_time"":5798},{""page_index"":1,""viewing_time"":7066.599999904633},{""page_index"":2,""viewing_time"":9183.200000047684},{""page_index"":3,""viewing_time"":9234.200000047684},{""page_index"":4,""viewing_time"":7499.799999952316}]","38782.39999985695","","","","","","","","","","","","","","","","","","","","","","","",""
"pit-trial","37","439885","0.0-2.0-11.0-0.0","battery-v0.2","","""event"",""trial"",""time""
""fullscreenenter"",""1"",""3610""
","
","
","""event"",""trial"",""time""
""fullscreenenter"",""1"",""3610""
","
","","","900.1000001430511","","","23","11605","5345","&#9761;","elianto","#3366ff99","-1"," ","0","0","[1751.0999999046326]","1","0","2","","","","","","","",""
"pit-trial","38","444746","0.0-2.0-11.0-1.0","battery-v0.2","","""event"",""trial"",""time""
""fullscreenenter"",""1"",""3610""
","
","
","""event"",""trial"",""time""
""fullscreenenter"",""1"",""3610""
","
","","","-1","","","23","11605","5345","&#9761;","elianto","#3366ff99","-1","-1","1","+10","[]","0","0","2","","","","","","","",""
"pit-trial","39","449610","0.0-2.0-11.0-2.0","battery-v0.2","","""event"",""trial"",""time""
""fullscreenenter"",""1"",""3610""
","
","
","""event"",""trial"",""time""
""fullscreenenter"",""1"",""3610""
","
","","","-1","","","23","11605","5345","&#9761;","elianto","#3366ff99","-1","-1","1","+10","[]","0","0","2","","","","","","","",""
"pit-trial","40","454469","0.0-2.0-11.0-3.0","battery-v0.2","","""event"",""trial"",""time""
""fullscreenenter"",""1"",""3610""
","
","
","""event"",""trial"",""time""
""fullscreenenter"",""1"",""3610""
","
","","","-1","","","23","11605","5345","&#9761;","elianto","#3366ff99","-1","-1","1","0","[]","0","0","2","","","","","","","",""
"pit-trial","41","459333","0.0-2.0-11.0-4.0","battery-v0.2","","""event"",""trial"",""time""
""fullscreenenter"",""1"",""3610""
","
","
","""event"",""trial"",""time""
""fullscreenenter"",""1"",""3610""
","
","","","-1","","","23","11605","5345","&#9761;","elianto","#3366ff99","-1","-1","1","+10","[]","0","0","2","","","","","","","",""
"pit-trial","42","464197","0.0-2.0-11.1-0.1","battery-v0.2","","""event"",""trial"",""time""
""fullscreenenter"",""1"",""3610""
","
","
","""event"",""trial"",""time""
""fullscreenenter"",""1"",""3610""
","
","","","-1","","","23","11605","5345","&#9761;","elianto","#3366ff99","-1","-1","1","+10","[]","0","0","2","","","","","","","",""
"pit-trial","43","469058","0.0-2.0-11.1-1.1","battery-v0.2","","""event"",""trial"",""time""
""fullscreenenter"",""1"",""3610""
","
","
","""event"",""trial"",""time""
""fullscreenenter"",""1"",""3610""
","
","","","-1","","","23","11605","5345","&#9761;","elianto","#3366ff99","-1","-1","1","+10","[]","0","0","2","","","","","","","",""
"pit-trial","44","473919","0.0-2.0-11.1-2.1","battery-v0.2","","""event"",""trial"",""time""
""fullscreenenter"",""1"",""3610""
","
","
","""event"",""trial"",""time""
""fullscreenenter"",""1"",""3610""
","
","","","-1","","","23","11605","5345","&#9761;","elianto","#3366ff99","-1","-1","1","+10","[]","0","0","2","","","","","","","",""
"pit-trial","45","478783","0.0-2.0-11.1-3.1","battery-v0.2","","""event"",""trial"",""time""
""fullscreenenter"",""1"",""3610""
","
","
","""event"",""trial"",""time""
""fullscreenenter"",""1"",""3610""
","
","","","-1","","","23","11605","5345","&#9761;","elianto","#3366ff99","-1","-1","1","0","[]","0","0","2","","","","","","","",""
"pit-trial","46","483648","0.0-2.0-11.1-4.1","battery-v0.2","","""event"",""trial"",""time""
""fullscreenenter"",""1"",""3610""
","
","
","""event"",""trial"",""time""
""fullscreenenter"",""1"",""3610""
","
","","","-1","","","23","11605","5345","&#9761;","elianto","#3366ff99","-1","-1","1","+10","[]","0","0","2","","","","","","","",""
"pit-trial","47","488514","0.0-2.0-11.2-0.2","battery-v0.2","","""event"",""trial"",""time""
""fullscreenenter"",""1"",""3610""
","
","
","""event"",""trial"",""time""
""fullscreenenter"",""1"",""3610""
","
","","","-1","","","23","11605","5345","&#9761;","elianto","#3366ff99","-1","-1","1","+10","[]","0","0","2","","","","","","","",""
"pit-trial","48","493371","0.0-2.0-11.2-1.2","battery-v0.2","","""event"",""trial"",""time""
""fullscreenenter"",""1"",""3610""
","
","
","""event"",""trial"",""time""
""fullscreenenter"",""1"",""3610""
","
","","","-1","","","23","11605","5345","&#9761;","elianto","#3366ff99","-1","-1","1","+10","[]","0","0","2","","","","","","","",""
"pit-trial","49","498232","0.0-2.0-11.2-2.2","battery-v0.2","","""event"",""trial"",""time""
""fullscreenenter"",""1"",""3610""
","
","
","""event"",""trial"",""time""
""fullscreenenter"",""1"",""3610""
","
","","","-1","","","23","11605","5345","&#9761;","elianto","#3366ff99","-1","-1","1","+10","[]","0","0","2","","","","","","","",""
"pit-trial","50","503091","0.0-2.0-11.2-3.2","battery-v0.2","","""event"",""trial"",""time""
""fullscreenenter"",""1"",""3610""
","
","
","""event"",""trial"",""time""
""fullscreenenter"",""1"",""3610""
","
","","","-1","","","23","11605","5345","&#9761;","elianto","#3366ff99","-1","-1","1","0","[]","0","0","2","","","","","","","",""
"pit-trial","51","507954","0.0-2.0-11.2-4.2","battery-v0.2","","""event"",""trial"",""time""
""fullscreenenter"",""1"",""3610""
","
","
","""event"",""trial"",""time""
""fullscreenenter"",""1"",""3610""
","
","","","-1","","","23","11605","5345","&#9761;","elianto","#3366ff99","-1","-1","1","+10","[]","0","0","2","","","","","","","",""
"pit-trial","52","512814","0.0-2.0-11.3-0.3","battery-v0.2","","""event"",""trial"",""time""
""fullscreenenter"",""1"",""3610""
","
","
","""event"",""trial"",""time""
""fullscreenenter"",""1"",""3610""
","
","","","-1","","","23","11605","5345","&#9761;","elianto","#3366ff99","-1","-1","1","+10","[]","0","0","2","","","","","","","",""
"pit-trial","53","517674","0.0-2.0-11.3-1.3","battery-v0.2","","""event"",""trial"",""time""
""fullscreenenter"",""1"",""3610""
","
","
","""event"",""trial"",""time""
""fullscreenenter"",""1"",""3610""
","
","","","-1","","","23","11605","5345","&#9761;","elianto","#3366ff99","-1","-1","1","+10","[]","0","0","2","","","","","","","",""
"pit-trial","54","522535","0.0-2.0-11.3-2.3","battery-v0.2","","""event"",""trial"",""time""
""fullscreenenter"",""1"",""3610""
","
","
","""event"",""trial"",""time""
""fullscreenenter"",""1"",""3610""
","
","","","-1","","","23","11605","5345","&#9761;","elianto","#3366ff99","-1","-1","1","+10","[]","0","0","2","","","","","","","",""
"pit-trial","55","527398","0.0-2.0-11.3-3.3","battery-v0.2","","""event"",""trial"",""time""
""fullscreenenter"",""1"",""3610""
","
","
","""event"",""trial"",""time""
""fullscreenenter"",""1"",""3610""
","
","","","-1","","","23","11605","5345","&#9761;","elianto","#3366ff99","-1","-1","1","0","[]","0","0","2","","","","","","","",""
"pit-trial","56","532258","0.0-2.0-11.3-4.3","battery-v0.2","","""event"",""trial"",""time""
""fullscreenenter"",""1"",""3610""
","
","
","""event"",""trial"",""time""
""fullscreenenter"",""1"",""3610""
","
","","","-1","","","23","11605","5345","&#9761;","elianto","#3366ff99","-1","-1","1","+10","[]","0","0","2","","","","","","","",""
"call-function","57","532262","0.0-2.0-12.0","battery-v0.2","","""event"",""trial"",""time""
""fullscreenenter"",""1"",""3610""
","
","
","""event"",""trial"",""time""
""fullscreenenter"",""1"",""3610""
","
","","","","","","","","","","","","","","","","","","","","","","","","","","",""
"pit-instructions","58","564142","0.0-2.0-13.0","battery-v0.2","","""event"",""trial"",""time""
""fullscreenenter"",""1"",""3610""
","
","
","""event"",""trial"",""time""
""fullscreenenter"",""1"",""3610""
","
","","[{""page_index"":0,""viewing_time"":4995.900000095367},{""page_index"":1,""viewing_time"":7050},{""page_index"":2,""viewing_time"":4200},{""page_index"":3,""viewing_time"":10504.900000095367},{""page_index"":4,""viewing_time"":5129}]","31880.400000095367","","","","","","","","","","","","","","","","","","","","","","","",""
"pit-trial","59","567567","0.0-2.0-14.0-0.0","battery-v0.2","","""event"",""trial"",""time""
""fullscreenenter"",""1"",""3610""
","
","
","""event"",""trial"",""time""
""fullscreenenter"",""1"",""3610""
","
","","","567.0999999046326","","","23","11605","5345","&#9826;","elianto","#f73b6a7A","-1"," ","0","-10","[1418]","1","0","3","","","","","","","",""
"pit-trial","60","572433","0.0-2.0-14.0-1.0","battery-v0.2","","""event"",""trial"",""time""
""fullscreenenter"",""1"",""3610""
","
","
","""event"",""trial"",""time""
""fullscreenenter"",""1"",""3610""
","
","","","-1","","","23","11605","5345","&#9826;","elianto","#f73b6a7A","-1","-1","1","0","[]","0","0","3","","","","","","","",""
"pit-trial","61","577295","0.0-2.0-14.0-2.0","battery-v0.2","","""event"",""trial"",""time""
""fullscreenenter"",""1"",""3610""
","
","
","""event"",""trial"",""time""
""fullscreenenter"",""1"",""3610""
","
","","","-1","","","23","11605","5345","&#9826;","elianto","#f73b6a7A","-1","-1","1","0","[]","0","0","3","","","","","","","",""
"pit-trial","62","582159","0.0-2.0-14.0-3.0","battery-v0.2","","""event"",""trial"",""time""
""fullscreenenter"",""1"",""3610""
","
","
","""event"",""trial"",""time""
""fullscreenenter"",""1"",""3610""
","
","","","-1","","","23","11605","5345","&#9826;","elianto","#f73b6a7A","-1","-1","1","-10","[]","0","0","3","","","","","","","",""
"pit-trial","63","587024","0.0-2.0-14.0-4.0","battery-v0.2","","""event"",""trial"",""time""
""fullscreenenter"",""1"",""3610""
","
","
","""event"",""trial"",""time""
""fullscreenenter"",""1"",""3610""
","
","","","-1","","","23","11605","5345","&#9826;","elianto","#f73b6a7A","-1","-1","1","0","[]","0","0","3","","","","","","","",""
"pit-trial","64","591891","0.0-2.0-14.1-0.1","battery-v0.2","","""event"",""trial"",""time""
""fullscreenenter"",""1"",""3610""
","
","
","""event"",""trial"",""time""
""fullscreenenter"",""1"",""3610""
","
","","","-1","","","23","11605","5345","&#9826;","elianto","#f73b6a7A","-1","-1","1","0","[]","0","0","3","","","","","","","",""
"pit-trial","65","596756","0.0-2.0-14.1-1.1","battery-v0.2","","""event"",""trial"",""time""
""fullscreenenter"",""1"",""3610""
","
","
","""event"",""trial"",""time""
""fullscreenenter"",""1"",""3610""
","
","","","-1","","","23","11605","5345","&#9826;","elianto","#f73b6a7A","-1","-1","1","0","[]","0","0","3","","","","","","","",""
"pit-trial","66","601616","0.0-2.0-14.1-2.1","battery-v0.2","","""event"",""trial"",""time""
""fullscreenenter"",""1"",""3610""
","
","
","""event"",""trial"",""time""
""fullscreenenter"",""1"",""3610""
","
","","","-1","","","23","11605","5345","&#9826;","elianto","#f73b6a7A","-1","-1","1","0","[]","0","0","3","","","","","","","",""
"pit-trial","67","606476","0.0-2.0-14.1-3.1","battery-v0.2","","""event"",""trial"",""time""
""fullscreenenter"",""1"",""3610""
","
","
","""event"",""trial"",""time""
""fullscreenenter"",""1"",""3610""
","
","","","-1","","","23","11605","5345","&#9826;","elianto","#f73b6a7A","-1","-1","1","-10","[]","0","0","3","","","","","","","",""
"pit-trial","68","611334","0.0-2.0-14.1-4.1","battery-v0.2","","""event"",""trial"",""time""
""fullscreenenter"",""1"",""3610""
","
","
","""event"",""trial"",""time""
""fullscreenenter"",""1"",""3610""
","
","","","-1","","","23","11605","5345","&#9826;","elianto","#f73b6a7A","-1","-1","1","0","[]","0","0","3","","","","","","","",""
"pit-trial","69","616199","0.0-2.0-14.2-0.2","battery-v0.2","","""event"",""trial"",""time""
""fullscreenenter"",""1"",""3610""
","
","
","""event"",""trial"",""time""
""fullscreenenter"",""1"",""3610""
","
","","","-1","","","23","11605","5345","&#9826;","elianto","#f73b6a7A","-1","-1","1","0","[]","0","0","3","","","","","","","",""
"pit-trial","70","621060","0.0-2.0-14.2-1.2","battery-v0.2","","""event"",""trial"",""time""
""fullscreenenter"",""1"",""3610""
","
","
","""event"",""trial"",""time""
""fullscreenenter"",""1"",""3610""
","
","","","-1","","","23","11605","5345","&#9826;","elianto","#f73b6a7A","-1","-1","1","0","[]","0","0","3","","","","","","","",""
"pit-trial","71","625924","0.0-2.0-14.2-2.2","battery-v0.2","","""event"",""trial"",""time""
""fullscreenenter"",""1"",""3610""
","
","
","""event"",""trial"",""time""
""fullscreenenter"",""1"",""3610""
","
","","","-1","","","23","11605","5345","&#9826;","elianto","#f73b6a7A","-1","-1","1","0","[]","0","0","3","","","","","","","",""
"pit-trial","72","630784","0.0-2.0-14.2-3.2","battery-v0.2","","""event"",""trial"",""time""
""fullscreenenter"",""1"",""3610""
","
","
","""event"",""trial"",""time""
""fullscreenenter"",""1"",""3610""
","
","","","-1","","","23","11605","5345","&#9826;","elianto","#f73b6a7A","-1","-1","1","-10","[]","0","0","3","","","","","","","",""
"pit-trial","73","635645","0.0-2.0-14.2-4.2","battery-v0.2","","""event"",""trial"",""time""
""fullscreenenter"",""1"",""3610""
","
","
","""event"",""trial"",""time""
""fullscreenenter"",""1"",""3610""
","
","","","-1","","","23","11605","5345","&#9826;","elianto","#f73b6a7A","-1","-1","1","0","[]","0","0","3","","","","","","","",""
"pit-trial","74","640504","0.0-2.0-14.3-0.3","battery-v0.2","","""event"",""trial"",""time""
""fullscreenenter"",""1"",""3610""
","
","
","""event"",""trial"",""time""
""fullscreenenter"",""1"",""3610""
","
","","","-1","","","23","11605","5345","&#9826;","elianto","#f73b6a7A","-1","-1","1","0","[]","0","0","3","","","","","","","",""
"pit-trial","75","645368","0.0-2.0-14.3-1.3","battery-v0.2","","""event"",""trial"",""time""
""fullscreenenter"",""1"",""3610""
","
","
","""event"",""trial"",""time""
""fullscreenenter"",""1"",""3610""
","
","","","-1","","","23","11605","5345","&#9826;","elianto","#f73b6a7A","-1","-1","1","0","[]","0","0","3","","","","","","","",""
"pit-trial","76","650231","0.0-2.0-14.3-2.3","battery-v0.2","","""event"",""trial"",""time""
""fullscreenenter"",""1"",""3610""
","
","
","""event"",""trial"",""time""
""fullscreenenter"",""1"",""3610""
","
","","","-1","","","23","11605","5345","&#9826;","elianto","#f73b6a7A","-1","-1","1","0","[]","0","0","3","","","","","","","",""
"pit-trial","77","655088","0.0-2.0-14.3-3.3","battery-v0.2","","""event"",""trial"",""time""
""fullscreenenter"",""1"",""3610""
","
","
","""event"",""trial"",""time""
""fullscreenenter"",""1"",""3610""
","
","","","-1","","","23","11605","5345","&#9826;","elianto","#f73b6a7A","-1","-1","1","-10","[]","0","0","3","","","","","","","",""
"pit-trial","78","659952","0.0-2.0-14.3-4.3","battery-v0.2","","""event"",""trial"",""time""
""fullscreenenter"",""1"",""3610""
","
","
","""event"",""trial"",""time""
""fullscreenenter"",""1"",""3610""
","
","","","-1","","","23","11605","5345","&#9826;","elianto","#f73b6a7A","-1","-1","1","0","[]","0","0","3","","","","","","","",""
"call-function","79","659956","0.0-2.0-15.0","battery-v0.2","","""event"",""trial"",""time""
""fullscreenenter"",""1"",""3610""
","
","
","""event"",""trial"",""time""
""fullscreenenter"",""1"",""3610""
","
","","","","","","","","","","","","","","","","","","","","","","","","","","",""
"pit-instructions","80","685376","0.0-2.0-16.0","battery-v0.2","","""event"",""trial"",""time""
""fullscreenenter"",""1"",""3610""
","
","
","""event"",""trial"",""time""
""fullscreenenter"",""1"",""3610""
","
","","[{""page_index"":0,""viewing_time"":6516},{""page_index"":1,""viewing_time"":8403.599999904633},{""page_index"":2,""viewing_time"":5113.099999904633},{""page_index"":3,""viewing_time"":5387.100000143051}]","25420.199999809265","","","","","","","","","","","","","","","","","","","","","","","",""
"pit-trial","81","688823","0.0-2.0-17.0-0.0","battery-v0.2","","""event"",""trial"",""time""
""fullscreenenter"",""1"",""3610""
","
","
","""event"",""trial"",""time""
""fullscreenenter"",""1"",""3610""
","
","","","588.7999999523163","","","23","11605","5345","&#9789;","elianto","#f73b6a7A"," "," ","1","0","[1442.2000000476837]","1","0","4","","","","","","","",""
"pit-trial","82","692048","0.0-2.0-17.0-1.0","battery-v0.2","","""event"",""trial"",""time""
""fullscreenenter"",""1"",""3610""
","
","
","""event"",""trial"",""time""
""fullscreenenter"",""1"",""3610""
","
","","","366.7000000476837","","","23","11605","5345","&#9789;","elianto","#f73b6a7A"," "," ","1","0","[1217.6999998092651]","1","0","4","","","","","","","",""
"pit-trial","83","695311","0.0-2.0-17.0-2.0","battery-v0.2","","""event"",""trial"",""time""
""fullscreenenter"",""1"",""3610""
","
","
","""event"",""trial"",""time""
""fullscreenenter"",""1"",""3610""
","
","","","401.7000000476837","","","23","11605","5345","&#9789;","elianto","#f73b6a7A"," "," ","1","0","[1253.7999999523163]","1","0","4","","","","","","","",""
"pit-trial","84","698447","0.0-2.0-17.0-3.0","battery-v0.2","","""event"",""trial"",""time""
""fullscreenenter"",""1"",""3610""
","
","
","""event"",""trial"",""time""
""fullscreenenter"",""1"",""3610""
","
","","","275.40000009536743","","","23","11605","5345","&#9789;","elianto","#f73b6a7A"," "," ","1","-10","[1128.0999999046326]","1","0","4","","","","","","","",""
"pit-trial","85","701689","0.0-2.0-17.0-4.0","battery-v0.2","","""event"",""trial"",""time""
""fullscreenenter"",""1"",""3610""
","
","
","""event"",""trial"",""time""
""fullscreenenter"",""1"",""3610""
","
","","","381.90000009536743","","","23","11605","5345","&#9789;","elianto","#f73b6a7A"," "," ","1","0","[1233]","1","0","4","","","","","","","",""
"pit-trial","86","704965","0.0-2.0-17.1-0.1","battery-v0.2","","""event"",""trial"",""time""
""fullscreenenter"",""1"",""3610""
","
","
","""event"",""trial"",""time""
""fullscreenenter"",""1"",""3610""
","
","","","413.59999990463257","","","23","11605","5345","&#9789;","elianto","#f73b6a7A"," "," ","1","0","[1264.7999999523163]","1","0","4","","","","","","","",""
"pit-trial","87","708241","0.0-2.0-17.1-1.1","battery-v0.2","","""event"",""trial"",""time""
""fullscreenenter"",""1"",""3610""
","
","
","""event"",""trial"",""time""
""fullscreenenter"",""1"",""3610""
","
","","","416","","","23","11605","5345","&#9789;","elianto","#f73b6a7A"," "," ","1","0","[1268]","1","0","4","","","","","","","",""
"pit-trial","88","711507","0.0-2.0-17.1-2.1","battery-v0.2","","""event"",""trial"",""time""
""fullscreenenter"",""1"",""3610""
","
","
","""event"",""trial"",""time""
""fullscreenenter"",""1"",""3610""
","
","","","406.7999999523163","","","23","11605","5345","&#9789;","elianto","#f73b6a7A"," "," ","1","0","[1259.4000000953674]","1","0","4","","","","","","","",""
"pit-trial","89","714795","0.0-2.0-17.1-3.1","battery-v0.2","","""event"",""trial"",""time""
""fullscreenenter"",""1"",""3610""
","
","
","""event"",""trial"",""time""
""fullscreenenter"",""1"",""3610""
","
","","","431.7000000476837","","","23","11605","5345","&#9789;","elianto","#f73b6a7A"," "," ","1","-10","[1283.1000001430511]","1","0","4","","","","","","","",""
"pit-trial","90","718104","0.0-2.0-17.1-4.1","battery-v0.2","","""event"",""trial"",""time""
""fullscreenenter"",""1"",""3610""
","
","
","""event"",""trial"",""time""
""fullscreenenter"",""1"",""3610""
","
","","","447.10000014305115","","","23","11605","5345","&#9789;","elianto","#f73b6a7A"," "," ","1","0","[1300.3999998569489]","1","0","4","","","","","","","",""
"pit-trial","91","721270","0.0-2.0-17.2-0.2","battery-v0.2","","""event"",""trial"",""time""
""fullscreenenter"",""1"",""3610""
","
","
","""event"",""trial"",""time""
""fullscreenenter"",""1"",""3610""
","
","","","305.2999999523163","","","23","11605","5345","&#9789;","elianto","#f73b6a7A"," "," ","1","0","[1157]","1","0","4","","","","","","","",""
"pit-trial","92","724606","0.0-2.0-17.2-1.2","battery-v0.2","","""event"",""trial"",""time""
""fullscreenenter"",""1"",""3610""
","
","
","""event"",""trial"",""time""
""fullscreenenter"",""1"",""3610""
","
","","","476.40000009536743","","","23","11605","5345","&#9789;","elianto","#f73b6a7A"," "," ","1","0","[1327.6000001430511]","1","0","4","","","","","","","",""
"pit-trial","93","727866","0.0-2.0-17.2-2.2","battery-v0.2","","""event"",""trial"",""time""
""fullscreenenter"",""1"",""3610""
","
","
","""event"",""trial"",""time""
""fullscreenenter"",""1"",""3610""
","
","","","400.10000014305115","","","23","11605","5345","&#9789;","elianto","#f73b6a7A"," "," ","1","0","[1252.3000001907349]","1","0","4","","","","","","","",""
"pit-trial","94","731336","0.0-2.0-17.2-3.2","battery-v0.2","","""event"",""trial"",""time""
""fullscreenenter"",""1"",""3610""
","
","
","""event"",""trial"",""time""
""fullscreenenter"",""1"",""3610""
","
","","","609","","","23","11605","5345","&#9789;","elianto","#f73b6a7A"," "," ","1","-10","[1460.7000000476837]","1","0","4","","","","","","","",""
"pit-trial","95","734609","0.0-2.0-17.2-4.2","battery-v0.2","","""event"",""trial"",""time""
""fullscreenenter"",""1"",""3610""
","
","
","""event"",""trial"",""time""
""fullscreenenter"",""1"",""3610""
","
","","","413","","","23","11605","5345","&#9789;","elianto","#f73b6a7A"," "," ","1","0","[1264.0999999046326]","1","0","4","","","","","","","",""
"pit-trial","96","737884","0.0-2.0-17.3-0.3","battery-v0.2","","""event"",""trial"",""time""
""fullscreenenter"",""1"",""3610""
","
","
","""event"",""trial"",""time""
""fullscreenenter"",""1"",""3610""
","
","","","413.69999980926514","","","23","11605","5345","&#9789;","elianto","#f73b6a7A"," "," ","1","0","[1265.2000000476837]","1","0","4","","","","","","","",""
"pit-trial","97","741035","0.0-2.0-17.3-1.3","battery-v0.2","","""event"",""trial"",""time""
""fullscreenenter"",""1"",""3610""
","
","
","""event"",""trial"",""time""
""fullscreenenter"",""1"",""3610""
","
","","","291","","","23","11605","5345","&#9789;","elianto","#f73b6a7A"," "," ","1","0","[1142]","1","0","4","","","","","","","",""
"pit-trial","98","744643","0.0-2.0-17.3-2.3","battery-v0.2","","""event"",""trial"",""time""
""fullscreenenter"",""1"",""3610""
","
","
","""event"",""trial"",""time""
""fullscreenenter"",""1"",""3610""
","
","","","751","","","23","11605","5345","&#9789;","elianto","#f73b6a7A"," "," ","1","0","[1601.3000001907349]","1","0","4","","","","","","","",""
"pit-trial","99","749508","0.0-2.0-17.3-3.3","battery-v0.2","","""event"",""trial"",""time""
""fullscreenenter"",""1"",""3610""
","
","
","""event"",""trial"",""time""
""fullscreenenter"",""1"",""3610""
","
","","","-1","","","23","11605","5345","&#9789;","elianto","#f73b6a7A"," ","-1","0","0","[]","0","0","4","","","","","","","",""
"pit-trial","100","752867","0.0-2.0-17.3-4.3","battery-v0.2","","""event"",""trial"",""time""
""fullscreenenter"",""1"",""3610""
","
","
","""event"",""trial"",""time""
""fullscreenenter"",""1"",""3610""
","
","","","499.90000009536743","","","23","11605","5345","&#9789;","elianto","#f73b6a7A"," "," ","1","0","[1351.6000001430511]","1","0","4","","","","","","","",""
"call-function","101","752870","0.0-2.0-18.0","battery-v0.2","","""event"",""trial"",""time""
""fullscreenenter"",""1"",""3610""
","
","
","""event"",""trial"",""time""
""fullscreenenter"",""1"",""3610""
","
","","","","","","","","","","","","","","","","","","","","","","","","","","",""
"pit-instructions","102","858837","0.0-2.0-19.0","battery-v0.2","","""event"",""trial"",""time""
""fullscreenenter"",""1"",""3610""
","
","
","""event"",""trial"",""time""
""fullscreenenter"",""1"",""3610""
","
","","[{""page_index"":0,""viewing_time"":6951.799999952316},{""page_index"":1,""viewing_time"":5998.399999856949},{""page_index"":2,""viewing_time"":17568.400000095367},{""page_index"":3,""viewing_time"":13935.099999904633},{""page_index"":4,""viewing_time"":10314.900000095367},{""page_index"":5,""viewing_time"":26501.799999952316},{""page_index"":6,""viewing_time"":12784.299999952316},{""page_index"":7,""viewing_time"":6132.5},{""page_index"":8,""viewing_time"":5783.5}]","105971.39999985695","","","","","","","","","","","","","","","","","","","","","","","",""
"pit-comprehension","103","863454","0.0-2.0-20.0-0.0","battery-v0.2","","""event"",""trial"",""time""
""fullscreenenter"",""1"",""3610""
","
","
","""event"",""trial"",""time""
""fullscreenenter"",""1"",""3610""
","
","","","4612.699999809265","[""SPACE""]","0","23","11605","5345","","","","","","","","","","","","","","","","","","",""
"pit-instructions","104","866319","0.0-2.0-20.0-1.0","battery-v0.2","","""event"",""trial"",""time""
""fullscreenenter"",""1"",""3610""
","
","
","""event"",""trial"",""time""
""fullscreenenter"",""1"",""3610""
","
","","[{""page_index"":0,""viewing_time"":2843.100000143051}]","2843.4000000953674","","","","","","","","","","","","","","","","","","","","","","","",""
"pit-comprehension","105","875538","0.0-2.0-21.0-0.0","battery-v0.2","","""event"",""trial"",""time""
""fullscreenenter"",""1"",""3610""
","
","
","""event"",""trial"",""time""
""fullscreenenter"",""1"",""3610""
","
","","","9215.599999904633","[""10""]","0","23","11605","5345","","","","","","","","","","","","","","","","","","",""
"pit-instructions","106","883802","0.0-2.0-21.0-1.0","battery-v0.2","","""event"",""trial"",""time""
""fullscreenenter"",""1"",""3610""
","
","
","""event"",""trial"",""time""
""fullscreenenter"",""1"",""3610""
","
","","[{""page_index"":0,""viewing_time"":8243.799999952316}]","8244.100000143051","","","","","","","","","","","","","","","","","","","","","","","",""
"pit-comprehension","107","894023","0.0-2.0-22.0-0.0","battery-v0.2","","""event"",""trial"",""time""
""fullscreenenter"",""1"",""3610""
","
","
","""event"",""trial"",""time""
""fullscreenenter"",""1"",""3610""
","
","","","10217.600000143051","[""0""]","0","23","11605","5345","","","","","","","","","","","","","","","","","","",""
"pit-instructions","108","898170","0.0-2.0-22.0-1.0","battery-v0.2","","""event"",""trial"",""time""
""fullscreenenter"",""1"",""3610""
","
","
","""event"",""trial"",""time""
""fullscreenenter"",""1"",""3610""
","
","","[{""page_index"":0,""viewing_time"":4124}]","4124.5","","","","","","","","","","","","","","","","","","","","","","","",""
"pit-comprehension","109","913271","0.0-2.0-23.0-0.0","battery-v0.2","","""event"",""trial"",""time""
""fullscreenenter"",""1"",""3610""
","
","
","""event"",""trial"",""time""
""fullscreenenter"",""1"",""3610""
","
","","","15095.400000095367","[""True""]","0","23","11605","5345","","","","","","","","","","","","","","","","","","",""
"pit-instructions","110","944552","0.0-2.0-23.0-1.0","battery-v0.2","","""event"",""trial"",""time""
""fullscreenenter"",""1"",""3610""
","
","
","""event"",""trial"",""time""
""fullscreenenter"",""1"",""3610""
","
","","[{""page_index"":0,""viewing_time"":31262}]","31262.39999985695","","","","","","","","","","","","","","","","","","","","","","","",""
"pit-comprehension","111","951968","0.0-2.0-24.0-0.0","battery-v0.2","","""event"",""trial"",""time""
""fullscreenenter"",""1"",""3610""
","
","
","""event"",""trial"",""time""
""fullscreenenter"",""1"",""3610""
","
","","","7413.5","[""True""]","0","23","11605","5345","","","","","","","","","","","","","","","","","","",""
"pit-instructions","112","954134","0.0-2.0-24.0-1.0","battery-v0.2","","""event"",""trial"",""time""
""fullscreenenter"",""1"",""3610""
","
","
","""event"",""trial"",""time""
""fullscreenenter"",""1"",""3610""
","
","","[{""page_index"":0,""viewing_time"":2144.800000190735}]","2145.2000000476837","","","","","","","","","","","","","","","","","","","","","","","",""
"pit-comprehension","113","960505","0.0-2.0-25.0-0.0","battery-v0.2","","""event"",""trial"",""time""
""fullscreenenter"",""1"",""3610""
","
","
","""event"",""trial"",""time""
""fullscreenenter"",""1"",""3610""
","
","","","6367.400000095367","[""True""]","0","23","11605","5345","","","","","","","","","","","","","","","","","","",""
"pit-instructions","114","962054","0.0-2.0-25.0-1.0","battery-v0.2","","""event"",""trial"",""time""
""fullscreenenter"",""1"",""3610""
","
","
","""event"",""trial"",""time""
""fullscreenenter"",""1"",""3610""
","
","","[{""page_index"":0,""viewing_time"":1525.8999998569489}]","1526.2999999523163","","","","","","","","","","","","","","","","","","","","","","","",""
"pit-comprehension","115","966787","0.0-2.0-26.0-0.0","battery-v0.2","","""event"",""trial"",""time""
""fullscreenenter"",""1"",""3610""
","
","
","""event"",""trial"",""time""
""fullscreenenter"",""1"",""3610""
","
","","","4730.5","[""False""]","0","23","11605","5345","","","","","","","","","","","","","","","","","","",""
"pit-instructions","116","968267","0.0-2.0-26.0-1.0","battery-v0.2","","""event"",""trial"",""time""
""fullscreenenter"",""1"",""3610""
","
","
","""event"",""trial"",""time""
""fullscreenenter"",""1"",""3610""
","
","","[{""page_index"":0,""viewing_time"":1457.1000001430511}]","1457.4000000953674","","","","","","","","","","","","","","","","","","","","","","","",""
"pit-instructions","117","985419","0.0-3.0","battery-v0.2","","""event"",""trial"",""time""
""fullscreenenter"",""1"",""3610""
","
","
","""event"",""trial"",""time""
""fullscreenenter"",""1"",""3610""
","
","","[{""page_index"":0,""viewing_time"":4181.5},{""page_index"":1,""viewing_time"":5116.900000095367},{""page_index"":2,""viewing_time"":7851.799999952316}]","17150.60000014305","","","","","","","","","","","","","","","","","","","","","","","",""
"pit-trial","118","989402","0.0-4.0","battery-v0.2","","""event"",""trial"",""time""
""fullscreenenter"",""1"",""3610""
","
","
","""event"",""trial"",""time""
""fullscreenenter"",""1"",""3610""
","
","","","1122.4000000953674","","","23","11605","5345","&#9730;","elianto","#3366ff99"," "," ","1","+10","[1974]","1","1","","","11605","1","1","1","win","go","0"
"pit-trial","119","993151","0.0-5.0","battery-v0.2","","""event"",""trial"",""time""
""fullscreenenter"",""1"",""3610""
","
","
","""event"",""trial"",""time""
""fullscreenenter"",""1"",""3610""
","
","","","892.3999998569489","","","23","11605","5345","&#9752;","elianto","#f73b6a7A"," "," ","1","0","[1743.2999999523163]","1","1","","","11605","2","3","3","lose","go","0"
"pit-trial","120","997119","0.0-6.0","battery-v0.2","","""event"",""trial"",""time""
""fullscreenenter"",""1"",""3610""
","
","
","""event"",""trial"",""time""
""fullscreenenter"",""1"",""3610""
","
","","","1107.2000000476837","","","23","11605","5345","&#9733;","elianto","#3366ff99","-1"," ","0","0","[1959.5]","1","1","","","11605","3","2","2","win","no-go","0"
"pit-trial","121","1001470","0.0-7.0","battery-v0.2","","""event"",""trial"",""time""
""fullscreenenter"",""1"",""3610""
","
","
","""event"",""trial"",""time""
""fullscreenenter"",""1"",""3610""
","
","","","1489.7999999523163","","","23","11605","5345","&#9728;","elianto","#f73b6a7A","-1"," ","0","-10","[2342.4000000953674]","1","1","","","11605","4","0","4","lose","no-go","0"
"pit-trial","122","1005720","0.0-8.0","battery-v0.2","","""event"",""trial"",""time""
""fullscreenenter"",""1"",""3610""
","
","
","""event"",""trial"",""time""
""fullscreenenter"",""1"",""3610""
","
","","","1389.8999998569489","","","23","11605","5345","&#9752;","elianto","#f73b6a7A"," "," ","1","0","[2240.699999809265]","1","1","","","11605","5","3","3","lose","go","0"
"pit-trial","123","1009879","0.0-9.0","battery-v0.2","","""event"",""trial"",""time""
""fullscreenenter"",""1"",""3610""
","
","
","""event"",""trial"",""time""
""fullscreenenter"",""1"",""3610""
","
","","","1302.4000000953674","","","23","11605","5345","&#9733;","elianto","#3366ff99","-1"," ","0","0","[2154.399999856949]","1","1","","","11605","6","2","2","win","no-go","0"
"pit-trial","124","1014199","0.0-10.0","battery-v0.2","","""event"",""trial"",""time""
""fullscreenenter"",""1"",""3610""
","
","
","""event"",""trial"",""time""
""fullscreenenter"",""1"",""3610""
","
","","","1462.5","","","23","11605","5345","&#9728;","elianto","#f73b6a7A","-1"," ","0","-10","[2313.7000000476837]","1","1","","","11605","7","0","4","lose","no-go","0"
"pit-trial","125","1017783","0.0-11.0","battery-v0.2","","""event"",""trial"",""time""
""fullscreenenter"",""1"",""3610""
","
","
","""event"",""trial"",""time""
""fullscreenenter"",""1"",""3610""
","
","","","724.4000000953674","","","23","11605","5345","&#9730;","elianto","#3366ff99"," "," ","1","+10","[1575.0999999046326]","1","1","","","11605","8","1","1","win","go","0"
"pit-trial","126","1022460","0.0-12.0","battery-v0.2","","""event"",""trial"",""time""
""fullscreenenter"",""1"",""3610""
","
","
","""event"",""trial"",""time""
""fullscreenenter"",""1"",""3610""
","
","","","1819.2999999523163","","","23","11605","5345","&#9733;","elianto","#3366ff99","-1"," ","0","+10","[2670.5]","1","1","","","11605","9","2","2","win","no-go","1"
"pit-trial","127","1027324","0.0-13.0","battery-v0.2","","""event"",""trial"",""time""
""fullscreenenter"",""1"",""3610""
","
","
","""event"",""trial"",""time""
""fullscreenenter"",""1"",""3610""
","
","","","-1","","","23","11605","5345","&#9728;","elianto","#f73b6a7A","-1","-1","1","0","[]","0","1","","","11605","10","0","4","lose","no-go","0"
"pit-trial","128","1032033","0.0-14.0","battery-v0.2","","""event"",""trial"",""time""
""fullscreenenter"",""1"",""3610""
","
","
","""event"",""trial"",""time""
""fullscreenenter"",""1"",""3610""
","
","","","1848.1000001430511","","","23","11605","5345","&#9752;","elianto","#f73b6a7A"," "," ","1","0","[2699.7000000476837]","1","1","","","11605","11","3","3","lose","go","0"
"pit-trial","129","1035587","0.0-15.0","battery-v0.2","","""event"",""trial"",""time""
""fullscreenenter"",""1"",""3610""
","
","
","""event"",""trial"",""time""
""fullscreenenter"",""1"",""3610""
","
","","","693.5","","","23","11605","5345","&#9730;","elianto","#3366ff99"," "," ","1","+10","[1545]","1","1","","","11605","12","1","1","win","go","0"
"pit-trial","130","1039236","0.0-16.0","battery-v0.2","","""event"",""trial"",""time""
""fullscreenenter"",""1"",""3610""
","
","
","""event"",""trial"",""time""
""fullscreenenter"",""1"",""3610""
","
","","","789.2000000476837","","","23","11605","5345","&#9730;","elianto","#3366ff99"," "," ","1","+10","[1642]","1","1","","","11605","13","1","1","win","go","0"
"pit-trial","131","1042714","0.0-17.0","battery-v0.2","","""event"",""trial"",""time""
""fullscreenenter"",""1"",""3610""
","
","
","""event"",""trial"",""time""
""fullscreenenter"",""1"",""3610""
","
","","","618.3999998569489","","","23","11605","5345","&#9752;","elianto","#f73b6a7A"," "," ","1","0","[1470.7999999523163]","1","1","","","11605","14","3","3","lose","go","0"
"pit-trial","132","1047578","0.0-18.0","battery-v0.2","","""event"",""trial"",""time""
""fullscreenenter"",""1"",""3610""
","
","
","""event"",""trial"",""time""
""fullscreenenter"",""1"",""3610""
","
","","","-1","","","23","11605","5345","&#9733;","elianto","#3366ff99","-1","-1","1","+10","[]","0","1","","","11605","15","2","2","win","no-go","0"
"pit-trial","133","1052437","0.0-19.0","battery-v0.2","","""event"",""trial"",""time""
""fullscreenenter"",""1"",""3610""
","
","
","""event"",""trial"",""time""
""fullscreenenter"",""1"",""3610""
","
","","","-1","","","23","11605","5345","&#9728;","elianto","#f73b6a7A","-1","-1","1","-10","[]","0","1","","","11605","16","0","4","lose","no-go","1"
"pit-trial","134","1055925","0.0-20.0","battery-v0.2","","""event"",""trial"",""time""
""fullscreenenter"",""1"",""3610""
","
","
","""event"",""trial"",""time""
""fullscreenenter"",""1"",""3610""
","
","","","627.2000000476837","","","23","11605","5345","&#9730;","elianto","#3366ff99"," "," ","1","0","[1480]","1","1","","","11605","17","1","1","win","go","1"
"pit-trial","135","1059581","0.0-21.0","battery-v0.2","","""event"",""trial"",""time""
""fullscreenenter"",""1"",""3610""
","
","
","""event"",""trial"",""time""
""fullscreenenter"",""1"",""3610""
","
","","","796.2000000476837","","","23","11605","5345","&#9752;","elianto","#f73b6a7A"," "," ","1","0","[1646.5]","1","1","","","11605","18","3","3","lose","go","0"
"pit-trial","136","1064440","0.0-22.0","battery-v0.2","","""event"",""trial"",""time""
""fullscreenenter"",""1"",""3610""
","
","
","""event"",""trial"",""time""
""fullscreenenter"",""1"",""3610""
","
","","","-1","","","23","11605","5345","&#9733;","elianto","#3366ff99","-1","-1","1","+10","[]","0","1","","","11605","19","2","2","win","no-go","0"
"pit-trial","137","1069301","0.0-23.0","battery-v0.2","","""event"",""trial"",""time""
""fullscreenenter"",""1"",""3610""
","
","
","""event"",""trial"",""time""
""fullscreenenter"",""1"",""3610""
","
","","","-1","","","23","11605","5345","&#9728;","elianto","#f73b6a7A","-1","-1","1","-10","[]","0","1","","","11605","20","0","4","lose","no-go","1"
"pit-instructions","138","1085349","0.0-24.0","battery-v0.2","","""event"",""trial"",""time""
""fullscreenenter"",""1"",""3610""
","
","
","""event"",""trial"",""time""
""fullscreenenter"",""1"",""3610""
","
","","[{""page_index"":0,""viewing_time"":8961.799999952316},{""page_index"":1,""viewing_time"":7083.700000047684}]","16045.599999904633","","","","","","","","","","","","","","","","","","","","","","","",""
"pit-trial","139","1089316","0.0-25.0","battery-v0.2","","""event"",""trial"",""time""
""fullscreenenter"",""1"",""3610""
","
","
","""event"",""trial"",""time""
""fullscreenenter"",""1"",""3610""
","
","","","1107.6999998092651","","","23","11605","5345","t","elianto","#f73b6a7A","-1"," ","0","-10","[1959.4000000953674]","1","2","","","11605","21","2","4","lose","no-go","0"
"pit-trial","140","1093242","0.0-26.0","battery-v0.2","","""event"",""trial"",""time""
""fullscreenenter"",""1"",""3610""
","
","
","""event"",""trial"",""time""
""fullscreenenter"",""1"",""3610""
","
","","","1068.7999999523163","","","23","11605","5345","b","elianto","#f73b6a7A"," "," ","1","-10","[1920.5999999046326]","1","2","","","11605","22","3","3","lose","go","1"
"pit-trial","141","1097104","0.0-27.0","battery-v0.2","","""event"",""trial"",""time""
""fullscreenenter"",""1"",""3610""
","
","
","""event"",""trial"",""time""
""fullscreenenter"",""1"",""3610""
","
","","","1004.6000001430511","","","23","11605","5345","n","elianto","#f73b6a7A","-1"," ","0","-10","[1855.5]","1","2","","","11605","23","0","4","lose","no-go","0"
"pit-trial","142","1101016","0.0-28.0","battery-v0.2","","""event"",""trial"",""time""
""fullscreenenter"",""1"",""3610""
","
","
","""event"",""trial"",""time""
""fullscreenenter"",""1"",""3610""
","
","","","1050.5","","","23","11605","5345","f","elianto","#3366ff99"," "," ","1","+10","[1902.7000000476837]","1","2","","","11605","24","1","1","win","go","0"
"pit-trial","143","1105882","0.0-29.0","battery-v0.2","","""event"",""trial"",""time""
""fullscreenenter"",""1"",""3610""
","
","
","""event"",""trial"",""time""
""fullscreenenter"",""1"",""3610""
","
","","","-1","","","23","11605","5345","t","elianto","#f73b6a7A","-1","-1","1","0","[]","0","2","","","11605","25","2","4","lose","no-go","0"
"pit-trial","144","1110743","0.0-30.0","battery-v0.2","","""event"",""trial"",""time""
""fullscreenenter"",""1"",""3610""
","
","
","""event"",""trial"",""time""
""fullscreenenter"",""1"",""3610""
","
","","","-1","","","23","11605","5345","n","elianto","#f73b6a7A","-1","-1","1","0","[]","0","2","","","11605","26","0","4","lose","no-go","0"
"pit-trial","145","1115602","0.0-31.0","battery-v0.2","","""event"",""trial"",""time""
""fullscreenenter"",""1"",""3610""
","
","
","""event"",""trial"",""time""
""fullscreenenter"",""1"",""3610""
","
","","","-1","","","23","11605","5345","b","elianto","#f73b6a7A"," ","-1","0","-10","[]","0","2","","","11605","27","3","3","lose","go","0"
"pit-trial","146","1119381","0.0-32.0","battery-v0.2","","""event"",""trial"",""time""
""fullscreenenter"",""1"",""3610""
","
","
","""event"",""trial"",""time""
""fullscreenenter"",""1"",""3610""
","
","","","917.4000000953674","","","23","11605","5345","f","elianto","#3366ff99"," "," ","1","0","[1770.0999999046326]","1","2","","","11605","28","1","1","win","go","1"
"pit-trial","147","1124244","0.0-33.0","battery-v0.2","","""event"",""trial"",""time""
""fullscreenenter"",""1"",""3610""
","
","
","""event"",""trial"",""time""
""fullscreenenter"",""1"",""3610""
","
","","","-1","","","23","11605","5345","t","elianto","#f73b6a7A","-1","-1","1","0","[]","0","2","","","11605","29","2","4","lose","no-go","0"
"pit-trial","148","1129105","0.0-34.0","battery-v0.2","","""event"",""trial"",""time""
""fullscreenenter"",""1"",""3610""
","
","
","""event"",""trial"",""time""
""fullscreenenter"",""1"",""3610""
","
","","","-1","","","23","11605","5345","n","elianto","#f73b6a7A","-1","-1","1","0","[]","0","2","","","11605","30","0","4","lose","no-go","0"
"pit-trial","149","1133303","0.0-35.0","battery-v0.2","","""event"",""trial"",""time""
""fullscreenenter"",""1"",""3610""
","
","
","""event"",""trial"",""time""
""fullscreenenter"",""1"",""3610""
","
","","","1336.7999999523163","","","23","11605","5345","f","elianto","#3366ff99"," "," ","1","0","[2190.2999999523163]","1","2","","","11605","31","1","1","win","go","1"
"pit-trial","150","1136910","0.0-36.0","battery-v0.2","","""event"",""trial"",""time""
""fullscreenenter"",""1"",""3610""
","
","
","""event"",""trial"",""time""
""fullscreenenter"",""1"",""3610""
","
","","","749.0999999046326","","","23","11605","5345","b","elianto","#f73b6a7A"," "," ","1","0","[1602.0999999046326]","1","2","","","11605","32","3","3","lose","go","0"
"pit-trial","151","1140862","0.0-37.0","battery-v0.2","","""event"",""trial"",""time""
""fullscreenenter"",""1"",""3610""
","
","
","""event"",""trial"",""time""
""fullscreenenter"",""1"",""3610""
","
","","","1093.1000001430511","","","23","11605","5345","n","elianto","#f73b6a7A","-1"," ","0","-10","[1943.4000000953674]","1","2","","","11605","33","0","4","lose","no-go","0"
"pit-trial","152","1144915","0.0-38.0","battery-v0.2","","""event"",""trial"",""time""
""fullscreenenter"",""1"",""3610""
","
","
","""event"",""trial"",""time""
""fullscreenenter"",""1"",""3610""
","
","","","1194.0999999046326","","","23","11605","5345","b","elianto","#f73b6a7A"," "," ","1","0","[2044.5]","1","2","","","11605","34","3","3","lose","go","0"
"pit-trial","153","1148753","0.0-39.0","battery-v0.2","","""event"",""trial"",""time""
""fullscreenenter"",""1"",""3610""
","
","
","""event"",""trial"",""time""
""fullscreenenter"",""1"",""3610""
","
","","","979.4000000953674","","","23","11605","5345","f","elianto","#3366ff99"," "," ","1","+10","[1830.7000000476837]","1","2","","","11605","35","1","1","win","go","0"
"pit-trial","154","1153618","0.0-40.0","battery-v0.2","","""event"",""trial"",""time""
""fullscreenenter"",""1"",""3610""
","
","
","""event"",""trial"",""time""
""fullscreenenter"",""1"",""3610""
","
","","","-1","","","23","11605","5345","t","elianto","#f73b6a7A","-1","-1","1","0","[]","0","2","","","11605","36","2","4","lose","no-go","0"
"pit-trial","155","1158481","0.0-41.0","battery-v0.2","","""event"",""trial"",""time""
""fullscreenenter"",""1"",""3610""
","
","
","""event"",""trial"",""time""
""fullscreenenter"",""1"",""3610""
","
","","","-1","","","23","11605","5345","t","elianto","#f73b6a7A","-1","-1","1","0","[]","0","2","","","11605","37","2","4","lose","no-go","0"
"pit-trial","156","1163342","0.0-42.0","battery-v0.2","","""event"",""trial"",""time""
""fullscreenenter"",""1"",""3610""
","
","
","""event"",""trial"",""time""
""fullscreenenter"",""1"",""3610""
","
","","","-1","","","23","11605","5345","n","elianto","#f73b6a7A","-1","-1","1","0","[]","0","2","","","11605","38","0","4","lose","no-go","0"
"pit-trial","157","1167280","0.0-43.0","battery-v0.2","","""event"",""trial"",""time""
""fullscreenenter"",""1"",""3610""
","
","
","""event"",""trial"",""time""
""fullscreenenter"",""1"",""3610""
","
","","","1078.0999999046326","","","23","11605","5345","f","elianto","#3366ff99"," "," ","1","+10","[1929.0999999046326]","1","2","","","11605","39","1","1","win","go","0"
"pit-trial","158","1171171","0.0-44.0","battery-v0.2","","""event"",""trial"",""time""
""fullscreenenter"",""1"",""3610""
","
","
","""event"",""trial"",""time""
""fullscreenenter"",""1"",""3610""
","
","","","1031.3000001907349","","","23","11605","5345","b","elianto","#f73b6a7A"," "," ","1","0","[1883]","1","2","","","11605","40","3","3","lose","go","0"
"pit-trial","159","1176034","0.0-45.0","battery-v0.2","","""event"",""trial"",""time""
""fullscreenenter"",""1"",""3610""
","
","
","""event"",""trial"",""time""
""fullscreenenter"",""1"",""3610""
","
","","","-1","","","23","11605","5345","n","elianto","#f73b6a7A","-1","-1","1","-10","[]","0","2","","","11605","41","0","4","lose","no-go","1"
"pit-trial","160","1180149","0.0-46.0","battery-v0.2","","""event"",""trial"",""time""
""fullscreenenter"",""1"",""3610""
","
","
","""event"",""trial"",""time""
""fullscreenenter"",""1"",""3610""
","
","","","1254.5","","","23","11605","5345","b","elianto","#f73b6a7A"," "," ","1","0","[2107.4000000953674]","1","2","","","11605","42","3","3","lose","go","0"
"pit-trial","161","1183590","0.0-47.0","battery-v0.2","","""event"",""trial"",""time""
""fullscreenenter"",""1"",""3610""
","
","
","""event"",""trial"",""time""
""fullscreenenter"",""1"",""3610""
","
","","","582.2000000476837","","","23","11605","5345","f","elianto","#3366ff99"," "," ","1","+10","[1434.4000000953674]","1","2","","","11605","43","1","1","win","go","0"
"pit-trial","162","1188451","0.0-48.0","battery-v0.2","","""event"",""trial"",""time""
""fullscreenenter"",""1"",""3610""
","
","
","""event"",""trial"",""time""
""fullscreenenter"",""1"",""3610""
","
","","","-1","","","23","11605","5345","t","elianto","#f73b6a7A","-1","-1","1","0","[]","0","2","","","11605","44","2","4","lose","no-go","0"
"pit-trial","163","1193315","0.0-49.0","battery-v0.2","","""event"",""trial"",""time""
""fullscreenenter"",""1"",""3610""
","
","
","""event"",""trial"",""time""
""fullscreenenter"",""1"",""3610""
","
","","","-1","","","23","11605","5345","t","elianto","#f73b6a7A","-1","-1","1","0","[]","0","2","","","11605","45","2","4","lose","no-go","0"
"pit-trial","164","1196779","0.0-50.0","battery-v0.2","","""event"",""trial"",""time""
""fullscreenenter"",""1"",""3610""
","
","
","""event"",""trial"",""time""
""fullscreenenter"",""1"",""3610""
","
","","","603.5","","","23","11605","5345","b","elianto","#f73b6a7A"," "," ","1","0","[1455.3000001907349]","1","2","","","11605","46","3","3","lose","go","0"
"pit-trial","165","1201640","0.0-51.0","battery-v0.2","","""event"",""trial"",""time""
""fullscreenenter"",""1"",""3610""
","
","
","""event"",""trial"",""time""
""fullscreenenter"",""1"",""3610""
","
","","","-1","","","23","11605","5345","n","elianto","#f73b6a7A","-1","-1","1","0","[]","0","2","","","11605","47","0","4","lose","no-go","0"
"pit-trial","166","1205855","0.0-52.0","battery-v0.2","","""event"",""trial"",""time""
""fullscreenenter"",""1"",""3610""
","
","
","""event"",""trial"",""time""
""fullscreenenter"",""1"",""3610""
","
","","","1357.4000000953674","","","23","11605","5345","c","elianto","#3366ff99","-1"," ","0","0","[2208.4000000953674]","1","2","","","11605","48","4","2","win","no-go","0"
"pit-trial","167","1209725","0.0-53.0","battery-v0.2","","""event"",""trial"",""time""
""fullscreenenter"",""1"",""3610""
","
","
","""event"",""trial"",""time""
""fullscreenenter"",""1"",""3610""
","
","","","1009.5","","","23","11605","5345","f","elianto","#3366ff99"," "," ","1","0","[1862.3999998569489]","1","2","","","11605","49","1","1","win","go","1"
"pit-trial","168","1214585","0.0-54.0","battery-v0.2","","""event"",""trial"",""time""
""fullscreenenter"",""1"",""3610""
","
","
","""event"",""trial"",""time""
""fullscreenenter"",""1"",""3610""
","
","","","-1","","","23","11605","5345","n","elianto","#f73b6a7A","-1","-1","1","0","[]","0","2","","","11605","50","0","4","lose","no-go","0"
"pit-trial","169","1219450","0.0-55.0","battery-v0.2","","""event"",""trial"",""time""
""fullscreenenter"",""1"",""3610""
","
","
","""event"",""trial"",""time""
""fullscreenenter"",""1"",""3610""
","
","","","-1","","","23","11605","5345","c","elianto","#3366ff99","-1","-1","1","+10","[]","0","2","","","11605","51","4","2","win","no-go","0"
"pit-trial","170","1223529","0.0-56.0","battery-v0.2","","""event"",""trial"",""time""
""fullscreenenter"",""1"",""3610""
","
","
","""event"",""trial"",""time""
""fullscreenenter"",""1"",""3610""
","
","","","1217.7999999523163","","","23","11605","5345","b","elianto","#f73b6a7A"," "," ","1","0","[2070.9000000953674]","1","2","","","11605","52","3","3","lose","go","0"
"pit-trial","171","1228390","0.0-57.0","battery-v0.2","","""event"",""trial"",""time""
""fullscreenenter"",""1"",""3610""
","
","
","""event"",""trial"",""time""
""fullscreenenter"",""1"",""3610""
","
","","","-1","","","23","11605","5345","t","elianto","#f73b6a7A","-1","-1","1","-10","[]","0","2","","","11605","53","2","4","lose","no-go","1"
"pit-trial","172","1232373","0.0-58.0","battery-v0.2","","""event"",""trial"",""time""
""fullscreenenter"",""1"",""3610""
","
","
","""event"",""trial"",""time""
""fullscreenenter"",""1"",""3610""
","
","","","1123.5999999046326","","","23","11605","5345","f","elianto","#3366ff99"," "," ","1","+10","[1973.6000001430511]","1","2","","","11605","54","1","1","win","go","0"
"pit-trial","173","1237235","0.0-59.0","battery-v0.2","","""event"",""trial"",""time""
""fullscreenenter"",""1"",""3610""
","
","
","""event"",""trial"",""time""
""fullscreenenter"",""1"",""3610""
","
","","","-1","","","23","11605","5345","n","elianto","#f73b6a7A","-1","-1","1","0","[]","0","2","","","11605","55","0","4","lose","no-go","0"
"pit-trial","174","1242099","0.0-60.0","battery-v0.2","","""event"",""trial"",""time""
""fullscreenenter"",""1"",""3610""
","
","
","""event"",""trial"",""time""
""fullscreenenter"",""1"",""3610""
","
","","","-1","","","23","11605","5345","c","elianto","#3366ff99","-1","-1","1","+10","[]","0","2","","","11605","56","4","2","win","no-go","0"
"pit-trial","175","1246959","0.0-61.0","battery-v0.2","","""event"",""trial"",""time""
""fullscreenenter"",""1"",""3610""
","
","
","""event"",""trial"",""time""
""fullscreenenter"",""1"",""3610""
","
","","","-1","","","23","11605","5345","n","elianto","#f73b6a7A","-1","-1","1","0","[]","0","2","","","11605","57","0","4","lose","no-go","0"
"pit-trial","176","1250605","0.0-62.0","battery-v0.2","","""event"",""trial"",""time""
""fullscreenenter"",""1"",""3610""
","
","
","""event"",""trial"",""time""
""fullscreenenter"",""1"",""3610""
","
","","","789","","","23","11605","5345","f","elianto","#3366ff99"," "," ","1","0","[1639.8000001907349]","1","2","","","11605","58","1","1","win","go","1"
"pit-trial","177","1255469","0.0-63.0","battery-v0.2","","""event"",""trial"",""time""
""fullscreenenter"",""1"",""3610""
","
","
","""event"",""trial"",""time""
""fullscreenenter"",""1"",""3610""
","
","","","-1","","","23","11605","5345","c","elianto","#3366ff99","-1","-1","1","+10","[]","0","2","","","11605","59","4","2","win","no-go","0"
"pit-trial","178","1259932","0.0-64.0","battery-v0.2","","""event"",""trial"",""time""
""fullscreenenter"",""1"",""3610""
","
","
","""event"",""trial"",""time""
""fullscreenenter"",""1"",""3610""
","
","","","1602.8000001907349","","","23","11605","5345","b","elianto","#f73b6a7A"," "," ","1","-10","[2454.2000000476837]","1","2","","","11605","60","3","3","lose","go","1"
"pit-trial","179","1264266","0.0-65.0","battery-v0.2","","""event"",""trial"",""time""
""fullscreenenter"",""1"",""3610""
","
","
","""event"",""trial"",""time""
""fullscreenenter"",""1"",""3610""
","
","","","1478.0999999046326","","","23","11605","5345","b","elianto","#f73b6a7A"," "," ","1","0","[2329.7000000476837]","1","2","","","11605","61","3","3","lose","go","0"
"pit-trial","180","1269127","0.0-66.0","battery-v0.2","","""event"",""trial"",""time""
""fullscreenenter"",""1"",""3610""
","
","
","""event"",""trial"",""time""
""fullscreenenter"",""1"",""3610""
","
","","","-1","","","23","11605","5345","t","elianto","#f73b6a7A","-1","-1","1","0","[]","0","2","","","11605","62","2","4","lose","no-go","0"
"pit-trial","181","1273990","0.0-67.0","battery-v0.2","","""event"",""trial"",""time""
""fullscreenenter"",""1"",""3610""
","
","
","""event"",""trial"",""time""
""fullscreenenter"",""1"",""3610""
","
","","","-1","","","23","11605","5345","c","elianto","#3366ff99","-1","-1","1","+10","[]","0","2","","","11605","63","4","2","win","no-go","0"
"pit-trial","182","1277443","0.0-68.0","battery-v0.2","","""event"",""trial"",""time""
""fullscreenenter"",""1"",""3610""
","
","
","""event"",""trial"",""time""
""fullscreenenter"",""1"",""3610""
","
","","","593","","","23","11605","5345","f","elianto","#3366ff99"," "," ","1","+10","[1443.9000000953674]","1","2","","","11605","64","1","1","win","go","0"
"pit-trial","183","1281545","0.0-69.0","battery-v0.2","","""event"",""trial"",""time""
""fullscreenenter"",""1"",""3610""
","
","
","""event"",""trial"",""time""
""fullscreenenter"",""1"",""3610""
","
","","","1241.3000001907349","","","23","11605","5345","b","elianto","#f73b6a7A"," "," ","1","0","[2092.7999999523163]","1","2","","","11605","65","3","3","lose","go","0"
"pit-trial","184","1286406","0.0-70.0","battery-v0.2","","""event"",""trial"",""time""
""fullscreenenter"",""1"",""3610""
","
","
","""event"",""trial"",""time""
""fullscreenenter"",""1"",""3610""
","
","","","-1","","","23","11605","5345","c","elianto","#3366ff99","-1","-1","1","0","[]","0","2","","","11605","66","4","2","win","no-go","1"
"pit-trial","185","1289907","0.0-71.0","battery-v0.2","","""event"",""trial"",""time""
""fullscreenenter"",""1"",""3610""
","
","
","""event"",""trial"",""time""
""fullscreenenter"",""1"",""3610""
","
","","","640.9000000953674","","","23","11605","5345","f","elianto","#3366ff99"," "," ","1","0","[1491.3999998569489]","1","2","","","11605","67","1","1","win","go","1"
"pit-trial","186","1294767","0.0-72.0","battery-v0.2","","""event"",""trial"",""time""
""fullscreenenter"",""1"",""3610""
","
","
","""event"",""trial"",""time""
""fullscreenenter"",""1"",""3610""
","
","","","-1","","","23","11605","5345","t","elianto","#f73b6a7A","-1","-1","1","0","[]","0","2","","","11605","68","2","4","lose","no-go","0"
"pit-trial","187","1299627","0.0-73.0","battery-v0.2","","""event"",""trial"",""time""
""fullscreenenter"",""1"",""3610""
","
","
","""event"",""trial"",""time""
""fullscreenenter"",""1"",""3610""
","
","","","-1","","","23","11605","5345","c","elianto","#3366ff99","-1","-1","1","+10","[]","0","2","","","11605","69","4","2","win","no-go","0"
"pit-trial","188","1303192","0.0-74.0","battery-v0.2","","""event"",""trial"",""time""
""fullscreenenter"",""1"",""3610""
","
","
","""event"",""trial"",""time""
""fullscreenenter"",""1"",""3610""
","
","","","704.2999999523163","","","23","11605","5345","f","elianto","#3366ff99"," "," ","1","+10","[1555.7999999523163]","1","2","","","11605","70","1","1","win","go","0"
"pit-trial","189","1307488","0.0-75.0","battery-v0.2","","""event"",""trial"",""time""
""fullscreenenter"",""1"",""3610""
","
","
","""event"",""trial"",""time""
""fullscreenenter"",""1"",""3610""
","
","","","1436.3000001907349","","","23","11605","5345","z","elianto","#3366ff99"," "," ","1","0","[2286.7000000476837]","1","2","","","11605","71","5","1","win","go","1"
"pit-trial","190","1311146","0.0-76.0","battery-v0.2","","""event"",""trial"",""time""
""fullscreenenter"",""1"",""3610""
","
","
","""event"",""trial"",""time""
""fullscreenenter"",""1"",""3610""
","
","","","799.6000001430511","","","23","11605","5345","b","elianto","#f73b6a7A"," "," ","1","0","[1650.2000000476837]","1","2","","","11605","72","3","3","lose","go","0"
"pit-trial","191","1316010","0.0-77.0","battery-v0.2","","""event"",""trial"",""time""
""fullscreenenter"",""1"",""3610""
","
","
","""event"",""trial"",""time""
""fullscreenenter"",""1"",""3610""
","
","","","-1","","","23","11605","5345","c","elianto","#3366ff99","-1","-1","1","+10","[]","0","2","","","11605","73","4","2","win","no-go","0"
"pit-trial","192","1319982","0.0-78.0","battery-v0.2","","""event"",""trial"",""time""
""fullscreenenter"",""1"",""3610""
","
","
","""event"",""trial"",""time""
""fullscreenenter"",""1"",""3610""
","
","","","1113.7999999523163","","","23","11605","5345","z","elianto","#3366ff99"," "," ","1","+10","[1965]","1","2","","","11605","74","5","1","win","go","0"
"pit-trial","193","1323752","0.0-79.0","battery-v0.2","","""event"",""trial"",""time""
""fullscreenenter"",""1"",""3610""
","
","
","""event"",""trial"",""time""
""fullscreenenter"",""1"",""3610""
","
","","","908.2999999523163","","","23","11605","5345","f","elianto","#3366ff99"," "," ","1","+10","[1761.2999999523163]","1","2","","","11605","75","1","1","win","go","0"
"pit-trial","194","1328121","0.0-80.0","battery-v0.2","","""event"",""trial"",""time""
""fullscreenenter"",""1"",""3610""
","
","
","""event"",""trial"",""time""
""fullscreenenter"",""1"",""3610""
","
","","","1510.4000000953674","","","23","11605","5345","b","elianto","#f73b6a7A"," "," ","1","0","[2364.100000143051]","1","2","","","11605","76","3","3","lose","go","0"
"pit-trial","195","1332985","0.0-81.0","battery-v0.2","","""event"",""trial"",""time""
""fullscreenenter"",""1"",""3610""
","
","
","""event"",""trial"",""time""
""fullscreenenter"",""1"",""3610""
","
","","","-1","","","23","11605","5345","z","elianto","#3366ff99"," ","-1","0","+10","[]","0","2","","","11605","77","5","1","win","go","1"
"pit-trial","196","1337850","0.0-82.0","battery-v0.2","","""event"",""trial"",""time""
""fullscreenenter"",""1"",""3610""
","
","
","""event"",""trial"",""time""
""fullscreenenter"",""1"",""3610""
","
","","","-1","","","23","11605","5345","c","elianto","#3366ff99","-1","-1","1","+10","[]","0","2","","","11605","78","4","2","win","no-go","0"
"pit-trial","197","1342082","0.0-83.0","battery-v0.2","","""event"",""trial"",""time""
""fullscreenenter"",""1"",""3610""
","
","
","""event"",""trial"",""time""
""fullscreenenter"",""1"",""3610""
","
","","","1371.9000000953674","","","23","11605","5345","h","elianto","#f73b6a7A","-1"," ","0","0","[2225.5]","1","2","","","11605","79","6","4","lose","no-go","1"
"pit-trial","198","1346765","0.0-84.0","battery-v0.2","","""event"",""trial"",""time""
""fullscreenenter"",""1"",""3610""
","
","
","""event"",""trial"",""time""
""fullscreenenter"",""1"",""3610""
","
","","","1821.4000000953674","","","23","11605","5345","b","elianto","#f73b6a7A"," "," ","1","0","[2674.2999999523163]","1","2","","","11605","80","3","3","lose","go","0"
"pit-trial","199","1350881","0.0-85.0","battery-v0.2","","""event"",""trial"",""time""
""fullscreenenter"",""1"",""3610""
","
","
","""event"",""trial"",""time""
""fullscreenenter"",""1"",""3610""
","
","","","1258","","","23","11605","5345","h","elianto","#f73b6a7A","-1"," ","0","0","[2108.2999999523163]","1","2","","","11605","81","6","4","lose","no-go","1"
"pit-trial","200","1355087","0.0-86.0","battery-v0.2","","""event"",""trial"",""time""
""fullscreenenter"",""1"",""3610""
","
","
","""event"",""trial"",""time""
""fullscreenenter"",""1"",""3610""
","
","","","1344.6999998092651","","","23","11605","5345","z","elianto","#3366ff99"," "," ","1","+10","[2197.4000000953674]","1","2","","","11605","82","5","1","win","go","0"
"pit-trial","201","1359950","0.0-87.0","battery-v0.2","","""event"",""trial"",""time""
""fullscreenenter"",""1"",""3610""
","
","
","""event"",""trial"",""time""
""fullscreenenter"",""1"",""3610""
","
","","","-1","","","23","11605","5345","c","elianto","#3366ff99","-1","-1","1","+10","[]","0","2","","","11605","83","4","2","win","no-go","0"
"pit-trial","202","1364001","0.0-88.0","battery-v0.2","","""event"",""trial"",""time""
""fullscreenenter"",""1"",""3610""
","
","
","""event"",""trial"",""time""
""fullscreenenter"",""1"",""3610""
","
","","","1191.5","","","23","11605","5345","y","elianto","#f73b6a7A"," "," ","1","-10","[2044.7999999523163]","1","2","","","11605","84","7","3","lose","go","1"
"pit-trial","203","1368356","0.0-89.0","battery-v0.2","","""event"",""trial"",""time""
""fullscreenenter"",""1"",""3610""
","
","
","""event"",""trial"",""time""
""fullscreenenter"",""1"",""3610""
","
","","","1493.5","","","23","11605","5345","h","elianto","#f73b6a7A","-1"," ","0","0","[2346.5999999046326]","1","2","","","11605","85","6","4","lose","no-go","1"
"pit-trial","204","1373217","0.0-90.0","battery-v0.2","","""event"",""trial"",""time""
""fullscreenenter"",""1"",""3610""
","
","
","""event"",""trial"",""time""
""fullscreenenter"",""1"",""3610""
","
","","","-1","","","23","11605","5345","c","elianto","#3366ff99","-1","-1","1","0","[]","0","2","","","11605","86","4","2","win","no-go","1"
"pit-trial","205","1377417","0.0-91.0","battery-v0.2","","""event"",""trial"",""time""
""fullscreenenter"",""1"",""3610""
","
","
","""event"",""trial"",""time""
""fullscreenenter"",""1"",""3610""
","
","","","1341","","","23","11605","5345","z","elianto","#3366ff99"," "," ","1","0","[2191.7000000476837]","1","2","","","11605","87","5","1","win","go","1"
"pit-trial","206","1382277","0.0-92.0","battery-v0.2","","""event"",""trial"",""time""
""fullscreenenter"",""1"",""3610""
","
","
","""event"",""trial"",""time""
""fullscreenenter"",""1"",""3610""
","
","","","-1","","","23","11605","5345","y","elianto","#f73b6a7A"," ","-1","0","0","[]","0","2","","","11605","88","7","3","lose","go","1"
"pit-trial","207","1387141","0.0-93.0","battery-v0.2","","""event"",""trial"",""time""
""fullscreenenter"",""1"",""3610""
","
","
","""event"",""trial"",""time""
""fullscreenenter"",""1"",""3610""
","
","","","-1","","","23","11605","5345","c","elianto","#3366ff99","-1","-1","1","+10","[]","0","2","","","11605","89","4","2","win","no-go","0"
"pit-trial","208","1392001","0.0-94.0","battery-v0.2","","""event"",""trial"",""time""
""fullscreenenter"",""1"",""3610""
","
","
","""event"",""trial"",""time""
""fullscreenenter"",""1"",""3610""
","
","","","-1","","","23","11605","5345","z","elianto","#3366ff99"," ","-1","0","0","[]","0","2","","","11605","90","5","1","win","go","0"
"pit-trial","209","1396863","0.0-95.0","battery-v0.2","","""event"",""trial"",""time""
""fullscreenenter"",""1"",""3610""
","
","
","""event"",""trial"",""time""
""fullscreenenter"",""1"",""3610""
","
","","","-1","","","23","11605","5345","h","elianto","#f73b6a7A","-1","-1","1","0","[]","0","2","","","11605","91","6","4","lose","no-go","0"
"pit-trial","210","1401727","0.0-96.0","battery-v0.2","","""event"",""trial"",""time""
""fullscreenenter"",""1"",""3610""
","
","
","""event"",""trial"",""time""
""fullscreenenter"",""1"",""3610""
","
","","","-1","","","23","11605","5345","y","elianto","#f73b6a7A"," ","-1","0","-10","[]","0","2","","","11605","92","7","3","lose","go","0"
"pit-trial","211","1406590","0.0-97.0","battery-v0.2","","""event"",""trial"",""time""
""fullscreenenter"",""1"",""3610""
","
","
","""event"",""trial"",""time""
""fullscreenenter"",""1"",""3610""
","
","","","-1","","","23","11605","5345","y","elianto","#f73b6a7A"," ","-1","0","-10","[]","0","2","","","11605","93","7","3","lose","go","0"
"pit-trial","212","1410772","0.0-98.0","battery-v0.2","","""event"",""trial"",""time""
""fullscreenenter"",""1"",""3610""
","
","
","""event"",""trial"",""time""
""fullscreenenter"",""1"",""3610""
","
","","","1323.5","","","23","11605","5345","z","elianto","#3366ff99"," "," ","1","+10","[2174.2999999523163]","1","2","","","11605","94","5","1","win","go","0"
"pit-trial","213","1415054","0.0-99.0","battery-v0.2","","""event"",""trial"",""time""
""fullscreenenter"",""1"",""3610""
","
","
","""event"",""trial"",""time""
""fullscreenenter"",""1"",""3610""
","
","","","1422.5","","","23","11605","5345","h","elianto","#f73b6a7A","-1"," ","0","-10","[2273.7000000476837]","1","2","","","11605","95","6","4","lose","no-go","0"
"pit-trial","214","1419152","0.0-100.0","battery-v0.2","","""event"",""trial"",""time""
""fullscreenenter"",""1"",""3610""
","
","
","""event"",""trial"",""time""
""fullscreenenter"",""1"",""3610""
","
","","","1238.9000000953674","","","23","11605","5345","r","elianto","#3366ff99","-1"," ","0","0","[2089.0999999046326]","1","2","","","11605","96","8","2","win","no-go","0"
"pit-trial","215","1423160","0.0-101.0","battery-v0.2","","""event"",""trial"",""time""
""fullscreenenter"",""1"",""3610""
","
","
","""event"",""trial"",""time""
""fullscreenenter"",""1"",""3610""
","
","","","1150.2000000476837","","","23","11605","5345","r","elianto","#3366ff99","-1"," ","0","0","[2001.0999999046326]","1","2","","","11605","97","8","2","win","no-go","0"
"pit-trial","216","1428024","0.0-102.0","battery-v0.2","","""event"",""trial"",""time""
""fullscreenenter"",""1"",""3610""
","
","
","""event"",""trial"",""time""
""fullscreenenter"",""1"",""3610""
","
","","","-1","","","23","11605","5345","y","elianto","#f73b6a7A"," ","-1","0","-10","[]","0","2","","","11605","98","7","3","lose","go","0"
"pit-trial","217","1432263","0.0-103.0","battery-v0.2","","""event"",""trial"",""time""
""fullscreenenter"",""1"",""3610""
","
","
","""event"",""trial"",""time""
""fullscreenenter"",""1"",""3610""
","
","","","1383.8000001907349","","","23","11605","5345","z","elianto","#3366ff99"," "," ","1","+10","[2234.800000190735]","1","2","","","11605","99","5","1","win","go","0"
"pit-trial","218","1436265","0.0-104.0","battery-v0.2","","""event"",""trial"",""time""
""fullscreenenter"",""1"",""3610""
","
","
","""event"",""trial"",""time""
""fullscreenenter"",""1"",""3610""
","
","","","1144","","","23","11605","5345","h","elianto","#f73b6a7A","-1"," ","0","-10","[1996.2999999523163]","1","2","","","11605","100","6","4","lose","no-go","0"
"pit-trial","219","1440512","0.0-105.0","battery-v0.2","","""event"",""trial"",""time""
""fullscreenenter"",""1"",""3610""
","
","
","""event"",""trial"",""time""
""fullscreenenter"",""1"",""3610""
","
","","","1384.6999998092651","","","23","11605","5345","r","elianto","#3366ff99","-1"," ","0","0","[2238.199999809265]","1","2","","","11605","101","8","2","win","no-go","0"
"pit-trial","220","1445375","0.0-106.0","battery-v0.2","","""event"",""trial"",""time""
""fullscreenenter"",""1"",""3610""
","
","
","""event"",""trial"",""time""
""fullscreenenter"",""1"",""3610""
","
","","","-1","","","23","11605","5345","m","elianto","#3366ff99","-1","-1","1","+10","[]","0","2","","","11605","102","9","2","win","no-go","0"
"pit-trial","221","1449520","0.0-107.0","battery-v0.2","","""event"",""trial"",""time""
""fullscreenenter"",""1"",""3610""
","
","
","""event"",""trial"",""time""
""fullscreenenter"",""1"",""3610""
","
","","","1286.7000000476837","","","23","11605","5345","h","elianto","#f73b6a7A","-1"," ","0","-10","[2137]","1","2","","","11605","103","6","4","lose","no-go","0"
"pit-trial","222","1453802","0.0-108.0","battery-v0.2","","""event"",""trial"",""time""
""fullscreenenter"",""1"",""3610""
","
","
","""event"",""trial"",""time""
""fullscreenenter"",""1"",""3610""
","
","","","1422","","","23","11605","5345","z","elianto","#3366ff99"," "," ","1","+10","[2273.100000143051]","1","2","","","11605","104","5","1","win","go","0"
"pit-trial","223","1458299","0.0-109.0","battery-v0.2","","""event"",""trial"",""time""
""fullscreenenter"",""1"",""3610""
","
","
","""event"",""trial"",""time""
""fullscreenenter"",""1"",""3610""
","
","","","1637.7999999523163","","","23","11605","5345","z","elianto","#3366ff99"," "," ","1","+10","[2488.4000000953674]","1","2","","","11605","105","5","1","win","go","0"
"pit-trial","224","1462722","0.0-110.0","battery-v0.2","","""event"",""trial"",""time""
""fullscreenenter"",""1"",""3610""
","
","
","""event"",""trial"",""time""
""fullscreenenter"",""1"",""3610""
","
","","","1563.2000000476837","","","23","11605","5345","h","elianto","#f73b6a7A","-1"," ","0","-10","[2416.7000000476837]","1","2","","","11605","106","6","4","lose","no-go","0"
"pit-trial","225","1467587","0.0-111.0","battery-v0.2","","""event"",""trial"",""time""
""fullscreenenter"",""1"",""3610""
","
","
","""event"",""trial"",""time""
""fullscreenenter"",""1"",""3610""
","
","","","-1","","","23","11605","5345","r","elianto","#3366ff99","-1","-1","1","+10","[]","0","2","","","11605","107","8","2","win","no-go","0"
"pit-trial","226","1472448","0.0-112.0","battery-v0.2","","""event"",""trial"",""time""
""fullscreenenter"",""1"",""3610""
","
","
","""event"",""trial"",""time""
""fullscreenenter"",""1"",""3610""
","
","","","-1","","","23","11605","5345","m","elianto","#3366ff99","-1","-1","1","+10","[]","0","2","","","11605","108","9","2","win","no-go","0"
"pit-trial","227","1476504","0.0-113.0","battery-v0.2","","""event"",""trial"",""time""
""fullscreenenter"",""1"",""3610""
","
","
","""event"",""trial"",""time""
""fullscreenenter"",""1"",""3610""
","
","","","1196.5","","","23","11605","5345","h","elianto","#f73b6a7A","-1"," ","0","-10","[2049.600000143051]","1","2","","","11605","109","6","4","lose","no-go","0"
"pit-trial","228","1481366","0.0-114.0","battery-v0.2","","""event"",""trial"",""time""
""fullscreenenter"",""1"",""3610""
","
","
","""event"",""trial"",""time""
""fullscreenenter"",""1"",""3610""
","
","","","-1","","","23","11605","5345","r","elianto","#3366ff99","-1","-1","1","+10","[]","0","2","","","11605","110","8","2","win","no-go","0"
"pit-trial","229","1485913","0.0-115.0","battery-v0.2","","""event"",""trial"",""time""
""fullscreenenter"",""1"",""3610""
","
","
","""event"",""trial"",""time""
""fullscreenenter"",""1"",""3610""
","
","","","1685.7999999523163","","","23","11605","5345","z","elianto","#3366ff99"," "," ","1","+10","[2538.5]","1","2","","","11605","111","5","1","win","go","0"
"pit-trial","230","1490773","0.0-116.0","battery-v0.2","","""event"",""trial"",""time""
""fullscreenenter"",""1"",""3610""
","
","
","""event"",""trial"",""time""
""fullscreenenter"",""1"",""3610""
","
","","","-1","","","23","11605","5345","m","elianto","#3366ff99","-1","-1","1","+10","[]","0","2","","","11605","112","9","2","win","no-go","0"
"pit-trial","231","1495633","0.0-117.0","battery-v0.2","","""event"",""trial"",""time""
""fullscreenenter"",""1"",""3610""
","
","
","""event"",""trial"",""time""
""fullscreenenter"",""1"",""3610""
","
","","","-1","","","23","11605","5345","m","elianto","#3366ff99","-1","-1","1","+10","[]","0","2","","","11605","113","9","2","win","no-go","0"
"pit-trial","232","1499871","0.0-118.0","battery-v0.2","","""event"",""trial"",""time""
""fullscreenenter"",""1"",""3610""
","
","
","""event"",""trial"",""time""
""fullscreenenter"",""1"",""3610""
","
","","","1380.7000000476837","","","23","11605","5345","y","elianto","#f73b6a7A"," "," ","1","0","[2233]","1","2","","","11605","114","7","3","lose","go","0"
"pit-trial","233","1504372","0.0-119.0","battery-v0.2","","""event"",""trial"",""time""
""fullscreenenter"",""1"",""3610""
","
","
","""event"",""trial"",""time""
""fullscreenenter"",""1"",""3610""
","
","","","1642.2999999523163","","","23","11605","5345","z","elianto","#3366ff99"," "," ","1","+10","[2492.5]","1","2","","","11605","115","5","1","win","go","0"
"pit-trial","234","1509236","0.0-120.0","battery-v0.2","","""event"",""trial"",""time""
""fullscreenenter"",""1"",""3610""
","
","
","""event"",""trial"",""time""
""fullscreenenter"",""1"",""3610""
","
","","","-1","","","23","11605","5345","r","elianto","#3366ff99","-1","-1","1","+10","[]","0","2","","","11605","116","8","2","win","no-go","0"
"pit-trial","235","1514101","0.0-121.0","battery-v0.2","","""event"",""trial"",""time""
""fullscreenenter"",""1"",""3610""
","
","
","""event"",""trial"",""time""
""fullscreenenter"",""1"",""3610""
","
","","","-1","","","23","11605","5345","m","elianto","#3366ff99","-1","-1","1","+10","[]","0","2","","","11605","117","9","2","win","no-go","0"
"pit-trial","236","1518309","0.0-122.0","battery-v0.2","","""event"",""trial"",""time""
""fullscreenenter"",""1"",""3610""
","
","
","""event"",""trial"",""time""
""fullscreenenter"",""1"",""3610""
","
","","","1352.0999999046326","","","23","11605","5345","h","elianto","#f73b6a7A","-1"," ","0","-10","[2202.2000000476837]","1","2","","","11605","118","6","4","lose","no-go","0"
"pit-trial","237","1523171","0.0-123.0","battery-v0.2","","""event"",""trial"",""time""
""fullscreenenter"",""1"",""3610""
","
","
","""event"",""trial"",""time""
""fullscreenenter"",""1"",""3610""
","
","","","-1","","","23","11605","5345","r","elianto","#3366ff99","-1","-1","1","0","[]","0","2","","","11605","119","8","2","win","no-go","1"
"pit-trial","238","1528035","0.0-124.0","battery-v0.2","","""event"",""trial"",""time""
""fullscreenenter"",""1"",""3610""
","
","
","""event"",""trial"",""time""
""fullscreenenter"",""1"",""3610""
","
","","","-1","","","23","11605","5345","z","elianto","#3366ff99"," ","-1","0","0","[3467.2000000476837]","1","2","","","11605","120","5","1","win","go","0"
"pit-trial","239","1532901","0.0-125.0","battery-v0.2","","""event"",""trial"",""time""
""fullscreenenter"",""1"",""3610""
","
","
","""event"",""trial"",""time""
""fullscreenenter"",""1"",""3610""
","
","","","-1","","","23","11605","5345","z","elianto","#3366ff99"," ","-1","0","0","[2912.899999856949]","1","2","","","11605","121","5","1","win","go","0"
"pit-trial","240","1537762","0.0-126.0","battery-v0.2","","""event"",""trial"",""time""
""fullscreenenter"",""1"",""3610""
","
","
","""event"",""trial"",""time""
""fullscreenenter"",""1"",""3610""
","
","","","-1","","","23","11605","5345","r","elianto","#3366ff99","-1","-1","1","0","[]","0","2","","","11605","122","8","2","win","no-go","1"
"pit-trial","241","1542368","0.0-127.0","battery-v0.2","","""event"",""trial"",""time""
""fullscreenenter"",""1"",""3610""
","
","
","""event"",""trial"",""time""
""fullscreenenter"",""1"",""3610""
","
","","","1741.6000001430511","","","23","11605","5345","y","elianto","#f73b6a7A"," "," ","1","0","[2595]","1","2","","","11605","123","7","3","lose","go","0"
"pit-trial","242","1547233","0.0-128.0","battery-v0.2","","""event"",""trial"",""time""
""fullscreenenter"",""1"",""3610""
","
","
","""event"",""trial"",""time""
""fullscreenenter"",""1"",""3610""
","
","","","-1","","","23","11605","5345","m","elianto","#3366ff99","-1","-1","1","+10","[]","0","2","","","11605","124","9","2","win","no-go","0"
"pit-trial","243","1552096","0.0-129.0","battery-v0.2","","""event"",""trial"",""time""
""fullscreenenter"",""1"",""3610""
","
","
","""event"",""trial"",""time""
""fullscreenenter"",""1"",""3610""
","
","","","-1","","","23","11605","5345","r","elianto","#3366ff99","-1","-1","1","+10","[]","0","2","","","11605","125","8","2","win","no-go","0"
"pit-trial","244","1556956","0.0-130.0","battery-v0.2","","""event"",""trial"",""time""
""fullscreenenter"",""1"",""3610""
","
","
","""event"",""trial"",""time""
""fullscreenenter"",""1"",""3610""
","
","","","-1","","","23","11605","5345","m","elianto","#3366ff99","-1","-1","1","+10","[]","0","2","","","11605","126","9","2","win","no-go","0"
"pit-trial","245","1561819","0.0-131.0","battery-v0.2","","""event"",""trial"",""time""
""fullscreenenter"",""1"",""3610""
","
","
","""event"",""trial"",""time""
""fullscreenenter"",""1"",""3610""
","
","","","-1","","","23","11605","5345","y","elianto","#f73b6a7A"," ","-1","0","-10","[3649.199999809265]","1","2","","","11605","127","7","3","lose","go","0"
"pit-trial","246","1566684","0.0-132.0","battery-v0.2","","""event"",""trial"",""time""
""fullscreenenter"",""1"",""3610""
","
","
","""event"",""trial"",""time""
""fullscreenenter"",""1"",""3610""
","
","","","-1","","","23","11605","5345","h","elianto","#f73b6a7A","-1","-1","1","0","[]","0","2","","","11605","128","6","4","lose","no-go","0"
"pit-trial","247","1571547","0.0-133.0","battery-v0.2","","""event"",""trial"",""time""
""fullscreenenter"",""1"",""3610""
","
","
","""event"",""trial"",""time""
""fullscreenenter"",""1"",""3610""
","
","","","-1","","","23","11605","5345","r","elianto","#3366ff99","-1","-1","1","+10","[]","0","2","","","11605","129","8","2","win","no-go","0"
"pit-trial","248","1576411","0.0-134.0","battery-v0.2","","""event"",""trial"",""time""
""fullscreenenter"",""1"",""3610""
","
","
","""event"",""trial"",""time""
""fullscreenenter"",""1"",""3610""
","
","","","-1","","","23","11605","5345","h","elianto","#f73b6a7A","-1","-1","1","0","[]","0","2","","","11605","130","6","4","lose","no-go","0"
"pit-trial","249","1581270","0.0-135.0","battery-v0.2","","""event"",""trial"",""time""
""fullscreenenter"",""1"",""3610""
","
","
","""event"",""trial"",""time""
""fullscreenenter"",""1"",""3610""
","
","","","-1","","","23","11605","5345","m","elianto","#3366ff99","-1","-1","1","+10","[]","0","2","","","11605","131","9","2","win","no-go","0"
"pit-trial","250","1586127","0.0-136.0","battery-v0.2","","""event"",""trial"",""time""
""fullscreenenter"",""1"",""3610""
","
","
","""event"",""trial"",""time""
""fullscreenenter"",""1"",""3610""
","
","","","-1","","","23","11605","5345","y","elianto","#f73b6a7A"," ","-1","0","-10","[]","0","2","","","11605","132","7","3","lose","go","0"
"pit-trial","251","1590992","0.0-137.0","battery-v0.2","","""event"",""trial"",""time""
""fullscreenenter"",""1"",""3610""
","
","
","""event"",""trial"",""time""
""fullscreenenter"",""1"",""3610""
","
","","","-1","","","23","11605","5345","r","elianto","#3366ff99","-1","-1","1","+10","[]","0","2","","","11605","133","8","2","win","no-go","0"
"pit-trial","252","1595782","0.0-138.0","battery-v0.2","","""event"",""trial"",""time""
""fullscreenenter"",""1"",""3610""
","
","
","""event"",""trial"",""time""
""fullscreenenter"",""1"",""3610""
","
","","","1934.2999999523163","","","23","11605","5345","h","elianto","#f73b6a7A","-1"," ","0","0","[2786.4000000953674]","1","2","","","11605","134","6","4","lose","no-go","1"
"pit-trial","253","1600643","0.0-139.0","battery-v0.2","","""event"",""trial"",""time""
""fullscreenenter"",""1"",""3610""
","
","
","""event"",""trial"",""time""
""fullscreenenter"",""1"",""3610""
","
","","","-1","","","23","11605","5345","y","elianto","#f73b6a7A"," ","-1","0","-10","[]","0","2","","","11605","135","7","3","lose","go","0"
"pit-trial","254","1605507","0.0-140.0","battery-v0.2","","""event"",""trial"",""time""
""fullscreenenter"",""1"",""3610""
","
","
","""event"",""trial"",""time""
""fullscreenenter"",""1"",""3610""
","
","","","-1","","","23","11605","5345","m","elianto","#3366ff99","-1","-1","1","+10","[]","0","2","","","11605","136","9","2","win","no-go","0"
"pit-trial","255","1609926","0.0-141.0","battery-v0.2","","""event"",""trial"",""time""
""fullscreenenter"",""1"",""3610""
","
","
","""event"",""trial"",""time""
""fullscreenenter"",""1"",""3610""
","
","","","1557.5999999046326","","","23","11605","5345","r","elianto","#3366ff99","-1"," ","0","0","[2410.0999999046326]","1","2","","","11605","137","8","2","win","no-go","0"
"pit-trial","256","1614788","0.0-142.0","battery-v0.2","","""event"",""trial"",""time""
""fullscreenenter"",""1"",""3610""
","
","
","""event"",""trial"",""time""
""fullscreenenter"",""1"",""3610""
","
","","","-1","","","23","11605","5345","m","elianto","#3366ff99","-1","-1","1","+10","[]","0","2","","","11605","138","9","2","win","no-go","0"
"pit-trial","257","1619068","0.0-143.0","battery-v0.2","","""event"",""trial"",""time""
""fullscreenenter"",""1"",""3610""
","
","
","""event"",""trial"",""time""
""fullscreenenter"",""1"",""3610""
","
","","","1419.5","","","23","11605","5345","y","elianto","#f73b6a7A"," "," ","1","0","[2270.7000000476837]","1","2","","","11605","139","7","3","lose","go","0"
"pit-trial","258","1623930","0.0-144.0","battery-v0.2","","""event"",""trial"",""time""
""fullscreenenter"",""1"",""3610""
","
","
","""event"",""trial"",""time""
""fullscreenenter"",""1"",""3610""
","
","","","-1","","","23","11605","5345","h","elianto","#f73b6a7A","-1","-1","1","0","[]","0","2","","","11605","140","6","4","lose","no-go","0"
"pit-instructions","259","1650662","0.0-145.0","battery-v0.2","","""event"",""trial"",""time""
""fullscreenenter"",""1"",""3610""
","
","
","""event"",""trial"",""time""
""fullscreenenter"",""1"",""3610""
","
","","[{""page_index"":0,""viewing_time"":15573.700000047684},{""page_index"":1,""viewing_time"":11156}]","26730.099999904633","","","","","","","","","","","","","","","","","","","","","","","",""
"pit-trial","260","1655005","0.0-146.0","battery-v0.2","","""event"",""trial"",""time""
""fullscreenenter"",""1"",""3610""
","
","
","""event"",""trial"",""time""
""fullscreenenter"",""1"",""3610""
","
","","","1480.5","","","23","11605","5345","d","elianto","#3366ff99","-1"," ","0","0","[2331.0999999046326]","1","3","","","11605","141","1","2","win","no-go","0"
"pit-trial","261","1659871","0.0-147.0","battery-v0.2","","""event"",""trial"",""time""
""fullscreenenter"",""1"",""3610""
","
","
","""event"",""trial"",""time""
""fullscreenenter"",""1"",""3610""
","
","","","-1","","","23","11605","5345","j","elianto","#f73b6a7A"," ","-1","0","-10","[]","0","3","","","11605","142","0","3","lose","go","0"
"pit-trial","262","1663786","0.0-148.0","battery-v0.2","","""event"",""trial"",""time""
""fullscreenenter"",""1"",""3610""
","
","
","""event"",""trial"",""time""
""fullscreenenter"",""1"",""3610""
","
","","","1055.6000001430511","","","23","11605","5345","e","elianto","#f73b6a7A"," "," ","1","0","[1906.9000000953674]","1","3","","","11605","143","2","3","lose","go","0"
"pit-trial","263","1668650","0.0-149.0","battery-v0.2","","""event"",""trial"",""time""
""fullscreenenter"",""1"",""3610""
","
","
","""event"",""trial"",""time""
""fullscreenenter"",""1"",""3610""
","
","","","-1","","","23","11605","5345","w","elianto","#f73b6a7A","-1","-1","1","0","[]","0","3","","","11605","144","3","4","lose","no-go","0"
"pit-trial","264","1672734","0.0-150.0","battery-v0.2","","""event"",""trial"",""time""
""fullscreenenter"",""1"",""3610""
","
","
","""event"",""trial"",""time""
""fullscreenenter"",""1"",""3610""
","
","","","1223.6999998092651","","","23","11605","5345","e","elianto","#f73b6a7A"," "," ","1","0","[2075.2999999523163]","1","3","","","11605","145","2","3","lose","go","0"
"pit-trial","265","1676729","0.0-151.0","battery-v0.2","","""event"",""trial"",""time""
""fullscreenenter"",""1"",""3610""
","
","
","""event"",""trial"",""time""
""fullscreenenter"",""1"",""3610""
","
","","","1137","","","23","11605","5345","d","elianto","#3366ff99","-1"," ","0","0","[1987.8000001907349]","1","3","","","11605","146","1","2","win","no-go","0"
"pit-trial","266","1681589","0.0-152.0","battery-v0.2","","""event"",""trial"",""time""
""fullscreenenter"",""1"",""3610""
","
","
","""event"",""trial"",""time""
""fullscreenenter"",""1"",""3610""
","
","","","-1","","","23","11605","5345","j","elianto","#f73b6a7A"," ","-1","0","-10","[]","0","3","","","11605","147","0","3","lose","go","0"
"pit-trial","267","1686447","0.0-153.0","battery-v0.2","","""event"",""trial"",""time""
""fullscreenenter"",""1"",""3610""
","
","
","""event"",""trial"",""time""
""fullscreenenter"",""1"",""3610""
","
