"trial_type","trial_index","time_elapsed","internal_node_id","task_version","subject_id","interactions","blur_events","focus_events","fullscreenenter_events","fullscreenexit_events","success","view_history","rt","responses","num_errors","age","subject","participantId","rune","rune_set","hex","correct","choice","accuracy","outcome","keys","total_keys","block","practice","value","sub","trial","stimulus","robot","valence","action","sham"
"pavlovia","0","88","0.0-0.0","battery-v0.2","","""event"",""trial"",""time""
""fullscreenenter"",""1"",""4818""
","
","
","""event"",""trial"",""time""
""fullscreenenter"",""1"",""4818""
","
","","","","","","","","","","","","","","","","","","","","","","","","","","",""
"fullscreen","1","5810","0.0-1.0","battery-v0.2","","""event"",""trial"",""time""
""fullscreenenter"",""1"",""4818""
","
","
","""event"",""trial"",""time""
""fullscreenenter"",""1"",""4818""
","
","true","","","","","","","","","","","","","","","","","","","","","","","","","",""
"pit-instructions","2","14786","0.0-2.0-0.0","battery-v0.2","","""event"",""trial"",""time""
""fullscreenenter"",""1"",""4818""
","
","
","""event"",""trial"",""time""
""fullscreenenter"",""1"",""4818""
","
","","[{""page_index"":0,""viewing_time"":8968.60000000149}]","8969.5","","","","","","","","","","","","","","","","","","","","","","","",""
"pit-comprehension","3","18023","0.0-2.0-1.0-0.0","battery-v0.2","","""event"",""trial"",""time""
""fullscreenenter"",""1"",""4818""
","
","
","""event"",""trial"",""time""
""fullscreenenter"",""1"",""4818""
","
","","","3227.39999999851","[""shark""]","0","10","11273","3473","","","","","","","","","","","","","","","","","","",""
"pit-instructions","4","20436","0.0-2.0-1.0-1.0","battery-v0.2","","""event"",""trial"",""time""
""fullscreenenter"",""1"",""4818""
","
","
","""event"",""trial"",""time""
""fullscreenenter"",""1"",""4818""
","
","","[{""page_index"":0,""viewing_time"":2400.2000000029802}]","2401","","","","","","","","","","","","","","","","","","","","","","","",""
"pit-comprehension","5","24018","0.0-2.0-2.0-0.0","battery-v0.2","","""event"",""trial"",""time""
""fullscreenenter"",""1"",""4818""
","
","
","""event"",""trial"",""time""
""fullscreenenter"",""1"",""4818""
","
","","","3573.39999999851","[""tiger""]","0","10","11273","3473","","","","","","","","","","","","","","","","","","",""
"pit-instructions","6","25290","0.0-2.0-2.0-1.0","battery-v0.2","","""event"",""trial"",""time""
""fullscreenenter"",""1"",""4818""
","
","
","""event"",""trial"",""time""
""fullscreenenter"",""1"",""4818""
","
","","[{""page_index"":0,""viewing_time"":1265.3000000044703}]","1265.7000000029802","","","","","","","","","","","","","","","","","","","","","","","",""
"pit-instructions","7","131801","0.0-2.0-3.0","battery-v0.2","","""event"",""trial"",""time""
""fullscreenenter"",""1"",""4818""
","
","
","""event"",""trial"",""time""
""fullscreenenter"",""1"",""4818""
","
","","[{""page_index"":0,""viewing_time"":10032.10000000149},{""page_index"":1,""viewing_time"":7372.60000000149},{""page_index"":2,""viewing_time"":6265.89999999851},{""page_index"":3,""viewing_time"":5988.10000000149},{""page_index"":4,""viewing_time"":6338.19999999553},{""page_index"":5,""viewing_time"":5865},{""page_index"":6,""viewing_time"":7263.70000000298},{""page_index"":7,""viewing_time"":6553},{""page_index"":8,""viewing_time"":6577.20000000298},{""page_index"":9,""viewing_time"":17558.59999999404},{""page_index"":10,""viewing_time"":8130.30000000447},{""page_index"":11,""viewing_time"":8214.89999999851},{""page_index"":12,""viewing_time"":7732.79999999702},{""page_index"":13,""viewing_time"":4749.10000000149}]","108642","","","","","","","","","","","","","","","","","","","","","","","",""
"pit-trial","8","135656","0.0-2.0-4.0-0.0","battery-v0.2","","""event"",""trial"",""time""
""fullscreenenter"",""1"",""4818""
","
","
","""event"",""trial"",""time""
""fullscreenenter"",""1"",""4818""
","
","","","992.8000000044703","","","10","11273","3473","&#9784;","elianto","#FFFFF080"," "," ","1","&#10004","[1842.8999999985099]","1","0","0","","","","","","","",""
"pit-trial","9","139190","0.0-2.0-4.1-0.1","battery-v0.2","","""event"",""trial"",""time""
""fullscreenenter"",""1"",""4818""
","
","
","""event"",""trial"",""time""
""fullscreenenter"",""1"",""4818""
","
","","","667","","","10","11273","3473","&#9784;","elianto","#FFFFF080"," "," ","1","&#10004","[1523.1999999955297]","1","0","0","","","","","","","",""
"pit-trial","10","142529","0.0-2.0-4.2-0.2","battery-v0.2","","""event"",""trial"",""time""
""fullscreenenter"",""1"",""4818""
","
","
","""event"",""trial"",""time""
""fullscreenenter"",""1"",""4818""
","
","","","473","","","10","11273","3473","&#9784;","elianto","#FFFFF080"," "," ","1","&#10004","[1325.5]","1","0","0","","","","","","","",""
"pit-trial","11","145692","0.0-2.0-4.3-0.3","battery-v0.2","","""event"",""trial"",""time""
""fullscreenenter"",""1"",""4818""
","
","
","""event"",""trial"",""time""
""fullscreenenter"",""1"",""4818""
","
","","","302","","","10","11273","3473","&#9784;","elianto","#FFFFF080"," "," ","1","&#10004","[1155.6000000014901]","1","0","0","","","","","","","",""
"pit-trial","12","148926","0.0-2.0-4.4-0.4","battery-v0.2","","""event"",""trial"",""time""
""fullscreenenter"",""1"",""4818""
","
","
","""event"",""trial"",""time""
""fullscreenenter"",""1"",""4818""
","
","","","373.6000000014901","","","10","11273","3473","&#9784;","elianto","#FFFFF080"," "," ","1","&#10004","[1224.2999999970198]","1","0","0","","","","","","","",""
"pit-instructions","13","171900","0.0-2.0-5.0","battery-v0.2","","""event"",""trial"",""time""
""fullscreenenter"",""1"",""4818""
","
","
","""event"",""trial"",""time""
""fullscreenenter"",""1"",""4818""
","
","","[{""page_index"":0,""viewing_time"":4956.60000000149},{""page_index"":1,""viewing_time"":6281.89999999851},{""page_index"":2,""viewing_time"":4965.10000000149},{""page_index"":3,""viewing_time"":6764}]","22968.20000000298","","","","","","","","","","","","","","","","","","","","","","","",""
"pit-trial","14","176766","0.0-2.0-6.0-0.0","battery-v0.2","","""event"",""trial"",""time""
""fullscreenenter"",""1"",""4818""
","
","
","""event"",""trial"",""time""
""fullscreenenter"",""1"",""4818""
","
","","","-1","","","10","11273","3473","&#9854;","elianto","#FFFFF080","-1","-1","1","&#10004","[]","0","0","1","","","","","","","",""
"pit-trial","15","181637","0.0-2.0-6.1-0.1","battery-v0.2","","""event"",""trial"",""time""
""fullscreenenter"",""1"",""4818""
","
","
","""event"",""trial"",""time""
""fullscreenenter"",""1"",""4818""
","
","","","-1","","","10","11273","3473","&#9854;","elianto","#FFFFF080","-1","-1","1","&#10004","[]","0","0","1","","","","","","","",""
"pit-trial","16","186501","0.0-2.0-6.2-0.2","battery-v0.2","","""event"",""trial"",""time""
""fullscreenenter"",""1"",""4818""
","
","
","""event"",""trial"",""time""
""fullscreenenter"",""1"",""4818""
","
","","","-1","","","10","11273","3473","&#9854;","elianto","#FFFFF080","-1","-1","1","&#10004","[]","0","0","1","","","","","","","",""
"pit-trial","17","191366","0.0-2.0-6.3-0.3","battery-v0.2","","""event"",""trial"",""time""
""fullscreenenter"",""1"",""4818""
","
","
","""event"",""trial"",""time""
""fullscreenenter"",""1"",""4818""
","
","","","-1","","","10","11273","3473","&#9854;","elianto","#FFFFF080","-1","-1","1","&#10004","[]","0","0","1","","","","","","","",""
"pit-trial","18","196236","0.0-2.0-6.4-0.4","battery-v0.2","","""event"",""trial"",""time""
""fullscreenenter"",""1"",""4818""
","
","
","""event"",""trial"",""time""
""fullscreenenter"",""1"",""4818""
","
","","","-1","","","10","11273","3473","&#9854;","elianto","#FFFFF080","-1","-1","1","&#10004","[]","0","0","1","","","","","","","",""
"pit-instructions","19","308229","0.0-2.0-7.0","battery-v0.2","","""event"",""trial"",""time""
""fullscreenenter"",""1"",""4818""
","
","
","""event"",""trial"",""time""
""fullscreenenter"",""1"",""4818""
","
","","[{""page_index"":0,""viewing_time"":5995},{""page_index"":1,""viewing_time"":6745.60000000149},{""page_index"":2,""viewing_time"":6166.89999999851},{""page_index"":3,""viewing_time"":6263.39999999851},{""page_index"":4,""viewing_time"":5474.5},{""page_index"":5,""viewing_time"":6021.10000000149},{""page_index"":6,""viewing_time"":4454.10000000149},{""page_index"":7,""viewing_time"":7453.89999999851},{""page_index"":8,""viewing_time"":6438.39999999851},{""page_index"":9,""viewing_time"":5808.60000000149},{""page_index"":10,""viewing_time"":6112.69999999553},{""page_index"":11,""viewing_time"":4358.20000000298},{""page_index"":12,""viewing_time"":7168.39999999851},{""page_index"":13,""viewing_time"":6859.80000000447},{""page_index"":14,""viewing_time"":7039.19999999553},{""page_index"":15,""viewing_time"":6354.30000000447},{""page_index"":16,""viewing_time"":6181.89999999851},{""page_index"":17,""viewing_time"":7090.29999999702}]","111986.79999999702","","","","","","","","","","","","","","","","","","","","","","","",""
"pit-trial","20","311627","0.0-2.0-8.0-0.0","battery-v0.2","","""event"",""trial"",""time""
""fullscreenenter"",""1"",""4818""
","
","
","""event"",""trial"",""time""
""fullscreenenter"",""1"",""4818""
","
","","","531.8999999985099","","","10","11273","3473","&#9776;","elianto","#3366ff99"," "," ","1","+10","[1391]","1","0","1","","","","","","","",""
"pit-trial","21","314726","0.0-2.0-8.0-1.0","battery-v0.2","","""event"",""trial"",""time""
""fullscreenenter"",""1"",""4818""
","
","
","""event"",""trial"",""time""
""fullscreenenter"",""1"",""4818""
","
","","","236.5","","","10","11273","3473","&#9776;","elianto","#3366ff99"," "," ","1","+10","[1090.1999999955297]","1","0","1","","","","","","","",""
"pit-trial","22","317795","0.0-2.0-8.0-2.0","battery-v0.2","","""event"",""trial"",""time""
""fullscreenenter"",""1"",""4818""
","
","
","""event"",""trial"",""time""
""fullscreenenter"",""1"",""4818""
","
","","","205.20000000298023","","","10","11273","3473","&#9776;","elianto","#3366ff99"," "," ","1","+10","[1064.1000000014901]","1","0","1","","","","","","","",""
"pit-trial","23","320836","0.0-2.0-8.0-3.0","battery-v0.2","","""event"",""trial"",""time""
""fullscreenenter"",""1"",""4818""
","
","
","""event"",""trial"",""time""
""fullscreenenter"",""1"",""4818""
","
","","","177.60000000149012","","","10","11273","3473","&#9776;","elianto","#3366ff99"," "," ","1","0","[1030.5]","1","0","1","","","","","","","",""
"pit-trial","24","324084","0.0-2.0-8.0-4.0","battery-v0.2","","""event"",""trial"",""time""
""fullscreenenter"",""1"",""4818""
","
","
","""event"",""trial"",""time""
""fullscreenenter"",""1"",""4818""
","
","","","388.20000000298023","","","10","11273","3473","&#9776;","elianto","#3366ff99"," "," ","1","+10","[1239.5]","1","0","1","","","","","","","",""
"pit-trial","25","327381","0.0-2.0-8.1-0.1","battery-v0.2","","""event"",""trial"",""time""
""fullscreenenter"",""1"",""4818""
","
","
","""event"",""trial"",""time""
""fullscreenenter"",""1"",""4818""
","
","","","431","","","10","11273","3473","&#9776;","elianto","#3366ff99"," "," ","1","+10","[1286.8999999985099]","1","0","1","","","","","","","",""
"pit-trial","26","330645","0.0-2.0-8.1-1.1","battery-v0.2","","""event"",""trial"",""time""
""fullscreenenter"",""1"",""4818""
","
","
","""event"",""trial"",""time""
""fullscreenenter"",""1"",""4818""
","
","","","402.1000000014901","","","10","11273","3473","&#9776;","elianto","#3366ff99"," "," ","1","+10","[1255.3999999985099]","1","0","1","","","","","","","",""
"pit-trial","27","333900","0.0-2.0-8.1-2.1","battery-v0.2","","""event"",""trial"",""time""
""fullscreenenter"",""1"",""4818""
","
","
","""event"",""trial"",""time""
""fullscreenenter"",""1"",""4818""
","
","","","396.79999999701977","","","10","11273","3473","&#9776;","elianto","#3366ff99"," "," ","1","+10","[1247.5]","1","0","1","","","","","","","",""
"pit-trial","28","337139","0.0-2.0-8.1-3.1","battery-v0.2","","""event"",""trial"",""time""
""fullscreenenter"",""1"",""4818""
","
","
","""event"",""trial"",""time""
""fullscreenenter"",""1"",""4818""
","
","","","381","","","10","11273","3473","&#9776;","elianto","#3366ff99"," "," ","1","0","[1232.3000000044703]","1","0","1","","","","","","","",""
"pit-trial","29","340398","0.0-2.0-8.1-4.1","battery-v0.2","","""event"",""trial"",""time""
""fullscreenenter"",""1"",""4818""
","
","
","""event"",""trial"",""time""
""fullscreenenter"",""1"",""4818""
","
","","","396.5","","","10","11273","3473","&#9776;","elianto","#3366ff99"," "," ","1","+10","[1248.8999999985099]","1","0","1","","","","","","","",""
"pit-trial","30","343699","0.0-2.0-8.2-0.2","battery-v0.2","","""event"",""trial"",""time""
""fullscreenenter"",""1"",""4818""
","
","
","""event"",""trial"",""time""
""fullscreenenter"",""1"",""4818""
","
","","","434.69999999552965","","","10","11273","3473","&#9776;","elianto","#3366ff99"," "," ","1","+10","[1293.0999999940395]","1","0","1","","","","","","","",""
"pit-trial","31","346991","0.0-2.0-8.2-1.2","battery-v0.2","","""event"",""trial"",""time""
""fullscreenenter"",""1"",""4818""
","
","
","""event"",""trial"",""time""
""fullscreenenter"",""1"",""4818""
","
","","","428.29999999701977","","","10","11273","3473","&#9776;","elianto","#3366ff99"," "," ","1","+10","[1280.2000000029802]","1","0","1","","","","","","","",""
"pit-trial","32","350259","0.0-2.0-8.2-2.2","battery-v0.2","","""event"",""trial"",""time""
""fullscreenenter"",""1"",""4818""
","
","
","""event"",""trial"",""time""
""fullscreenenter"",""1"",""4818""
","
","","","406.09999999403954","","","10","11273","3473","&#9776;","elianto","#3366ff99"," "," ","1","+10","[1260.4000000059605]","1","0","1","","","","","","","",""
"pit-trial","33","353557","0.0-2.0-8.2-3.2","battery-v0.2","","""event"",""trial"",""time""
""fullscreenenter"",""1"",""4818""
","
","
","""event"",""trial"",""time""
""fullscreenenter"",""1"",""4818""
","
","","","434.5","","","10","11273","3473","&#9776;","elianto","#3366ff99"," "," ","1","0","[1286.6999999955297]","1","0","1","","","","","","","",""
"pit-trial","34","357077","0.0-2.0-8.2-4.2","battery-v0.2","","""event"",""trial"",""time""
""fullscreenenter"",""1"",""4818""
","
","
","""event"",""trial"",""time""
""fullscreenenter"",""1"",""4818""
","
","","","661.6000000014901","","","10","11273","3473","&#9776;","elianto","#3366ff99"," "," ","1","+10","[1512.1000000014901]","1","0","1","","","","","","","",""
"call-function","35","357081","0.0-2.0-9.0","battery-v0.2","","""event"",""trial"",""time""
""fullscreenenter"",""1"",""4818""
","
","
","""event"",""trial"",""time""
""fullscreenenter"",""1"",""4818""
","
","","","","","","","","","","","","","","","","","","","","","","","","","","",""
"pit-instructions","36","395680","0.0-2.0-10.0","battery-v0.2","","""event"",""trial"",""time""
""fullscreenenter"",""1"",""4818""
","
","
","""event"",""trial"",""time""
""fullscreenenter"",""1"",""4818""
","
","","[{""page_index"":0,""viewing_time"":6101.69999999553},{""page_index"":1,""viewing_time"":6763.5},{""page_index"":2,""viewing_time"":9540},{""page_index"":3,""viewing_time"":9062.10000000149},{""page_index"":4,""viewing_time"":7130.39999999851}]","38598.39999999851","","","","","","","","","","","","","","","","","","","","","","","",""
"pit-trial","37","400548","0.0-2.0-11.0-0.0","battery-v0.2","","""event"",""trial"",""time""
""fullscreenenter"",""1"",""4818""
","
","
","""event"",""trial"",""time""
""fullscreenenter"",""1"",""4818""
","
","","","-1","","","10","11273","3473","&#9761;","elianto","#3366ff99","-1","-1","1","+10","[]","0","0","2","","","","","","","",""
"pit-trial","38","405415","0.0-2.0-11.0-1.0","battery-v0.2","","""event"",""trial"",""time""
""fullscreenenter"",""1"",""4818""
","
","
","""event"",""trial"",""time""
""fullscreenenter"",""1"",""4818""
","
","","","-1","","","10","11273","3473","&#9761;","elianto","#3366ff99","-1","-1","1","+10","[]","0","0","2","","","","","","","",""
"pit-trial","39","410282","0.0-2.0-11.0-2.0","battery-v0.2","","""event"",""trial"",""time""
""fullscreenenter"",""1"",""4818""
","
","
","""event"",""trial"",""time""
""fullscreenenter"",""1"",""4818""
","
","","","-1","","","10","11273","3473","&#9761;","elianto","#3366ff99","-1","-1","1","+10","[]","0","0","2","","","","","","","",""
"pit-trial","40","415150","0.0-2.0-11.0-3.0","battery-v0.2","","""event"",""trial"",""time""
""fullscreenenter"",""1"",""4818""
","
","
","""event"",""trial"",""time""
""fullscreenenter"",""1"",""4818""
","
","","","-1","","","10","11273","3473","&#9761;","elianto","#3366ff99","-1","-1","1","0","[]","0","0","2","","","","","","","",""
"pit-trial","41","420020","0.0-2.0-11.0-4.0","battery-v0.2","","""event"",""trial"",""time""
""fullscreenenter"",""1"",""4818""
","
","
","""event"",""trial"",""time""
""fullscreenenter"",""1"",""4818""
","
","","","-1","","","10","11273","3473","&#9761;","elianto","#3366ff99","-1","-1","1","+10","[]","0","0","2","","","","","","","",""
"pit-trial","42","424891","0.0-2.0-11.1-0.1","battery-v0.2","","""event"",""trial"",""time""
""fullscreenenter"",""1"",""4818""
","
","
","""event"",""trial"",""time""
""fullscreenenter"",""1"",""4818""
","
","","","-1","","","10","11273","3473","&#9761;","elianto","#3366ff99","-1","-1","1","+10","[]","0","0","2","","","","","","","",""
"pit-trial","43","429758","0.0-2.0-11.1-1.1","battery-v0.2","","""event"",""trial"",""time""
""fullscreenenter"",""1"",""4818""
","
","
","""event"",""trial"",""time""
""fullscreenenter"",""1"",""4818""
","
","","","-1","","","10","11273","3473","&#9761;","elianto","#3366ff99","-1","-1","1","+10","[]","0","0","2","","","","","","","",""
"pit-trial","44","434627","0.0-2.0-11.1-2.1","battery-v0.2","","""event"",""trial"",""time""
""fullscreenenter"",""1"",""4818""
","
","
","""event"",""trial"",""time""
""fullscreenenter"",""1"",""4818""
","
","","","-1","","","10","11273","3473","&#9761;","elianto","#3366ff99","-1","-1","1","+10","[]","0","0","2","","","","","","","",""
"pit-trial","45","439493","0.0-2.0-11.1-3.1","battery-v0.2","","""event"",""trial"",""time""
""fullscreenenter"",""1"",""4818""
","
","
","""event"",""trial"",""time""
""fullscreenenter"",""1"",""4818""
","
","","","-1","","","10","11273","3473","&#9761;","elianto","#3366ff99","-1","-1","1","0","[]","0","0","2","","","","","","","",""
"pit-trial","46","444363","0.0-2.0-11.1-4.1","battery-v0.2","","""event"",""trial"",""time""
""fullscreenenter"",""1"",""4818""
","
","
","""event"",""trial"",""time""
""fullscreenenter"",""1"",""4818""
","
","","","-1","","","10","11273","3473","&#9761;","elianto","#3366ff99","-1","-1","1","+10","[]","0","0","2","","","","","","","",""
"pit-trial","47","449235","0.0-2.0-11.2-0.2","battery-v0.2","","""event"",""trial"",""time""
""fullscreenenter"",""1"",""4818""
","
","
","""event"",""trial"",""time""
""fullscreenenter"",""1"",""4818""
","
","","","-1","","","10","11273","3473","&#9761;","elianto","#3366ff99","-1","-1","1","+10","[]","0","0","2","","","","","","","",""
"pit-trial","48","454098","0.0-2.0-11.2-1.2","battery-v0.2","","""event"",""trial"",""time""
""fullscreenenter"",""1"",""4818""
","
","
","""event"",""trial"",""time""
""fullscreenenter"",""1"",""4818""
","
","","","-1","","","10","11273","3473","&#9761;","elianto","#3366ff99","-1","-1","1","+10","[]","0","0","2","","","","","","","",""
"pit-trial","49","458962","0.0-2.0-11.2-2.2","battery-v0.2","","""event"",""trial"",""time""
""fullscreenenter"",""1"",""4818""
","
","
","""event"",""trial"",""time""
""fullscreenenter"",""1"",""4818""
","
","","","-1","","","10","11273","3473","&#9761;","elianto","#3366ff99","-1","-1","1","+10","[]","0","0","2","","","","","","","",""
"pit-trial","50","463827","0.0-2.0-11.2-3.2","battery-v0.2","","""event"",""trial"",""time""
""fullscreenenter"",""1"",""4818""
","
","
","""event"",""trial"",""time""
""fullscreenenter"",""1"",""4818""
","
","","","-1","","","10","11273","3473","&#9761;","elianto","#3366ff99","-1","-1","1","0","[]","0","0","2","","","","","","","",""
"pit-trial","51","468690","0.0-2.0-11.2-4.2","battery-v0.2","","""event"",""trial"",""time""
""fullscreenenter"",""1"",""4818""
","
","
","""event"",""trial"",""time""
""fullscreenenter"",""1"",""4818""
","
","","","-1","","","10","11273","3473","&#9761;","elianto","#3366ff99","-1","-1","1","+10","[]","0","0","2","","","","","","","",""
"pit-trial","52","473556","0.0-2.0-11.3-0.3","battery-v0.2","","""event"",""trial"",""time""
""fullscreenenter"",""1"",""4818""
","
","
","""event"",""trial"",""time""
""fullscreenenter"",""1"",""4818""
","
","","","-1","","","10","11273","3473","&#9761;","elianto","#3366ff99","-1","-1","1","+10","[]","0","0","2","","","","","","","",""
"pit-trial","53","478426","0.0-2.0-11.3-1.3","battery-v0.2","","""event"",""trial"",""time""
""fullscreenenter"",""1"",""4818""
","
","
","""event"",""trial"",""time""
""fullscreenenter"",""1"",""4818""
","
","","","-1","","","10","11273","3473","&#9761;","elianto","#3366ff99","-1","-1","1","+10","[]","0","0","2","","","","","","","",""
"pit-trial","54","483291","0.0-2.0-11.3-2.3","battery-v0.2","","""event"",""trial"",""time""
""fullscreenenter"",""1"",""4818""
","
","
","""event"",""trial"",""time""
""fullscreenenter"",""1"",""4818""
","
","","","-1","","","10","11273","3473","&#9761;","elianto","#3366ff99","-1","-1","1","+10","[]","0","0","2","","","","","","","",""
"pit-trial","55","488155","0.0-2.0-11.3-3.3","battery-v0.2","","""event"",""trial"",""time""
""fullscreenenter"",""1"",""4818""
","
","
","""event"",""trial"",""time""
""fullscreenenter"",""1"",""4818""
","
","","","-1","","","10","11273","3473","&#9761;","elianto","#3366ff99","-1","-1","1","0","[]","0","0","2","","","","","","","",""
"pit-trial","56","493026","0.0-2.0-11.3-4.3","battery-v0.2","","""event"",""trial"",""time""
""fullscreenenter"",""1"",""4818""
","
","
","""event"",""trial"",""time""
""fullscreenenter"",""1"",""4818""
","
","","","-1","","","10","11273","3473","&#9761;","elianto","#3366ff99","-1","-1","1","+10","[]","0","0","2","","","","","","","",""
"call-function","57","493029","0.0-2.0-12.0","battery-v0.2","","""event"",""trial"",""time""
""fullscreenenter"",""1"",""4818""
","
","
","""event"",""trial"",""time""
""fullscreenenter"",""1"",""4818""
","
","","","","","","","","","","","","","","","","","","","","","","","","","","",""
"pit-instructions","58","527152","0.0-2.0-13.0","battery-v0.2","","""event"",""trial"",""time""
""fullscreenenter"",""1"",""4818""
","
","
","""event"",""trial"",""time""
""fullscreenenter"",""1"",""4818""
","
","","[{""page_index"":0,""viewing_time"":5757.5999999940395},{""page_index"":1,""viewing_time"":8847.30000000447},{""page_index"":2,""viewing_time"":3564.5},{""page_index"":3,""viewing_time"":10493.60000000149},{""page_index"":4,""viewing_time"":5458.5999999940395}]","34122.5","","","","","","","","","","","","","","","","","","","","","","","",""
"pit-trial","59","531126","0.0-2.0-14.0-0.0","battery-v0.2","","""event"",""trial"",""time""
""fullscreenenter"",""1"",""4818""
","
","
","""event"",""trial"",""time""
""fullscreenenter"",""1"",""4818""
","
","","","1102.9000000059605","","","10","11273","3473","&#9826;","elianto","#f73b6a7A","-1"," ","0","-10","[1956.3000000044703]","1","0","3","","","","","","","",""
"pit-trial","60","535996","0.0-2.0-14.0-1.0","battery-v0.2","","""event"",""trial"",""time""
""fullscreenenter"",""1"",""4818""
","
","
","""event"",""trial"",""time""
""fullscreenenter"",""1"",""4818""
","
","","","-1","","","10","11273","3473","&#9826;","elianto","#f73b6a7A","-1","-1","1","0","[]","0","0","3","","","","","","","",""
"pit-trial","61","540867","0.0-2.0-14.0-2.0","battery-v0.2","","""event"",""trial"",""time""
""fullscreenenter"",""1"",""4818""
","
","
","""event"",""trial"",""time""
""fullscreenenter"",""1"",""4818""
","
","","","-1","","","10","11273","3473","&#9826;","elianto","#f73b6a7A","-1","-1","1","0","[]","0","0","3","","","","","","","",""
"pit-trial","62","545731","0.0-2.0-14.0-3.0","battery-v0.2","","""event"",""trial"",""time""
""fullscreenenter"",""1"",""4818""
","
","
","""event"",""trial"",""time""
""fullscreenenter"",""1"",""4818""
","
","","","-1","","","10","11273","3473","&#9826;","elianto","#f73b6a7A","-1","-1","1","-10","[]","0","0","3","","","","","","","",""
"pit-trial","63","550596","0.0-2.0-14.0-4.0","battery-v0.2","","""event"",""trial"",""time""
""fullscreenenter"",""1"",""4818""
","
","
","""event"",""trial"",""time""
""fullscreenenter"",""1"",""4818""
","
","","","-1","","","10","11273","3473","&#9826;","elianto","#f73b6a7A","-1","-1","1","0","[]","0","0","3","","","","","","","",""
"pit-trial","64","555466","0.0-2.0-14.1-0.1","battery-v0.2","","""event"",""trial"",""time""
""fullscreenenter"",""1"",""4818""
","
","
","""event"",""trial"",""time""
""fullscreenenter"",""1"",""4818""
","
","","","-1","","","10","11273","3473","&#9826;","elianto","#f73b6a7A","-1","-1","1","0","[]","0","0","3","","","","","","","",""
"pit-trial","65","560331","0.0-2.0-14.1-1.1","battery-v0.2","","""event"",""trial"",""time""
""fullscreenenter"",""1"",""4818""
","
","
","""event"",""trial"",""time""
""fullscreenenter"",""1"",""4818""
","
","","","-1","","","10","11273","3473","&#9826;","elianto","#f73b6a7A","-1","-1","1","0","[]","0","0","3","","","","","","","",""
"pit-trial","66","565202","0.0-2.0-14.1-2.1","battery-v0.2","","""event"",""trial"",""time""
""fullscreenenter"",""1"",""4818""
","
","
","""event"",""trial"",""time""
""fullscreenenter"",""1"",""4818""
","
","","","-1","","","10","11273","3473","&#9826;","elianto","#f73b6a7A","-1","-1","1","0","[]","0","0","3","","","","","","","",""
"pit-trial","67","570065","0.0-2.0-14.1-3.1","battery-v0.2","","""event"",""trial"",""time""
""fullscreenenter"",""1"",""4818""
","
","
","""event"",""trial"",""time""
""fullscreenenter"",""1"",""4818""
","
","","","-1","","","10","11273","3473","&#9826;","elianto","#f73b6a7A","-1","-1","1","-10","[]","0","0","3","","","","","","","",""
"pit-trial","68","574931","0.0-2.0-14.1-4.1","battery-v0.2","","""event"",""trial"",""time""
""fullscreenenter"",""1"",""4818""
","
","
","""event"",""trial"",""time""
""fullscreenenter"",""1"",""4818""
","
","","","-1","","","10","11273","3473","&#9826;","elianto","#f73b6a7A","-1","-1","1","0","[]","0","0","3","","","","","","","",""
"pit-trial","69","579800","0.0-2.0-14.2-0.2","battery-v0.2","","""event"",""trial"",""time""
""fullscreenenter"",""1"",""4818""
","
","
","""event"",""trial"",""time""
""fullscreenenter"",""1"",""4818""
","
","","","-1","","","10","11273","3473","&#9826;","elianto","#f73b6a7A","-1","-1","1","0","[]","0","0","3","","","","","","","",""
"pit-trial","70","584668","0.0-2.0-14.2-1.2","battery-v0.2","","""event"",""trial"",""time""
""fullscreenenter"",""1"",""4818""
","
","
","""event"",""trial"",""time""
""fullscreenenter"",""1"",""4818""
","
","","","-1","","","10","11273","3473","&#9826;","elianto","#f73b6a7A","-1","-1","1","0","[]","0","0","3","","","","","","","",""
"pit-trial","71","589537","0.0-2.0-14.2-2.2","battery-v0.2","","""event"",""trial"",""time""
""fullscreenenter"",""1"",""4818""
","
","
","""event"",""trial"",""time""
""fullscreenenter"",""1"",""4818""
","
","","","-1","","","10","11273","3473","&#9826;","elianto","#f73b6a7A","-1","-1","1","0","[]","0","0","3","","","","","","","",""
"pit-trial","72","594401","0.0-2.0-14.2-3.2","battery-v0.2","","""event"",""trial"",""time""
""fullscreenenter"",""1"",""4818""
","
","
","""event"",""trial"",""time""
""fullscreenenter"",""1"",""4818""
","
","","","-1","","","10","11273","3473","&#9826;","elianto","#f73b6a7A","-1","-1","1","-10","[]","0","0","3","","","","","","","",""
"pit-trial","73","599265","0.0-2.0-14.2-4.2","battery-v0.2","","""event"",""trial"",""time""
""fullscreenenter"",""1"",""4818""
","
","
","""event"",""trial"",""time""
""fullscreenenter"",""1"",""4818""
","
","","","-1","","","10","11273","3473","&#9826;","elianto","#f73b6a7A","-1","-1","1","0","[]","0","0","3","","","","","","","",""
"pit-trial","74","604133","0.0-2.0-14.3-0.3","battery-v0.2","","""event"",""trial"",""time""
""fullscreenenter"",""1"",""4818""
","
","
","""event"",""trial"",""time""
""fullscreenenter"",""1"",""4818""
","
","","","-1","","","10","11273","3473","&#9826;","elianto","#f73b6a7A","-1","-1","1","0","[]","0","0","3","","","","","","","",""
"pit-trial","75","609000","0.0-2.0-14.3-1.3","battery-v0.2","","""event"",""trial"",""time""
""fullscreenenter"",""1"",""4818""
","
","
","""event"",""trial"",""time""
""fullscreenenter"",""1"",""4818""
","
","","","-1","","","10","11273","3473","&#9826;","elianto","#f73b6a7A","-1","-1","1","0","[]","0","0","3","","","","","","","",""
"pit-trial","76","613865","0.0-2.0-14.3-2.3","battery-v0.2","","""event"",""trial"",""time""
""fullscreenenter"",""1"",""4818""
","
","
","""event"",""trial"",""time""
""fullscreenenter"",""1"",""4818""
","
","","","-1","","","10","11273","3473","&#9826;","elianto","#f73b6a7A","-1","-1","1","0","[]","0","0","3","","","","","","","",""
"pit-trial","77","618730","0.0-2.0-14.3-3.3","battery-v0.2","","""event"",""trial"",""time""
""fullscreenenter"",""1"",""4818""
","
","
","""event"",""trial"",""time""
""fullscreenenter"",""1"",""4818""
","
","","","-1","","","10","11273","3473","&#9826;","elianto","#f73b6a7A","-1","-1","1","-10","[]","0","0","3","","","","","","","",""
"pit-trial","78","623594","0.0-2.0-14.3-4.3","battery-v0.2","","""event"",""trial"",""time""
""fullscreenenter"",""1"",""4818""
","
","
","""event"",""trial"",""time""
""fullscreenenter"",""1"",""4818""
","
","","","-1","","","10","11273","3473","&#9826;","elianto","#f73b6a7A","-1","-1","1","0","[]","0","0","3","","","","","","","",""
"call-function","79","623597","0.0-2.0-15.0","battery-v0.2","","""event"",""trial"",""time""
""fullscreenenter"",""1"",""4818""
","
","
","""event"",""trial"",""time""
""fullscreenenter"",""1"",""4818""
","
","","","","","","","","","","","","","","","","","","","","","","","","","","",""
"pit-instructions","80","651885","0.0-2.0-16.0","battery-v0.2","","""event"",""trial"",""time""
""fullscreenenter"",""1"",""4818""
","
","
","""event"",""trial"",""time""
""fullscreenenter"",""1"",""4818""
","
","","[{""page_index"":0,""viewing_time"":8556.70000000298},{""page_index"":1,""viewing_time"":9275.39999999851},{""page_index"":2,""viewing_time"":4551.60000000149},{""page_index"":3,""viewing_time"":5902.79999999702}]","28287.10000000149","","","","","","","","","","","","","","","","","","","","","","","",""
"pit-trial","81","655185","0.0-2.0-17.0-0.0","battery-v0.2","","""event"",""trial"",""time""
""fullscreenenter"",""1"",""4818""
","
","
","""event"",""trial"",""time""
""fullscreenenter"",""1"",""4818""
","
","","","434.30000000447035","","","10","11273","3473","&#9789;","elianto","#f73b6a7A"," "," ","1","0","[1291.8000000044703]","1","0","4","","","","","","","",""
"pit-trial","82","658184","0.0-2.0-17.0-1.0","battery-v0.2","","""event"",""trial"",""time""
""fullscreenenter"",""1"",""4818""
","
","
","""event"",""trial"",""time""
""fullscreenenter"",""1"",""4818""
","
","","","136.39999999850988","","","10","11273","3473","&#9789;","elianto","#f73b6a7A"," "," ","1","0","[990.8999999985099]","1","0","4","","","","","","","",""
"pit-trial","83","661273","0.0-2.0-17.0-2.0","battery-v0.2","","""event"",""trial"",""time""
""fullscreenenter"",""1"",""4818""
","
","
","""event"",""trial"",""time""
""fullscreenenter"",""1"",""4818""
","
","","","227.39999999850988","","","10","11273","3473","&#9789;","elianto","#f73b6a7A"," "," ","1","0","[1082.0999999940395]","1","0","4","","","","","","","",""
"pit-trial","84","664251","0.0-2.0-17.0-3.0","battery-v0.2","","""event"",""trial"",""time""
""fullscreenenter"",""1"",""4818""
","
","
","""event"",""trial"",""time""
""fullscreenenter"",""1"",""4818""
","
","","","117.59999999403954","","","10","11273","3473","&#9789;","elianto","#f73b6a7A"," "," ","1","-10","[968.9000000059605]","1","0","4","","","","","","","",""
"pit-trial","85","667449","0.0-2.0-17.0-4.0","battery-v0.2","","""event"",""trial"",""time""
""fullscreenenter"",""1"",""4818""
","
","
","""event"",""trial"",""time""
""fullscreenenter"",""1"",""4818""
","
","","","338.29999999701977","","","10","11273","3473","&#9789;","elianto","#f73b6a7A"," "," ","1","0","[1191.6999999955297]","1","0","4","","","","","","","",""
"pit-trial","86","670514","0.0-2.0-17.1-0.1","battery-v0.2","","""event"",""trial"",""time""
""fullscreenenter"",""1"",""4818""
","
","
","""event"",""trial"",""time""
""fullscreenenter"",""1"",""4818""
","
","","","205.09999999403954","","","10","11273","3473","&#9789;","elianto","#f73b6a7A"," "," ","1","0","[1055.3000000044703]","1","0","4","","","","","","","",""
"pit-trial","87","673605","0.0-2.0-17.1-1.1","battery-v0.2","","""event"",""trial"",""time""
""fullscreenenter"",""1"",""4818""
","
","
","""event"",""trial"",""time""
""fullscreenenter"",""1"",""4818""
","
","","","225.5","","","10","11273","3473","&#9789;","elianto","#f73b6a7A"," "," ","1","0","[1080.3999999985099]","1","0","4","","","","","","","",""
"pit-trial","88","676641","0.0-2.0-17.1-2.1","battery-v0.2","","""event"",""trial"",""time""
""fullscreenenter"",""1"",""4818""
","
","
","""event"",""trial"",""time""
""fullscreenenter"",""1"",""4818""
","
","","","175.20000000298023","","","10","11273","3473","&#9789;","elianto","#f73b6a7A"," "," ","1","0","[1027.5]","1","0","4","","","","","","","",""
"pit-trial","89","679651","0.0-2.0-17.1-3.1","battery-v0.2","","""event"",""trial"",""time""
""fullscreenenter"",""1"",""4818""
","
","
","""event"",""trial"",""time""
""fullscreenenter"",""1"",""4818""
","
","","","142.39999999850988","","","10","11273","3473","&#9789;","elianto","#f73b6a7A"," "," ","1","-10","[996.2999999970198]","1","0","4","","","","","","","",""
"pit-trial","90","682756","0.0-2.0-17.1-4.1","battery-v0.2","","""event"",""trial"",""time""
""fullscreenenter"",""1"",""4818""
","
","
","""event"",""trial"",""time""
""fullscreenenter"",""1"",""4818""
","
","","","244.29999999701977","","","10","11273","3473","&#9789;","elianto","#f73b6a7A"," "," ","1","0","[1094.7999999970198]","1","0","4","","","","","","","",""
"pit-trial","91","685873","0.0-2.0-17.2-0.2","battery-v0.2","","""event"",""trial"",""time""
""fullscreenenter"",""1"",""4818""
","
","
","""event"",""trial"",""time""
""fullscreenenter"",""1"",""4818""
","
","","","257.19999999552965","","","10","11273","3473","&#9789;","elianto","#f73b6a7A"," "," ","1","0","[1108.3999999985099]","1","0","4","","","","","","","",""
"pit-trial","92","688944","0.0-2.0-17.2-1.2","battery-v0.2","","""event"",""trial"",""time""
""fullscreenenter"",""1"",""4818""
","
","
","""event"",""trial"",""time""
""fullscreenenter"",""1"",""4818""
","
","","","215.39999999850988","","","10","11273","3473","&#9789;","elianto","#f73b6a7A"," "," ","1","0","[1066.2000000029802]","1","0","4","","","","","","","",""
"pit-trial","93","692201","0.0-2.0-17.2-2.2","battery-v0.2","","""event"",""trial"",""time""
""fullscreenenter"",""1"",""4818""
","
","
","""event"",""trial"",""time""
""fullscreenenter"",""1"",""4818""
","
","","","397.1000000014901","","","10","11273","3473","&#9789;","elianto","#f73b6a7A"," "," ","1","0","[1250]","1","0","4","","","","","","","",""
"pit-trial","94","695515","0.0-2.0-17.2-3.2","battery-v0.2","","""event"",""trial"",""time""
""fullscreenenter"",""1"",""4818""
","
","
","""event"",""trial"",""time""
""fullscreenenter"",""1"",""4818""
","
","","","454.69999999552965","","","10","11273","3473","&#9789;","elianto","#f73b6a7A"," "," ","1","-10","[1306]","1","0","4","","","","","","","",""
"pit-trial","95","699172","0.0-2.0-17.2-4.2","battery-v0.2","","""event"",""trial"",""time""
""fullscreenenter"",""1"",""4818""
","
","
","""event"",""trial"",""time""
""fullscreenenter"",""1"",""4818""
","
","","","788.5","","","10","11273","3473","&#9789;","elianto","#f73b6a7A"," "," ","1","0","[1643.1000000014901]","1","0","4","","","","","","","",""
"pit-trial","96","702441","0.0-2.0-17.3-0.3","battery-v0.2","","""event"",""trial"",""time""
""fullscreenenter"",""1"",""4818""
","
","
","""event"",""trial"",""time""
""fullscreenenter"",""1"",""4818""
","
","","","401.69999999552965","","","10","11273","3473","&#9789;","elianto","#f73b6a7A"," "," ","1","0","[1256]","1","0","4","","","","","","","",""
"pit-trial","97","705728","0.0-2.0-17.3-1.3","battery-v0.2","","""event"",""trial"",""time""
""fullscreenenter"",""1"",""4818""
","
","
","""event"",""trial"",""time""
""fullscreenenter"",""1"",""4818""
","
","","","424.3999999985099","","","10","11273","3473","&#9789;","elianto","#f73b6a7A"," "," ","1","0","[1277.2999999970198]","1","0","4","","","","","","","",""
"pit-trial","98","708977","0.0-2.0-17.3-2.3","battery-v0.2","","""event"",""trial"",""time""
""fullscreenenter"",""1"",""4818""
","
","
","""event"",""trial"",""time""
""fullscreenenter"",""1"",""4818""
","
","","","384.70000000298023","","","10","11273","3473","&#9789;","elianto","#f73b6a7A"," "," ","1","0","[1237.8999999985099]","1","0","4","","","","","","","",""
"pit-trial","99","712100","0.0-2.0-17.3-3.3","battery-v0.2","","""event"",""trial"",""time""
""fullscreenenter"",""1"",""4818""
","
","
","""event"",""trial"",""time""
""fullscreenenter"",""1"",""4818""
","
","","","255.79999999701977","","","10","11273","3473","&#9789;","elianto","#f73b6a7A"," "," ","1","-10","[1109.1999999955297]","1","0","4","","","","","","","",""
"pit-trial","100","715100","0.0-2.0-17.3-4.3","battery-v0.2","","""event"",""trial"",""time""
""fullscreenenter"",""1"",""4818""
","
","
","""event"",""trial"",""time""
""fullscreenenter"",""1"",""4818""
","
","","","125.10000000149012","","","10","11273","3473","&#9789;","elianto","#f73b6a7A"," "," ","1","0","[984.8999999985099]","1","0","4","","","","","","","",""
"call-function","101","715104","0.0-2.0-18.0","battery-v0.2","","""event"",""trial"",""time""
""fullscreenenter"",""1"",""4818""
","
","
","""event"",""trial"",""time""
""fullscreenenter"",""1"",""4818""
","
","","","","","","","","","","","","","","","","","","","","","","","","","","",""
"pit-instructions","102","799848","0.0-2.0-19.0","battery-v0.2","","""event"",""trial"",""time""
""fullscreenenter"",""1"",""4818""
","
","
","""event"",""trial"",""time""
""fullscreenenter"",""1"",""4818""
","
","","[{""page_index"":0,""viewing_time"":9162.79999999702},{""page_index"":1,""viewing_time"":7757.10000000149},{""page_index"":2,""viewing_time"":15761.5},{""page_index"":3,""viewing_time"":13805.79999999702},{""page_index"":4,""viewing_time"":9105.30000000447},{""page_index"":5,""viewing_time"":9463.29999999702},{""page_index"":6,""viewing_time"":9148.10000000149},{""page_index"":7,""viewing_time"":6288.39999999851},{""page_index"":8,""viewing_time"":4251.89999999851}]","84744.69999999553","","","","","","","","","","","","","","","","","","","","","","","",""
"pit-comprehension","103","806603","0.0-2.0-20.0-0.0","battery-v0.2","","""event"",""trial"",""time""
""fullscreenenter"",""1"",""4818""
","
","
","""event"",""trial"",""time""
""fullscreenenter"",""1"",""4818""
","
","","","6748.30000000447","[""SPACE""]","0","10","11273","3473","","","","","","","","","","","","","","","","","","",""
"pit-instructions","104","809286","0.0-2.0-20.0-1.0","battery-v0.2","","""event"",""trial"",""time""
""fullscreenenter"",""1"",""4818""
","
","
","""event"",""trial"",""time""
""fullscreenenter"",""1"",""4818""
","
","","[{""page_index"":0,""viewing_time"":2628.60000000149}]","2629","","","","","","","","","","","","","","","","","","","","","","","",""
"pit-comprehension","105","815814","0.0-2.0-21.0-0.0","battery-v0.2","","""event"",""trial"",""time""
""fullscreenenter"",""1"",""4818""
","
","
","""event"",""trial"",""time""
""fullscreenenter"",""1"",""4818""
","
","","","6522","[""10""]","0","10","11273","3473","","","","","","","","","","","","","","","","","","",""
"pit-instructions","106","817135","0.0-2.0-21.0-1.0","battery-v0.2","","""event"",""trial"",""time""
""fullscreenenter"",""1"",""4818""
","
","
","""event"",""trial"",""time""
""fullscreenenter"",""1"",""4818""
","
","","[{""page_index"":0,""viewing_time"":1270}]","1270.6000000014901","","","","","","","","","","","","","","","","","","","","","","","",""
"pit-comprehension","107","823856","0.0-2.0-22.0-0.0","battery-v0.2","","""event"",""trial"",""time""
""fullscreenenter"",""1"",""4818""
","
","
","""event"",""trial"",""time""
""fullscreenenter"",""1"",""4818""
","
","","","6713.5","[""0""]","0","10","11273","3473","","","","","","","","","","","","","","","","","","",""
"pit-instructions","108","825497","0.0-2.0-22.0-1.0","battery-v0.2","","""event"",""trial"",""time""
""fullscreenenter"",""1"",""4818""
","
","
","""event"",""trial"",""time""
""fullscreenenter"",""1"",""4818""
","
","","[{""page_index"":0,""viewing_time"":1588.2000000029802}]","1588.9000000059605","","","","","","","","","","","","","","","","","","","","","","","",""
"pit-comprehension","109","839817","0.0-2.0-23.0-0.0","battery-v0.2","","""event"",""trial"",""time""
""fullscreenenter"",""1"",""4818""
","
","
","""event"",""trial"",""time""
""fullscreenenter"",""1"",""4818""
","
","","","14314.20000000298","[""True""]","0","10","11273","3473","","","","","","","","","","","","","","","","","","",""
"pit-instructions","110","841422","0.0-2.0-23.0-1.0","battery-v0.2","","""event"",""trial"",""time""
""fullscreenenter"",""1"",""4818""
","
","
","""event"",""trial"",""time""
""fullscreenenter"",""1"",""4818""
","
","","[{""page_index"":0,""viewing_time"":1542.3999999985099}]","1542.8999999985099","","","","","","","","","","","","","","","","","","","","","","","",""
"pit-comprehension","111","848762","0.0-2.0-24.0-0.0","battery-v0.2","","""event"",""trial"",""time""
""fullscreenenter"",""1"",""4818""
","
","
","""event"",""trial"",""time""
""fullscreenenter"",""1"",""4818""
","
","","","7332.39999999851","[""True""]","0","10","11273","3473","","","","","","","","","","","","","","","","","","",""
"pit-instructions","112","850469","0.0-2.0-24.0-1.0","battery-v0.2","","""event"",""trial"",""time""
""fullscreenenter"",""1"",""4818""
","
","
","""event"",""trial"",""time""
""fullscreenenter"",""1"",""4818""
","
","","[{""page_index"":0,""viewing_time"":1648.3999999985099}]","1648.8999999985099","","","","","","","","","","","","","","","","","","","","","","","",""
"pit-comprehension","113","857071","0.0-2.0-25.0-0.0","battery-v0.2","","""event"",""trial"",""time""
""fullscreenenter"",""1"",""4818""
","
","
","""event"",""trial"",""time""
""fullscreenenter"",""1"",""4818""
","
","","","6596.20000000298","[""True""]","0","10","11273","3473","","","","","","","","","","","","","","","","","","",""
"pit-instructions","114","858944","0.0-2.0-25.0-1.0","battery-v0.2","","""event"",""trial"",""time""
""fullscreenenter"",""1"",""4818""
","
","
","""event"",""trial"",""time""
""fullscreenenter"",""1"",""4818""
","
","","[{""page_index"":0,""viewing_time"":1819.6999999955297}]","1820.2999999970198","","","","","","","","","","","","","","","","","","","","","","","",""
"pit-comprehension","115","864993","0.0-2.0-26.0-0.0","battery-v0.2","","""event"",""trial"",""time""
""fullscreenenter"",""1"",""4818""
","
","
","""event"",""trial"",""time""
""fullscreenenter"",""1"",""4818""
","
","","","6042.39999999851","[""False""]","0","10","11273","3473","","","","","","","","","","","","","","","","","","",""
"pit-instructions","116","866558","0.0-2.0-26.0-1.0","battery-v0.2","","""event"",""trial"",""time""
""fullscreenenter"",""1"",""4818""
","
","
","""event"",""trial"",""time""
""fullscreenenter"",""1"",""4818""
","
","","[{""page_index"":0,""viewing_time"":1504.8999999985099}]","1505.2999999970198","","","","","","","","","","","","","","","","","","","","","","","",""
"pit-instructions","117","883900","0.0-3.0","battery-v0.2","","""event"",""trial"",""time""
""fullscreenenter"",""1"",""4818""
","
","
","""event"",""trial"",""time""
""fullscreenenter"",""1"",""4818""
","
","","[{""page_index"":0,""viewing_time"":3684.5999999940395},{""page_index"":1,""viewing_time"":6161.60000000149},{""page_index"":2,""viewing_time"":7490.5}]","17337.29999999702","","","","","","","","","","","","","","","","","","","","","","","",""
"pit-trial","118","887662","0.0-4.0","battery-v0.2","","""event"",""trial"",""time""
""fullscreenenter"",""1"",""4818""
","
","
","""event"",""trial"",""time""
""fullscreenenter"",""1"",""4818""
","
","","","895.8999999985099","","","10","11273","3473","&#9752;","elianto","#f73b6a7A"," "," ","1","0","[1747.3999999985099]","1","1","","","11273","1","3","3","lose","go","0"
"pit-trial","119","891528","0.0-5.0","battery-v0.2","","""event"",""trial"",""time""
""fullscreenenter"",""1"",""4818""
","
","
","""event"",""trial"",""time""
""fullscreenenter"",""1"",""4818""
","
","","","998.7999999970198","","","10","11273","3473","&#9733;","elianto","#3366ff99","-1"," ","0","0","[1853.7000000029802]","1","1","","","11273","2","2","2","win","no-go","0"
"pit-trial","120","895151","0.0-6.0","battery-v0.2","","""event"",""trial"",""time""
""fullscreenenter"",""1"",""4818""
","
","
","""event"",""trial"",""time""
""fullscreenenter"",""1"",""4818""
","
","","","751.2999999970198","","","10","11273","3473","&#9728;","elianto","#f73b6a7A","-1"," ","0","-10","[1611.5]","1","1","","","11273","3","0","4","lose","no-go","0"
"pit-trial","121","898843","0.0-7.0","battery-v0.2","","""event"",""trial"",""time""
""fullscreenenter"",""1"",""4818""
","
","
","""event"",""trial"",""time""
""fullscreenenter"",""1"",""4818""
","
","","","824.0999999940395","","","10","11273","3473","&#9730;","elianto","#3366ff99"," "," ","1","+10","[1677.6000000014901]","1","1","","","11273","4","1","1","win","go","0"
"pit-trial","122","903712","0.0-8.0","battery-v0.2","","""event"",""trial"",""time""
""fullscreenenter"",""1"",""4818""
","
","
","""event"",""trial"",""time""
""fullscreenenter"",""1"",""4818""
","
","","","-1","","","10","11273","3473","&#9728;","elianto","#f73b6a7A","-1","-1","1","0","[]","0","1","","","11273","5","0","4","lose","no-go","0"
"pit-trial","123","907440","0.0-9.0","battery-v0.2","","""event"",""trial"",""time""
""fullscreenenter"",""1"",""4818""
","
","
","""event"",""trial"",""time""
""fullscreenenter"",""1"",""4818""
","
","","","862.5999999940395","","","10","11273","3473","&#9730;","elianto","#3366ff99"," "," ","1","+10","[1717.7000000029802]","1","1","","","11273","6","1","1","win","go","0"
"pit-trial","124","911097","0.0-10.0","battery-v0.2","","""event"",""trial"",""time""
""fullscreenenter"",""1"",""4818""
","
","
","""event"",""trial"",""time""
""fullscreenenter"",""1"",""4818""
","
","","","791.3000000044703","","","10","11273","3473","&#9752;","elianto","#f73b6a7A"," "," ","1","-10","[1646]","1","1","","","11273","7","3","3","lose","go","1"
"pit-trial","125","914970","0.0-11.0","battery-v0.2","","""event"",""trial"",""time""
""fullscreenenter"",""1"",""4818""
","
","
","""event"",""trial"",""time""
""fullscreenenter"",""1"",""4818""
","
","","","1012.2999999970198","","","10","11273","3473","&#9733;","elianto","#3366ff99","-1"," ","0","+10","[1863.3000000044703]","1","1","","","11273","8","2","2","win","no-go","1"
"pit-trial","126","919841","0.0-12.0","battery-v0.2","","""event"",""trial"",""time""
""fullscreenenter"",""1"",""4818""
","
","
","""event"",""trial"",""time""
""fullscreenenter"",""1"",""4818""
","
","","","-1","","","10","11273","3473","&#9752;","elianto","#f73b6a7A"," ","-1","0","-10","[]","0","1","","","11273","9","3","3","lose","go","0"
"pit-trial","127","923991","0.0-13.0","battery-v0.2","","""event"",""trial"",""time""
""fullscreenenter"",""1"",""4818""
","
","
","""event"",""trial"",""time""
""fullscreenenter"",""1"",""4818""
","
","","","1279.7999999970198","","","10","11273","3473","&#9733;","elianto","#3366ff99","-1"," ","0","+10","[2139.0999999940395]","1","1","","","11273","10","2","2","win","no-go","1"
"pit-trial","128","928856","0.0-14.0","battery-v0.2","","""event"",""trial"",""time""
""fullscreenenter"",""1"",""4818""
","
","
","""event"",""trial"",""time""
""fullscreenenter"",""1"",""4818""
","
","","","-1","","","10","11273","3473","&#9728;","elianto","#f73b6a7A","-1","-1","1","0","[]","0","1","","","11273","11","0","4","lose","no-go","0"
"pit-trial","129","932832","0.0-15.0","battery-v0.2","","""event"",""trial"",""time""
""fullscreenenter"",""1"",""4818""
","
","
","""event"",""trial"",""time""
""fullscreenenter"",""1"",""4818""
","
","","","1112.5999999940395","","","10","11273","3473","&#9730;","elianto","#3366ff99"," "," ","1","0","[1964.2999999970198]","1","1","","","11273","12","1","1","win","go","1"
"pit-trial","130","937702","0.0-16.0","battery-v0.2","","""event"",""trial"",""time""
""fullscreenenter"",""1"",""4818""
","
","
","""event"",""trial"",""time""
""fullscreenenter"",""1"",""4818""
","
","","","-1","","","10","11273","3473","&#9752;","elianto","#f73b6a7A"," ","-1","0","-10","[]","0","1","","","11273","13","3","3","lose","go","0"
"pit-trial","131","941725","0.0-17.0","battery-v0.2","","""event"",""trial"",""time""
""fullscreenenter"",""1"",""4818""
","
","
","""event"",""trial"",""time""
""fullscreenenter"",""1"",""4818""
","
","","","1159.8000000044703","","","10","11273","3473","&#9733;","elianto","#3366ff99","-1"," ","0","0","[2013.2000000029802]","1","1","","","11273","14","2","2","win","no-go","0"
"pit-trial","132","945371","0.0-18.0","battery-v0.2","","""event"",""trial"",""time""
""fullscreenenter"",""1"",""4818""
","
","
","""event"",""trial"",""time""
""fullscreenenter"",""1"",""4818""
","
","","","774.6999999955297","","","10","11273","3473","&#9730;","elianto","#3366ff99"," "," ","1","+10","[1629.8999999985099]","1","1","","","11273","15","1","1","win","go","0"
"pit-trial","133","949039","0.0-19.0","battery-v0.2","","""event"",""trial"",""time""
""fullscreenenter"",""1"",""4818""
","
","
","""event"",""trial"",""time""
""fullscreenenter"",""1"",""4818""
","
","","","802","","","10","11273","3473","&#9728;","elianto","#f73b6a7A","-1"," ","0","-10","[1657.1000000014901]","1","1","","","11273","16","0","4","lose","no-go","0"
"pit-trial","134","952656","0.0-20.0","battery-v0.2","","""event"",""trial"",""time""
""fullscreenenter"",""1"",""4818""
","
","
","""event"",""trial"",""time""
""fullscreenenter"",""1"",""4818""
","
","","","752.7999999970198","","","10","11273","3473","&#9730;","elianto","#3366ff99"," "," ","1","0","[1604.5]","1","1","","","11273","17","1","1","win","go","1"
"pit-trial","135","956017","0.0-21.0","battery-v0.2","","""event"",""trial"",""time""
""fullscreenenter"",""1"",""4818""
","
","
","""event"",""trial"",""time""
""fullscreenenter"",""1"",""4818""
","
","","","494.70000000298023","","","10","11273","3473","&#9752;","elianto","#f73b6a7A"," "," ","1","-10","[1347.5]","1","1","","","11273","18","3","3","lose","go","1"
"pit-trial","136","959477","0.0-22.0","battery-v0.2","","""event"",""trial"",""time""
""fullscreenenter"",""1"",""4818""
","
","
","""event"",""trial"",""time""
""fullscreenenter"",""1"",""4818""
","
","","","593.1999999955297","","","10","11273","3473","&#9733;","elianto","#3366ff99","-1"," ","0","0","[1451.0999999940395]","1","1","","","11273","19","2","2","win","no-go","0"
"pit-trial","137","963975","0.0-23.0","battery-v0.2","","""event"",""trial"",""time""
""fullscreenenter"",""1"",""4818""
","
","
","""event"",""trial"",""time""
""fullscreenenter"",""1"",""4818""
","
","","","1635.3999999985099","","","10","11273","3473","&#9728;","elianto","#f73b6a7A","-1"," ","0","0","[2491.10000000149]","1","1","","","11273","20","0","4","lose","no-go","1"
"pit-instructions","138","977799","0.0-24.0","battery-v0.2","","""event"",""trial"",""time""
""fullscreenenter"",""1"",""4818""
","
","
","""event"",""trial"",""time""
""fullscreenenter"",""1"",""4818""
","
","","[{""page_index"":0,""viewing_time"":7232.89999999851},{""page_index"":1,""viewing_time"":6588.10000000149}]","13821.89999999851","","","","","","","","","","","","","","","","","","","","","","","",""
"pit-trial","139","981422","0.0-25.0","battery-v0.2","","""event"",""trial"",""time""
""fullscreenenter"",""1"",""4818""
","
","
","""event"",""trial"",""time""
""fullscreenenter"",""1"",""4818""
","
","","","755.8999999985099","","","10","11273","3473","d","elianto","#3366ff99"," "," ","1","+10","[1612.2000000029802]","1","2","","","11273","21","1","1","win","go","0"
"pit-trial","140","986291","0.0-26.0","battery-v0.2","","""event"",""trial"",""time""
""fullscreenenter"",""1"",""4818""
","
","
","""event"",""trial"",""time""
""fullscreenenter"",""1"",""4818""
","
","","","-1","","","10","11273","3473","j","elianto","#f73b6a7A","-1","-1","1","0","[]","0","2","","","11273","22","0","4","lose","no-go","0"
"pit-trial","141","990925","0.0-27.0","battery-v0.2","","""event"",""trial"",""time""
""fullscreenenter"",""1"",""4818""
","
","
","""event"",""trial"",""time""
""fullscreenenter"",""1"",""4818""
","
","","","1770.7000000029802","","","10","11273","3473","w","elianto","#f73b6a7A"," "," ","1","0","[2622.60000000149]","1","2","","","11273","23","3","3","lose","go","0"
"pit-trial","142","995789","0.0-28.0","battery-v0.2","","""event"",""trial"",""time""
""fullscreenenter"",""1"",""4818""
","
","
","""event"",""trial"",""time""
""fullscreenenter"",""1"",""4818""
","
","","","-1","","","10","11273","3473","e","elianto","#f73b6a7A","-1","-1","1","0","[]","0","2","","","11273","24","2","4","lose","no-go","0"
"pit-trial","143","1000654","0.0-29.0","battery-v0.2","","""event"",""trial"",""time""
""fullscreenenter"",""1"",""4818""
","
","
","""event"",""trial"",""time""
""fullscreenenter"",""1"",""4818""
","
","","","-1","","","10","11273","3473","e","elianto","#f73b6a7A","-1","-1","1","0","[]","0","2","","","11273","25","2","4","lose","no-go","0"
"pit-trial","144","1004125","0.0-30.0","battery-v0.2","","""event"",""trial"",""time""
""fullscreenenter"",""1"",""4818""
","
","
","""event"",""trial"",""time""
""fullscreenenter"",""1"",""4818""
","
","","","606.6000000014901","","","10","11273","3473","d","elianto","#3366ff99"," "," ","1","+10","[1459.8999999985099]","1","2","","","11273","26","1","1","win","go","0"
"pit-trial","145","1008991","0.0-31.0","battery-v0.2","","""event"",""trial"",""time""
""fullscreenenter"",""1"",""4818""
","
","
","""event"",""trial"",""time""
""fullscreenenter"",""1"",""4818""
","
","","","-1","","","10","11273","3473","j","elianto","#f73b6a7A","-1","-1","1","0","[]","0","2","","","11273","27","0","4","lose","no-go","0"
"pit-trial","146","1013862","0.0-32.0","battery-v0.2","","""event"",""trial"",""time""
""fullscreenenter"",""1"",""4818""
","
","
","""event"",""trial"",""time""
""fullscreenenter"",""1"",""4818""
","
","","","-1","","","10","11273","3473","w","elianto","#f73b6a7A"," ","-1","0","-10","[]","0","2","","","11273","28","3","3","lose","go","0"
"pit-trial","147","1018726","0.0-33.0","battery-v0.2","","""event"",""trial"",""time""
""fullscreenenter"",""1"",""4818""
","
","
","""event"",""trial"",""time""
""fullscreenenter"",""1"",""4818""
","
","","","-1","","","10","11273","3473","w","elianto","#f73b6a7A"," ","-1","0","-10","[]","0","2","","","11273","29","3","3","lose","go","0"
"pit-trial","148","1023589","0.0-34.0","battery-v0.2","","""event"",""trial"",""time""
""fullscreenenter"",""1"",""4818""
","
","
","""event"",""trial"",""time""
""fullscreenenter"",""1"",""4818""
","
","","","-1","","","10","11273","3473","e","elianto","#f73b6a7A","-1","-1","1","0","[]","0","2","","","11273","30","2","4","lose","no-go","0"
"pit-trial","149","1027433","0.0-35.0","battery-v0.2","","""event"",""trial"",""time""
""fullscreenenter"",""1"",""4818""
","
","
","""event"",""trial"",""time""
""fullscreenenter"",""1"",""4818""
","
","","","983.0999999940395","","","10","11273","3473","d","elianto","#3366ff99"," "," ","1","0","[1835]","1","2","","","11273","31","1","1","win","go","1"
"pit-trial","150","1032304","0.0-36.0","battery-v0.2","","""event"",""trial"",""time""
""fullscreenenter"",""1"",""4818""
","
","
","""event"",""trial"",""time""
""fullscreenenter"",""1"",""4818""
","
","","","-1","","","10","11273","3473","j","elianto","#f73b6a7A","-1","-1","1","-10","[]","0","2","","","11273","32","0","4","lose","no-go","1"
"pit-trial","151","1037174","0.0-37.0","battery-v0.2","","""event"",""trial"",""time""
""fullscreenenter"",""1"",""4818""
","
","
","""event"",""trial"",""time""
""fullscreenenter"",""1"",""4818""
","
","","","-1","","","10","11273","3473","j","elianto","#f73b6a7A","-1","-1","1","0","[]","0","2","","","11273","33","0","4","lose","no-go","0"
"pit-trial","152","1042037","0.0-38.0","battery-v0.2","","""event"",""trial"",""time""
""fullscreenenter"",""1"",""4818""
","
","
","""event"",""trial"",""time""
""fullscreenenter"",""1"",""4818""
","
","","","-1","","","10","11273","3473","e","elianto","#f73b6a7A","-1","-1","1","0","[]","0","2","","","11273","34","2","4","lose","no-go","0"
"pit-trial","153","1045441","0.0-39.0","battery-v0.2","","""event"",""trial"",""time""
""fullscreenenter"",""1"",""4818""
","
","
","""event"",""trial"",""time""
""fullscreenenter"",""1"",""4818""
","
","","","537.7999999970198","","","10","11273","3473","w","elianto","#f73b6a7A"," "," ","1","0","[1391.5]","1","2","","","11273","35","3","3","lose","go","0"
"pit-trial","154","1049005","0.0-40.0","battery-v0.2","","""event"",""trial"",""time""
""fullscreenenter"",""1"",""4818""
","
","
","""event"",""trial"",""time""
""fullscreenenter"",""1"",""4818""
","
","","","703.8999999985099","","","10","11273","3473","d","elianto","#3366ff99"," "," ","1","+10","[1555.3999999985099]","1","2","","","11273","36","1","1","win","go","0"
"pit-trial","155","1053869","0.0-41.0","battery-v0.2","","""event"",""trial"",""time""
""fullscreenenter"",""1"",""4818""
","
","
","""event"",""trial"",""time""
""fullscreenenter"",""1"",""4818""
","
","","","-1","","","10","11273","3473","j","elianto","#f73b6a7A","-1","-1","1","0","[]","0","2","","","11273","37","0","4","lose","no-go","0"
"pit-trial","156","1057825","0.0-42.0","battery-v0.2","","""event"",""trial"",""time""
""fullscreenenter"",""1"",""4818""
","
","
","""event"",""trial"",""time""
""fullscreenenter"",""1"",""4818""
","
","","","1092.7000000029802","","","10","11273","3473","w","elianto","#f73b6a7A"," "," ","1","0","[1945]","1","2","","","11273","38","3","3","lose","go","0"
"pit-trial","157","1061480","0.0-43.0","battery-v0.2","","""event"",""trial"",""time""
""fullscreenenter"",""1"",""4818""
","
","
","""event"",""trial"",""time""
""fullscreenenter"",""1"",""4818""
","
","","","785.1000000014901","","","10","11273","3473","d","elianto","#3366ff99"," "," ","1","+10","[1641.9000000059605]","1","2","","","11273","39","1","1","win","go","0"
"pit-trial","158","1066350","0.0-44.0","battery-v0.2","","""event"",""trial"",""time""
""fullscreenenter"",""1"",""4818""
","
","
","""event"",""trial"",""time""
""fullscreenenter"",""1"",""4818""
","
","","","-1","","","10","11273","3473","e","elianto","#f73b6a7A","-1","-1","1","0","[]","0","2","","","11273","40","2","4","lose","no-go","0"
"pit-trial","159","1069926","0.0-45.0","battery-v0.2","","""event"",""trial"",""time""
""fullscreenenter"",""1"",""4818""
","
","
","""event"",""trial"",""time""
""fullscreenenter"",""1"",""4818""
","
","","","713.7999999970198","","","10","11273","3473","d","elianto","#3366ff99"," "," ","1","+10","[1566.3999999985099]","1","2","","","11273","41","1","1","win","go","0"
"pit-trial","160","1074790","0.0-46.0","battery-v0.2","","""event"",""trial"",""time""
""fullscreenenter"",""1"",""4818""
","
","
","""event"",""trial"",""time""
""fullscreenenter"",""1"",""4818""
","
","","","-1","","","10","11273","3473","e","elianto","#f73b6a7A","-1","-1","1","0","[]","0","2","","","11273","42","2","4","lose","no-go","0"
"pit-trial","161","1078276","0.0-47.0","battery-v0.2","","""event"",""trial"",""time""
""fullscreenenter"",""1"",""4818""
","
","
","""event"",""trial"",""time""
""fullscreenenter"",""1"",""4818""
","
","","","623.8000000044703","","","10","11273","3473","w","elianto","#f73b6a7A"," "," ","1","0","[1475.6000000014901]","1","2","","","11273","43","3","3","lose","go","0"
"pit-trial","162","1083144","0.0-48.0","battery-v0.2","","""event"",""trial"",""time""
""fullscreenenter"",""1"",""4818""
","
","
","""event"",""trial"",""time""
""fullscreenenter"",""1"",""4818""
","
","","","-1","","","10","11273","3473","j","elianto","#f73b6a7A","-1","-1","1","-10","[]","0","2","","","11273","44","0","4","lose","no-go","1"
"pit-trial","163","1087178","0.0-49.0","battery-v0.2","","""event"",""trial"",""time""
""fullscreenenter"",""1"",""4818""
","
","
","""event"",""trial"",""time""
""fullscreenenter"",""1"",""4818""
","
","","","1162.6000000014901","","","10","11273","3473","s","elianto","#3366ff99","-1"," ","0","0","[2023.3999999985099]","1","2","","","11273","45","4","2","win","no-go","0"
"pit-trial","164","1092049","0.0-50.0","battery-v0.2","","""event"",""trial"",""time""
""fullscreenenter"",""1"",""4818""
","
","
","""event"",""trial"",""time""
""fullscreenenter"",""1"",""4818""
","
","","","-1","","","10","11273","3473","j","elianto","#f73b6a7A","-1","-1","1","0","[]","0","2","","","11273","46","0","4","lose","no-go","0"
"pit-trial","165","1095984","0.0-51.0","battery-v0.2","","""event"",""trial"",""time""
""fullscreenenter"",""1"",""4818""
","
","
","""event"",""trial"",""time""
""fullscreenenter"",""1"",""4818""
","
","","","1060.1000000014901","","","10","11273","3473","w","elianto","#f73b6a7A"," "," ","1","0","[1922.3999999985099]","1","2","","","11273","47","3","3","lose","go","0"
"pit-trial","166","1100855","0.0-52.0","battery-v0.2","","""event"",""trial"",""time""
""fullscreenenter"",""1"",""4818""
","
","
","""event"",""trial"",""time""
""fullscreenenter"",""1"",""4818""
","
","","","-1","","","10","11273","3473","e","elianto","#f73b6a7A","-1","-1","1","-10","[]","0","2","","","11273","48","2","4","lose","no-go","1"
"pit-trial","167","1105638","0.0-53.0","battery-v0.2","","""event"",""trial"",""time""
""fullscreenenter"",""1"",""4818""
","
","
","""event"",""trial"",""time""
""fullscreenenter"",""1"",""4818""
","
","","","1914.5","","","10","11273","3473","w","elianto","#f73b6a7A"," "," ","1","0","[2770.60000000149]","1","2","","","11273","49","3","3","lose","go","0"
"pit-trial","168","1109423","0.0-54.0","battery-v0.2","","""event"",""trial"",""time""
""fullscreenenter"",""1"",""4818""
","
","
","""event"",""trial"",""time""
""fullscreenenter"",""1"",""4818""
","
","","","926.3000000044703","","","10","11273","3473","d","elianto","#3366ff99"," "," ","1","+10","[1778]","1","2","","","11273","50","1","1","win","go","0"
"pit-trial","169","1114293","0.0-55.0","battery-v0.2","","""event"",""trial"",""time""
""fullscreenenter"",""1"",""4818""
","
","
","""event"",""trial"",""time""
""fullscreenenter"",""1"",""4818""
","
","","","-1","","","10","11273","3473","s","elianto","#3366ff99","-1","-1","1","0","[]","0","2","","","11273","51","4","2","win","no-go","1"
"pit-trial","170","1119157","0.0-56.0","battery-v0.2","","""event"",""trial"",""time""
""fullscreenenter"",""1"",""4818""
","
","
","""event"",""trial"",""time""
""fullscreenenter"",""1"",""4818""
","
","","","-1","","","10","11273","3473","j","elianto","#f73b6a7A","-1","-1","1","0","[]","0","2","","","11273","52","0","4","lose","no-go","0"
"pit-trial","171","1123365","0.0-57.0","battery-v0.2","","""event"",""trial"",""time""
""fullscreenenter"",""1"",""4818""
","
","
","""event"",""trial"",""time""
""fullscreenenter"",""1"",""4818""
","
","","","1343.0999999940395","","","10","11273","3473","s","elianto","#3366ff99","-1"," ","0","0","[2196.9000000059605]","1","2","","","11273","53","4","2","win","no-go","0"
"pit-trial","172","1128228","0.0-58.0","battery-v0.2","","""event"",""trial"",""time""
""fullscreenenter"",""1"",""4818""
","
","
","""event"",""trial"",""time""
""fullscreenenter"",""1"",""4818""
","
","","","-1","","","10","11273","3473","e","elianto","#f73b6a7A","-1","-1","1","0","[]","0","2","","","11273","54","2","4","lose","no-go","0"
"pit-trial","173","1133095","0.0-59.0","battery-v0.2","","""event"",""trial"",""time""
""fullscreenenter"",""1"",""4818""
","
","
","""event"",""trial"",""time""
""fullscreenenter"",""1"",""4818""
","
","","","-1","","","10","11273","3473","j","elianto","#f73b6a7A","-1","-1","1","0","[]","0","2","","","11273","55","0","4","lose","no-go","0"
"pit-trial","174","1136613","0.0-60.0","battery-v0.2","","""event"",""trial"",""time""
""fullscreenenter"",""1"",""4818""
","
","
","""event"",""trial"",""time""
""fullscreenenter"",""1"",""4818""
","
","","","660.5","","","10","11273","3473","d","elianto","#3366ff99"," "," ","1","0","[1512.2999999970198]","1","2","","","11273","56","1","1","win","go","1"
"pit-trial","175","1141477","0.0-61.0","battery-v0.2","","""event"",""trial"",""time""
""fullscreenenter"",""1"",""4818""
","
","
","""event"",""trial"",""time""
""fullscreenenter"",""1"",""4818""
","
","","","-1","","","10","11273","3473","j","elianto","#f73b6a7A","-1","-1","1","0","[]","0","2","","","11273","57","0","4","lose","no-go","0"
"pit-trial","176","1146342","0.0-62.0","battery-v0.2","","""event"",""trial"",""time""
""fullscreenenter"",""1"",""4818""
","
","
","""event"",""trial"",""time""
""fullscreenenter"",""1"",""4818""
","
","","","-1","","","10","11273","3473","s","elianto","#3366ff99","-1","-1","1","+10","[]","0","2","","","11273","58","4","2","win","no-go","0"
"pit-trial","177","1149944","0.0-63.0","battery-v0.2","","""event"",""trial"",""time""
""fullscreenenter"",""1"",""4818""
","
","
","""event"",""trial"",""time""
""fullscreenenter"",""1"",""4818""
","
","","","728.0999999940395","","","10","11273","3473","w","elianto","#f73b6a7A"," "," ","1","0","[1586.8999999985099]","1","2","","","11273","59","3","3","lose","go","0"
"pit-trial","178","1154033","0.0-64.0","battery-v0.2","","""event"",""trial"",""time""
""fullscreenenter"",""1"",""4818""
","
","
","""event"",""trial"",""time""
""fullscreenenter"",""1"",""4818""
","
","","","1221.8999999985099","","","10","11273","3473","d","elianto","#3366ff99"," "," ","1","+10","[2072]","1","2","","","11273","60","1","1","win","go","0"
"pit-trial","179","1157964","0.0-65.0","battery-v0.2","","""event"",""trial"",""time""
""fullscreenenter"",""1"",""4818""
","
","
","""event"",""trial"",""time""
""fullscreenenter"",""1"",""4818""
","
","","","1070.5999999940395","","","10","11273","3473","w","elianto","#f73b6a7A"," "," ","1","0","[1925.5]","1","2","","","11273","61","3","3","lose","go","0"
"pit-trial","180","1161799","0.0-66.0","battery-v0.2","","""event"",""trial"",""time""
""fullscreenenter"",""1"",""4818""
","
","
","""event"",""trial"",""time""
""fullscreenenter"",""1"",""4818""
","
","","","975.3999999985099","","","10","11273","3473","d","elianto","#3366ff99"," "," ","1","+10","[1826.7999999970198]","1","2","","","11273","62","1","1","win","go","0"
"pit-trial","181","1166671","0.0-67.0","battery-v0.2","","""event"",""trial"",""time""
""fullscreenenter"",""1"",""4818""
","
","
","""event"",""trial"",""time""
""fullscreenenter"",""1"",""4818""
","
","","","-1","","","10","11273","3473","e","elianto","#f73b6a7A","-1","-1","1","0","[]","0","2","","","11273","63","2","4","lose","no-go","0"
"pit-trial","182","1171541","0.0-68.0","battery-v0.2","","""event"",""trial"",""time""
""fullscreenenter"",""1"",""4818""
","
","
","""event"",""trial"",""time""
""fullscreenenter"",""1"",""4818""
","
","","","-1","","","10","11273","3473","s","elianto","#3366ff99","-1","-1","1","+10","[]","0","2","","","11273","64","4","2","win","no-go","0"
"pit-trial","183","1175917","0.0-69.0","battery-v0.2","","""event"",""trial"",""time""
""fullscreenenter"",""1"",""4818""
","
","
","""event"",""trial"",""time""
""fullscreenenter"",""1"",""4818""
","
","","","1511.2000000029802","","","10","11273","3473","w","elianto","#f73b6a7A"," "," ","1","0","[2363.2999999970198]","1","2","","","11273","65","3","3","lose","go","0"
"pit-trial","184","1179953","0.0-70.0","battery-v0.2","","""event"",""trial"",""time""
""fullscreenenter"",""1"",""4818""
","
","
","""event"",""trial"",""time""
""fullscreenenter"",""1"",""4818""
","
","","","1170.2000000029802","","","10","11273","3473","d","elianto","#3366ff99"," "," ","1","+10","[2023.2999999970198]","1","2","","","11273","66","1","1","win","go","0"
"pit-trial","185","1184823","0.0-71.0","battery-v0.2","","""event"",""trial"",""time""
""fullscreenenter"",""1"",""4818""
","
","
","""event"",""trial"",""time""
""fullscreenenter"",""1"",""4818""
","
","","","-1","","","10","11273","3473","s","elianto","#3366ff99","-1","-1","1","0","[]","0","2","","","11273","67","4","2","win","no-go","1"
"pit-trial","186","1189693","0.0-72.0","battery-v0.2","","""event"",""trial"",""time""
""fullscreenenter"",""1"",""4818""
","
","
","""event"",""trial"",""time""
""fullscreenenter"",""1"",""4818""
","
","","","-1","","","10","11273","3473","e","elianto","#f73b6a7A","-1","-1","1","0","[]","0","2","","","11273","68","2","4","lose","no-go","0"
"pit-trial","187","1193571","0.0-73.0","battery-v0.2","","""event"",""trial"",""time""
""fullscreenenter"",""1"",""4818""
","
","
","""event"",""trial"",""time""
""fullscreenenter"",""1"",""4818""
","
","","","1015.7999999970198","","","10","11273","3473","w","elianto","#f73b6a7A"," "," ","1","0","[1867.0999999940395]","1","2","","","11273","69","3","3","lose","go","0"
"pit-trial","188","1197838","0.0-74.0","battery-v0.2","","""event"",""trial"",""time""
""fullscreenenter"",""1"",""4818""
","
","
","""event"",""trial"",""time""
""fullscreenenter"",""1"",""4818""
","
","","","1403","","","10","11273","3473","p","elianto","#3366ff99"," "," ","1","0","[2258.10000000149]","1","2","","","11273","70","5","1","win","go","1"
"pit-trial","189","1202708","0.0-75.0","battery-v0.2","","""event"",""trial"",""time""
""fullscreenenter"",""1"",""4818""
","
","
","""event"",""trial"",""time""
""fullscreenenter"",""1"",""4818""
","
","","","-1","","","10","11273","3473","s","elianto","#3366ff99","-1","-1","1","+10","[]","0","2","","","11273","71","4","2","win","no-go","0"
"pit-trial","190","1206324","0.0-76.0","battery-v0.2","","""event"",""trial"",""time""
""fullscreenenter"",""1"",""4818""
","
","
","""event"",""trial"",""time""
""fullscreenenter"",""1"",""4818""
","
","","","760.3999999985099","","","10","11273","3473","d","elianto","#3366ff99"," "," ","1","+10","[1610.7000000029802]","1","2","","","11273","72","1","1","win","go","0"
"pit-trial","191","1211189","0.0-77.0","battery-v0.2","","""event"",""trial"",""time""
""fullscreenenter"",""1"",""4818""
","
","
","""event"",""trial"",""time""
""fullscreenenter"",""1"",""4818""
","
","","","-1","","","10","11273","3473","p","elianto","#3366ff99"," ","-1","0","+10","[]","0","2","","","11273","73","5","1","win","go","1"
"pit-trial","192","1214928","0.0-78.0","battery-v0.2","","""event"",""trial"",""time""
""fullscreenenter"",""1"",""4818""
","
","
","""event"",""trial"",""time""
""fullscreenenter"",""1"",""4818""
","
","","","870.3999999985099","","","10","11273","3473","w","elianto","#f73b6a7A"," "," ","1","0","[1722.2000000029802]","1","2","","","11273","74","3","3","lose","go","0"
"pit-trial","193","1218677","0.0-79.0","battery-v0.2","","""event"",""trial"",""time""
""fullscreenenter"",""1"",""4818""
","
","
","""event"",""trial"",""time""
""fullscreenenter"",""1"",""4818""
","
","","","881.3999999985099","","","10","11273","3473","d","elianto","#3366ff99"," "," ","1","+10","[1741.3999999985099]","1","2","","","11273","75","1","1","win","go","0"
"pit-trial","194","1223542","0.0-80.0","battery-v0.2","","""event"",""trial"",""time""
""fullscreenenter"",""1"",""4818""
","
","
","""event"",""trial"",""time""
""fullscreenenter"",""1"",""4818""
","
","","","-1","","","10","11273","3473","s","elianto","#3366ff99","-1","-1","1","+10","[]","0","2","","","11273","76","4","2","win","no-go","0"
"pit-trial","195","1227252","0.0-81.0","battery-v0.2","","""event"",""trial"",""time""
""fullscreenenter"",""1"",""4818""
","
","
","""event"",""trial"",""time""
""fullscreenenter"",""1"",""4818""
","
","","","842.3999999985099","","","10","11273","3473","w","elianto","#f73b6a7A"," "," ","1","0","[1701.8000000044703]","1","2","","","11273","77","3","3","lose","go","0"
"pit-trial","196","1232115","0.0-82.0","battery-v0.2","","""event"",""trial"",""time""
""fullscreenenter"",""1"",""4818""
","
","
","""event"",""trial"",""time""
""fullscreenenter"",""1"",""4818""
","
","","","-1","","","10","11273","3473","s","elianto","#3366ff99","-1","-1","1","+10","[]","0","2","","","11273","78","4","2","win","no-go","0"
"pit-trial","197","1236981","0.0-83.0","battery-v0.2","","""event"",""trial"",""time""
""fullscreenenter"",""1"",""4818""
","
","
","""event"",""trial"",""time""
""fullscreenenter"",""1"",""4818""
","
","","","-1","","","10","11273","3473","p","elianto","#3366ff99"," ","-1","0","0","[]","0","2","","","11273","79","5","1","win","go","0"
"pit-trial","198","1241844","0.0-84.0","battery-v0.2","","""event"",""trial"",""time""
""fullscreenenter"",""1"",""4818""
","
","
","""event"",""trial"",""time""
""fullscreenenter"",""1"",""4818""
","
","","","-1","","","10","11273","3473","g","elianto","#f73b6a7A","-1","-1","1","0","[]","0","2","","","11273","80","6","4","lose","no-go","0"
"pit-trial","199","1246709","0.0-85.0","battery-v0.2","","""event"",""trial"",""time""
""fullscreenenter"",""1"",""4818""
","
","
","""event"",""trial"",""time""
""fullscreenenter"",""1"",""4818""
","
","","","-1","","","10","11273","3473","s","elianto","#3366ff99","-1","-1","1","+10","[]","0","2","","","11273","81","4","2","win","no-go","0"
"pit-trial","200","1251579","0.0-86.0","battery-v0.2","","""event"",""trial"",""time""
""fullscreenenter"",""1"",""4818""
","
","
","""event"",""trial"",""time""
""fullscreenenter"",""1"",""4818""
","
","","","-1","","","10","11273","3473","g","elianto","#f73b6a7A","-1","-1","1","0","[]","0","2","","","11273","82","6","4","lose","no-go","0"
"pit-trial","201","1256444","0.0-87.0","battery-v0.2","","""event"",""trial"",""time""
""fullscreenenter"",""1"",""4818""
","
","
","""event"",""trial"",""time""
""fullscreenenter"",""1"",""4818""
","
","","","-1","","","10","11273","3473","p","elianto","#3366ff99"," ","-1","0","0","[]","0","2","","","11273","83","5","1","win","go","0"
"pit-trial","202","1261309","0.0-88.0","battery-v0.2","","""event"",""trial"",""time""
""fullscreenenter"",""1"",""4818""
","
","
","""event"",""trial"",""time""
""fullscreenenter"",""1"",""4818""
","
","","","-1","","","10","11273","3473","a","elianto","#f73b6a7A"," ","-1","0","-10","[]","0","2","","","11273","84","7","3","lose","go","0"
"pit-trial","203","1266173","0.0-89.0","battery-v0.2","","""event"",""trial"",""time""
""fullscreenenter"",""1"",""4818""
","
","
","""event"",""trial"",""time""
""fullscreenenter"",""1"",""4818""
","
","","","-1","","","10","11273","3473","s","elianto","#3366ff99","-1","-1","1","+10","[]","0","2","","","11273","85","4","2","win","no-go","0"
"pit-trial","204","1269651","0.0-90.0","battery-v0.2","","""event"",""trial"",""time""
""fullscreenenter"",""1"",""4818""
","
","
","""event"",""trial"",""time""
""fullscreenenter"",""1"",""4818""
","
","","","618","","","10","11273","3473","a","elianto","#f73b6a7A"," "," ","1","-10","[1472.5]","1","2","","","11273","86","7","3","lose","go","1"
"pit-trial","205","1274515","0.0-91.0","battery-v0.2","","""event"",""trial"",""time""
""fullscreenenter"",""1"",""4818""
","
","
","""event"",""trial"",""time""
""fullscreenenter"",""1"",""4818""
","
","","","-1","","","10","11273","3473","g","elianto","#f73b6a7A","-1","-1","1","-10","[]","0","2","","","11273","87","6","4","lose","no-go","1"
"pit-trial","206","1279380","0.0-92.0","battery-v0.2","","""event"",""trial"",""time""
""fullscreenenter"",""1"",""4818""
","
","
","""event"",""trial"",""time""
""fullscreenenter"",""1"",""4818""
","
","","","-1","","","10","11273","3473","p","elianto","#3366ff99"," ","-1","0","+10","[]","0","2","","","11273","88","5","1","win","go","1"
"pit-trial","207","1283415","0.0-93.0","battery-v0.2","","""event"",""trial"",""time""
""fullscreenenter"",""1"",""4818""
","
","
","""event"",""trial"",""time""
""fullscreenenter"",""1"",""4818""
","
","","","1176.5","","","10","11273","3473","a","elianto","#f73b6a7A"," "," ","1","0","[2029.2000000029802]","1","2","","","11273","89","7","3","lose","go","0"
"pit-trial","208","1288284","0.0-94.0","battery-v0.2","","""event"",""trial"",""time""
""fullscreenenter"",""1"",""4818""
","
","
","""event"",""trial"",""time""
""fullscreenenter"",""1"",""4818""
","
","","","-1","","","10","11273","3473","s","elianto","#3366ff99","-1","-1","1","0","[]","0","2","","","11273","90","4","2","win","no-go","1"
"pit-trial","209","1293149","0.0-95.0","battery-v0.2","","""event"",""trial"",""time""
""fullscreenenter"",""1"",""4818""
","
","
","""event"",""trial"",""time""
""fullscreenenter"",""1"",""4818""
","
","","","-1","","","10","11273","3473","g","elianto","#f73b6a7A","-1","-1","1","-10","[]","0","2","","","11273","91","6","4","lose","no-go","1"
"pit-trial","210","1298019","0.0-96.0","battery-v0.2","","""event"",""trial"",""time""
""fullscreenenter"",""1"",""4818""
","
","
","""event"",""trial"",""time""
""fullscreenenter"",""1"",""4818""
","
","","","-1","","","10","11273","3473","p","elianto","#3366ff99"," ","-1","0","0","[]","0","2","","","11273","92","5","1","win","go","0"
"pit-trial","211","1301836","0.0-97.0","battery-v0.2","","""event"",""trial"",""time""
""fullscreenenter"",""1"",""4818""
","
","
","""event"",""trial"",""time""
""fullscreenenter"",""1"",""4818""
","
","","","953","","","10","11273","3473","g","elianto","#f73b6a7A","-1"," ","0","-10","[1805.6000000014901]","1","2","","","11273","93","6","4","lose","no-go","0"
"pit-trial","212","1305997","0.0-98.0","battery-v0.2","","""event"",""trial"",""time""
""fullscreenenter"",""1"",""4818""
","
","
","""event"",""trial"",""time""
""fullscreenenter"",""1"",""4818""
","
","","","1293.5999999940395","","","10","11273","3473","l","elianto","#3366ff99","-1"," ","0","0","[2147.10000000149]","1","2","","","11273","94","8","2","win","no-go","0"
"pit-trial","213","1309866","0.0-99.0","battery-v0.2","","""event"",""trial"",""time""
""fullscreenenter"",""1"",""4818""
","
","
","""event"",""trial"",""time""
""fullscreenenter"",""1"",""4818""
","
","","","1006.8000000044703","","","10","11273","3473","a","elianto","#f73b6a7A"," "," ","1","0","[1860.5]","1","2","","","11273","95","7","3","lose","go","0"
"pit-trial","214","1314726","0.0-100.0","battery-v0.2","","""event"",""trial"",""time""
""fullscreenenter"",""1"",""4818""
","
","
","""event"",""trial"",""time""
""fullscreenenter"",""1"",""4818""
","
","","","-1","","","10","11273","3473","p","elianto","#3366ff99"," ","-1","0","+10","[2965.0999999940395]","1","2","","","11273","96","5","1","win","go","1"
"pit-trial","215","1318555","0.0-101.0","battery-v0.2","","""event"",""trial"",""time""
""fullscreenenter"",""1"",""4818""
","
","
","""event"",""trial"",""time""
""fullscreenenter"",""1"",""4818""
","
","","","966.8999999985099","","","10","11273","3473","g","elianto","#f73b6a7A","-1"," ","0","0","[1820.6000000014901]","1","2","","","11273","97","6","4","lose","no-go","1"
"pit-trial","216","1322426","0.0-102.0","battery-v0.2","","""event"",""trial"",""time""
""fullscreenenter"",""1"",""4818""
","
","
","""event"",""trial"",""time""
""fullscreenenter"",""1"",""4818""
","
","","","1008.5999999940395","","","10","11273","3473","a","elianto","#f73b6a7A"," "," ","1","0","[1861.5]","1","2","","","11273","98","7","3","lose","go","0"
"pit-trial","217","1327288","0.0-103.0","battery-v0.2","","""event"",""trial"",""time""
""fullscreenenter"",""1"",""4818""
","
","
","""event"",""trial"",""time""
""fullscreenenter"",""1"",""4818""
","
","","","-1","","","10","11273","3473","l","elianto","#3366ff99","-1","-1","1","+10","[]","0","2","","","11273","99","8","2","win","no-go","0"
"pit-trial","218","1331455","0.0-104.0","battery-v0.2","","""event"",""trial"",""time""
""fullscreenenter"",""1"",""4818""
","
","
","""event"",""trial"",""time""
""fullscreenenter"",""1"",""4818""
","
","","","1309.2000000029802","","","10","11273","3473","p","elianto","#3366ff99"," "," ","1","+10","[2162.2000000029802]","1","2","","","11273","100","5","1","win","go","0"
"pit-trial","219","1336318","0.0-105.0","battery-v0.2","","""event"",""trial"",""time""
""fullscreenenter"",""1"",""4818""
","
","
","""event"",""trial"",""time""
""fullscreenenter"",""1"",""4818""
","
","","","-1","","","10","11273","3473","u","elianto","#3366ff99","-1","-1","1","+10","[]","0","2","","","11273","101","9","2","win","no-go","0"
"pit-trial","220","1340088","0.0-106.0","battery-v0.2","","""event"",""trial"",""time""
""fullscreenenter"",""1"",""4818""
","
","
","""event"",""trial"",""time""
""fullscreenenter"",""1"",""4818""
","
","","","909","","","10","11273","3473","g","elianto","#f73b6a7A","-1"," ","0","0","[1762.1999999955297]","1","2","","","11273","102","6","4","lose","no-go","1"
"pit-trial","221","1344955","0.0-107.0","battery-v0.2","","""event"",""trial"",""time""
""fullscreenenter"",""1"",""4818""
","
","
","""event"",""trial"",""time""
""fullscreenenter"",""1"",""4818""
","
","","","-1","","","10","11273","3473","l","elianto","#3366ff99","-1","-1","1","+10","[]","0","2","","","11273","103","8","2","win","no-go","0"
"pit-trial","222","1348838","0.0-108.0","battery-v0.2","","""event"",""trial"",""time""
""fullscreenenter"",""1"",""4818""
","
","
","""event"",""trial"",""time""
""fullscreenenter"",""1"",""4818""
","
","","","1015.7999999970198","","","10","11273","3473","p","elianto","#3366ff99"," "," ","1","+10","[1871]","1","2","","","11273","104","5","1","win","go","0"
"pit-trial","223","1352571","0.0-109.0","battery-v0.2","","""event"",""trial"",""time""
""fullscreenenter"",""1"",""4818""
","
","
","""event"",""trial"",""time""
""fullscreenenter"",""1"",""4818""
","
","","","866.2000000029802","","","10","11273","3473","g","elianto","#f73b6a7A","-1"," ","0","-10","[1720.2999999970198]","1","2","","","11273","105","6","4","lose","no-go","0"
"pit-trial","224","1357435","0.0-110.0","battery-v0.2","","""event"",""trial"",""time""
""fullscreenenter"",""1"",""4818""
","
","
","""event"",""trial"",""time""
""fullscreenenter"",""1"",""4818""
","
","","","-1","","","10","11273","3473","l","elianto","#3366ff99","-1","-1","1","+10","[]","0","2","","","11273","106","8","2","win","no-go","0"
"pit-trial","225","1361237","0.0-111.0","battery-v0.2","","""event"",""trial"",""time""
""fullscreenenter"",""1"",""4818""
","
","
","""event"",""trial"",""time""
""fullscreenenter"",""1"",""4818""
","
","","","937.6000000014901","","","10","11273","3473","p","elianto","#3366ff99"," "," ","1","+10","[1793.4000000059605]","1","2","","","11273","107","5","1","win","go","0"
"pit-trial","226","1366107","0.0-112.0","battery-v0.2","","""event"",""trial"",""time""
""fullscreenenter"",""1"",""4818""
","
","
","""event"",""trial"",""time""
""fullscreenenter"",""1"",""4818""
","
","","","-1","","","10","11273","3473","u","elianto","#3366ff99","-1","-1","1","0","[]","0","2","","","11273","108","9","2","win","no-go","1"
"pit-trial","227","1370037","0.0-113.0","battery-v0.2","","""event"",""trial"",""time""
""fullscreenenter"",""1"",""4818""
","
","
","""event"",""trial"",""time""
""fullscreenenter"",""1"",""4818""
","
","","","1071","","","10","11273","3473","p","elianto","#3366ff99"," "," ","1","+10","[1922.3999999985099]","1","2","","","11273","109","5","1","win","go","0"
"pit-trial","228","1373943","0.0-114.0","battery-v0.2","","""event"",""trial"",""time""
""fullscreenenter"",""1"",""4818""
","
","
","""event"",""trial"",""time""
""fullscreenenter"",""1"",""4818""
","
","","","1044.7999999970198","","","10","11273","3473","g","elianto","#f73b6a7A","-1"," ","0","0","[1896.3999999985099]","1","2","","","11273","110","6","4","lose","no-go","1"
"pit-trial","229","1378813","0.0-115.0","battery-v0.2","","""event"",""trial"",""time""
""fullscreenenter"",""1"",""4818""
","
","
","""event"",""trial"",""time""
""fullscreenenter"",""1"",""4818""
","
","","","-1","","","10","11273","3473","u","elianto","#3366ff99","-1","-1","1","+10","[]","0","2","","","11273","111","9","2","win","no-go","0"
"pit-trial","230","1383683","0.0-116.0","battery-v0.2","","""event"",""trial"",""time""
""fullscreenenter"",""1"",""4818""
","
","
","""event"",""trial"",""time""
""fullscreenenter"",""1"",""4818""
","
","","","-1","","","10","11273","3473","l","elianto","#3366ff99","-1","-1","1","+10","[]","0","2","","","11273","112","8","2","win","no-go","0"
"pit-trial","231","1387474","0.0-117.0","battery-v0.2","","""event"",""trial"",""time""
""fullscreenenter"",""1"",""4818""
","
","
","""event"",""trial"",""time""
""fullscreenenter"",""1"",""4818""
","
","","","927.3000000044703","","","10","11273","3473","a","elianto","#f73b6a7A"," "," ","1","0","[1779.6000000014901]","1","2","","","11273","113","7","3","lose","go","0"
"pit-trial","232","1392332","0.0-118.0","battery-v0.2","","""event"",""trial"",""time""
""fullscreenenter"",""1"",""4818""
","
","
","""event"",""trial"",""time""
""fullscreenenter"",""1"",""4818""
","
","","","-1","","","10","11273","3473","l","elianto","#3366ff99","-1","-1","1","+10","[2900.2999999970198]","1","2","","","11273","114","8","2","win","no-go","0"
"pit-trial","233","1396274","0.0-119.0","battery-v0.2","","""event"",""trial"",""time""
""fullscreenenter"",""1"",""4818""
","
","
","""event"",""trial"",""time""
""fullscreenenter"",""1"",""4818""
","
","","","1077.1999999955297","","","10","11273","3473","p","elianto","#3366ff99"," "," ","1","+10","[1929.6999999955297]","1","2","","","11273","115","5","1","win","go","0"
"pit-trial","234","1401139","0.0-120.0","battery-v0.2","","""event"",""trial"",""time""
""fullscreenenter"",""1"",""4818""
","
","
","""event"",""trial"",""time""
""fullscreenenter"",""1"",""4818""
","
","","","-1","","","10","11273","3473","u","elianto","#3366ff99","-1","-1","1","+10","[320.20000000298023]","1","2","","","11273","116","9","2","win","no-go","0"
"pit-trial","235","1406009","0.0-121.0","battery-v0.2","","""event"",""trial"",""time""
""fullscreenenter"",""1"",""4818""
","
","
","""event"",""trial"",""time""
""fullscreenenter"",""1"",""4818""
","
","","","-1","","","10","11273","3473","u","elianto","#3366ff99","-1","-1","1","+10","[]","0","2","","","11273","117","9","2","win","no-go","0"
"pit-trial","236","1409649","0.0-122.0","battery-v0.2","","""event"",""trial"",""time""
""fullscreenenter"",""1"",""4818""
","
","
","""event"",""trial"",""time""
""fullscreenenter"",""1"",""4818""
","
","","","781.7000000029802","","","10","11273","3473","p","elianto","#3366ff99"," "," ","1","+10","[1632.3000000044703]","1","2","","","11273","118","5","1","win","go","0"
"pit-trial","237","1414516","0.0-123.0","battery-v0.2","","""event"",""trial"",""time""
""fullscreenenter"",""1"",""4818""
","
","
","""event"",""trial"",""time""
""fullscreenenter"",""1"",""4818""
","
","","","-1","","","10","11273","3473","l","elianto","#3366ff99","-1","-1","1","+10","[3644.5,4276.5]","2","2","","","11273","119","8","2","win","no-go","0"
"pit-trial","238","1418226","0.0-124.0","battery-v0.2","","""event"",""trial"",""time""
""fullscreenenter"",""1"",""4818""
","
","
","""event"",""trial"",""time""
""fullscreenenter"",""1"",""4818""
","
","","","840.7000000029802","","","10","11273","3473","g","elianto","#f73b6a7A","-1"," ","0","-10","[1697.7999999970198]","1","2","","","11273","120","6","4","lose","no-go","0"
"pit-trial","239","1421885","0.0-125.0","battery-v0.2","","""event"",""trial"",""time""
""fullscreenenter"",""1"",""4818""
","
","
","""event"",""trial"",""time""
""fullscreenenter"",""1"",""4818""
","
","","","792.3000000044703","","","10","11273","3473","p","elianto","#3366ff99"," "," ","1","0","[1645.3000000044703]","1","2","","","11273","121","5","1","win","go","1"
"pit-trial","240","1426755","0.0-126.0","battery-v0.2","","""event"",""trial"",""time""
""fullscreenenter"",""1"",""4818""
","
","
","""event"",""trial"",""time""
""fullscreenenter"",""1"",""4818""
","
","","","-1","","","10","11273","3473","l","elianto","#3366ff99","-1","-1","1","+10","[]","0","2","","","11273","122","8","2","win","no-go","0"
"pit-trial","241","1431626","0.0-127.0","battery-v0.2","","""event"",""trial"",""time""
""fullscreenenter"",""1"",""4818""
","
","
","""event"",""trial"",""time""
""fullscreenenter"",""1"",""4818""
","
","","","-1","","","10","11273","3473","u","elianto","#3366ff99","-1","-1","1","+10","[]","0","2","","","11273","123","9","2","win","no-go","0"
"pit-trial","242","1435393","0.0-128.0","battery-v0.2","","""event"",""trial"",""time""
""fullscreenenter"",""1"",""4818""
","
","
","""event"",""trial"",""time""
""fullscreenenter"",""1"",""4818""
","
","","","904.0999999940395","","","10","11273","3473","a","elianto","#f73b6a7A"," "," ","1","-10","[1757.5]","1","2","","","11273","124","7","3","lose","go","1"
"pit-trial","243","1440258","0.0-129.0","battery-v0.2","","""event"",""trial"",""time""
""fullscreenenter"",""1"",""4818""
","
","
","""event"",""trial"",""time""
""fullscreenenter"",""1"",""4818""
","
","","","-1","","","10","11273","3473","l","elianto","#3366ff99","-1","-1","1","0","[]","0","2","","","11273","125","8","2","win","no-go","1"
"pit-trial","244","1445122","0.0-130.0","battery-v0.2","","""event"",""trial"",""time""
""fullscreenenter"",""1"",""4818""
","
","
","""event"",""trial"",""time""
""fullscreenenter"",""1"",""4818""
","
","","","-1","","","10","11273","3473","u","elianto","#3366ff99","-1","-1","1","0","[]","0","2","","","11273","126","9","2","win","no-go","1"
"pit-trial","245","1448872","0.0-131.0","battery-v0.2","","""event"",""trial"",""time""
""fullscreenenter"",""1"",""4818""
","
","
","""event"",""trial"",""time""
""fullscreenenter"",""1"",""4818""
","
","","","891.3999999985099","","","10","11273","3473","a","elianto","#f73b6a7A"," "," ","1","0","[1745.2000000029802]","1","2","","","11273","127","7","3","lose","go","0"
"pit-trial","246","1452715","0.0-132.0","battery-v0.2","","""event"",""trial"",""time""
""fullscreenenter"",""1"",""4818""
","
","
","""event"",""trial"",""time""
""fullscreenenter"",""1"",""4818""
","
","","","975.8000000044703","","","10","11273","3473","g","elianto","#f73b6a7A","-1"," ","0","-10","[1827.5]","1","2","","","11273","128","6","4","lose","no-go","0"
"pit-trial","247","1456564","0.0-133.0","battery-v0.2","","""event"",""trial"",""time""
""fullscreenenter"",""1"",""4818""
","
","
","""event"",""trial"",""time""
""fullscreenenter"",""1"",""4818""
","
","","","980.3999999985099","","","10","11273","3473","g","elianto","#f73b6a7A","-1"," ","0","0","[1839]","1","2","","","11273","129","6","4","lose","no-go","1"
"pit-trial","248","1461436","0.0-134.0","battery-v0.2","","""event"",""trial"",""time""
""fullscreenenter"",""1"",""4818""
","
","
","""event"",""trial"",""time""
""fullscreenenter"",""1"",""4818""
","
","","","-1","","","10","11273","3473","l","elianto","#3366ff99","-1","-1","1","+10","[]","0","2","","","11273","130","8","2","win","no-go","0"
"pit-trial","249","1465114","0.0-135.0","battery-v0.2","","""event"",""trial"",""time""
""fullscreenenter"",""1"",""4818""
","
","
","""event"",""trial"",""time""
""fullscreenenter"",""1"",""4818""
","
","","","811.1000000014901","","","10","11273","3473","a","elianto","#f73b6a7A"," "," ","1","0","[1668.6000000014901]","1","2","","","11273","131","7","3","lose","go","0"
"pit-trial","250","1469984","0.0-136.0","battery-v0.2","","""event"",""trial"",""time""
""fullscreenenter"",""1"",""4818""
","
","
","""event"",""trial"",""time""
""fullscreenenter"",""1"",""4818""
","
","","","-1","","","10","11273","3473","u","elianto","#3366ff99","-1","-1","1","+10","[]","0","2","","","11273","132","9","2","win","no-go","0"
"pit-trial","251","1474849","0.0-137.0","battery-v0.2","","""event"",""trial"",""time""
""fullscreenenter"",""1"",""4818""
","
","
","""event"",""trial"",""time""
""fullscreenenter"",""1"",""4818""
","
","","","-1","","","10","11273","3473","u","elianto","#3366ff99","-1","-1","1","+10","[]","0","2","","","11273","133","9","2","win","no-go","0"
"pit-trial","252","1478791","0.0-138.0","battery-v0.2","","""event"",""trial"",""time""
""fullscreenenter"",""1"",""4818""
","
","
","""event"",""trial"",""time""
""fullscreenenter"",""1"",""4818""
","
","","","1082.6000000014901","","","10","11273","3473","g","elianto","#f73b6a7A","-1"," ","0","-10","[1935.1000000014901]","1","2","","","11273","134","6","4","lose","no-go","0"
"pit-trial","253","1483660","0.0-139.0","battery-v0.2","","""event"",""trial"",""time""
""fullscreenenter"",""1"",""4818""
","
","
","""event"",""trial"",""time""
""fullscreenenter"",""1"",""4818""
","
","","","-1","","","10","11273","3473","l","elianto","#3366ff99","-1","-1","1","+10","[]","0","2","","","11273","135","8","2","win","no-go","0"
"pit-trial","254","1487248","0.0-140.0","battery-v0.2","","""event"",""trial"",""time""
""fullscreenenter"",""1"",""4818""
","
","
","""event"",""trial"",""time""
""fullscreenenter"",""1"",""4818""
","
","","","725.5999999940395","","","10","11273","3473","a","elianto","#f73b6a7A"," "," ","1","0","[1580.5]","1","2","","","11273","136","7","3","lose","go","0"
"pit-trial","255","1492113","0.0-141.0","battery-v0.2","","""event"",""trial"",""time""
""fullscreenenter"",""1"",""4818""
","
","
","""event"",""trial"",""time""
""fullscreenenter"",""1"",""4818""
","
","","","-1","","","10","11273","3473","u","elianto","#3366ff99","-1","-1","1","+10","[]","0","2","","","11273","137","9","2","win","no-go","0"
"pit-trial","256","1495880","0.0-142.0","battery-v0.2","","""event"",""trial"",""time""
""fullscreenenter"",""1"",""4818""
","
","
","""event"",""trial"",""time""
""fullscreenenter"",""1"",""4818""
","
","","","908.7000000029802","","","10","11273","3473","g","elianto","#f73b6a7A","-1"," ","0","-10","[1761.5]","1","2","","","11273","138","6","4","lose","no-go","0"
"pit-trial","257","1500152","0.0-143.0","battery-v0.2","","""event"",""trial"",""time""
""fullscreenenter"",""1"",""4818""
","
","
","""event"",""trial"",""time""
""fullscreenenter"",""1"",""4818""
","
","","","1410.1000000014901","","","10","11273","3473","a","elianto","#f73b6a7A"," "," ","1","0","[2263.89999999851]","1","2","","","11273","139","7","3","lose","go","0"
"pit-trial","258","1505017","0.0-144.0","battery-v0.2","","""event"",""trial"",""time""
""fullscreenenter"",""1"",""4818""
","
","
","""event"",""trial"",""time""
""fullscreenenter"",""1"",""4818""
","
","","","-1","","","10","11273","3473","l","elianto","#3366ff99","-1","-1","1","+10","[]","0","2","","","11273","140","8","2","win","no-go","0"
"pit-instructions","259","1527326","0.0-145.0","battery-v0.2","","""event"",""trial"",""time""
""fullscreenenter"",""1"",""4818""
","
","
","""event"",""trial"",""time""
""fullscreenenter"",""1"",""4818""
","
","","[{""page_index"":0,""viewing_time"":13036.30000000447},{""page_index"":1,""viewing_time"":9269.39999999851}]","22306.20000000298","","","","","","","","","","","","","","","","","","","","","","","",""
"pit-trial","260","1531169","0.0-146.0","battery-v0.2","","""event"",""trial"",""time""
""fullscreenenter"",""1"",""4818""
","
","
","""event"",""trial"",""time""
""fullscreenenter"",""1"",""4818""
","
","","","962.6999999955297","","","10","11273","3473","r","elianto","#3366ff99","-1"," ","0","0","[1823.6999999955297]","1","3","","","11273","141","1","2","win","no-go","0"
"pit-trial","261","1534943","0.0-147.0","battery-v0.2","","""event"",""trial"",""time""
""fullscreenenter"",""1"",""4818""
","
","
","""event"",""trial"",""time""
""fullscreenenter"",""1"",""4818""
","
","","","909.2999999970198","","","10","11273","3473","m","elianto","#f73b6a7A"," "," ","1","0","[1766.7999999970198]","1","3","","","11273","142","0","3","lose","go","0"
"pit-trial","262","1539807","0.0-148.0","battery-v0.2","","""event"",""trial"",""time""
""fullscreenenter"",""1"",""4818""
","
","
","""event"",""trial"",""time""
""fullscreenenter"",""1"",""4818""
","
","","","-1","","","10","11273","3473","y","elianto","#f73b6a7A"," ","-1","0","-10","[]","0","3","","","11273","143","2","3","lose","go","0"
"pit-trial","263","1543586","0.0-149.0","battery-v0.2","","""event"",""trial"",""time""
""fullscreenenter"",""1"",""4818""
","
","
","""event"",""trial"",""time""
""fullscreenenter"",""1"",""4818""
","
","","","916.3999999985099","","","10","11273","3473","h","elianto","#f73b6a7A","-1"," ","0","0","[1769.6000000014901]","1","3","","","11273","144","3","4","lose","no-go","1"
"pit-trial","264","1547558","0.0-150.0","battery-v0.2","","""event"",""trial"",""time""
""fullscreenenter"",""1"",""4818""
","
","
","""event"",""trial"",""time""
""fullscreenenter"",""1"",""4818""
","
","","","1110.9000000059605","","","10","11273","3473","m","elianto","#f73b6a7A"," "," ","1","-10","[1961.5]","1","3","","","11273","145","0","3","lose","go","1"
"pit-trial","265","1551313","0.0-151.0","battery-v0.2","","""event"",""trial"",""time""
""fullscreenenter"",""1"",""4818""
","
","
","""event"",""trial"",""time""
""fullscreenenter"",""1"",""4818""
","
","","","888.7000000029802","","","10","11273","3473","h","elianto","#f73b6a7A","-1"," ","0","-10","[1743.2999999970198]","1","3","","","11273","146","3","4","lose","no-go","0"
"pit-trial","266","1556184","0.0-152.0","battery-v0.2","","""event"",""trial"",""time""
""fullscreenenter"",""1"",""4818""
","
","
","""event"",""trial"",""time""
""fullscreenenter"",""1"",""4818""
","
","","","-1","","","10","11273","3473","y","elianto","#f73b6a7A"," ","-1","0","-10","[]","0","3","","","11273","147","2","3","lose","go","0"
"pit-trial","267","1559911","0.0-153.0","battery-v0.2","","""event"",""trial"",""time""
""fullscreenenter"",""1"",""4818""
","
","
","""event"",""trial"",""time""
