"trial_type","trial_index","time_elapsed","internal_node_id","task_version","subject_id","interactions","blur_events","focus_events","fullscreenenter_events","fullscreenexit_events","success","view_history","rt","responses","num_errors","age","subject","participantId","rune","rune_set","hex","correct","choice","accuracy","outcome","keys","total_keys","block","practice","value","sub","trial","stimulus","robot","valence","action","sham"
"pavlovia","0","9","0.0-0.0","battery-v0.2","","""event"",""trial"",""time""
""fullscreenenter"",""1"",""2089""
","
","
","""event"",""trial"",""time""
""fullscreenenter"",""1"",""2089""
","
","","","","","","","","","","","","","","","","","","","","","","","","","","",""
"fullscreen","1","3057","0.0-1.0","battery-v0.2","","""event"",""trial"",""time""
""fullscreenenter"",""1"",""2089""
","
","
","""event"",""trial"",""time""
""fullscreenenter"",""1"",""2089""
","
","true","","","","","","","","","","","","","","","","","","","","","","","","","",""
"pit-instructions","2","8690","0.0-2.0-0.0","battery-v0.2","","""event"",""trial"",""time""
""fullscreenenter"",""1"",""2089""
","
","
","""event"",""trial"",""time""
""fullscreenenter"",""1"",""2089""
","
","","[{""page_index"":0,""viewing_time"":5627.999999999999}]","5627.999999999999","","","","","","","","","","","","","","","","","","","","","","","",""
"pit-comprehension","3","10728","0.0-2.0-1.0-0.0","battery-v0.2","","""event"",""trial"",""time""
""fullscreenenter"",""1"",""2089""
","
","
","""event"",""trial"",""time""
""fullscreenenter"",""1"",""2089""
","
","","","2022","[""shark""]","0","14","5216","2700","","","","","","","","","","","","","","","","","","",""
"pit-instructions","4","12525","0.0-2.0-1.0-1.0","battery-v0.2","","""event"",""trial"",""time""
""fullscreenenter"",""1"",""2089""
","
","
","""event"",""trial"",""time""
""fullscreenenter"",""1"",""2089""
","
","","[{""page_index"":0,""viewing_time"":1789}]","1790","","","","","","","","","","","","","","","","","","","","","","","",""
"pit-comprehension","5","14643","0.0-2.0-2.0-0.0","battery-v0.2","","""event"",""trial"",""time""
""fullscreenenter"",""1"",""2089""
","
","
","""event"",""trial"",""time""
""fullscreenenter"",""1"",""2089""
","
","","","2112.999999999998","[""tiger""]","0","14","5216","2700","","","","","","","","","","","","","","","","","","",""
"pit-instructions","6","16007","0.0-2.0-2.0-1.0","battery-v0.2","","""event"",""trial"",""time""
""fullscreenenter"",""1"",""2089""
","
","
","""event"",""trial"",""time""
""fullscreenenter"",""1"",""2089""
","
","","[{""page_index"":0,""viewing_time"":1360}]","1361","","","","","","","","","","","","","","","","","","","","","","","",""
"pit-instructions","7","112419","0.0-2.0-3.0","battery-v0.2","","""event"",""trial"",""time""
""fullscreenenter"",""1"",""2089""
","
","
","""event"",""trial"",""time""
""fullscreenenter"",""1"",""2089""
","
","","[{""page_index"":0,""viewing_time"":8797.000000000004},{""page_index"":1,""viewing_time"":5935.999999999996},{""page_index"":2,""viewing_time"":6798},{""page_index"":3,""viewing_time"":5252},{""page_index"":4,""viewing_time"":6366},{""page_index"":5,""viewing_time"":6273},{""page_index"":6,""viewing_time"":7113},{""page_index"":7,""viewing_time"":8186},{""page_index"":8,""viewing_time"":6269},{""page_index"":9,""viewing_time"":9448},{""page_index"":10,""viewing_time"":7666},{""page_index"":11,""viewing_time"":7085.000000000015},{""page_index"":12,""viewing_time"":6270.999999999985},{""page_index"":13,""viewing_time"":4950}]","96410","","","","","","","","","","","","","","","","","","","","","","","",""
"pit-trial","8","115769","0.0-2.0-4.0-0.0","battery-v0.2","","""event"",""trial"",""time""
""fullscreenenter"",""1"",""2089""
","
","
","""event"",""trial"",""time""
""fullscreenenter"",""1"",""2089""
","
","","","493","","","14","5216","2700","&#9784;","elianto","#FFFFF080"," "," ","1","&#10004","[1344]","1","0","0","","","","","","","",""
"pit-trial","9","119175","0.0-2.0-4.1-0.1","battery-v0.2","","""event"",""trial"",""time""
""fullscreenenter"",""1"",""2089""
","
","
","""event"",""trial"",""time""
""fullscreenenter"",""1"",""2089""
","
","","","548.0000000000146","","","14","5216","2700","&#9784;","elianto","#FFFFF080"," "," ","1","&#10004","[1399.0000000000146]","1","0","0","","","","","","","",""
"pit-trial","10","122605","0.0-2.0-4.2-0.2","battery-v0.2","","""event"",""trial"",""time""
""fullscreenenter"",""1"",""2089""
","
","
","""event"",""trial"",""time""
""fullscreenenter"",""1"",""2089""
","
","","","566","","","14","5216","2700","&#9784;","elianto","#FFFFF080"," "," ","1","&#10004","[1419]","1","0","0","","","","","","","",""
"pit-trial","11","125906","0.0-2.0-4.3-0.3","battery-v0.2","","""event"",""trial"",""time""
""fullscreenenter"",""1"",""2089""
","
","
","""event"",""trial"",""time""
""fullscreenenter"",""1"",""2089""
","
","","","444.99999999998545","","","14","5216","2700","&#9784;","elianto","#FFFFF080"," "," ","1","&#10004","[1296]","1","0","0","","","","","","","",""
"pit-trial","12","129204","0.0-2.0-4.4-0.4","battery-v0.2","","""event"",""trial"",""time""
""fullscreenenter"",""1"",""2089""
","
","
","""event"",""trial"",""time""
""fullscreenenter"",""1"",""2089""
","
","","","441.99999999998545","","","14","5216","2700","&#9784;","elianto","#FFFFF080"," "," ","1","&#10004","[1292]","1","0","0","","","","","","","",""
"pit-instructions","13","149386","0.0-2.0-5.0","battery-v0.2","","""event"",""trial"",""time""
""fullscreenenter"",""1"",""2089""
","
","
","""event"",""trial"",""time""
""fullscreenenter"",""1"",""2089""
","
","","[{""page_index"":0,""viewing_time"":4490},{""page_index"":1,""viewing_time"":5267},{""page_index"":2,""viewing_time"":4904},{""page_index"":3,""viewing_time"":5513.000000000029}]","20175","","","","","","","","","","","","","","","","","","","","","","","",""
"pit-trial","14","154242","0.0-2.0-6.0-0.0","battery-v0.2","","""event"",""trial"",""time""
""fullscreenenter"",""1"",""2089""
","
","
","""event"",""trial"",""time""
""fullscreenenter"",""1"",""2089""
","
","","","-1","","","14","5216","2700","&#9854;","elianto","#FFFFF080","-1","-1","1","&#10004","[]","0","0","1","","","","","","","",""
"pit-trial","15","159100","0.0-2.0-6.1-0.1","battery-v0.2","","""event"",""trial"",""time""
""fullscreenenter"",""1"",""2089""
","
","
","""event"",""trial"",""time""
""fullscreenenter"",""1"",""2089""
","
","","","-1","","","14","5216","2700","&#9854;","elianto","#FFFFF080","-1","-1","1","&#10004","[]","0","0","1","","","","","","","",""
"pit-trial","16","163958","0.0-2.0-6.2-0.2","battery-v0.2","","""event"",""trial"",""time""
""fullscreenenter"",""1"",""2089""
","
","
","""event"",""trial"",""time""
""fullscreenenter"",""1"",""2089""
","
","","","-1","","","14","5216","2700","&#9854;","elianto","#FFFFF080","-1","-1","1","&#10004","[]","0","0","1","","","","","","","",""
"pit-trial","17","168816","0.0-2.0-6.3-0.3","battery-v0.2","","""event"",""trial"",""time""
""fullscreenenter"",""1"",""2089""
","
","
","""event"",""trial"",""time""
""fullscreenenter"",""1"",""2089""
","
","","","-1","","","14","5216","2700","&#9854;","elianto","#FFFFF080","-1","-1","1","&#10004","[]","0","0","1","","","","","","","",""
"pit-trial","18","173673","0.0-2.0-6.4-0.4","battery-v0.2","","""event"",""trial"",""time""
""fullscreenenter"",""1"",""2089""
","
","
","""event"",""trial"",""time""
""fullscreenenter"",""1"",""2089""
","
","","","-1","","","14","5216","2700","&#9854;","elianto","#FFFFF080","-1","-1","1","&#10004","[]","0","0","1","","","","","","","",""
"pit-instructions","19","289552","0.0-2.0-7.0","battery-v0.2","","""event"",""trial"",""time""
""fullscreenenter"",""1"",""2089""
","
","
","""event"",""trial"",""time""
""fullscreenenter"",""1"",""2089""
","
","","[{""page_index"":0,""viewing_time"":6426},{""page_index"":1,""viewing_time"":7736},{""page_index"":2,""viewing_time"":5566.000000000029},{""page_index"":3,""viewing_time"":5416.999999999971},{""page_index"":4,""viewing_time"":5352},{""page_index"":5,""viewing_time"":5250},{""page_index"":6,""viewing_time"":5319},{""page_index"":7,""viewing_time"":7865},{""page_index"":8,""viewing_time"":6367},{""page_index"":9,""viewing_time"":5918.000000000029},{""page_index"":10,""viewing_time"":6051.999999999971},{""page_index"":11,""viewing_time"":6549.000000000029},{""page_index"":12,""viewing_time"":7384.999999999971},{""page_index"":13,""viewing_time"":7817},{""page_index"":14,""viewing_time"":6836},{""page_index"":15,""viewing_time"":6119},{""page_index"":16,""viewing_time"":6038},{""page_index"":17,""viewing_time"":7863}]","115876","","","","","","","","","","","","","","","","","","","","","","","",""
"pit-trial","20","293872","0.0-2.0-8.0-0.0","battery-v0.2","","""event"",""trial"",""time""
""fullscreenenter"",""1"",""2089""
","
","
","""event"",""trial"",""time""
""fullscreenenter"",""1"",""2089""
","
","","","1463","","","14","5216","2700","&#9776;","elianto","#3366ff99"," "," ","1","+10","[2314]","1","0","1","","","","","","","",""
"pit-trial","21","297447","0.0-2.0-8.0-1.0","battery-v0.2","","""event"",""trial"",""time""
""fullscreenenter"",""1"",""2089""
","
","
","""event"",""trial"",""time""
""fullscreenenter"",""1"",""2089""
","
","","","718","","","14","5216","2700","&#9776;","elianto","#3366ff99"," "," ","1","+10","[1569]","1","0","1","","","","","","","",""
"pit-trial","22","301200","0.0-2.0-8.0-2.0","battery-v0.2","","""event"",""trial"",""time""
""fullscreenenter"",""1"",""2089""
","
","
","""event"",""trial"",""time""
""fullscreenenter"",""1"",""2089""
","
","","","897","","","14","5216","2700","&#9776;","elianto","#3366ff99"," "," ","1","+10","[1748]","1","0","1","","","","","","","",""
"pit-trial","23","304625","0.0-2.0-8.0-3.0","battery-v0.2","","""event"",""trial"",""time""
""fullscreenenter"",""1"",""2089""
","
","
","""event"",""trial"",""time""
""fullscreenenter"",""1"",""2089""
","
","","","569","","","14","5216","2700","&#9776;","elianto","#3366ff99"," "," ","1","0","[1419]","1","0","1","","","","","","","",""
"pit-trial","24","307994","0.0-2.0-8.0-4.0","battery-v0.2","","""event"",""trial"",""time""
""fullscreenenter"",""1"",""2089""
","
","
","""event"",""trial"",""time""
""fullscreenenter"",""1"",""2089""
","
","","","513","","","14","5216","2700","&#9776;","elianto","#3366ff99"," "," ","1","+10","[1364]","1","0","1","","","","","","","",""
"pit-trial","25","311274","0.0-2.0-8.1-0.1","battery-v0.2","","""event"",""trial"",""time""
""fullscreenenter"",""1"",""2089""
","
","
","""event"",""trial"",""time""
""fullscreenenter"",""1"",""2089""
","
","","","422","","","14","5216","2700","&#9776;","elianto","#3366ff99"," "," ","1","+10","[1274]","1","0","1","","","","","","","",""
"pit-trial","26","314292","0.0-2.0-8.1-1.1","battery-v0.2","","""event"",""trial"",""time""
""fullscreenenter"",""1"",""2089""
","
","
","""event"",""trial"",""time""
""fullscreenenter"",""1"",""2089""
","
","","","162","","","14","5216","2700","&#9776;","elianto","#3366ff99"," "," ","1","+10","[1013]","1","0","1","","","","","","","",""
"pit-trial","27","317619","0.0-2.0-8.1-2.1","battery-v0.2","","""event"",""trial"",""time""
""fullscreenenter"",""1"",""2089""
","
","
","""event"",""trial"",""time""
""fullscreenenter"",""1"",""2089""
","
","","","471","","","14","5216","2700","&#9776;","elianto","#3366ff99"," "," ","1","+10","[1322]","1","0","1","","","","","","","",""
"pit-trial","28","320785","0.0-2.0-8.1-3.1","battery-v0.2","","""event"",""trial"",""time""
""fullscreenenter"",""1"",""2089""
","
","
","""event"",""trial"",""time""
""fullscreenenter"",""1"",""2089""
","
","","","310","","","14","5216","2700","&#9776;","elianto","#3366ff99"," "," ","1","0","[1160]","1","0","1","","","","","","","",""
"pit-trial","29","324257","0.0-2.0-8.1-4.1","battery-v0.2","","""event"",""trial"",""time""
""fullscreenenter"",""1"",""2089""
","
","
","""event"",""trial"",""time""
""fullscreenenter"",""1"",""2089""
","
","","","617","","","14","5216","2700","&#9776;","elianto","#3366ff99"," "," ","1","+10","[1468]","1","0","1","","","","","","","",""
"pit-trial","30","327572","0.0-2.0-8.2-0.2","battery-v0.2","","""event"",""trial"",""time""
""fullscreenenter"",""1"",""2089""
","
","
","""event"",""trial"",""time""
""fullscreenenter"",""1"",""2089""
","
","","","458","","","14","5216","2700","&#9776;","elianto","#3366ff99"," "," ","1","+10","[1310]","1","0","1","","","","","","","",""
"pit-trial","31","330646","0.0-2.0-8.2-1.2","battery-v0.2","","""event"",""trial"",""time""
""fullscreenenter"",""1"",""2089""
","
","
","""event"",""trial"",""time""
""fullscreenenter"",""1"",""2089""
","
","","","217","","","14","5216","2700","&#9776;","elianto","#3366ff99"," "," ","1","+10","[1068]","1","0","1","","","","","","","",""
"pit-trial","32","333887","0.0-2.0-8.2-2.2","battery-v0.2","","""event"",""trial"",""time""
""fullscreenenter"",""1"",""2089""
","
","
","""event"",""trial"",""time""
""fullscreenenter"",""1"",""2089""
","
","","","385","","","14","5216","2700","&#9776;","elianto","#3366ff99"," "," ","1","+10","[1234.9999999999418]","1","0","1","","","","","","","",""
"pit-trial","33","337147","0.0-2.0-8.2-3.2","battery-v0.2","","""event"",""trial"",""time""
""fullscreenenter"",""1"",""2089""
","
","
","""event"",""trial"",""time""
""fullscreenenter"",""1"",""2089""
","
","","","405","","","14","5216","2700","&#9776;","elianto","#3366ff99"," "," ","1","0","[1256]","1","0","1","","","","","","","",""
"pit-trial","34","340419","0.0-2.0-8.2-4.2","battery-v0.2","","""event"",""trial"",""time""
""fullscreenenter"",""1"",""2089""
","
","
","""event"",""trial"",""time""
""fullscreenenter"",""1"",""2089""
","
","","","414","","","14","5216","2700","&#9776;","elianto","#3366ff99"," "," ","1","+10","[1265]","1","0","1","","","","","","","",""
"call-function","35","340425","0.0-2.0-9.0","battery-v0.2","","""event"",""trial"",""time""
""fullscreenenter"",""1"",""2089""
","
","
","""event"",""trial"",""time""
""fullscreenenter"",""1"",""2089""
","
","","","","","","","","","","","","","","","","","","","","","","","","","","",""
"pit-instructions","36","379793","0.0-2.0-10.0","battery-v0.2","","""event"",""trial"",""time""
""fullscreenenter"",""1"",""2089""
","
","
","""event"",""trial"",""time""
""fullscreenenter"",""1"",""2089""
","
","","[{""page_index"":0,""viewing_time"":5429},{""page_index"":1,""viewing_time"":6985},{""page_index"":2,""viewing_time"":10202},{""page_index"":3,""viewing_time"":9234},{""page_index"":4,""viewing_time"":7517}]","39368","","","","","","","","","","","","","","","","","","","","","","","",""
"pit-trial","37","384650","0.0-2.0-11.0-0.0","battery-v0.2","","""event"",""trial"",""time""
""fullscreenenter"",""1"",""2089""
","
","
","""event"",""trial"",""time""
""fullscreenenter"",""1"",""2089""
","
","","","-1","","","14","5216","2700","&#9761;","elianto","#3366ff99","-1","-1","1","+10","[]","0","0","2","","","","","","","",""
"pit-trial","38","389507","0.0-2.0-11.0-1.0","battery-v0.2","","""event"",""trial"",""time""
""fullscreenenter"",""1"",""2089""
","
","
","""event"",""trial"",""time""
""fullscreenenter"",""1"",""2089""
","
","","","-1","","","14","5216","2700","&#9761;","elianto","#3366ff99","-1","-1","1","+10","[]","0","0","2","","","","","","","",""
"pit-trial","39","394363","0.0-2.0-11.0-2.0","battery-v0.2","","""event"",""trial"",""time""
""fullscreenenter"",""1"",""2089""
","
","
","""event"",""trial"",""time""
""fullscreenenter"",""1"",""2089""
","
","","","-1","","","14","5216","2700","&#9761;","elianto","#3366ff99","-1","-1","1","+10","[]","0","0","2","","","","","","","",""
"pit-trial","40","399219","0.0-2.0-11.0-3.0","battery-v0.2","","""event"",""trial"",""time""
""fullscreenenter"",""1"",""2089""
","
","
","""event"",""trial"",""time""
""fullscreenenter"",""1"",""2089""
","
","","","-1","","","14","5216","2700","&#9761;","elianto","#3366ff99","-1","-1","1","0","[]","0","0","2","","","","","","","",""
"pit-trial","41","404075","0.0-2.0-11.0-4.0","battery-v0.2","","""event"",""trial"",""time""
""fullscreenenter"",""1"",""2089""
","
","
","""event"",""trial"",""time""
""fullscreenenter"",""1"",""2089""
","
","","","-1","","","14","5216","2700","&#9761;","elianto","#3366ff99","-1","-1","1","+10","[]","0","0","2","","","","","","","",""
"pit-trial","42","408932","0.0-2.0-11.1-0.1","battery-v0.2","","""event"",""trial"",""time""
""fullscreenenter"",""1"",""2089""
","
","
","""event"",""trial"",""time""
""fullscreenenter"",""1"",""2089""
","
","","","-1","","","14","5216","2700","&#9761;","elianto","#3366ff99","-1","-1","1","+10","[]","0","0","2","","","","","","","",""
"pit-trial","43","413788","0.0-2.0-11.1-1.1","battery-v0.2","","""event"",""trial"",""time""
""fullscreenenter"",""1"",""2089""
","
","
","""event"",""trial"",""time""
""fullscreenenter"",""1"",""2089""
","
","","","-1","","","14","5216","2700","&#9761;","elianto","#3366ff99","-1","-1","1","+10","[]","0","0","2","","","","","","","",""
"pit-trial","44","418644","0.0-2.0-11.1-2.1","battery-v0.2","","""event"",""trial"",""time""
""fullscreenenter"",""1"",""2089""
","
","
","""event"",""trial"",""time""
""fullscreenenter"",""1"",""2089""
","
","","","-1","","","14","5216","2700","&#9761;","elianto","#3366ff99","-1","-1","1","+10","[]","0","0","2","","","","","","","",""
"pit-trial","45","423501","0.0-2.0-11.1-3.1","battery-v0.2","","""event"",""trial"",""time""
""fullscreenenter"",""1"",""2089""
","
","
","""event"",""trial"",""time""
""fullscreenenter"",""1"",""2089""
","
","","","-1","","","14","5216","2700","&#9761;","elianto","#3366ff99","-1","-1","1","0","[]","0","0","2","","","","","","","",""
"pit-trial","46","428358","0.0-2.0-11.1-4.1","battery-v0.2","","""event"",""trial"",""time""
""fullscreenenter"",""1"",""2089""
","
","
","""event"",""trial"",""time""
""fullscreenenter"",""1"",""2089""
","
","","","-1","","","14","5216","2700","&#9761;","elianto","#3366ff99","-1","-1","1","+10","[]","0","0","2","","","","","","","",""
"pit-trial","47","433215","0.0-2.0-11.2-0.2","battery-v0.2","","""event"",""trial"",""time""
""fullscreenenter"",""1"",""2089""
","
","
","""event"",""trial"",""time""
""fullscreenenter"",""1"",""2089""
","
","","","-1","","","14","5216","2700","&#9761;","elianto","#3366ff99","-1","-1","1","+10","[]","0","0","2","","","","","","","",""
"pit-trial","48","438071","0.0-2.0-11.2-1.2","battery-v0.2","","""event"",""trial"",""time""
""fullscreenenter"",""1"",""2089""
","
","
","""event"",""trial"",""time""
""fullscreenenter"",""1"",""2089""
","
","","","-1","","","14","5216","2700","&#9761;","elianto","#3366ff99","-1","-1","1","+10","[]","0","0","2","","","","","","","",""
"pit-trial","49","442927","0.0-2.0-11.2-2.2","battery-v0.2","","""event"",""trial"",""time""
""fullscreenenter"",""1"",""2089""
","
","
","""event"",""trial"",""time""
""fullscreenenter"",""1"",""2089""
","
","","","-1","","","14","5216","2700","&#9761;","elianto","#3366ff99","-1","-1","1","+10","[]","0","0","2","","","","","","","",""
"pit-trial","50","447785","0.0-2.0-11.2-3.2","battery-v0.2","","""event"",""trial"",""time""
""fullscreenenter"",""1"",""2089""
","
","
","""event"",""trial"",""time""
""fullscreenenter"",""1"",""2089""
","
","","","-1","","","14","5216","2700","&#9761;","elianto","#3366ff99","-1","-1","1","0","[]","0","0","2","","","","","","","",""
"pit-trial","51","452642","0.0-2.0-11.2-4.2","battery-v0.2","","""event"",""trial"",""time""
""fullscreenenter"",""1"",""2089""
","
","
","""event"",""trial"",""time""
""fullscreenenter"",""1"",""2089""
","
","","","-1","","","14","5216","2700","&#9761;","elianto","#3366ff99","-1","-1","1","+10","[]","0","0","2","","","","","","","",""
"pit-trial","52","457498","0.0-2.0-11.3-0.3","battery-v0.2","","""event"",""trial"",""time""
""fullscreenenter"",""1"",""2089""
","
","
","""event"",""trial"",""time""
""fullscreenenter"",""1"",""2089""
","
","","","-1","","","14","5216","2700","&#9761;","elianto","#3366ff99","-1","-1","1","+10","[]","0","0","2","","","","","","","",""
"pit-trial","53","462354","0.0-2.0-11.3-1.3","battery-v0.2","","""event"",""trial"",""time""
""fullscreenenter"",""1"",""2089""
","
","
","""event"",""trial"",""time""
""fullscreenenter"",""1"",""2089""
","
","","","-1","","","14","5216","2700","&#9761;","elianto","#3366ff99","-1","-1","1","+10","[]","0","0","2","","","","","","","",""
"pit-trial","54","467210","0.0-2.0-11.3-2.3","battery-v0.2","","""event"",""trial"",""time""
""fullscreenenter"",""1"",""2089""
","
","
","""event"",""trial"",""time""
""fullscreenenter"",""1"",""2089""
","
","","","-1","","","14","5216","2700","&#9761;","elianto","#3366ff99","-1","-1","1","+10","[]","0","0","2","","","","","","","",""
"pit-trial","55","472066","0.0-2.0-11.3-3.3","battery-v0.2","","""event"",""trial"",""time""
""fullscreenenter"",""1"",""2089""
","
","
","""event"",""trial"",""time""
""fullscreenenter"",""1"",""2089""
","
","","","-1","","","14","5216","2700","&#9761;","elianto","#3366ff99","-1","-1","1","0","[]","0","0","2","","","","","","","",""
"pit-trial","56","476924","0.0-2.0-11.3-4.3","battery-v0.2","","""event"",""trial"",""time""
""fullscreenenter"",""1"",""2089""
","
","
","""event"",""trial"",""time""
""fullscreenenter"",""1"",""2089""
","
","","","-1","","","14","5216","2700","&#9761;","elianto","#3366ff99","-1","-1","1","+10","[]","0","0","2","","","","","","","",""
"call-function","57","476926","0.0-2.0-12.0","battery-v0.2","","""event"",""trial"",""time""
""fullscreenenter"",""1"",""2089""
","
","
","""event"",""trial"",""time""
""fullscreenenter"",""1"",""2089""
","
","","","","","","","","","","","","","","","","","","","","","","","","","","",""
"pit-instructions","58","528207","0.0-2.0-13.0","battery-v0.2","","""event"",""trial"",""time""
""fullscreenenter"",""1"",""2089""
","
","
","""event"",""trial"",""time""
""fullscreenenter"",""1"",""2089""
","
","","[{""page_index"":0,""viewing_time"":6526},{""page_index"":1,""viewing_time"":22619},{""page_index"":2,""viewing_time"":3234.000000000058},{""page_index"":3,""viewing_time"":10050.999999999942},{""page_index"":4,""viewing_time"":8851}]","51282","","","","","","","","","","","","","","","","","","","","","","","",""
"pit-trial","59","533063","0.0-2.0-14.0-0.0","battery-v0.2","","""event"",""trial"",""time""
""fullscreenenter"",""1"",""2089""
","
","
","""event"",""trial"",""time""
""fullscreenenter"",""1"",""2089""
","
","","","-1","","","14","5216","2700","&#9826;","elianto","#f73b6a7A","-1","-1","1","0","[]","0","0","3","","","","","","","",""
"pit-trial","60","537920","0.0-2.0-14.0-1.0","battery-v0.2","","""event"",""trial"",""time""
""fullscreenenter"",""1"",""2089""
","
","
","""event"",""trial"",""time""
""fullscreenenter"",""1"",""2089""
","
","","","-1","","","14","5216","2700","&#9826;","elianto","#f73b6a7A","-1","-1","1","0","[]","0","0","3","","","","","","","",""
"pit-trial","61","542775","0.0-2.0-14.0-2.0","battery-v0.2","","""event"",""trial"",""time""
""fullscreenenter"",""1"",""2089""
","
","
","""event"",""trial"",""time""
""fullscreenenter"",""1"",""2089""
","
","","","-1","","","14","5216","2700","&#9826;","elianto","#f73b6a7A","-1","-1","1","0","[]","0","0","3","","","","","","","",""
"pit-trial","62","547633","0.0-2.0-14.0-3.0","battery-v0.2","","""event"",""trial"",""time""
""fullscreenenter"",""1"",""2089""
","
","
","""event"",""trial"",""time""
""fullscreenenter"",""1"",""2089""
","
","","","-1","","","14","5216","2700","&#9826;","elianto","#f73b6a7A","-1","-1","1","-10","[]","0","0","3","","","","","","","",""
"pit-trial","63","552490","0.0-2.0-14.0-4.0","battery-v0.2","","""event"",""trial"",""time""
""fullscreenenter"",""1"",""2089""
","
","
","""event"",""trial"",""time""
""fullscreenenter"",""1"",""2089""
","
","","","-1","","","14","5216","2700","&#9826;","elianto","#f73b6a7A","-1","-1","1","0","[]","0","0","3","","","","","","","",""
"pit-trial","64","557346","0.0-2.0-14.1-0.1","battery-v0.2","","""event"",""trial"",""time""
""fullscreenenter"",""1"",""2089""
","
","
","""event"",""trial"",""time""
""fullscreenenter"",""1"",""2089""
","
","","","-1","","","14","5216","2700","&#9826;","elianto","#f73b6a7A","-1","-1","1","0","[]","0","0","3","","","","","","","",""
"pit-trial","65","562204","0.0-2.0-14.1-1.1","battery-v0.2","","""event"",""trial"",""time""
""fullscreenenter"",""1"",""2089""
","
","
","""event"",""trial"",""time""
""fullscreenenter"",""1"",""2089""
","
","","","-1","","","14","5216","2700","&#9826;","elianto","#f73b6a7A","-1","-1","1","0","[]","0","0","3","","","","","","","",""
"pit-trial","66","566216","0.0-2.0-14.1-2.1","battery-v0.2","","""event"",""trial"",""time""
""fullscreenenter"",""1"",""2089""
","
","
","""event"",""trial"",""time""
""fullscreenenter"",""1"",""2089""
","
","","","1155.9999999998836","","","14","5216","2700","&#9826;","elianto","#f73b6a7A","-1"," ","0","-10","[2005.9999999998836]","1","0","3","","","","","","","",""
"pit-trial","67","571072","0.0-2.0-14.1-3.1","battery-v0.2","","""event"",""trial"",""time""
""fullscreenenter"",""1"",""2089""
","
","
","""event"",""trial"",""time""
""fullscreenenter"",""1"",""2089""
","
","","","-1","","","14","5216","2700","&#9826;","elianto","#f73b6a7A","-1","-1","1","-10","[]","0","0","3","","","","","","","",""
"pit-trial","68","575927","0.0-2.0-14.1-4.1","battery-v0.2","","""event"",""trial"",""time""
""fullscreenenter"",""1"",""2089""
","
","
","""event"",""trial"",""time""
""fullscreenenter"",""1"",""2089""
","
","","","-1","","","14","5216","2700","&#9826;","elianto","#f73b6a7A","-1","-1","1","0","[]","0","0","3","","","","","","","",""
"pit-trial","69","580783","0.0-2.0-14.2-0.2","battery-v0.2","","""event"",""trial"",""time""
""fullscreenenter"",""1"",""2089""
","
","
","""event"",""trial"",""time""
""fullscreenenter"",""1"",""2089""
","
","","","-1","","","14","5216","2700","&#9826;","elianto","#f73b6a7A","-1","-1","1","0","[]","0","0","3","","","","","","","",""
"pit-trial","70","585639","0.0-2.0-14.2-1.2","battery-v0.2","","""event"",""trial"",""time""
""fullscreenenter"",""1"",""2089""
","
","
","""event"",""trial"",""time""
""fullscreenenter"",""1"",""2089""
","
","","","-1","","","14","5216","2700","&#9826;","elianto","#f73b6a7A","-1","-1","1","0","[]","0","0","3","","","","","","","",""
"pit-trial","71","590496","0.0-2.0-14.2-2.2","battery-v0.2","","""event"",""trial"",""time""
""fullscreenenter"",""1"",""2089""
","
","
","""event"",""trial"",""time""
""fullscreenenter"",""1"",""2089""
","
","","","-1","","","14","5216","2700","&#9826;","elianto","#f73b6a7A","-1","-1","1","0","[]","0","0","3","","","","","","","",""
"pit-trial","72","595352","0.0-2.0-14.2-3.2","battery-v0.2","","""event"",""trial"",""time""
""fullscreenenter"",""1"",""2089""
","
","
","""event"",""trial"",""time""
""fullscreenenter"",""1"",""2089""
","
","","","-1","","","14","5216","2700","&#9826;","elianto","#f73b6a7A","-1","-1","1","-10","[]","0","0","3","","","","","","","",""
"pit-trial","73","600208","0.0-2.0-14.2-4.2","battery-v0.2","","""event"",""trial"",""time""
""fullscreenenter"",""1"",""2089""
","
","
","""event"",""trial"",""time""
""fullscreenenter"",""1"",""2089""
","
","","","-1","","","14","5216","2700","&#9826;","elianto","#f73b6a7A","-1","-1","1","0","[]","0","0","3","","","","","","","",""
"pit-trial","74","605065","0.0-2.0-14.3-0.3","battery-v0.2","","""event"",""trial"",""time""
""fullscreenenter"",""1"",""2089""
","
","
","""event"",""trial"",""time""
""fullscreenenter"",""1"",""2089""
","
","","","-1","","","14","5216","2700","&#9826;","elianto","#f73b6a7A","-1","-1","1","0","[]","0","0","3","","","","","","","",""
"pit-trial","75","609921","0.0-2.0-14.3-1.3","battery-v0.2","","""event"",""trial"",""time""
""fullscreenenter"",""1"",""2089""
","
","
","""event"",""trial"",""time""
""fullscreenenter"",""1"",""2089""
","
","","","-1","","","14","5216","2700","&#9826;","elianto","#f73b6a7A","-1","-1","1","0","[]","0","0","3","","","","","","","",""
"pit-trial","76","614776","0.0-2.0-14.3-2.3","battery-v0.2","","""event"",""trial"",""time""
""fullscreenenter"",""1"",""2089""
","
","
","""event"",""trial"",""time""
""fullscreenenter"",""1"",""2089""
","
","","","-1","","","14","5216","2700","&#9826;","elianto","#f73b6a7A","-1","-1","1","0","[]","0","0","3","","","","","","","",""
"pit-trial","77","619632","0.0-2.0-14.3-3.3","battery-v0.2","","""event"",""trial"",""time""
""fullscreenenter"",""1"",""2089""
","
","
","""event"",""trial"",""time""
""fullscreenenter"",""1"",""2089""
","
","","","-1","","","14","5216","2700","&#9826;","elianto","#f73b6a7A","-1","-1","1","-10","[]","0","0","3","","","","","","","",""
"pit-trial","78","624488","0.0-2.0-14.3-4.3","battery-v0.2","","""event"",""trial"",""time""
""fullscreenenter"",""1"",""2089""
","
","
","""event"",""trial"",""time""
""fullscreenenter"",""1"",""2089""
","
","","","-1","","","14","5216","2700","&#9826;","elianto","#f73b6a7A","-1","-1","1","0","[]","0","0","3","","","","","","","",""
"call-function","79","624492","0.0-2.0-15.0","battery-v0.2","","""event"",""trial"",""time""
""fullscreenenter"",""1"",""2089""
","
","
","""event"",""trial"",""time""
""fullscreenenter"",""1"",""2089""
","
","","","","","","","","","","","","","","","","","","","","","","","","","","",""
"pit-instructions","80","674471","0.0-2.0-16.0","battery-v0.2","","""event"",""trial"",""time""
""fullscreenenter"",""1"",""2089""
","
","
","""event"",""trial"",""time""
""fullscreenenter"",""1"",""2089""
","
","","[{""page_index"":0,""viewing_time"":25544},{""page_index"":1,""viewing_time"":8433},{""page_index"":2,""viewing_time"":5001},{""page_index"":3,""viewing_time"":11001}]","49980","","","","","","","","","","","","","","","","","","","","","","","",""
"pit-trial","81","678276","0.0-2.0-17.0-0.0","battery-v0.2","","""event"",""trial"",""time""
""fullscreenenter"",""1"",""2089""
","
","
","""event"",""trial"",""time""
""fullscreenenter"",""1"",""2089""
","
","","","948","","","14","5216","2700","&#9789;","elianto","#f73b6a7A"," "," ","1","0","[1798]","1","0","4","","","","","","","",""
"pit-trial","82","682150","0.0-2.0-17.0-1.0","battery-v0.2","","""event"",""trial"",""time""
""fullscreenenter"",""1"",""2089""
","
","
","""event"",""trial"",""time""
""fullscreenenter"",""1"",""2089""
","
","","","1019","","","14","5216","2700","&#9789;","elianto","#f73b6a7A"," "," ","1","0","[1870]","1","0","4","","","","","","","",""
"pit-trial","83","686195","0.0-2.0-17.0-2.0","battery-v0.2","","""event"",""trial"",""time""
""fullscreenenter"",""1"",""2089""
","
","
","""event"",""trial"",""time""
""fullscreenenter"",""1"",""2089""
","
","","","1188","","","14","5216","2700","&#9789;","elianto","#f73b6a7A"," "," ","1","0","[2039]","1","0","4","","","","","","","",""
"pit-trial","84","690516","0.0-2.0-17.0-3.0","battery-v0.2","","""event"",""trial"",""time""
""fullscreenenter"",""1"",""2089""
","
","
","""event"",""trial"",""time""
""fullscreenenter"",""1"",""2089""
","
","","","1465","","","14","5216","2700","&#9789;","elianto","#f73b6a7A"," "," ","1","-10","[2314.9999999998836]","1","0","4","","","","","","","",""
"pit-trial","85","694333","0.0-2.0-17.0-4.0","battery-v0.2","","""event"",""trial"",""time""
""fullscreenenter"",""1"",""2089""
","
","
","""event"",""trial"",""time""
""fullscreenenter"",""1"",""2089""
","
","","","959.9999999998836","","","14","5216","2700","&#9789;","elianto","#f73b6a7A"," "," ","1","0","[1812]","1","0","4","","","","","","","",""
"pit-trial","86","697979","0.0-2.0-17.1-0.1","battery-v0.2","","""event"",""trial"",""time""
""fullscreenenter"",""1"",""2089""
","
","
","""event"",""trial"",""time""
""fullscreenenter"",""1"",""2089""
","
","","","788.0000000001164","","","14","5216","2700","&#9789;","elianto","#f73b6a7A"," "," ","1","0","[1638.0000000001164]","1","0","4","","","","","","","",""
"pit-trial","87","702681","0.0-2.0-17.1-1.1","battery-v0.2","","""event"",""trial"",""time""
""fullscreenenter"",""1"",""2089""
","
","
","""event"",""trial"",""time""
""fullscreenenter"",""1"",""2089""
","
","","","1846.0000000001164","","","14","5216","2700","&#9789;","elianto","#f73b6a7A"," "," ","1","0","[2697.0000000001164]","1","0","4","","","","","","","",""
"pit-trial","88","706472","0.0-2.0-17.1-2.1","battery-v0.2","","""event"",""trial"",""time""
""fullscreenenter"",""1"",""2089""
","
","
","""event"",""trial"",""time""
""fullscreenenter"",""1"",""2089""
","
","","","936","","","14","5216","2700","&#9789;","elianto","#f73b6a7A"," "," ","1","0","[1787]","1","0","4","","","","","","","",""
"pit-trial","89","710656","0.0-2.0-17.1-3.1","battery-v0.2","","""event"",""trial"",""time""
""fullscreenenter"",""1"",""2089""
","
","
","""event"",""trial"",""time""
""fullscreenenter"",""1"",""2089""
","
","","","1329.0000000001164","","","14","5216","2700","&#9789;","elianto","#f73b6a7A"," "," ","1","-10","[2178]","1","0","4","","","","","","","",""
"pit-trial","90","715221","0.0-2.0-17.1-4.1","battery-v0.2","","""event"",""trial"",""time""
""fullscreenenter"",""1"",""2089""
","
","
","""event"",""trial"",""time""
""fullscreenenter"",""1"",""2089""
","
","","","1709","","","14","5216","2700","&#9789;","elianto","#f73b6a7A"," "," ","1","0","[2560]","1","0","4","","","","","","","",""
"pit-trial","91","718990","0.0-2.0-17.2-0.2","battery-v0.2","","""event"",""trial"",""time""
""fullscreenenter"",""1"",""2089""
","
","
","""event"",""trial"",""time""
""fullscreenenter"",""1"",""2089""
","
","","","911.9999999998836","","","14","5216","2700","&#9789;","elianto","#f73b6a7A"," "," ","1","0","[1762]","1","0","4","","","","","","","",""
"pit-trial","92","723018","0.0-2.0-17.2-1.2","battery-v0.2","","""event"",""trial"",""time""
""fullscreenenter"",""1"",""2089""
","
","
","""event"",""trial"",""time""
""fullscreenenter"",""1"",""2089""
","
","","","1172","","","14","5216","2700","&#9789;","elianto","#f73b6a7A"," "," ","1","0","[2022]","1","0","4","","","","","","","",""
"pit-trial","93","727086","0.0-2.0-17.2-2.2","battery-v0.2","","""event"",""trial"",""time""
""fullscreenenter"",""1"",""2089""
","
","
","""event"",""trial"",""time""
""fullscreenenter"",""1"",""2089""
","
","","","1214","","","14","5216","2700","&#9789;","elianto","#f73b6a7A"," "," ","1","0","[2064]","1","0","4","","","","","","","",""
"pit-trial","94","731045","0.0-2.0-17.2-3.2","battery-v0.2","","""event"",""trial"",""time""
""fullscreenenter"",""1"",""2089""
","
","
","""event"",""trial"",""time""
""fullscreenenter"",""1"",""2089""
","
","","","1103","","","14","5216","2700","&#9789;","elianto","#f73b6a7A"," "," ","1","-10","[1954]","1","0","4","","","","","","","",""
"pit-trial","95","735743","0.0-2.0-17.2-4.2","battery-v0.2","","""event"",""trial"",""time""
""fullscreenenter"",""1"",""2089""
","
","
","""event"",""trial"",""time""
""fullscreenenter"",""1"",""2089""
","
","","","1842","","","14","5216","2700","&#9789;","elianto","#f73b6a7A"," "," ","1","0","[2693]","1","0","4","","","","","","","",""
"pit-trial","96","740017","0.0-2.0-17.3-0.3","battery-v0.2","","""event"",""trial"",""time""
""fullscreenenter"",""1"",""2089""
","
","
","""event"",""trial"",""time""
""fullscreenenter"",""1"",""2089""
","
","","","1419","","","14","5216","2700","&#9789;","elianto","#f73b6a7A"," "," ","1","0","[2269]","1","0","4","","","","","","","",""
"pit-trial","97","744076","0.0-2.0-17.3-1.3","battery-v0.2","","""event"",""trial"",""time""
""fullscreenenter"",""1"",""2089""
","
","
","""event"",""trial"",""time""
""fullscreenenter"",""1"",""2089""
","
","","","1203","","","14","5216","2700","&#9789;","elianto","#f73b6a7A"," "," ","1","0","[2054]","1","0","4","","","","","","","",""
"pit-trial","98","747904","0.0-2.0-17.3-2.3","battery-v0.2","","""event"",""trial"",""time""
""fullscreenenter"",""1"",""2089""
","
","
","""event"",""trial"",""time""
""fullscreenenter"",""1"",""2089""
","
","","","973","","","14","5216","2700","&#9789;","elianto","#f73b6a7A"," "," ","1","0","[1823]","1","0","4","","","","","","","",""
"pit-trial","99","751764","0.0-2.0-17.3-3.3","battery-v0.2","","""event"",""trial"",""time""
""fullscreenenter"",""1"",""2089""
","
","
","""event"",""trial"",""time""
""fullscreenenter"",""1"",""2089""
","
","","","1002","","","14","5216","2700","&#9789;","elianto","#f73b6a7A"," "," ","1","-10","[1855]","1","0","4","","","","","","","",""
"pit-trial","100","755578","0.0-2.0-17.3-4.3","battery-v0.2","","""event"",""trial"",""time""
""fullscreenenter"",""1"",""2089""
","
","
","""event"",""trial"",""time""
""fullscreenenter"",""1"",""2089""
","
","","","957.9999999998836","","","14","5216","2700","&#9789;","elianto","#f73b6a7A"," "," ","1","0","[1808.9999999998836]","1","0","4","","","","","","","",""
"call-function","101","755584","0.0-2.0-18.0","battery-v0.2","","""event"",""trial"",""time""
""fullscreenenter"",""1"",""2089""
""blur"",""102"",""800226""
""focus"",""102"",""800772""
""blur"",""102"",""800802""
""focus"",""102"",""801264""
","""event"",""trial"",""time""
""blur"",""102"",""800226""
""blur"",""102"",""800802""
","""event"",""trial"",""time""
""focus"",""102"",""800772""
""focus"",""102"",""801264""
","""event"",""trial"",""time""
""fullscreenenter"",""1"",""2089""
","
","","","","","","","","","","","","","","","","","","","","","","","","","","",""
"pit-instructions","102","822055","0.0-2.0-19.0","battery-v0.2","","""event"",""trial"",""time""
""fullscreenenter"",""1"",""2089""
""blur"",""102"",""800226""
""focus"",""102"",""800772""
""blur"",""102"",""800802""
""focus"",""102"",""801264""
","""event"",""trial"",""time""
""blur"",""102"",""800226""
""blur"",""102"",""800802""
","""event"",""trial"",""time""
""focus"",""102"",""800772""
""focus"",""102"",""801264""
","""event"",""trial"",""time""
""fullscreenenter"",""1"",""2089""
","
","","[{""page_index"":0,""viewing_time"":7630.000000000116},{""page_index"":1,""viewing_time"":5514.999999999884},{""page_index"":2,""viewing_time"":13202},{""page_index"":3,""viewing_time"":4850},{""page_index"":4,""viewing_time"":6319},{""page_index"":5,""viewing_time"":8668},{""page_index"":6,""viewing_time"":8168},{""page_index"":7,""viewing_time"":7483},{""page_index"":8,""viewing_time"":4637}]","66473","","","","","","","","","","","","","","","","","","","","","","","",""
"pit-comprehension","103","826456","0.0-2.0-20.0-0.0","battery-v0.2","","""event"",""trial"",""time""
""fullscreenenter"",""1"",""2089""
""blur"",""102"",""800226""
""focus"",""102"",""800772""
""blur"",""102"",""800802""
""focus"",""102"",""801264""
","""event"",""trial"",""time""
""blur"",""102"",""800226""
""blur"",""102"",""800802""
","""event"",""trial"",""time""
""focus"",""102"",""800772""
""focus"",""102"",""801264""
","""event"",""trial"",""time""
""fullscreenenter"",""1"",""2089""
","
","","","4397","[""SPACE""]","0","14","5216","2700","","","","","","","","","","","","","","","","","","",""
"pit-instructions","104","830520","0.0-2.0-20.0-1.0","battery-v0.2","","""event"",""trial"",""time""
""fullscreenenter"",""1"",""2089""
""blur"",""102"",""800226""
""focus"",""102"",""800772""
""blur"",""102"",""800802""
""focus"",""102"",""801264""
","""event"",""trial"",""time""
""blur"",""102"",""800226""
""blur"",""102"",""800802""
","""event"",""trial"",""time""
""focus"",""102"",""800772""
""focus"",""102"",""801264""
","""event"",""trial"",""time""
""fullscreenenter"",""1"",""2089""
","
","","[{""page_index"":0,""viewing_time"":4030}]","4031.0000000001164","","","","","","","","","","","","","","","","","","","","","","","",""
"pit-comprehension","105","836942","0.0-2.0-21.0-0.0","battery-v0.2","","""event"",""trial"",""time""
""fullscreenenter"",""1"",""2089""
""blur"",""102"",""800226""
""focus"",""102"",""800772""
""blur"",""102"",""800802""
""focus"",""102"",""801264""
","""event"",""trial"",""time""
""blur"",""102"",""800226""
""blur"",""102"",""800802""
","""event"",""trial"",""time""
""focus"",""102"",""800772""
""focus"",""102"",""801264""
","""event"",""trial"",""time""
""fullscreenenter"",""1"",""2089""
","
","","","6415","[""10""]","0","14","5216","2700","","","","","","","","","","","","","","","","","","",""
"pit-instructions","106","841292","0.0-2.0-21.0-1.0","battery-v0.2","","""event"",""trial"",""time""
""fullscreenenter"",""1"",""2089""
""blur"",""102"",""800226""
""focus"",""102"",""800772""
""blur"",""102"",""800802""
""focus"",""102"",""801264""
","""event"",""trial"",""time""
""blur"",""102"",""800226""
""blur"",""102"",""800802""
","""event"",""trial"",""time""
""focus"",""102"",""800772""
""focus"",""102"",""801264""
","""event"",""trial"",""time""
""fullscreenenter"",""1"",""2089""
","
","","[{""page_index"":0,""viewing_time"":4320.000000000116}]","4323","","","","","","","","","","","","","","","","","","","","","","","",""
"pit-comprehension","107","848777","0.0-2.0-22.0-0.0","battery-v0.2","","""event"",""trial"",""time""
""fullscreenenter"",""1"",""2089""
""blur"",""102"",""800226""
""focus"",""102"",""800772""
""blur"",""102"",""800802""
""focus"",""102"",""801264""
","""event"",""trial"",""time""
""blur"",""102"",""800226""
""blur"",""102"",""800802""
","""event"",""trial"",""time""
""focus"",""102"",""800772""
""focus"",""102"",""801264""
","""event"",""trial"",""time""
""fullscreenenter"",""1"",""2089""
","
","","","7478","[""0""]","0","14","5216","2700","","","","","","","","","","","","","","","","","","",""
"pit-instructions","108","851391","0.0-2.0-22.0-1.0","battery-v0.2","","""event"",""trial"",""time""
""fullscreenenter"",""1"",""2089""
""blur"",""102"",""800226""
""focus"",""102"",""800772""
""blur"",""102"",""800802""
""focus"",""102"",""801264""
","""event"",""trial"",""time""
""blur"",""102"",""800226""
""blur"",""102"",""800802""
","""event"",""trial"",""time""
""focus"",""102"",""800772""
""focus"",""102"",""801264""
","""event"",""trial"",""time""
""fullscreenenter"",""1"",""2089""
","
","","[{""page_index"":0,""viewing_time"":2584}]","2585","","","","","","","","","","","","","","","","","","","","","","","",""
"pit-comprehension","109","861829","0.0-2.0-23.0-0.0","battery-v0.2","","""event"",""trial"",""time""
""fullscreenenter"",""1"",""2089""
""blur"",""102"",""800226""
""focus"",""102"",""800772""
""blur"",""102"",""800802""
""focus"",""102"",""801264""
","""event"",""trial"",""time""
""blur"",""102"",""800226""
""blur"",""102"",""800802""
","""event"",""trial"",""time""
""focus"",""102"",""800772""
""focus"",""102"",""801264""
","""event"",""trial"",""time""
""fullscreenenter"",""1"",""2089""
","
","","","10433.999999999884","[""True""]","0","14","5216","2700","","","","","","","","","","","","","","","","","","",""
"pit-instructions","110","865523","0.0-2.0-23.0-1.0","battery-v0.2","","""event"",""trial"",""time""
""fullscreenenter"",""1"",""2089""
""blur"",""102"",""800226""
""focus"",""102"",""800772""
""blur"",""102"",""800802""
""focus"",""102"",""801264""
","""event"",""trial"",""time""
""blur"",""102"",""800226""
""blur"",""102"",""800802""
","""event"",""trial"",""time""
""focus"",""102"",""800772""
""focus"",""102"",""801264""
","""event"",""trial"",""time""
""fullscreenenter"",""1"",""2089""
","
","","[{""page_index"":0,""viewing_time"":3664}]","3665","","","","","","","","","","","","","","","","","","","","","","","",""
"pit-comprehension","111","872845","0.0-2.0-24.0-0.0","battery-v0.2","","""event"",""trial"",""time""
""fullscreenenter"",""1"",""2089""
""blur"",""102"",""800226""
""focus"",""102"",""800772""
""blur"",""102"",""800802""
""focus"",""102"",""801264""
","""event"",""trial"",""time""
""blur"",""102"",""800226""
""blur"",""102"",""800802""
","""event"",""trial"",""time""
""focus"",""102"",""800772""
""focus"",""102"",""801264""
","""event"",""trial"",""time""
""fullscreenenter"",""1"",""2089""
","
","","","7315","[""True""]","0","14","5216","2700","","","","","","","","","","","","","","","","","","",""
"pit-instructions","112","874325","0.0-2.0-24.0-1.0","battery-v0.2","","""event"",""trial"",""time""
""fullscreenenter"",""1"",""2089""
""blur"",""102"",""800226""
""focus"",""102"",""800772""
""blur"",""102"",""800802""
""focus"",""102"",""801264""
","""event"",""trial"",""time""
""blur"",""102"",""800226""
""blur"",""102"",""800802""
","""event"",""trial"",""time""
""focus"",""102"",""800772""
""focus"",""102"",""801264""
","""event"",""trial"",""time""
""fullscreenenter"",""1"",""2089""
","
","","[{""page_index"":0,""viewing_time"":1451}]","1452","","","","","","","","","","","","","","","","","","","","","","","",""
"pit-comprehension","113","881544","0.0-2.0-25.0-0.0","battery-v0.2","","""event"",""trial"",""time""
""fullscreenenter"",""1"",""2089""
""blur"",""102"",""800226""
""focus"",""102"",""800772""
""blur"",""102"",""800802""
""focus"",""102"",""801264""
","""event"",""trial"",""time""
""blur"",""102"",""800226""
""blur"",""102"",""800802""
","""event"",""trial"",""time""
""focus"",""102"",""800772""
""focus"",""102"",""801264""
","""event"",""trial"",""time""
""fullscreenenter"",""1"",""2089""
","
","","","7214","[""True""]","0","14","5216","2700","","","","","","","","","","","","","","","","","","",""
"pit-instructions","114","883261","0.0-2.0-25.0-1.0","battery-v0.2","","""event"",""trial"",""time""
""fullscreenenter"",""1"",""2089""
""blur"",""102"",""800226""
""focus"",""102"",""800772""
""blur"",""102"",""800802""
""focus"",""102"",""801264""
","""event"",""trial"",""time""
""blur"",""102"",""800226""
""blur"",""102"",""800802""
","""event"",""trial"",""time""
""focus"",""102"",""800772""
""focus"",""102"",""801264""
","""event"",""trial"",""time""
""fullscreenenter"",""1"",""2089""
","
","","[{""page_index"":0,""viewing_time"":1685}]","1686","","","","","","","","","","","","","","","","","","","","","","","",""
"pit-comprehension","115","887695","0.0-2.0-26.0-0.0","battery-v0.2","","""event"",""trial"",""time""
""fullscreenenter"",""1"",""2089""
""blur"",""102"",""800226""
""focus"",""102"",""800772""
""blur"",""102"",""800802""
""focus"",""102"",""801264""
","""event"",""trial"",""time""
""blur"",""102"",""800226""
""blur"",""102"",""800802""
","""event"",""trial"",""time""
""focus"",""102"",""800772""
""focus"",""102"",""801264""
","""event"",""trial"",""time""
""fullscreenenter"",""1"",""2089""
","
","","","4428","[""False""]","0","14","5216","2700","","","","","","","","","","","","","","","","","","",""
"pit-instructions","116","889676","0.0-2.0-26.0-1.0","battery-v0.2","","""event"",""trial"",""time""
""fullscreenenter"",""1"",""2089""
""blur"",""102"",""800226""
""focus"",""102"",""800772""
""blur"",""102"",""800802""
""focus"",""102"",""801264""
","""event"",""trial"",""time""
""blur"",""102"",""800226""
""blur"",""102"",""800802""
","""event"",""trial"",""time""
""focus"",""102"",""800772""
""focus"",""102"",""801264""
","""event"",""trial"",""time""
""fullscreenenter"",""1"",""2089""
","
","","[{""page_index"":0,""viewing_time"":1949}]","1950","","","","","","","","","","","","","","","","","","","","","","","",""
"pit-instructions","117","909927","0.0-3.0","battery-v0.2","","""event"",""trial"",""time""
""fullscreenenter"",""1"",""2089""
""blur"",""102"",""800226""
""focus"",""102"",""800772""
""blur"",""102"",""800802""
""focus"",""102"",""801264""
","""event"",""trial"",""time""
""blur"",""102"",""800226""
""blur"",""102"",""800802""
","""event"",""trial"",""time""
""focus"",""102"",""800772""
""focus"",""102"",""801264""
","""event"",""trial"",""time""
""fullscreenenter"",""1"",""2089""
","
","","[{""page_index"":0,""viewing_time"":3764},{""page_index"":1,""viewing_time"":5769},{""page_index"":2,""viewing_time"":10715}]","20248","","","","","","","","","","","","","","","","","","","","","","","",""
"pit-trial","118","913439","0.0-4.0","battery-v0.2","","""event"",""trial"",""time""
""fullscreenenter"",""1"",""2089""
""blur"",""102"",""800226""
""focus"",""102"",""800772""
""blur"",""102"",""800802""
""focus"",""102"",""801264""
","""event"",""trial"",""time""
""blur"",""102"",""800226""
""blur"",""102"",""800802""
","""event"",""trial"",""time""
""focus"",""102"",""800772""
""focus"",""102"",""801264""
","""event"",""trial"",""time""
""fullscreenenter"",""1"",""2089""
","
","","","649.9999999998836","","","14","5216","2700","&#9730;","elianto","#3366ff99"," "," ","1","+10","[1500.9999999998836]","1","1","","","5216","1","1","1","win","go","0"
"pit-trial","119","918295","0.0-5.0","battery-v0.2","","""event"",""trial"",""time""
""fullscreenenter"",""1"",""2089""
""blur"",""102"",""800226""
""focus"",""102"",""800772""
""blur"",""102"",""800802""
""focus"",""102"",""801264""
","""event"",""trial"",""time""
""blur"",""102"",""800226""
""blur"",""102"",""800802""
","""event"",""trial"",""time""
""focus"",""102"",""800772""
""focus"",""102"",""801264""
","""event"",""trial"",""time""
""fullscreenenter"",""1"",""2089""
","
","","","-1","","","14","5216","2700","&#9728;","elianto","#f73b6a7A","-1","-1","1","0","[]","0","1","","","5216","2","0","4","lose","no-go","0"
"pit-trial","120","922247","0.0-6.0","battery-v0.2","","""event"",""trial"",""time""
""fullscreenenter"",""1"",""2089""
""blur"",""102"",""800226""
""focus"",""102"",""800772""
""blur"",""102"",""800802""
""focus"",""102"",""801264""
","""event"",""trial"",""time""
""blur"",""102"",""800226""
""blur"",""102"",""800802""
","""event"",""trial"",""time""
""focus"",""102"",""800772""
""focus"",""102"",""801264""
","""event"",""trial"",""time""
""fullscreenenter"",""1"",""2089""
","
","","","1095","","","14","5216","2700","&#9752;","elianto","#f73b6a7A"," "," ","1","0","[1946]","1","1","","","5216","3","3","3","lose","go","0"
"pit-trial","121","925842","0.0-7.0","battery-v0.2","","""event"",""trial"",""time""
""fullscreenenter"",""1"",""2089""
""blur"",""102"",""800226""
""focus"",""102"",""800772""
""blur"",""102"",""800802""
""focus"",""102"",""801264""
","""event"",""trial"",""time""
""blur"",""102"",""800226""
""blur"",""102"",""800802""
","""event"",""trial"",""time""
""focus"",""102"",""800772""
""focus"",""102"",""801264""
","""event"",""trial"",""time""
""fullscreenenter"",""1"",""2089""
","
","","","739","","","14","5216","2700","&#9733;","elianto","#3366ff99","-1"," ","0","0","[1589]","1","1","","","5216","4","2","2","win","no-go","0"
"pit-trial","122","929917","0.0-8.0","battery-v0.2","","""event"",""trial"",""time""
""fullscreenenter"",""1"",""2089""
""blur"",""102"",""800226""
""focus"",""102"",""800772""
""blur"",""102"",""800802""
""focus"",""102"",""801264""
","""event"",""trial"",""time""
""blur"",""102"",""800226""
""blur"",""102"",""800802""
","""event"",""trial"",""time""
""focus"",""102"",""800772""
""focus"",""102"",""801264""
","""event"",""trial"",""time""
""fullscreenenter"",""1"",""2089""
","
","","","1215","","","14","5216","2700","&#9728;","elianto","#f73b6a7A","-1"," ","0","-10","[2065]","1","1","","","5216","5","0","4","lose","no-go","0"
"pit-trial","123","934181","0.0-9.0","battery-v0.2","","""event"",""trial"",""time""
""fullscreenenter"",""1"",""2089""
""blur"",""102"",""800226""
""focus"",""102"",""800772""
""blur"",""102"",""800802""
""focus"",""102"",""801264""
","""event"",""trial"",""time""
""blur"",""102"",""800226""
""blur"",""102"",""800802""
","""event"",""trial"",""time""
""focus"",""102"",""800772""
""focus"",""102"",""801264""
","""event"",""trial"",""time""
""fullscreenenter"",""1"",""2089""
","
","","","1406.0000000001164","","","14","5216","2700","&#9752;","elianto","#f73b6a7A"," "," ","1","0","[2257.0000000001164]","1","1","","","5216","6","3","3","lose","go","0"
"pit-trial","124","937733","0.0-10.0","battery-v0.2","","""event"",""trial"",""time""
""fullscreenenter"",""1"",""2089""
""blur"",""102"",""800226""
""focus"",""102"",""800772""
""blur"",""102"",""800802""
""focus"",""102"",""801264""
","""event"",""trial"",""time""
""blur"",""102"",""800226""
""blur"",""102"",""800802""
","""event"",""trial"",""time""
""focus"",""102"",""800772""
""focus"",""102"",""801264""
","""event"",""trial"",""time""
""fullscreenenter"",""1"",""2089""
","
","","","691","","","14","5216","2700","&#9730;","elianto","#3366ff99"," "," ","1","+10","[1542]","1","1","","","5216","7","1","1","win","go","0"
"pit-trial","125","941277","0.0-11.0","battery-v0.2","","""event"",""trial"",""time""
""fullscreenenter"",""1"",""2089""
""blur"",""102"",""800226""
""focus"",""102"",""800772""
""blur"",""102"",""800802""
""focus"",""102"",""801264""
","""event"",""trial"",""time""
""blur"",""102"",""800226""
""blur"",""102"",""800802""
","""event"",""trial"",""time""
""focus"",""102"",""800772""
""focus"",""102"",""801264""
","""event"",""trial"",""time""
""fullscreenenter"",""1"",""2089""
","
","","","686","","","14","5216","2700","&#9733;","elianto","#3366ff99","-1"," ","0","+10","[1537]","1","1","","","5216","8","2","2","win","no-go","1"
"pit-trial","126","944738","0.0-12.0","battery-v0.2","","""event"",""trial"",""time""
""fullscreenenter"",""1"",""2089""
""blur"",""102"",""800226""
""focus"",""102"",""800772""
""blur"",""102"",""800802""
""focus"",""102"",""801264""
","""event"",""trial"",""time""
""blur"",""102"",""800226""
""blur"",""102"",""800802""
","""event"",""trial"",""time""
""focus"",""102"",""800772""
""focus"",""102"",""801264""
","""event"",""trial"",""time""
""fullscreenenter"",""1"",""2089""
","
","","","602","","","14","5216","2700","&#9730;","elianto","#3366ff99"," "," ","1","+10","[1452]","1","1","","","5216","9","1","1","win","go","0"
"pit-trial","127","949596","0.0-13.0","battery-v0.2","","""event"",""trial"",""time""
""fullscreenenter"",""1"",""2089""
""blur"",""102"",""800226""
""focus"",""102"",""800772""
""blur"",""102"",""800802""
""focus"",""102"",""801264""
","""event"",""trial"",""time""
""blur"",""102"",""800226""
""blur"",""102"",""800802""
","""event"",""trial"",""time""
""focus"",""102"",""800772""
""focus"",""102"",""801264""
","""event"",""trial"",""time""
""fullscreenenter"",""1"",""2089""
","
","","","-1","","","14","5216","2700","&#9728;","elianto","#f73b6a7A","-1","-1","1","0","[]","0","1","","","5216","10","0","4","lose","no-go","0"
"pit-trial","128","953103","0.0-14.0","battery-v0.2","","""event"",""trial"",""time""
""fullscreenenter"",""1"",""2089""
""blur"",""102"",""800226""
""focus"",""102"",""800772""
""blur"",""102"",""800802""
""focus"",""102"",""801264""
","""event"",""trial"",""time""
""blur"",""102"",""800226""
""blur"",""102"",""800802""
","""event"",""trial"",""time""
""focus"",""102"",""800772""
""focus"",""102"",""801264""
","""event"",""trial"",""time""
""fullscreenenter"",""1"",""2089""
","
","","","647","","","14","5216","2700","&#9733;","elianto","#3366ff99","-1"," ","0","+10","[1498]","1","1","","","5216","11","2","2","win","no-go","1"
"pit-trial","129","957115","0.0-15.0","battery-v0.2","","""event"",""trial"",""time""
""fullscreenenter"",""1"",""2089""
""blur"",""102"",""800226""
""focus"",""102"",""800772""
""blur"",""102"",""800802""
""focus"",""102"",""801264""
","""event"",""trial"",""time""
""blur"",""102"",""800226""
""blur"",""102"",""800802""
","""event"",""trial"",""time""
""focus"",""102"",""800772""
""focus"",""102"",""801264""
","""event"",""trial"",""time""
""fullscreenenter"",""1"",""2089""
","
","","","1149.9999999998836","","","14","5216","2700","&#9752;","elianto","#f73b6a7A"," "," ","1","0","[2002]","1","1","","","5216","12","3","3","lose","go","0"
"pit-trial","130","960889","0.0-16.0","battery-v0.2","","""event"",""trial"",""time""
""fullscreenenter"",""1"",""2089""
""blur"",""102"",""800226""
""focus"",""102"",""800772""
""blur"",""102"",""800802""
""focus"",""102"",""801264""
","""event"",""trial"",""time""
""blur"",""102"",""800226""
""blur"",""102"",""800802""
","""event"",""trial"",""time""
""focus"",""102"",""800772""
""focus"",""102"",""801264""
","""event"",""trial"",""time""
""fullscreenenter"",""1"",""2089""
","
","","","915","","","14","5216","2700","&#9752;","elianto","#f73b6a7A"," "," ","1","-10","[1767]","1","1","","","5216","13","3","3","lose","go","1"
"pit-trial","131","965748","0.0-17.0","battery-v0.2","","""event"",""trial"",""time""
""fullscreenenter"",""1"",""2089""
""blur"",""102"",""800226""
""focus"",""102"",""800772""
""blur"",""102"",""800802""
""focus"",""102"",""801264""
","""event"",""trial"",""time""
""blur"",""102"",""800226""
""blur"",""102"",""800802""
","""event"",""trial"",""time""
""focus"",""102"",""800772""
""focus"",""102"",""801264""
","""event"",""trial"",""time""
""fullscreenenter"",""1"",""2089""
","
","","","-1","","","14","5216","2700","&#9733;","elianto","#3366ff99","-1","-1","1","+10","[2991.0000000001164]","1","1","","","5216","14","2","2","win","no-go","0"
"pit-trial","132","970361","0.0-18.0","battery-v0.2","","""event"",""trial"",""time""
""fullscreenenter"",""1"",""2089""
""blur"",""102"",""800226""
""focus"",""102"",""800772""
""blur"",""102"",""800802""
""focus"",""102"",""801264""
","""event"",""trial"",""time""
""blur"",""102"",""800226""
""blur"",""102"",""800802""
","""event"",""trial"",""time""
""focus"",""102"",""800772""
""focus"",""102"",""801264""
","""event"",""trial"",""time""
""fullscreenenter"",""1"",""2089""
","
","","","1757","","","14","5216","2700","&#9730;","elianto","#3366ff99"," "," ","1","+10","[2607]","1","1","","","5216","15","1","1","win","go","0"
"pit-trial","133","974205","0.0-19.0","battery-v0.2","","""event"",""trial"",""time""
""fullscreenenter"",""1"",""2089""
""blur"",""102"",""800226""
""focus"",""102"",""800772""
""blur"",""102"",""800802""
""focus"",""102"",""801264""
","""event"",""trial"",""time""
""blur"",""102"",""800226""
""blur"",""102"",""800802""
","""event"",""trial"",""time""
""focus"",""102"",""800772""
""focus"",""102"",""801264""
","""event"",""trial"",""time""
""fullscreenenter"",""1"",""2089""
","
","","","985.9999999998836","","","14","5216","2700","&#9728;","elianto","#f73b6a7A","-1"," ","0","-10","[1836]","1","1","","","5216","16","0","4","lose","no-go","0"
"pit-trial","134","977757","0.0-20.0","battery-v0.2","","""event"",""trial"",""time""
""fullscreenenter"",""1"",""2089""
""blur"",""102"",""800226""
""focus"",""102"",""800772""
""blur"",""102"",""800802""
""focus"",""102"",""801264""
","""event"",""trial"",""time""
""blur"",""102"",""800226""
""blur"",""102"",""800802""
","""event"",""trial"",""time""
""focus"",""102"",""800772""
""focus"",""102"",""801264""
","""event"",""trial"",""time""
""fullscreenenter"",""1"",""2089""
","
","","","694.0000000001164","","","14","5216","2700","&#9752;","elianto","#f73b6a7A"," "," ","1","0","[1544.0000000001164]","1","1","","","5216","17","3","3","lose","go","0"
"pit-trial","135","980990","0.0-21.0","battery-v0.2","","""event"",""trial"",""time""
""fullscreenenter"",""1"",""2089""
""blur"",""102"",""800226""
""focus"",""102"",""800772""
""blur"",""102"",""800802""
""focus"",""102"",""801264""
","""event"",""trial"",""time""
""blur"",""102"",""800226""
""blur"",""102"",""800802""
","""event"",""trial"",""time""
""focus"",""102"",""800772""
""focus"",""102"",""801264""
","""event"",""trial"",""time""
""fullscreenenter"",""1"",""2089""
","
","","","372.9999999998836","","","14","5216","2700","&#9730;","elianto","#3366ff99"," "," ","1","+10","[1226]","1","1","","","5216","18","1","1","win","go","0"
"pit-trial","136","984370","0.0-22.0","battery-v0.2","","""event"",""trial"",""time""
""fullscreenenter"",""1"",""2089""
""blur"",""102"",""800226""
""focus"",""102"",""800772""
""blur"",""102"",""800802""
""focus"",""102"",""801264""
","""event"",""trial"",""time""
""blur"",""102"",""800226""
""blur"",""102"",""800802""
","""event"",""trial"",""time""
""focus"",""102"",""800772""
""focus"",""102"",""801264""
","""event"",""trial"",""time""
""fullscreenenter"",""1"",""2089""
","
","","","519","","","14","5216","2700","&#9733;","elianto","#3366ff99","-1"," ","0","0","[1370]","1","1","","","5216","19","2","2","win","no-go","0"
"pit-trial","137","987974","0.0-23.0","battery-v0.2","","""event"",""trial"",""time""
""fullscreenenter"",""1"",""2089""
""blur"",""102"",""800226""
""focus"",""102"",""800772""
""blur"",""102"",""800802""
""focus"",""102"",""801264""
","""event"",""trial"",""time""
""blur"",""102"",""800226""
""blur"",""102"",""800802""
","""event"",""trial"",""time""
""focus"",""102"",""800772""
""focus"",""102"",""801264""
","""event"",""trial"",""time""
""fullscreenenter"",""1"",""2089""
","
","","","745","","","14","5216","2700","&#9728;","elianto","#f73b6a7A","-1"," ","0","-10","[1596]","1","1","","","5216","20","0","4","lose","no-go","0"
"pit-instructions","138","1000704","0.0-24.0","battery-v0.2","","""event"",""trial"",""time""
""fullscreenenter"",""1"",""2089""
""blur"",""102"",""800226""
""focus"",""102"",""800772""
""blur"",""102"",""800802""
""focus"",""102"",""801264""
","""event"",""trial"",""time""
""blur"",""102"",""800226""
""blur"",""102"",""800802""
","""event"",""trial"",""time""
""focus"",""102"",""800772""
""focus"",""102"",""801264""
","""event"",""trial"",""time""
""fullscreenenter"",""1"",""2089""
","
","","[{""page_index"":0,""viewing_time"":5438},{""page_index"":1,""viewing_time"":7283.999999999884}]","12722.999999999884","","","","","","","","","","","","","","","","","","","","","","","",""
"pit-trial","139","1004284","0.0-25.0","battery-v0.2","","""event"",""trial"",""time""
""fullscreenenter"",""1"",""2089""
""blur"",""102"",""800226""
""focus"",""102"",""800772""
""blur"",""102"",""800802""
""focus"",""102"",""801264""
","""event"",""trial"",""time""
""blur"",""102"",""800226""
""blur"",""102"",""800802""
","""event"",""trial"",""time""
""focus"",""102"",""800772""
""focus"",""102"",""801264""
","""event"",""trial"",""time""
""fullscreenenter"",""1"",""2089""
","
","","","721","","","14","5216","2700","y","elianto","#f73b6a7A"," "," ","1","0","[1570.9999999998836]","1","2","","","5216","21","2","3","lose","go","0"
"pit-trial","140","1007640","0.0-26.0","battery-v0.2","","""event"",""trial"",""time""
""fullscreenenter"",""1"",""2089""
""blur"",""102"",""800226""
""focus"",""102"",""800772""
""blur"",""102"",""800802""
""focus"",""102"",""801264""
","""event"",""trial"",""time""
""blur"",""102"",""800226""
""blur"",""102"",""800802""
","""event"",""trial"",""time""
""focus"",""102"",""800772""
""focus"",""102"",""801264""
","""event"",""trial"",""time""
""fullscreenenter"",""1"",""2089""
","
","","","498","","","14","5216","2700","m","elianto","#f73b6a7A"," "," ","1","0","[1348]","1","2","","","5216","22","0","3","lose","go","0"
"pit-trial","141","1011481","0.0-27.0","battery-v0.2","","""event"",""trial"",""time""
""fullscreenenter"",""1"",""2089""
""blur"",""102"",""800226""
""focus"",""102"",""800772""
""blur"",""102"",""800802""
""focus"",""102"",""801264""
","""event"",""trial"",""time""
""blur"",""102"",""800226""
""blur"",""102"",""800802""
","""event"",""trial"",""time""
""focus"",""102"",""800772""
""focus"",""102"",""801264""
","""event"",""trial"",""time""
""fullscreenenter"",""1"",""2089""
","
","","","983","","","14","5216","2700","r","elianto","#3366ff99","-1"," ","0","+10","[1834]","1","2","","","5216","23","1","2","win","no-go","1"
"pit-trial","142","1014879","0.0-28.0","battery-v0.2","","""event"",""trial"",""time""
""fullscreenenter"",""1"",""2089""
""blur"",""102"",""800226""
""focus"",""102"",""800772""
""blur"",""102"",""800802""
""focus"",""102"",""801264""
","""event"",""trial"",""time""
""blur"",""102"",""800226""
""blur"",""102"",""800802""
","""event"",""trial"",""time""
""focus"",""102"",""800772""
""focus"",""102"",""801264""
","""event"",""trial"",""time""
""fullscreenenter"",""1"",""2089""
","
","","","540","","","14","5216","2700","h","elianto","#f73b6a7A","-1"," ","0","-10","[1390]","1","2","","","5216","24","3","4","lose","no-go","0"
"pit-trial","143","1018338","0.0-29.0","battery-v0.2","","""event"",""trial"",""time""
""fullscreenenter"",""1"",""2089""
""blur"",""102"",""800226""
""focus"",""102"",""800772""
""blur"",""102"",""800802""
""focus"",""102"",""801264""
","""event"",""trial"",""time""
""blur"",""102"",""800226""
""blur"",""102"",""800802""
","""event"",""trial"",""time""
""focus"",""102"",""800772""
""focus"",""102"",""801264""
","""event"",""trial"",""time""
""fullscreenenter"",""1"",""2089""
","
","","","600.0000000001164","","","14","5216","2700","r","elianto","#3366ff99","-1"," ","0","+10","[1451.0000000001164]","1","2","","","5216","25","1","2","win","no-go","1"
"pit-trial","144","1023196","0.0-30.0","battery-v0.2","","""event"",""trial"",""time""
""fullscreenenter"",""1"",""2089""
""blur"",""102"",""800226""
""focus"",""102"",""800772""
""blur"",""102"",""800802""
""focus"",""102"",""801264""
","""event"",""trial"",""time""
""blur"",""102"",""800226""
""blur"",""102"",""800802""
","""event"",""trial"",""time""
""focus"",""102"",""800772""
""focus"",""102"",""801264""
","""event"",""trial"",""time""
""fullscreenenter"",""1"",""2089""
","
","","","-1","","","14","5216","2700","h","elianto","#f73b6a7A","-1","-1","1","-10","[]","0","2","","","5216","26","3","4","lose","no-go","1"
"pit-trial","145","1026644","0.0-31.0","battery-v0.2","","""event"",""trial"",""time""
""fullscreenenter"",""1"",""2089""
""blur"",""102"",""800226""
""focus"",""102"",""800772""
""blur"",""102"",""800802""
""focus"",""102"",""801264""
","""event"",""trial"",""time""
""blur"",""102"",""800226""
""blur"",""102"",""800802""
","""event"",""trial"",""time""
""focus"",""102"",""800772""
""focus"",""102"",""801264""
","""event"",""trial"",""time""
""fullscreenenter"",""1"",""2089""
","
","","","590.0000000001164","","","14","5216","2700","y","elianto","#f73b6a7A"," "," ","1","0","[1440.0000000001164]","1","2","","","5216","27","2","3","lose","go","0"
"pit-trial","146","1030207","0.0-32.0","battery-v0.2","","""event"",""trial"",""time""
""fullscreenenter"",""1"",""2089""
""blur"",""102"",""800226""
""focus"",""102"",""800772""
""blur"",""102"",""800802""
""focus"",""102"",""801264""
","""event"",""trial"",""time""
""blur"",""102"",""800226""
""blur"",""102"",""800802""
","""event"",""trial"",""time""
""focus"",""102"",""800772""
""focus"",""102"",""801264""
","""event"",""trial"",""time""
""fullscreenenter"",""1"",""2089""
","
","","","704","","","14","5216","2700","m","elianto","#f73b6a7A"," "," ","1","0","[1554.9999999998836]","1","2","","","5216","28","0","3","lose","go","0"
"pit-trial","147","1035065","0.0-33.0","battery-v0.2","","""event"",""trial"",""time""
""fullscreenenter"",""1"",""2089""
""blur"",""102"",""800226""
""focus"",""102"",""800772""
""blur"",""102"",""800802""
""focus"",""102"",""801264""
","""event"",""trial"",""time""
""blur"",""102"",""800226""
""blur"",""102"",""800802""
","""event"",""trial"",""time""
""focus"",""102"",""800772""
""focus"",""102"",""801264""
","""event"",""trial"",""time""
""fullscreenenter"",""1"",""2089""
","
","","","-1","","","14","5216","2700","h","elianto","#f73b6a7A","-1","-1","1","0","[]","0","2","","","5216","29","3","4","lose","no-go","0"
"pit-trial","148","1039394","0.0-34.0","battery-v0.2","","""event"",""trial"",""time""
""fullscreenenter"",""1"",""2089""
""blur"",""102"",""800226""
""focus"",""102"",""800772""
""blur"",""102"",""800802""
""focus"",""102"",""801264""
","""event"",""trial"",""time""
""blur"",""102"",""800226""
""blur"",""102"",""800802""
","""event"",""trial"",""time""
""focus"",""102"",""800772""
""focus"",""102"",""801264""
","""event"",""trial"",""time""
""fullscreenenter"",""1"",""2089""
","
","","","1471","","","14","5216","2700","y","elianto","#f73b6a7A"," "," ","1","0","[2320.0000000001164]","1","2","","","5216","30","2","3","lose","go","0"
"pit-trial","149","1042815","0.0-35.0","battery-v0.2","","""event"",""trial"",""time""
""fullscreenenter"",""1"",""2089""
""blur"",""102"",""800226""
""focus"",""102"",""800772""
""blur"",""102"",""800802""
""focus"",""102"",""801264""
","""event"",""trial"",""time""
""blur"",""102"",""800226""
""blur"",""102"",""800802""
","""event"",""trial"",""time""
""focus"",""102"",""800772""
""focus"",""102"",""801264""
","""event"",""trial"",""time""
""fullscreenenter"",""1"",""2089""
","
","","","563.0000000001164","","","14","5216","2700","r","elianto","#3366ff99","-1"," ","0","0","[1414.0000000002328]","1","2","","","5216","31","1","2","win","no-go","0"
"pit-trial","150","1046785","0.0-36.0","battery-v0.2","","""event"",""trial"",""time""
""fullscreenenter"",""1"",""2089""
""blur"",""102"",""800226""
""focus"",""102"",""800772""
""blur"",""102"",""800802""
""focus"",""102"",""801264""
","""event"",""trial"",""time""
""blur"",""102"",""800226""
""blur"",""102"",""800802""
","""event"",""trial"",""time""
""focus"",""102"",""800772""
""focus"",""102"",""801264""
","""event"",""trial"",""time""
""fullscreenenter"",""1"",""2089""
","
","","","1109.9999999998836","","","14","5216","2700","m","elianto","#f73b6a7A"," "," ","1","0","[1962]","1","2","","","5216","32","0","3","lose","go","0"
"pit-trial","151","1051643","0.0-37.0","battery-v0.2","","""event"",""trial"",""time""
""fullscreenenter"",""1"",""2089""
""blur"",""102"",""800226""
""focus"",""102"",""800772""
""blur"",""102"",""800802""
""focus"",""102"",""801264""
","""event"",""trial"",""time""
""blur"",""102"",""800226""
""blur"",""102"",""800802""
","""event"",""trial"",""time""
""focus"",""102"",""800772""
""focus"",""102"",""801264""
","""event"",""trial"",""time""
""fullscreenenter"",""1"",""2089""
","
","","","-1","","","14","5216","2700","h","elianto","#f73b6a7A","-1","-1","1","-10","[]","0","2","","","5216","33","3","4","lose","no-go","1"
"pit-trial","152","1055102","0.0-38.0","battery-v0.2","","""event"",""trial"",""time""
""fullscreenenter"",""1"",""2089""
""blur"",""102"",""800226""
""focus"",""102"",""800772""
""blur"",""102"",""800802""
""focus"",""102"",""801264""
","""event"",""trial"",""time""
""blur"",""102"",""800226""
""blur"",""102"",""800802""
","""event"",""trial"",""time""
""focus"",""102"",""800772""
""focus"",""102"",""801264""
","""event"",""trial"",""time""
""fullscreenenter"",""1"",""2089""
","
","","","601","","","14","5216","2700","r","elianto","#3366ff99","-1"," ","0","0","[1452]","1","2","","","5216","34","1","2","win","no-go","0"
"pit-trial","153","1058635","0.0-39.0","battery-v0.2","","""event"",""trial"",""time""
""fullscreenenter"",""1"",""2089""
""blur"",""102"",""800226""
""focus"",""102"",""800772""
""blur"",""102"",""800802""
""focus"",""102"",""801264""
","""event"",""trial"",""time""
""blur"",""102"",""800226""
""blur"",""102"",""800802""
","""event"",""trial"",""time""
""focus"",""102"",""800772""
""focus"",""102"",""801264""
","""event"",""trial"",""time""
""fullscreenenter"",""1"",""2089""
","
","","","675","","","14","5216","2700","m","elianto","#f73b6a7A"," "," ","1","0","[1525]","1","2","","","5216","35","0","3","lose","go","0"
"pit-trial","154","1062475","0.0-40.0","battery-v0.2","","""event"",""trial"",""time""
""fullscreenenter"",""1"",""2089""
""blur"",""102"",""800226""
""focus"",""102"",""800772""
""blur"",""102"",""800802""
""focus"",""102"",""801264""
","""event"",""trial"",""time""
""blur"",""102"",""800226""
""blur"",""102"",""800802""
","""event"",""trial"",""time""
""focus"",""102"",""800772""
""focus"",""102"",""801264""
","""event"",""trial"",""time""
""fullscreenenter"",""1"",""2089""
","
","","","982","","","14","5216","2700","y","elianto","#f73b6a7A"," "," ","1","0","[1832]","1","2","","","5216","36","2","3","lose","go","0"
"pit-trial","155","1066082","0.0-41.0","battery-v0.2","","""event"",""trial"",""time""
""fullscreenenter"",""1"",""2089""
""blur"",""102"",""800226""
""focus"",""102"",""800772""
""blur"",""102"",""800802""
""focus"",""102"",""801264""
","""event"",""trial"",""time""
""blur"",""102"",""800226""
""blur"",""102"",""800802""
","""event"",""trial"",""time""
""focus"",""102"",""800772""
""focus"",""102"",""801264""
","""event"",""trial"",""time""
""fullscreenenter"",""1"",""2089""
","
","","","747","","","14","5216","2700","m","elianto","#f73b6a7A"," "," ","1","0","[1598]","1","2","","","5216","37","0","3","lose","go","0"
"pit-trial","156","1069518","0.0-42.0","battery-v0.2","","""event"",""trial"",""time""
""fullscreenenter"",""1"",""2089""
""blur"",""102"",""800226""
""focus"",""102"",""800772""
""blur"",""102"",""800802""
""focus"",""102"",""801264""
","""event"",""trial"",""time""
""blur"",""102"",""800226""
""blur"",""102"",""800802""
","""event"",""trial"",""time""
""focus"",""102"",""800772""
""focus"",""102"",""801264""
","""event"",""trial"",""time""
""fullscreenenter"",""1"",""2089""
","
","","","575","","","14","5216","2700","r","elianto","#3366ff99","-1"," ","0","0","[1427]","1","2","","","5216","38","1","2","win","no-go","0"
"pit-trial","157","1072943","0.0-43.0","battery-v0.2","","""event"",""trial"",""time""
""fullscreenenter"",""1"",""2089""
""blur"",""102"",""800226""
""focus"",""102"",""800772""
""blur"",""102"",""800802""
""focus"",""102"",""801264""
","""event"",""trial"",""time""
""blur"",""102"",""800226""
""blur"",""102"",""800802""
","""event"",""trial"",""time""
""focus"",""102"",""800772""
""focus"",""102"",""801264""
","""event"",""trial"",""time""
""fullscreenenter"",""1"",""2089""
","
","","","566","","","14","5216","2700","y","elianto","#f73b6a7A"," "," ","1","0","[1416.9999999997672]","1","2","","","5216","39","2","3","lose","go","0"
"pit-trial","158","1076793","0.0-44.0","battery-v0.2","","""event"",""trial"",""time""
""fullscreenenter"",""1"",""2089""
""blur"",""102"",""800226""
""focus"",""102"",""800772""
""blur"",""102"",""800802""
""focus"",""102"",""801264""
","""event"",""trial"",""time""
""blur"",""102"",""800226""
""blur"",""102"",""800802""
","""event"",""trial"",""time""
""focus"",""102"",""800772""
""focus"",""102"",""801264""
","""event"",""trial"",""time""
""fullscreenenter"",""1"",""2089""
","
","","","990","","","14","5216","2700","h","elianto","#f73b6a7A","-1"," ","0","-10","[1841]","1","2","","","5216","40","3","4","lose","no-go","0"
"pit-trial","159","1080630","0.0-45.0","battery-v0.2","","""event"",""trial"",""time""
""fullscreenenter"",""1"",""2089""
""blur"",""102"",""800226""
""focus"",""102"",""800772""
""blur"",""102"",""800802""
""focus"",""102"",""801264""
","""event"",""trial"",""time""
""blur"",""102"",""800226""
""blur"",""102"",""800802""
","""event"",""trial"",""time""
""focus"",""102"",""800772""
""focus"",""102"",""801264""
","""event"",""trial"",""time""
""fullscreenenter"",""1"",""2089""
","
","","","979","","","14","5216","2700","h","elianto","#f73b6a7A","-1"," ","0","0","[1829]","1","2","","","5216","41","3","4","lose","no-go","1"
"pit-trial","160","1084065","0.0-46.0","battery-v0.2","","""event"",""trial"",""time""
""fullscreenenter"",""1"",""2089""
""blur"",""102"",""800226""
""focus"",""102"",""800772""
""blur"",""102"",""800802""
""focus"",""102"",""801264""
","""event"",""trial"",""time""
""blur"",""102"",""800226""
""blur"",""102"",""800802""
","""event"",""trial"",""time""
""focus"",""102"",""800772""
""focus"",""102"",""801264""
","""event"",""trial"",""time""
""fullscreenenter"",""1"",""2089""
","
","","","575","","","14","5216","2700","m","elianto","#f73b6a7A"," "," ","1","0","[1426]","1","2","","","5216","42","0","3","lose","go","0"
"pit-trial","161","1087389","0.0-47.0","battery-v0.2","","""event"",""trial"",""time""
""fullscreenenter"",""1"",""2089""
""blur"",""102"",""800226""
""focus"",""102"",""800772""
""blur"",""102"",""800802""
""focus"",""102"",""801264""
","""event"",""trial"",""time""
""blur"",""102"",""800226""
""blur"",""102"",""800802""
","""event"",""trial"",""time""
""focus"",""102"",""800772""
""focus"",""102"",""801264""
","""event"",""trial"",""time""
""fullscreenenter"",""1"",""2089""
","
","","","466","","","14","5216","2700","r","elianto","#3366ff99","-1"," ","0","0","[1317]","1","2","","","5216","43","1","2","win","no-go","0"
"pit-trial","162","1091277","0.0-48.0","battery-v0.2","","""event"",""trial"",""time""
""fullscreenenter"",""1"",""2089""
""blur"",""102"",""800226""
""focus"",""102"",""800772""
""blur"",""102"",""800802""
""focus"",""102"",""801264""
","""event"",""trial"",""time""
""blur"",""102"",""800226""
""blur"",""102"",""800802""
","""event"",""trial"",""time""
""focus"",""102"",""800772""
""focus"",""102"",""801264""
","""event"",""trial"",""time""
""fullscreenenter"",""1"",""2089""
","
","","","1031","","","14","5216","2700","y","elianto","#f73b6a7A"," "," ","1","0","[1882]","1","2","","","5216","44","2","3","lose","go","0"
"pit-trial","163","1094771","0.0-49.0","battery-v0.2","","""event"",""trial"",""time""
""fullscreenenter"",""1"",""2089""
""blur"",""102"",""800226""
""focus"",""102"",""800772""
""blur"",""102"",""800802""
""focus"",""102"",""801264""
","""event"",""trial"",""time""
""blur"",""102"",""800226""
""blur"",""102"",""800802""
","""event"",""trial"",""time""
""focus"",""102"",""800772""
""focus"",""102"",""801264""
","""event"",""trial"",""time""
""fullscreenenter"",""1"",""2089""
","
","","","637","","","14","5216","2700","y","elianto","#f73b6a7A"," "," ","1","0","[1487.9999999997672]","1","2","","","5216","45","2","3","lose","go","0"
"pit-trial","164","1098314","0.0-50.0","battery-v0.2","","""event"",""trial"",""time""
""fullscreenenter"",""1"",""2089""
""blur"",""102"",""800226""
""focus"",""102"",""800772""
""blur"",""102"",""800802""
""focus"",""102"",""801264""
","""event"",""trial"",""time""
""blur"",""102"",""800226""
""blur"",""102"",""800802""
","""event"",""trial"",""time""
""focus"",""102"",""800772""
""focus"",""102"",""801264""
","""event"",""trial"",""time""
""fullscreenenter"",""1"",""2089""
","
","","","686","","","14","5216","2700","m","elianto","#f73b6a7A"," "," ","1","0","[1535]","1","2","","","5216","46","0","3","lose","go","0"
"pit-trial","165","1103175","0.0-51.0","battery-v0.2","","""event"",""trial"",""time""
""fullscreenenter"",""1"",""2089""
""blur"",""102"",""800226""
""focus"",""102"",""800772""
""blur"",""102"",""800802""
""focus"",""102"",""801264""
","""event"",""trial"",""time""
""blur"",""102"",""800226""
""blur"",""102"",""800802""
","""event"",""trial"",""time""
""focus"",""102"",""800772""
""focus"",""102"",""801264""
","""event"",""trial"",""time""
""fullscreenenter"",""1"",""2089""
","
","","","-1","","","14","5216","2700","h","elianto","#f73b6a7A","-1","-1","1","0","[]","0","2","","","5216","47","3","4","lose","no-go","0"
"pit-trial","166","1106665","0.0-52.0","battery-v0.2","","""event"",""trial"",""time""
""fullscreenenter"",""1"",""2089""
""blur"",""102"",""800226""
""focus"",""102"",""800772""
""blur"",""102"",""800802""
""focus"",""102"",""801264""
","""event"",""trial"",""time""
""blur"",""102"",""800226""
""blur"",""102"",""800802""
","""event"",""trial"",""time""
""focus"",""102"",""800772""
""focus"",""102"",""801264""
","""event"",""trial"",""time""
""fullscreenenter"",""1"",""2089""
","
","","","631.9999999997672","","","14","5216","2700","r","elianto","#3366ff99","-1"," ","0","+10","[1482]","1","2","","","5216","48","1","2","win","no-go","1"
"pit-trial","167","1110172","0.0-53.0","battery-v0.2","","""event"",""trial"",""time""
""fullscreenenter"",""1"",""2089""
""blur"",""102"",""800226""
""focus"",""102"",""800772""
""blur"",""102"",""800802""
""focus"",""102"",""801264""
","""event"",""trial"",""time""
""blur"",""102"",""800226""
""blur"",""102"",""800802""
","""event"",""trial"",""time""
""focus"",""102"",""800772""
""focus"",""102"",""801264""
","""event"",""trial"",""time""
""fullscreenenter"",""1"",""2089""
","
","","","646.9999999997672","","","14","5216","2700","y","elianto","#f73b6a7A"," "," ","1","0","[1498]","1","2","","","5216","49","2","3","lose","go","0"
"pit-trial","168","1113593","0.0-54.0","battery-v0.2","","""event"",""trial"",""time""
""fullscreenenter"",""1"",""2089""
""blur"",""102"",""800226""
""focus"",""102"",""800772""
""blur"",""102"",""800802""
""focus"",""102"",""801264""
","""event"",""trial"",""time""
""blur"",""102"",""800226""
""blur"",""102"",""800802""
","""event"",""trial"",""time""
""focus"",""102"",""800772""
""focus"",""102"",""801264""
","""event"",""trial"",""time""
""fullscreenenter"",""1"",""2089""
","
","","","563","","","14","5216","2700","h","elianto","#f73b6a7A","-1"," ","0","0","[1414]","1","2","","","5216","50","3","4","lose","no-go","1"
"pit-trial","169","1117082","0.0-55.0","battery-v0.2","","""event"",""trial"",""time""
""fullscreenenter"",""1"",""2089""
""blur"",""102"",""800226""
""focus"",""102"",""800772""
""blur"",""102"",""800802""
""focus"",""102"",""801264""
","""event"",""trial"",""time""
""blur"",""102"",""800226""
""blur"",""102"",""800802""
","""event"",""trial"",""time""
""focus"",""102"",""800772""
""focus"",""102"",""801264""
","""event"",""trial"",""time""
""fullscreenenter"",""1"",""2089""
","
","","","631","","","14","5216","2700","m","elianto","#f73b6a7A"," "," ","1","0","[1482]","1","2","","","5216","51","0","3","lose","go","0"
"pit-trial","170","1120475","0.0-56.0","battery-v0.2","","""event"",""trial"",""time""
""fullscreenenter"",""1"",""2089""
""blur"",""102"",""800226""
""focus"",""102"",""800772""
""blur"",""102"",""800802""
""focus"",""102"",""801264""
","""event"",""trial"",""time""
""blur"",""102"",""800226""
""blur"",""102"",""800802""
","""event"",""trial"",""time""
""focus"",""102"",""800772""
""focus"",""102"",""801264""
","""event"",""trial"",""time""
""fullscreenenter"",""1"",""2089""
","
","","","536.0000000002328","","","14","5216","2700","r","elianto","#3366ff99","-1"," ","0","+10","[628,1386]","2","2","","","5216","52","1","2","win","no-go","1"
"pit-trial","171","1124056","0.0-57.0","battery-v0.2","","""event"",""trial"",""time""
""fullscreenenter"",""1"",""2089""
""blur"",""102"",""800226""
""focus"",""102"",""800772""
""blur"",""102"",""800802""
""focus"",""102"",""801264""
","""event"",""trial"",""time""
""blur"",""102"",""800226""
""blur"",""102"",""800802""
","""event"",""trial"",""time""
""focus"",""102"",""800772""
""focus"",""102"",""801264""
","""event"",""trial"",""time""
""fullscreenenter"",""1"",""2089""
","
","","","723","","","14","5216","2700","h","elianto","#f73b6a7A","-1"," ","0","-10","[1573]","1","2","","","5216","53","3","4","lose","no-go","0"
"pit-trial","172","1128917","0.0-58.0","battery-v0.2","","""event"",""trial"",""time""
""fullscreenenter"",""1"",""2089""
""blur"",""102"",""800226""
""focus"",""102"",""800772""
""blur"",""102"",""800802""
""focus"",""102"",""801264""
","""event"",""trial"",""time""
""blur"",""102"",""800226""
""blur"",""102"",""800802""
","""event"",""trial"",""time""
""focus"",""102"",""800772""
""focus"",""102"",""801264""
","""event"",""trial"",""time""
""fullscreenenter"",""1"",""2089""
","
","","","-1","","","14","5216","2700","y","elianto","#f73b6a7A"," ","-1","0","-10","[2875]","1","2","","","5216","54","2","3","lose","go","0"
"pit-trial","173","1132764","0.0-59.0","battery-v0.2","","""event"",""trial"",""time""
""fullscreenenter"",""1"",""2089""
""blur"",""102"",""800226""
""focus"",""102"",""800772""
""blur"",""102"",""800802""
""focus"",""102"",""801264""
","""event"",""trial"",""time""
""blur"",""102"",""800226""
""blur"",""102"",""800802""
","""event"",""trial"",""time""
""focus"",""102"",""800772""
""focus"",""102"",""801264""
","""event"",""trial"",""time""
""fullscreenenter"",""1"",""2089""
","
","","","988.0000000002328","","","14","5216","2700","r","elianto","#3366ff99","-1"," ","0","0","[1839.0000000002328]","1","2","","","5216","55","1","2","win","no-go","0"
"pit-trial","174","1136325","0.0-60.0","battery-v0.2","","""event"",""trial"",""time""
""fullscreenenter"",""1"",""2089""
""blur"",""102"",""800226""
""focus"",""102"",""800772""
""blur"",""102"",""800802""
""focus"",""102"",""801264""
","""event"",""trial"",""time""
""blur"",""102"",""800226""
""blur"",""102"",""800802""
","""event"",""trial"",""time""
""focus"",""102"",""800772""
""focus"",""102"",""801264""
","""event"",""trial"",""time""
""fullscreenenter"",""1"",""2089""
","
","","","703","","","14","5216","2700","m","elianto","#f73b6a7A"," "," ","1","0","[1553]","1","2","","","5216","56","0","3","lose","go","0"
"pit-trial","175","1140283","0.0-61.0","battery-v0.2","","""event"",""trial"",""time""
""fullscreenenter"",""1"",""2089""
""blur"",""102"",""800226""
""focus"",""102"",""800772""
""blur"",""102"",""800802""
""focus"",""102"",""801264""
","""event"",""trial"",""time""
""blur"",""102"",""800226""
""blur"",""102"",""800802""
","""event"",""trial"",""time""
""focus"",""102"",""800772""
""focus"",""102"",""801264""
","""event"",""trial"",""time""
""fullscreenenter"",""1"",""2089""
","
","","","1098.0000000002328","","","14","5216","2700","h","elianto","#f73b6a7A","-1"," ","0","-10","[1950.0000000002328]","1","2","","","5216","57","3","4","lose","no-go","0"
"pit-trial","176","1144126","0.0-62.0","battery-v0.2","","""event"",""trial"",""time""
""fullscreenenter"",""1"",""2089""
""blur"",""102"",""800226""
""focus"",""102"",""800772""
""blur"",""102"",""800802""
""focus"",""102"",""801264""
","""event"",""trial"",""time""
""blur"",""102"",""800226""
""blur"",""102"",""800802""
","""event"",""trial"",""time""
""focus"",""102"",""800772""
""focus"",""102"",""801264""
","""event"",""trial"",""time""
""fullscreenenter"",""1"",""2089""
","
","","","985","","","14","5216","2700","m","elianto","#f73b6a7A"," "," ","1","0","[1836]","1","2","","","5216","58","0","3","lose","go","0"
"pit-trial","177","1148983","0.0-63.0","battery-v0.2","","""event"",""trial"",""time""
""fullscreenenter"",""1"",""2089""
""blur"",""102"",""800226""
""focus"",""102"",""800772""
""blur"",""102"",""800802""
""focus"",""102"",""801264""
","""event"",""trial"",""time""
""blur"",""102"",""800226""
""blur"",""102"",""800802""
","""event"",""trial"",""time""
""focus"",""102"",""800772""
""focus"",""102"",""801264""
","""event"",""trial"",""time""
""fullscreenenter"",""1"",""2089""
","
","","","-1","","","14","5216","2700","y","elianto","#f73b6a7A"," ","-1","0","-10","[]","0","2","","","5216","59","2","3","lose","go","0"
"pit-trial","178","1152537","0.0-64.0","battery-v0.2","","""event"",""trial"",""time""
""fullscreenenter"",""1"",""2089""
""blur"",""102"",""800226""
""focus"",""102"",""800772""
""blur"",""102"",""800802""
""focus"",""102"",""801264""
","""event"",""trial"",""time""
""blur"",""102"",""800226""
""blur"",""102"",""800802""
","""event"",""trial"",""time""
""focus"",""102"",""800772""
""focus"",""102"",""801264""
","""event"",""trial"",""time""
""fullscreenenter"",""1"",""2089""
","
","","","695","","","14","5216","2700","z","elianto","#3366ff99"," "," ","1","+10","[1545]","1","2","","","5216","60","4","1","win","go","0"
"pit-trial","179","1156835","0.0-65.0","battery-v0.2","","""event"",""trial"",""time""
""fullscreenenter"",""1"",""2089""
""blur"",""102"",""800226""
""focus"",""102"",""800772""
""blur"",""102"",""800802""
""focus"",""102"",""801264""
","""event"",""trial"",""time""
""blur"",""102"",""800226""
""blur"",""102"",""800802""
","""event"",""trial"",""time""
""focus"",""102"",""800772""
""focus"",""102"",""801264""
","""event"",""trial"",""time""
""fullscreenenter"",""1"",""2089""
","
","","","1436.9999999997672","","","14","5216","2700","y","elianto","#f73b6a7A"," "," ","1","0","[2287]","1","2","","","5216","61","2","3","lose","go","0"
"pit-trial","180","1161694","0.0-66.0","battery-v0.2","","""event"",""trial"",""time""
""fullscreenenter"",""1"",""2089""
""blur"",""102"",""800226""
""focus"",""102"",""800772""
""blur"",""102"",""800802""
""focus"",""102"",""801264""
","""event"",""trial"",""time""
""blur"",""102"",""800226""
""blur"",""102"",""800802""
","""event"",""trial"",""time""
""focus"",""102"",""800772""
""focus"",""102"",""801264""
","""event"",""trial"",""time""
""fullscreenenter"",""1"",""2089""
","
","","","-1","","","14","5216","2700","h","elianto","#f73b6a7A","-1","-1","1","0","[]","0","2","","","5216","62","3","4","lose","no-go","0"
"pit-trial","181","1164882","0.0-67.0","battery-v0.2","","""event"",""trial"",""time""
""fullscreenenter"",""1"",""2089""
""blur"",""102"",""800226""
""focus"",""102"",""800772""
""blur"",""102"",""800802""
""focus"",""102"",""801264""
","""event"",""trial"",""time""
""blur"",""102"",""800226""
""blur"",""102"",""800802""
","""event"",""trial"",""time""
""focus"",""102"",""800772""
""focus"",""102"",""801264""
","""event"",""trial"",""time""
""fullscreenenter"",""1"",""2089""
","
","","","328","","","14","5216","2700","r","elianto","#3366ff99","-1"," ","0","+10","[1180]","1","2","","","5216","63","1","2","win","no-go","1"
"pit-trial","182","1168307","0.0-68.0","battery-v0.2","","""event"",""trial"",""time""
""fullscreenenter"",""1"",""2089""
""blur"",""102"",""800226""
""focus"",""102"",""800772""
""blur"",""102"",""800802""
""focus"",""102"",""801264""
","""event"",""trial"",""time""
""blur"",""102"",""800226""
""blur"",""102"",""800802""
","""event"",""trial"",""time""
""focus"",""102"",""800772""
""focus"",""102"",""801264""
","""event"",""trial"",""time""
""fullscreenenter"",""1"",""2089""
","
","","","567","","","14","5216","2700","z","elianto","#3366ff99"," "," ","1","+10","[1417]","1","2","","","5216","64","4","1","win","go","0"
"pit-trial","183","1171786","0.0-69.0","battery-v0.2","","""event"",""trial"",""time""
""fullscreenenter"",""1"",""2089""
""blur"",""102"",""800226""
""focus"",""102"",""800772""
""blur"",""102"",""800802""
""focus"",""102"",""801264""
","""event"",""trial"",""time""
""blur"",""102"",""800226""
""blur"",""102"",""800802""
","""event"",""trial"",""time""
""focus"",""102"",""800772""
""focus"",""102"",""801264""
","""event"",""trial"",""time""
""fullscreenenter"",""1"",""2089""
","
","","","621","","","14","5216","2700","c","elianto","#3366ff99","-1"," ","0","0","[1471]","1","2","","","5216","65","5","2","win","no-go","0"
"pit-trial","184","1175375","0.0-70.0","battery-v0.2","","""event"",""trial"",""time""
""fullscreenenter"",""1"",""2089""
""blur"",""102"",""800226""
""focus"",""102"",""800772""
""blur"",""102"",""800802""
""focus"",""102"",""801264""
","""event"",""trial"",""time""
""blur"",""102"",""800226""
""blur"",""102"",""800802""
","""event"",""trial"",""time""
""focus"",""102"",""800772""
""focus"",""102"",""801264""
","""event"",""trial"",""time""
""fullscreenenter"",""1"",""2089""
","
","","","730","","","14","5216","2700","z","elianto","#3366ff99"," "," ","1","0","[1581]","1","2","","","5216","66","4","1","win","go","1"
"pit-trial","185","1178898","0.0-71.0","battery-v0.2","","""event"",""trial"",""time""
""fullscreenenter"",""1"",""2089""
""blur"",""102"",""800226""
""focus"",""102"",""800772""
""blur"",""102"",""800802""
""focus"",""102"",""801264""
","""event"",""trial"",""time""
""blur"",""102"",""800226""
""blur"",""102"",""800802""
","""event"",""trial"",""time""
""focus"",""102"",""800772""
""focus"",""102"",""801264""
","""event"",""trial"",""time""
""fullscreenenter"",""1"",""2089""
","
","","","664","","","14","5216","2700","r","elianto","#3366ff99","-1"," ","0","+10","[1515.0000000002328]","1","2","","","5216","67","1","2","win","no-go","1"
"pit-trial","186","1183756","0.0-72.0","battery-v0.2","","""event"",""trial"",""time""
""fullscreenenter"",""1"",""2089""
""blur"",""102"",""800226""
""focus"",""102"",""800772""
""blur"",""102"",""800802""
""focus"",""102"",""801264""
","""event"",""trial"",""time""
""blur"",""102"",""800226""
""blur"",""102"",""800802""
","""event"",""trial"",""time""
""focus"",""102"",""800772""
""focus"",""102"",""801264""
","""event"",""trial"",""time""
""fullscreenenter"",""1"",""2089""
","
","","","-1","","","14","5216","2700","h","elianto","#f73b6a7A","-1","-1","1","-10","[]","0","2","","","5216","68","3","4","lose","no-go","1"
"pit-trial","187","1187204","0.0-73.0","battery-v0.2","","""event"",""trial"",""time""
""fullscreenenter"",""1"",""2089""
""blur"",""102"",""800226""
""focus"",""102"",""800772""
""blur"",""102"",""800802""
""focus"",""102"",""801264""
","""event"",""trial"",""time""
""blur"",""102"",""800226""
""blur"",""102"",""800802""
","""event"",""trial"",""time""
""focus"",""102"",""800772""
""focus"",""102"",""801264""
","""event"",""trial"",""time""
""fullscreenenter"",""1"",""2089""
","
","","","589.0000000002328","","","14","5216","2700","c","elianto","#3366ff99","-1"," ","0","0","[1440.0000000002328]","1","2","","","5216","69","5","2","win","no-go","0"
"pit-trial","188","1191132","0.0-74.0","battery-v0.2","","""event"",""trial"",""time""
""fullscreenenter"",""1"",""2089""
""blur"",""102"",""800226""
""focus"",""102"",""800772""
""blur"",""102"",""800802""
""focus"",""102"",""801264""
","""event"",""trial"",""time""
""blur"",""102"",""800226""
""blur"",""102"",""800802""
","""event"",""trial"",""time""
""focus"",""102"",""800772""
""focus"",""102"",""801264""
","""event"",""trial"",""time""
""fullscreenenter"",""1"",""2089""
","
","","","1068","","","14","5216","2700","y","elianto","#f73b6a7A"," "," ","1","-10","[1919]","1","2","","","5216","70","2","3","lose","go","1"
"pit-trial","189","1194549","0.0-75.0","battery-v0.2","","""event"",""trial"",""time""
""fullscreenenter"",""1"",""2089""
""blur"",""102"",""800226""
""focus"",""102"",""800772""
""blur"",""102"",""800802""
""focus"",""102"",""801264""
","""event"",""trial"",""time""
""blur"",""102"",""800226""
""blur"",""102"",""800802""
","""event"",""trial"",""time""
""focus"",""102"",""800772""
""focus"",""102"",""801264""
","""event"",""trial"",""time""
""fullscreenenter"",""1"",""2089""
","
","","","559","","","14","5216","2700","z","elianto","#3366ff99"," "," ","1","+10","[761,1409]","2","2","","","5216","71","4","1","win","go","0"
"pit-trial","190","1198107","0.0-76.0","battery-v0.2","","""event"",""trial"",""time""
""fullscreenenter"",""1"",""2089""
""blur"",""102"",""800226""
""focus"",""102"",""800772""
""blur"",""102"",""800802""
""focus"",""102"",""801264""
","""event"",""trial"",""time""
""blur"",""102"",""800226""
""blur"",""102"",""800802""
","""event"",""trial"",""time""
""focus"",""102"",""800772""
""focus"",""102"",""801264""
","""event"",""trial"",""time""
""fullscreenenter"",""1"",""2089""
","
","","","702","","","14","5216","2700","r","elianto","#3366ff99","-1"," ","0","0","[1552.0000000002328]","1","2","","","5216","72","1","2","win","no-go","0"
"pit-trial","191","1201748","0.0-77.0","battery-v0.2","","""event"",""trial"",""time""
""fullscreenenter"",""1"",""2089""
""blur"",""102"",""800226""
""focus"",""102"",""800772""
""blur"",""102"",""800802""
""focus"",""102"",""801264""
","""event"",""trial"",""time""
""blur"",""102"",""800226""
""blur"",""102"",""800802""
","""event"",""trial"",""time""
""focus"",""102"",""800772""
""focus"",""102"",""801264""
","""event"",""trial"",""time""
""fullscreenenter"",""1"",""2089""
","
","","","781","","","14","5216","2700","z","elianto","#3366ff99"," "," ","1","+10","[1630.9999999997672]","1","2","","","5216","73","4","1","win","go","0"
"pit-trial","192","1205219","0.0-78.0","battery-v0.2","","""event"",""trial"",""time""
""fullscreenenter"",""1"",""2089""
""blur"",""102"",""800226""
""focus"",""102"",""800772""
""blur"",""102"",""800802""
""focus"",""102"",""801264""
","""event"",""trial"",""time""
""blur"",""102"",""800226""
""blur"",""102"",""800802""
","""event"",""trial"",""time""
""focus"",""102"",""800772""
""focus"",""102"",""801264""
","""event"",""trial"",""time""
""fullscreenenter"",""1"",""2089""
","
","","","613","","","14","5216","2700","r","elianto","#3366ff99","-1"," ","0","0","[1463]","1","2","","","5216","74","1","2","win","no-go","0"
"pit-trial","193","1210077","0.0-79.0","battery-v0.2","","""event"",""trial"",""time""
""fullscreenenter"",""1"",""2089""
""blur"",""102"",""800226""
""focus"",""102"",""800772""
""blur"",""102"",""800802""
""focus"",""102"",""801264""
","""event"",""trial"",""time""
""blur"",""102"",""800226""
""blur"",""102"",""800802""
","""event"",""trial"",""time""
""focus"",""102"",""800772""
""focus"",""102"",""801264""
","""event"",""trial"",""time""
""fullscreenenter"",""1"",""2089""
","
","","","-1","","","14","5216","2700","c","elianto","#3366ff99","-1","-1","1","+10","[]","0","2","","","5216","75","5","2","win","no-go","0"
"pit-trial","194","1214935","0.0-80.0","battery-v0.2","","""event"",""trial"",""time""
""fullscreenenter"",""1"",""2089""
""blur"",""102"",""800226""
""focus"",""102"",""800772""
""blur"",""102"",""800802""
""focus"",""102"",""801264""
","""event"",""trial"",""time""
""blur"",""102"",""800226""
""blur"",""102"",""800802""
","""event"",""trial"",""time""
""focus"",""102"",""800772""
""focus"",""102"",""801264""
","""event"",""trial"",""time""
""fullscreenenter"",""1"",""2089""
","
","","","-1","","","14","5216","2700","h","elianto","#f73b6a7A","-1","-1","1","0","[]","0","2","","","5216","76","3","4","lose","no-go","0"
"pit-trial","195","1218594","0.0-81.0","battery-v0.2","","""event"",""trial"",""time""
""fullscreenenter"",""1"",""2089""
""blur"",""102"",""800226""
""focus"",""102"",""800772""
""blur"",""102"",""800802""
""focus"",""102"",""801264""
","""event"",""trial"",""time""
""blur"",""102"",""800226""
""blur"",""102"",""800802""
","""event"",""trial"",""time""
""focus"",""102"",""800772""
""focus"",""102"",""801264""
","""event"",""trial"",""time""
""fullscreenenter"",""1"",""2089""
","
","","","800","","","14","5216","2700","h","elianto","#f73b6a7A","-1"," ","0","-10","[1649.9999999997672]","1","2","","","5216","77","3","4","lose","no-go","0"
"pit-trial","196","1222106","0.0-82.0","battery-v0.2","","""event"",""trial"",""time""
""fullscreenenter"",""1"",""2089""
""blur"",""102"",""800226""
""focus"",""102"",""800772""
""blur"",""102"",""800802""
""focus"",""102"",""801264""
","""event"",""trial"",""time""
""blur"",""102"",""800226""
""blur"",""102"",""800802""
","""event"",""trial"",""time""
""focus"",""102"",""800772""
""focus"",""102"",""801264""
","""event"",""trial"",""time""
""fullscreenenter"",""1"",""2089""
","
