"trial_type","trial_index","time_elapsed","internal_node_id","task_version","subject_id","interactions","blur_events","focus_events","fullscreenenter_events","fullscreenexit_events","success","view_history","rt","responses","num_errors","age","subject","participantId","rune","rune_set","hex","correct","choice","accuracy","outcome","keys","total_keys","block","practice","value","sub","trial","stimulus","robot","valence","action","sham"
"pavlovia","0","4","0.0-0.0","battery-v0.2","","""event"",""trial"",""time""
""fullscreenenter"",""1"",""1594""
","
","
","""event"",""trial"",""time""
""fullscreenenter"",""1"",""1594""
","
","","","","","","","","","","","","","","","","","","","","","","","","","","",""
"fullscreen","1","2566","0.0-1.0","battery-v0.2","","""event"",""trial"",""time""
""fullscreenenter"",""1"",""1594""
","
","
","""event"",""trial"",""time""
""fullscreenenter"",""1"",""1594""
","
","true","","","","","","","","","","","","","","","","","","","","","","","","","",""
"pit-instructions","2","9814","0.0-2.0-0.0","battery-v0.2","","""event"",""trial"",""time""
""fullscreenenter"",""1"",""1594""
","
","
","""event"",""trial"",""time""
""fullscreenenter"",""1"",""1594""
","
","","[{""page_index"":0,""viewing_time"":7240}]","7242","","","","","","","","","","","","","","","","","","","","","","","",""
"pit-comprehension","3","12705","0.0-2.0-1.0-0.0","battery-v0.2","","""event"",""trial"",""time""
""fullscreenenter"",""1"",""1594""
","
","
","""event"",""trial"",""time""
""fullscreenenter"",""1"",""1594""
","
","","","2848","[""shark""]","0","18","4247","3077","","","","","","","","","","","","","","","","","","",""
"pit-instructions","4","14242","0.0-2.0-1.0-1.0","battery-v0.2","","""event"",""trial"",""time""
""fullscreenenter"",""1"",""1594""
","
","
","""event"",""trial"",""time""
""fullscreenenter"",""1"",""1594""
","
","","[{""page_index"":0,""viewing_time"":1532}]","1533.0000000000018","","","","","","","","","","","","","","","","","","","","","","","",""
"pit-comprehension","5","16299","0.0-2.0-2.0-0.0","battery-v0.2","","""event"",""trial"",""time""
""fullscreenenter"",""1"",""1594""
","
","
","""event"",""trial"",""time""
""fullscreenenter"",""1"",""1594""
","
","","","2053","[""tiger""]","0","18","4247","3077","","","","","","","","","","","","","","","","","","",""
"pit-instructions","6","17718","0.0-2.0-2.0-1.0","battery-v0.2","","""event"",""trial"",""time""
""fullscreenenter"",""1"",""1594""
","
","
","""event"",""trial"",""time""
""fullscreenenter"",""1"",""1594""
","
","","[{""page_index"":0,""viewing_time"":1416}]","1416","","","","","","","","","","","","","","","","","","","","","","","",""
"pit-instructions","7","112526","0.0-2.0-3.0","battery-v0.2","","""event"",""trial"",""time""
""fullscreenenter"",""1"",""1594""
","
","
","""event"",""trial"",""time""
""fullscreenenter"",""1"",""1594""
","
","","[{""page_index"":0,""viewing_time"":8638.000000000004},{""page_index"":1,""viewing_time"":8425.999999999996},{""page_index"":2,""viewing_time"":6935},{""page_index"":3,""viewing_time"":5134},{""page_index"":4,""viewing_time"":5565},{""page_index"":5,""viewing_time"":5209.000000000007},{""page_index"":6,""viewing_time"":6774.999999999993},{""page_index"":7,""viewing_time"":6567},{""page_index"":8,""viewing_time"":6514},{""page_index"":9,""viewing_time"":7744},{""page_index"":10,""viewing_time"":7417},{""page_index"":11,""viewing_time"":7202},{""page_index"":12,""viewing_time"":6834},{""page_index"":13,""viewing_time"":5843}]","94803","","","","","","","","","","","","","","","","","","","","","","","",""
"pit-trial","8","116506","0.0-2.0-4.0-0.0","battery-v0.2","","""event"",""trial"",""time""
""fullscreenenter"",""1"",""1594""
","
","
","""event"",""trial"",""time""
""fullscreenenter"",""1"",""1594""
","
","","","1123.9999999999854","","","18","4247","3077","&#9784;","elianto","#FFFFF080"," "," ","1","&#10004","[1975]","1","0","0","","","","","","","",""
"pit-trial","9","119866","0.0-2.0-4.1-0.1","battery-v0.2","","""event"",""trial"",""time""
""fullscreenenter"",""1"",""1594""
","
","
","""event"",""trial"",""time""
""fullscreenenter"",""1"",""1594""
","
","","","505.00000000001455","","","18","4247","3077","&#9784;","elianto","#FFFFF080"," "," ","1","&#10004","[1354]","1","0","0","","","","","","","",""
"pit-trial","10","123185","0.0-2.0-4.2-0.2","battery-v0.2","","""event"",""trial"",""time""
""fullscreenenter"",""1"",""1594""
","
","
","""event"",""trial"",""time""
""fullscreenenter"",""1"",""1594""
","
","","","464","","","18","4247","3077","&#9784;","elianto","#FFFFF080"," "," ","1","&#10004","[1314]","1","0","0","","","","","","","",""
"pit-trial","11","126506","0.0-2.0-4.3-0.3","battery-v0.2","","""event"",""trial"",""time""
""fullscreenenter"",""1"",""1594""
","
","
","""event"",""trial"",""time""
""fullscreenenter"",""1"",""1594""
","
","","","466","","","18","4247","3077","&#9784;","elianto","#FFFFF080"," "," ","1","&#10004","[1316]","1","0","0","","","","","","","",""
"pit-trial","12","129787","0.0-2.0-4.4-0.4","battery-v0.2","","""event"",""trial"",""time""
""fullscreenenter"",""1"",""1594""
","
","
","""event"",""trial"",""time""
""fullscreenenter"",""1"",""1594""
","
","","","424.99999999998545","","","18","4247","3077","&#9784;","elianto","#FFFFF080"," "," ","1","&#10004","[1276]","1","0","0","","","","","","","",""
"pit-instructions","13","151098","0.0-2.0-5.0","battery-v0.2","","""event"",""trial"",""time""
""fullscreenenter"",""1"",""1594""
","
","
","""event"",""trial"",""time""
""fullscreenenter"",""1"",""1594""
","
","","[{""page_index"":0,""viewing_time"":5978},{""page_index"":1,""viewing_time"":5060},{""page_index"":2,""viewing_time"":5027},{""page_index"":3,""viewing_time"":5241}]","21307","","","","","","","","","","","","","","","","","","","","","","","",""
"pit-trial","14","155953","0.0-2.0-6.0-0.0","battery-v0.2","","""event"",""trial"",""time""
""fullscreenenter"",""1"",""1594""
","
","
","""event"",""trial"",""time""
""fullscreenenter"",""1"",""1594""
","
","","","-1","","","18","4247","3077","&#9854;","elianto","#FFFFF080","-1","-1","1","&#10004","[]","0","0","1","","","","","","","",""
"pit-trial","15","160809","0.0-2.0-6.1-0.1","battery-v0.2","","""event"",""trial"",""time""
""fullscreenenter"",""1"",""1594""
","
","
","""event"",""trial"",""time""
""fullscreenenter"",""1"",""1594""
","
","","","-1","","","18","4247","3077","&#9854;","elianto","#FFFFF080","-1","-1","1","&#10004","[]","0","0","1","","","","","","","",""
"pit-trial","16","165663","0.0-2.0-6.2-0.2","battery-v0.2","","""event"",""trial"",""time""
""fullscreenenter"",""1"",""1594""
","
","
","""event"",""trial"",""time""
""fullscreenenter"",""1"",""1594""
","
","","","-1","","","18","4247","3077","&#9854;","elianto","#FFFFF080","-1","-1","1","&#10004","[]","0","0","1","","","","","","","",""
"pit-trial","17","170518","0.0-2.0-6.3-0.3","battery-v0.2","","""event"",""trial"",""time""
""fullscreenenter"",""1"",""1594""
","
","
","""event"",""trial"",""time""
""fullscreenenter"",""1"",""1594""
","
","","","-1","","","18","4247","3077","&#9854;","elianto","#FFFFF080","-1","-1","1","&#10004","[]","0","0","1","","","","","","","",""
"pit-trial","18","175374","0.0-2.0-6.4-0.4","battery-v0.2","","""event"",""trial"",""time""
""fullscreenenter"",""1"",""1594""
","
","
","""event"",""trial"",""time""
""fullscreenenter"",""1"",""1594""
","
","","","-1","","","18","4247","3077","&#9854;","elianto","#FFFFF080","-1","-1","1","&#10004","[]","0","0","1","","","","","","","",""
"pit-instructions","19","314181","0.0-2.0-7.0","battery-v0.2","","""event"",""trial"",""time""
""fullscreenenter"",""1"",""1594""
","
","
","""event"",""trial"",""time""
""fullscreenenter"",""1"",""1594""
","
","","[{""page_index"":0,""viewing_time"":5840.000000000029},{""page_index"":1,""viewing_time"":6734.999999999971},{""page_index"":2,""viewing_time"":5408.000000000029},{""page_index"":3,""viewing_time"":6152.999999999971},{""page_index"":4,""viewing_time"":5922},{""page_index"":5,""viewing_time"":16495},{""page_index"":6,""viewing_time"":5777},{""page_index"":7,""viewing_time"":8962.00000000003},{""page_index"":8,""viewing_time"":15067.99999999997},{""page_index"":9,""viewing_time"":7381.000000000029},{""page_index"":10,""viewing_time"":6822.999999999971},{""page_index"":11,""viewing_time"":5519},{""page_index"":12,""viewing_time"":6902},{""page_index"":13,""viewing_time"":7667},{""page_index"":14,""viewing_time"":7965},{""page_index"":15,""viewing_time"":6105},{""page_index"":16,""viewing_time"":6401.000000000058},{""page_index"":17,""viewing_time"":7680.999999999942}]","138805","","","","","","","","","","","","","","","","","","","","","","","",""
"pit-trial","20","317705","0.0-2.0-8.0-0.0","battery-v0.2","","""event"",""trial"",""time""
""fullscreenenter"",""1"",""1594""
","
","
","""event"",""trial"",""time""
""fullscreenenter"",""1"",""1594""
","
","","","667.9999999999418","","","18","4247","3077","&#9776;","elianto","#3366ff99"," "," ","1","+10","[1518]","1","0","1","","","","","","","",""
"pit-trial","21","320766","0.0-2.0-8.0-1.0","battery-v0.2","","""event"",""trial"",""time""
""fullscreenenter"",""1"",""1594""
","
","
","""event"",""trial"",""time""
""fullscreenenter"",""1"",""1594""
","
","","","206","","","18","4247","3077","&#9776;","elianto","#3366ff99"," "," ","1","+10","[1057]","1","0","1","","","","","","","",""
"pit-trial","22","323983","0.0-2.0-8.0-2.0","battery-v0.2","","""event"",""trial"",""time""
""fullscreenenter"",""1"",""1594""
","
","
","""event"",""trial"",""time""
""fullscreenenter"",""1"",""1594""
","
","","","363","","","18","4247","3077","&#9776;","elianto","#3366ff99"," "," ","1","+10","[1213]","1","0","1","","","","","","","",""
"pit-trial","23","327232","0.0-2.0-8.0-3.0","battery-v0.2","","""event"",""trial"",""time""
""fullscreenenter"",""1"",""1594""
","
","
","""event"",""trial"",""time""
""fullscreenenter"",""1"",""1594""
","
","","","394","","","18","4247","3077","&#9776;","elianto","#3366ff99"," "," ","1","0","[1244]","1","0","1","","","","","","","",""
"pit-trial","24","330236","0.0-2.0-8.0-4.0","battery-v0.2","","""event"",""trial"",""time""
""fullscreenenter"",""1"",""1594""
","
","
","""event"",""trial"",""time""
""fullscreenenter"",""1"",""1594""
","
","","","150","","","18","4247","3077","&#9776;","elianto","#3366ff99"," "," ","1","+10","[1000]","1","0","1","","","","","","","",""
"pit-trial","25","333379","0.0-2.0-8.1-0.1","battery-v0.2","","""event"",""trial"",""time""
""fullscreenenter"",""1"",""1594""
","
","
","""event"",""trial"",""time""
""fullscreenenter"",""1"",""1594""
","
","","","286","","","18","4247","3077","&#9776;","elianto","#3366ff99"," "," ","1","+10","[1137]","1","0","1","","","","","","","",""
"pit-trial","26","336478","0.0-2.0-8.1-1.1","battery-v0.2","","""event"",""trial"",""time""
""fullscreenenter"",""1"",""1594""
","
","
","""event"",""trial"",""time""
""fullscreenenter"",""1"",""1594""
","
","","","244","","","18","4247","3077","&#9776;","elianto","#3366ff99"," "," ","1","+10","[1094]","1","0","1","","","","","","","",""
"pit-trial","27","339483","0.0-2.0-8.1-2.1","battery-v0.2","","""event"",""trial"",""time""
""fullscreenenter"",""1"",""1594""
","
","
","""event"",""trial"",""time""
""fullscreenenter"",""1"",""1594""
","
","","","151","","","18","4247","3077","&#9776;","elianto","#3366ff99"," "," ","1","+10","[1002]","1","0","1","","","","","","","",""
"pit-trial","28","342527","0.0-2.0-8.1-3.1","battery-v0.2","","""event"",""trial"",""time""
""fullscreenenter"",""1"",""1594""
","
","
","""event"",""trial"",""time""
""fullscreenenter"",""1"",""1594""
","
","","","189","","","18","4247","3077","&#9776;","elianto","#3366ff99"," "," ","1","0","[1039]","1","0","1","","","","","","","",""
"pit-trial","29","345517","0.0-2.0-8.1-4.1","battery-v0.2","","""event"",""trial"",""time""
""fullscreenenter"",""1"",""1594""
","
","
","""event"",""trial"",""time""
""fullscreenenter"",""1"",""1594""
","
","","","133","","","18","4247","3077","&#9776;","elianto","#3366ff99"," "," ","1","+10","[987]","1","0","1","","","","","","","",""
"pit-trial","30","348967","0.0-2.0-8.2-0.2","battery-v0.2","","""event"",""trial"",""time""
""fullscreenenter"",""1"",""1594""
","
","
","""event"",""trial"",""time""
""fullscreenenter"",""1"",""1594""
","
","","","594","","","18","4247","3077","&#9776;","elianto","#3366ff99"," "," ","1","+10","[1445]","1","0","1","","","","","","","",""
"pit-trial","31","352070","0.0-2.0-8.2-1.2","battery-v0.2","","""event"",""trial"",""time""
""fullscreenenter"",""1"",""1594""
","
","
","""event"",""trial"",""time""
""fullscreenenter"",""1"",""1594""
","
","","","250","","","18","4247","3077","&#9776;","elianto","#3366ff99"," "," ","1","+10","[1100]","1","0","1","","","","","","","",""
"pit-trial","32","355406","0.0-2.0-8.2-2.2","battery-v0.2","","""event"",""trial"",""time""
""fullscreenenter"",""1"",""1594""
","
","
","""event"",""trial"",""time""
""fullscreenenter"",""1"",""1594""
","
","","","482","","","18","4247","3077","&#9776;","elianto","#3366ff99"," "," ","1","+10","[1332]","1","0","1","","","","","","","",""
"pit-trial","33","359179","0.0-2.0-8.2-3.2","battery-v0.2","","""event"",""trial"",""time""
""fullscreenenter"",""1"",""1594""
","
","
","""event"",""trial"",""time""
""fullscreenenter"",""1"",""1594""
","
","","","917.0000000000582","","","18","4247","3077","&#9776;","elianto","#3366ff99"," "," ","1","0","[1768.0000000000582]","1","0","1","","","","","","","",""
"pit-trial","34","362487","0.0-2.0-8.2-4.2","battery-v0.2","","""event"",""trial"",""time""
""fullscreenenter"",""1"",""1594""
","
","
","""event"",""trial"",""time""
""fullscreenenter"",""1"",""1594""
","
","","","454","","","18","4247","3077","&#9776;","elianto","#3366ff99"," "," ","1","+10","[1304]","1","0","1","","","","","","","",""
"call-function","35","362490","0.0-2.0-9.0","battery-v0.2","","""event"",""trial"",""time""
""fullscreenenter"",""1"",""1594""
","
","
","""event"",""trial"",""time""
""fullscreenenter"",""1"",""1594""
","
","","","","","","","","","","","","","","","","","","","","","","","","","","",""
"pit-instructions","36","404676","0.0-2.0-10.0","battery-v0.2","","""event"",""trial"",""time""
""fullscreenenter"",""1"",""1594""
","
","
","""event"",""trial"",""time""
""fullscreenenter"",""1"",""1594""
","
","","[{""page_index"":0,""viewing_time"":6118},{""page_index"":1,""viewing_time"":6999},{""page_index"":2,""viewing_time"":9518},{""page_index"":3,""viewing_time"":9310},{""page_index"":4,""viewing_time"":10240}]","42186.00000000006","","","","","","","","","","","","","","","","","","","","","","","",""
"pit-trial","37","408102","0.0-2.0-11.0-0.0","battery-v0.2","","""event"",""trial"",""time""
""fullscreenenter"",""1"",""1594""
","
","
","""event"",""trial"",""time""
""fullscreenenter"",""1"",""1594""
","
","","","572","","","18","4247","3077","&#9761;","elianto","#3366ff99","-1"," ","0","0","[1423]","1","0","2","","","","","","","",""
"pit-trial","38","412956","0.0-2.0-11.0-1.0","battery-v0.2","","""event"",""trial"",""time""
""fullscreenenter"",""1"",""1594""
","
","
","""event"",""trial"",""time""
""fullscreenenter"",""1"",""1594""
","
","","","-1","","","18","4247","3077","&#9761;","elianto","#3366ff99","-1","-1","1","+10","[]","0","0","2","","","","","","","",""
"pit-trial","39","417811","0.0-2.0-11.0-2.0","battery-v0.2","","""event"",""trial"",""time""
""fullscreenenter"",""1"",""1594""
","
","
","""event"",""trial"",""time""
""fullscreenenter"",""1"",""1594""
","
","","","-1","","","18","4247","3077","&#9761;","elianto","#3366ff99","-1","-1","1","+10","[]","0","0","2","","","","","","","",""
"pit-trial","40","422667","0.0-2.0-11.0-3.0","battery-v0.2","","""event"",""trial"",""time""
""fullscreenenter"",""1"",""1594""
","
","
","""event"",""trial"",""time""
""fullscreenenter"",""1"",""1594""
","
","","","-1","","","18","4247","3077","&#9761;","elianto","#3366ff99","-1","-1","1","0","[]","0","0","2","","","","","","","",""
"pit-trial","41","427521","0.0-2.0-11.0-4.0","battery-v0.2","","""event"",""trial"",""time""
""fullscreenenter"",""1"",""1594""
","
","
","""event"",""trial"",""time""
""fullscreenenter"",""1"",""1594""
","
","","","-1","","","18","4247","3077","&#9761;","elianto","#3366ff99","-1","-1","1","+10","[]","0","0","2","","","","","","","",""
"pit-trial","42","432378","0.0-2.0-11.1-0.1","battery-v0.2","","""event"",""trial"",""time""
""fullscreenenter"",""1"",""1594""
","
","
","""event"",""trial"",""time""
""fullscreenenter"",""1"",""1594""
","
","","","-1","","","18","4247","3077","&#9761;","elianto","#3366ff99","-1","-1","1","+10","[]","0","0","2","","","","","","","",""
"pit-trial","43","437233","0.0-2.0-11.1-1.1","battery-v0.2","","""event"",""trial"",""time""
""fullscreenenter"",""1"",""1594""
","
","
","""event"",""trial"",""time""
""fullscreenenter"",""1"",""1594""
","
","","","-1","","","18","4247","3077","&#9761;","elianto","#3366ff99","-1","-1","1","+10","[]","0","0","2","","","","","","","",""
"pit-trial","44","442089","0.0-2.0-11.1-2.1","battery-v0.2","","""event"",""trial"",""time""
""fullscreenenter"",""1"",""1594""
","
","
","""event"",""trial"",""time""
""fullscreenenter"",""1"",""1594""
","
","","","-1","","","18","4247","3077","&#9761;","elianto","#3366ff99","-1","-1","1","+10","[]","0","0","2","","","","","","","",""
"pit-trial","45","446945","0.0-2.0-11.1-3.1","battery-v0.2","","""event"",""trial"",""time""
""fullscreenenter"",""1"",""1594""
","
","
","""event"",""trial"",""time""
""fullscreenenter"",""1"",""1594""
","
","","","-1","","","18","4247","3077","&#9761;","elianto","#3366ff99","-1","-1","1","0","[]","0","0","2","","","","","","","",""
"pit-trial","46","451799","0.0-2.0-11.1-4.1","battery-v0.2","","""event"",""trial"",""time""
""fullscreenenter"",""1"",""1594""
","
","
","""event"",""trial"",""time""
""fullscreenenter"",""1"",""1594""
","
","","","-1","","","18","4247","3077","&#9761;","elianto","#3366ff99","-1","-1","1","+10","[]","0","0","2","","","","","","","",""
"pit-trial","47","456655","0.0-2.0-11.2-0.2","battery-v0.2","","""event"",""trial"",""time""
""fullscreenenter"",""1"",""1594""
","
","
","""event"",""trial"",""time""
""fullscreenenter"",""1"",""1594""
","
","","","-1","","","18","4247","3077","&#9761;","elianto","#3366ff99","-1","-1","1","+10","[]","0","0","2","","","","","","","",""
"pit-trial","48","461510","0.0-2.0-11.2-1.2","battery-v0.2","","""event"",""trial"",""time""
""fullscreenenter"",""1"",""1594""
","
","
","""event"",""trial"",""time""
""fullscreenenter"",""1"",""1594""
","
","","","-1","","","18","4247","3077","&#9761;","elianto","#3366ff99","-1","-1","1","+10","[]","0","0","2","","","","","","","",""
"pit-trial","49","466365","0.0-2.0-11.2-2.2","battery-v0.2","","""event"",""trial"",""time""
""fullscreenenter"",""1"",""1594""
","
","
","""event"",""trial"",""time""
""fullscreenenter"",""1"",""1594""
","
","","","-1","","","18","4247","3077","&#9761;","elianto","#3366ff99","-1","-1","1","+10","[]","0","0","2","","","","","","","",""
"pit-trial","50","471220","0.0-2.0-11.2-3.2","battery-v0.2","","""event"",""trial"",""time""
""fullscreenenter"",""1"",""1594""
","
","
","""event"",""trial"",""time""
""fullscreenenter"",""1"",""1594""
","
","","","-1","","","18","4247","3077","&#9761;","elianto","#3366ff99","-1","-1","1","0","[]","0","0","2","","","","","","","",""
"pit-trial","51","476074","0.0-2.0-11.2-4.2","battery-v0.2","","""event"",""trial"",""time""
""fullscreenenter"",""1"",""1594""
","
","
","""event"",""trial"",""time""
""fullscreenenter"",""1"",""1594""
","
","","","-1","","","18","4247","3077","&#9761;","elianto","#3366ff99","-1","-1","1","+10","[]","0","0","2","","","","","","","",""
"pit-trial","52","480929","0.0-2.0-11.3-0.3","battery-v0.2","","""event"",""trial"",""time""
""fullscreenenter"",""1"",""1594""
","
","
","""event"",""trial"",""time""
""fullscreenenter"",""1"",""1594""
","
","","","-1","","","18","4247","3077","&#9761;","elianto","#3366ff99","-1","-1","1","+10","[]","0","0","2","","","","","","","",""
"pit-trial","53","485784","0.0-2.0-11.3-1.3","battery-v0.2","","""event"",""trial"",""time""
""fullscreenenter"",""1"",""1594""
","
","
","""event"",""trial"",""time""
""fullscreenenter"",""1"",""1594""
","
","","","-1","","","18","4247","3077","&#9761;","elianto","#3366ff99","-1","-1","1","+10","[]","0","0","2","","","","","","","",""
"pit-trial","54","490640","0.0-2.0-11.3-2.3","battery-v0.2","","""event"",""trial"",""time""
""fullscreenenter"",""1"",""1594""
","
","
","""event"",""trial"",""time""
""fullscreenenter"",""1"",""1594""
","
","","","-1","","","18","4247","3077","&#9761;","elianto","#3366ff99","-1","-1","1","+10","[]","0","0","2","","","","","","","",""
"pit-trial","55","495496","0.0-2.0-11.3-3.3","battery-v0.2","","""event"",""trial"",""time""
""fullscreenenter"",""1"",""1594""
","
","
","""event"",""trial"",""time""
""fullscreenenter"",""1"",""1594""
","
","","","-1","","","18","4247","3077","&#9761;","elianto","#3366ff99","-1","-1","1","0","[]","0","0","2","","","","","","","",""
"pit-trial","56","499391","0.0-2.0-11.3-4.3","battery-v0.2","","""event"",""trial"",""time""
""fullscreenenter"",""1"",""1594""
","
","
","""event"",""trial"",""time""
""fullscreenenter"",""1"",""1594""
","
","","","1041.9999999999418","","","18","4247","3077","&#9761;","elianto","#3366ff99","-1"," ","0","0","[1892]","1","0","2","","","","","","","",""
"call-function","57","499394","0.0-2.0-12.0","battery-v0.2","","""event"",""trial"",""time""
""fullscreenenter"",""1"",""1594""
","
","
","""event"",""trial"",""time""
""fullscreenenter"",""1"",""1594""
","
","","","","","","","","","","","","","","","","","","","","","","","","","","",""
"pit-instructions","58","529681","0.0-2.0-13.0","battery-v0.2","","""event"",""trial"",""time""
""fullscreenenter"",""1"",""1594""
","
","
","""event"",""trial"",""time""
""fullscreenenter"",""1"",""1594""
","
","","[{""page_index"":0,""viewing_time"":4814},{""page_index"":1,""viewing_time"":6212.000000000058},{""page_index"":2,""viewing_time"":3882.999999999942},{""page_index"":3,""viewing_time"":10432},{""page_index"":4,""viewing_time"":4946}]","30287","","","","","","","","","","","","","","","","","","","","","","","",""
"pit-trial","59","532956","0.0-2.0-14.0-0.0","battery-v0.2","","""event"",""trial"",""time""
""fullscreenenter"",""1"",""1594""
","
","
","""event"",""trial"",""time""
""fullscreenenter"",""1"",""1594""
","
","","","419","","","18","4247","3077","&#9826;","elianto","#f73b6a7A","-1"," ","0","-10","[1269]","1","0","3","","","","","","","",""
"pit-trial","60","537811","0.0-2.0-14.0-1.0","battery-v0.2","","""event"",""trial"",""time""
""fullscreenenter"",""1"",""1594""
","
","
","""event"",""trial"",""time""
""fullscreenenter"",""1"",""1594""
","
","","","-1","","","18","4247","3077","&#9826;","elianto","#f73b6a7A","-1","-1","1","0","[]","0","0","3","","","","","","","",""
"pit-trial","61","542667","0.0-2.0-14.0-2.0","battery-v0.2","","""event"",""trial"",""time""
""fullscreenenter"",""1"",""1594""
","
","
","""event"",""trial"",""time""
""fullscreenenter"",""1"",""1594""
","
","","","-1","","","18","4247","3077","&#9826;","elianto","#f73b6a7A","-1","-1","1","0","[]","0","0","3","","","","","","","",""
"pit-trial","62","547521","0.0-2.0-14.0-3.0","battery-v0.2","","""event"",""trial"",""time""
""fullscreenenter"",""1"",""1594""
","
","
","""event"",""trial"",""time""
""fullscreenenter"",""1"",""1594""
","
","","","-1","","","18","4247","3077","&#9826;","elianto","#f73b6a7A","-1","-1","1","-10","[]","0","0","3","","","","","","","",""
"pit-trial","63","552375","0.0-2.0-14.0-4.0","battery-v0.2","","""event"",""trial"",""time""
""fullscreenenter"",""1"",""1594""
","
","
","""event"",""trial"",""time""
""fullscreenenter"",""1"",""1594""
","
","","","-1","","","18","4247","3077","&#9826;","elianto","#f73b6a7A","-1","-1","1","0","[]","0","0","3","","","","","","","",""
"pit-trial","64","557231","0.0-2.0-14.1-0.1","battery-v0.2","","""event"",""trial"",""time""
""fullscreenenter"",""1"",""1594""
","
","
","""event"",""trial"",""time""
""fullscreenenter"",""1"",""1594""
","
","","","-1","","","18","4247","3077","&#9826;","elianto","#f73b6a7A","-1","-1","1","0","[]","0","0","3","","","","","","","",""
"pit-trial","65","562086","0.0-2.0-14.1-1.1","battery-v0.2","","""event"",""trial"",""time""
""fullscreenenter"",""1"",""1594""
","
","
","""event"",""trial"",""time""
""fullscreenenter"",""1"",""1594""
","
","","","-1","","","18","4247","3077","&#9826;","elianto","#f73b6a7A","-1","-1","1","0","[]","0","0","3","","","","","","","",""
"pit-trial","66","566941","0.0-2.0-14.1-2.1","battery-v0.2","","""event"",""trial"",""time""
""fullscreenenter"",""1"",""1594""
","
","
","""event"",""trial"",""time""
""fullscreenenter"",""1"",""1594""
","
","","","-1","","","18","4247","3077","&#9826;","elianto","#f73b6a7A","-1","-1","1","0","[]","0","0","3","","","","","","","",""
"pit-trial","67","571795","0.0-2.0-14.1-3.1","battery-v0.2","","""event"",""trial"",""time""
""fullscreenenter"",""1"",""1594""
","
","
","""event"",""trial"",""time""
""fullscreenenter"",""1"",""1594""
","
","","","-1","","","18","4247","3077","&#9826;","elianto","#f73b6a7A","-1","-1","1","-10","[]","0","0","3","","","","","","","",""
"pit-trial","68","576649","0.0-2.0-14.1-4.1","battery-v0.2","","""event"",""trial"",""time""
""fullscreenenter"",""1"",""1594""
","
","
","""event"",""trial"",""time""
""fullscreenenter"",""1"",""1594""
","
","","","-1","","","18","4247","3077","&#9826;","elianto","#f73b6a7A","-1","-1","1","0","[]","0","0","3","","","","","","","",""
"pit-trial","69","581505","0.0-2.0-14.2-0.2","battery-v0.2","","""event"",""trial"",""time""
""fullscreenenter"",""1"",""1594""
","
","
","""event"",""trial"",""time""
""fullscreenenter"",""1"",""1594""
","
","","","-1","","","18","4247","3077","&#9826;","elianto","#f73b6a7A","-1","-1","1","0","[]","0","0","3","","","","","","","",""
"pit-trial","70","586360","0.0-2.0-14.2-1.2","battery-v0.2","","""event"",""trial"",""time""
""fullscreenenter"",""1"",""1594""
","
","
","""event"",""trial"",""time""
""fullscreenenter"",""1"",""1594""
","
","","","-1","","","18","4247","3077","&#9826;","elianto","#f73b6a7A","-1","-1","1","0","[]","0","0","3","","","","","","","",""
"pit-trial","71","591214","0.0-2.0-14.2-2.2","battery-v0.2","","""event"",""trial"",""time""
""fullscreenenter"",""1"",""1594""
","
","
","""event"",""trial"",""time""
""fullscreenenter"",""1"",""1594""
","
","","","-1","","","18","4247","3077","&#9826;","elianto","#f73b6a7A","-1","-1","1","0","[]","0","0","3","","","","","","","",""
"pit-trial","72","596070","0.0-2.0-14.2-3.2","battery-v0.2","","""event"",""trial"",""time""
""fullscreenenter"",""1"",""1594""
","
","
","""event"",""trial"",""time""
""fullscreenenter"",""1"",""1594""
","
","","","-1","","","18","4247","3077","&#9826;","elianto","#f73b6a7A","-1","-1","1","-10","[]","0","0","3","","","","","","","",""
"pit-trial","73","600925","0.0-2.0-14.2-4.2","battery-v0.2","","""event"",""trial"",""time""
""fullscreenenter"",""1"",""1594""
","
","
","""event"",""trial"",""time""
""fullscreenenter"",""1"",""1594""
","
","","","-1","","","18","4247","3077","&#9826;","elianto","#f73b6a7A","-1","-1","1","0","[]","0","0","3","","","","","","","",""
"pit-trial","74","605779","0.0-2.0-14.3-0.3","battery-v0.2","","""event"",""trial"",""time""
""fullscreenenter"",""1"",""1594""
","
","
","""event"",""trial"",""time""
""fullscreenenter"",""1"",""1594""
","
","","","-1","","","18","4247","3077","&#9826;","elianto","#f73b6a7A","-1","-1","1","0","[]","0","0","3","","","","","","","",""
"pit-trial","75","610634","0.0-2.0-14.3-1.3","battery-v0.2","","""event"",""trial"",""time""
""fullscreenenter"",""1"",""1594""
","
","
","""event"",""trial"",""time""
""fullscreenenter"",""1"",""1594""
","
","","","-1","","","18","4247","3077","&#9826;","elianto","#f73b6a7A","-1","-1","1","0","[]","0","0","3","","","","","","","",""
"pit-trial","76","615489","0.0-2.0-14.3-2.3","battery-v0.2","","""event"",""trial"",""time""
""fullscreenenter"",""1"",""1594""
","
","
","""event"",""trial"",""time""
""fullscreenenter"",""1"",""1594""
","
","","","-1","","","18","4247","3077","&#9826;","elianto","#f73b6a7A","-1","-1","1","0","[]","0","0","3","","","","","","","",""
"pit-trial","77","620344","0.0-2.0-14.3-3.3","battery-v0.2","","""event"",""trial"",""time""
""fullscreenenter"",""1"",""1594""
","
","
","""event"",""trial"",""time""
""fullscreenenter"",""1"",""1594""
","
","","","-1","","","18","4247","3077","&#9826;","elianto","#f73b6a7A","-1","-1","1","-10","[]","0","0","3","","","","","","","",""
"pit-trial","78","625198","0.0-2.0-14.3-4.3","battery-v0.2","","""event"",""trial"",""time""
""fullscreenenter"",""1"",""1594""
","
","
","""event"",""trial"",""time""
""fullscreenenter"",""1"",""1594""
","
","","","-1","","","18","4247","3077","&#9826;","elianto","#f73b6a7A","-1","-1","1","0","[]","0","0","3","","","","","","","",""
"call-function","79","625200","0.0-2.0-15.0","battery-v0.2","","""event"",""trial"",""time""
""fullscreenenter"",""1"",""1594""
","
","
","""event"",""trial"",""time""
""fullscreenenter"",""1"",""1594""
","
","","","","","","","","","","","","","","","","","","","","","","","","","","",""
"pit-instructions","80","653823","0.0-2.0-16.0","battery-v0.2","","""event"",""trial"",""time""
""fullscreenenter"",""1"",""1594""
","
","
","""event"",""trial"",""time""
""fullscreenenter"",""1"",""1594""
","
","","[{""page_index"":0,""viewing_time"":9727},{""page_index"":1,""viewing_time"":8574.000000000116},{""page_index"":2,""viewing_time"":4617.999999999884},{""page_index"":3,""viewing_time"":5703}]","28622","","","","","","","","","","","","","","","","","","","","","","","",""
"pit-trial","81","657067","0.0-2.0-17.0-0.0","battery-v0.2","","""event"",""trial"",""time""
""fullscreenenter"",""1"",""1594""
","
","
","""event"",""trial"",""time""
""fullscreenenter"",""1"",""1594""
","
","","","389","","","18","4247","3077","&#9789;","elianto","#f73b6a7A"," "," ","1","0","[1239]","1","0","4","","","","","","","",""
"pit-trial","82","660223","0.0-2.0-17.0-1.0","battery-v0.2","","""event"",""trial"",""time""
""fullscreenenter"",""1"",""1594""
","
","
","""event"",""trial"",""time""
""fullscreenenter"",""1"",""1594""
","
","","","301.9999999998836","","","18","4247","3077","&#9789;","elianto","#f73b6a7A"," "," ","1","0","[1152.9999999998836]","1","0","4","","","","","","","",""
"pit-trial","83","663273","0.0-2.0-17.0-2.0","battery-v0.2","","""event"",""trial"",""time""
""fullscreenenter"",""1"",""1594""
","
","
","""event"",""trial"",""time""
""fullscreenenter"",""1"",""1594""
","
","","","195","","","18","4247","3077","&#9789;","elianto","#f73b6a7A"," "," ","1","0","[1045]","1","0","4","","","","","","","",""
"pit-trial","84","666244","0.0-2.0-17.0-3.0","battery-v0.2","","""event"",""trial"",""time""
""fullscreenenter"",""1"",""1594""
","
","
","""event"",""trial"",""time""
""fullscreenenter"",""1"",""1594""
","
","","","115.99999999988358","","","18","4247","3077","&#9789;","elianto","#f73b6a7A"," "," ","1","-10","[966]","1","0","4","","","","","","","",""
"pit-trial","85","669214","0.0-2.0-17.0-4.0","battery-v0.2","","""event"",""trial"",""time""
""fullscreenenter"",""1"",""1594""
","
","
","""event"",""trial"",""time""
""fullscreenenter"",""1"",""1594""
","
","","","114.99999999988358","","","18","4247","3077","&#9789;","elianto","#f73b6a7A"," "," ","1","0","[965.9999999998836]","1","0","4","","","","","","","",""
"pit-trial","86","672164","0.0-2.0-17.1-0.1","battery-v0.2","","""event"",""trial"",""time""
""fullscreenenter"",""1"",""1594""
","
","
","""event"",""trial"",""time""
""fullscreenenter"",""1"",""1594""
","
","","","93.99999999988358","","","18","4247","3077","&#9789;","elianto","#f73b6a7A"," "," ","1","0","[944.9999999998836]","1","0","4","","","","","","","",""
"pit-trial","87","675288","0.0-2.0-17.1-1.1","battery-v0.2","","""event"",""trial"",""time""
""fullscreenenter"",""1"",""1594""
","
","
","""event"",""trial"",""time""
""fullscreenenter"",""1"",""1594""
","
","","","270","","","18","4247","3077","&#9789;","elianto","#f73b6a7A"," "," ","1","0","[1120]","1","0","4","","","","","","","",""
"pit-trial","88","678319","0.0-2.0-17.1-2.1","battery-v0.2","","""event"",""trial"",""time""
""fullscreenenter"",""1"",""1594""
","
","
","""event"",""trial"",""time""
""fullscreenenter"",""1"",""1594""
","
","","","176.00000000011642","","","18","4247","3077","&#9789;","elianto","#f73b6a7A"," "," ","1","0","[1027]","1","0","4","","","","","","","",""
"pit-trial","89","681417","0.0-2.0-17.1-3.1","battery-v0.2","","""event"",""trial"",""time""
""fullscreenenter"",""1"",""1594""
","
","
","""event"",""trial"",""time""
""fullscreenenter"",""1"",""1594""
","
","","","244","","","18","4247","3077","&#9789;","elianto","#f73b6a7A"," "," ","1","-10","[1095]","1","0","4","","","","","","","",""
"pit-trial","90","684363","0.0-2.0-17.1-4.1","battery-v0.2","","""event"",""trial"",""time""
""fullscreenenter"",""1"",""1594""
","
","
","""event"",""trial"",""time""
""fullscreenenter"",""1"",""1594""
","
","","","89.99999999988358","","","18","4247","3077","&#9789;","elianto","#f73b6a7A"," "," ","1","0","[940]","1","0","4","","","","","","","",""
"pit-trial","91","687320","0.0-2.0-17.2-0.2","battery-v0.2","","""event"",""trial"",""time""
""fullscreenenter"",""1"",""1594""
","
","
","""event"",""trial"",""time""
""fullscreenenter"",""1"",""1594""
","
","","","102.00000000011642","","","18","4247","3077","&#9789;","elianto","#f73b6a7A"," "," ","1","0","[953.0000000001164]","1","0","4","","","","","","","",""
"pit-trial","92","690368","0.0-2.0-17.2-1.2","battery-v0.2","","""event"",""trial"",""time""
""fullscreenenter"",""1"",""1594""
","
","
","""event"",""trial"",""time""
""fullscreenenter"",""1"",""1594""
","
","","","192","","","18","4247","3077","&#9789;","elianto","#f73b6a7A"," "," ","1","0","[1043]","1","0","4","","","","","","","",""
"pit-trial","93","693385","0.0-2.0-17.2-2.2","battery-v0.2","","""event"",""trial"",""time""
""fullscreenenter"",""1"",""1594""
","
","
","""event"",""trial"",""time""
""fullscreenenter"",""1"",""1594""
","
","","","162","","","18","4247","3077","&#9789;","elianto","#f73b6a7A"," "," ","1","0","[1013]","1","0","4","","","","","","","",""
"pit-trial","94","696325","0.0-2.0-17.2-3.2","battery-v0.2","","""event"",""trial"",""time""
""fullscreenenter"",""1"",""1594""
","
","
","""event"",""trial"",""time""
""fullscreenenter"",""1"",""1594""
","
","","","86","","","18","4247","3077","&#9789;","elianto","#f73b6a7A"," "," ","1","-10","[937]","1","0","4","","","","","","","",""
"pit-trial","95","699295","0.0-2.0-17.2-4.2","battery-v0.2","","""event"",""trial"",""time""
""fullscreenenter"",""1"",""1594""
","
","
","""event"",""trial"",""time""
""fullscreenenter"",""1"",""1594""
","
","","","117","","","18","4247","3077","&#9789;","elianto","#f73b6a7A"," "," ","1","0","[967]","1","0","4","","","","","","","",""
"pit-trial","96","702297","0.0-2.0-17.3-0.3","battery-v0.2","","""event"",""trial"",""time""
""fullscreenenter"",""1"",""1594""
","
","
","""event"",""trial"",""time""
""fullscreenenter"",""1"",""1594""
","
","","","146","","","18","4247","3077","&#9789;","elianto","#f73b6a7A"," "," ","1","0","[997]","1","0","4","","","","","","","",""
"pit-trial","97","705217","0.0-2.0-17.3-1.3","battery-v0.2","","""event"",""trial"",""time""
""fullscreenenter"",""1"",""1594""
","
","
","""event"",""trial"",""time""
""fullscreenenter"",""1"",""1594""
","
","","","65.99999999988358","","","18","4247","3077","&#9789;","elianto","#f73b6a7A"," "," ","1","0","[916.9999999998836]","1","0","4","","","","","","","",""
"pit-trial","98","708217","0.0-2.0-17.3-2.3","battery-v0.2","","""event"",""trial"",""time""
""fullscreenenter"",""1"",""1594""
","
","
","""event"",""trial"",""time""
""fullscreenenter"",""1"",""1594""
","
","","","146","","","18","4247","3077","&#9789;","elianto","#f73b6a7A"," "," ","1","0","[997]","1","0","4","","","","","","","",""
"pit-trial","99","711220","0.0-2.0-17.3-3.3","battery-v0.2","","""event"",""trial"",""time""
""fullscreenenter"",""1"",""1594""
","
","
","""event"",""trial"",""time""
""fullscreenenter"",""1"",""1594""
","
","","","147.00000000011642","","","18","4247","3077","&#9789;","elianto","#f73b6a7A"," "," ","1","-10","[998.0000000001164]","1","0","4","","","","","","","",""
"pit-trial","100","714193","0.0-2.0-17.3-4.3","battery-v0.2","","""event"",""trial"",""time""
""fullscreenenter"",""1"",""1594""
","
","
","""event"",""trial"",""time""
""fullscreenenter"",""1"",""1594""
","
","","","117","","","18","4247","3077","&#9789;","elianto","#f73b6a7A"," "," ","1","0","[968]","1","0","4","","","","","","","",""
"call-function","101","714196","0.0-2.0-18.0","battery-v0.2","","""event"",""trial"",""time""
""fullscreenenter"",""1"",""1594""
","
","
","""event"",""trial"",""time""
""fullscreenenter"",""1"",""1594""
","
","","","","","","","","","","","","","","","","","","","","","","","","","","",""
"pit-instructions","102","792006","0.0-2.0-19.0","battery-v0.2","","""event"",""trial"",""time""
""fullscreenenter"",""1"",""1594""
","
","
","""event"",""trial"",""time""
""fullscreenenter"",""1"",""1594""
","
","","[{""page_index"":0,""viewing_time"":8199.000000000116},{""page_index"":1,""viewing_time"":6069.999999999884},{""page_index"":2,""viewing_time"":12320},{""page_index"":3,""viewing_time"":11812.000000000116},{""page_index"":4,""viewing_time"":9803.999999999884},{""page_index"":5,""viewing_time"":10271},{""page_index"":6,""viewing_time"":8381},{""page_index"":7,""viewing_time"":6700},{""page_index"":8,""viewing_time"":4253}]","77811","","","","","","","","","","","","","","","","","","","","","","","",""
"pit-comprehension","103","796717","0.0-2.0-20.0-0.0","battery-v0.2","","""event"",""trial"",""time""
""fullscreenenter"",""1"",""1594""
","
","
","""event"",""trial"",""time""
""fullscreenenter"",""1"",""1594""
","
","","","4706.000000000116","[""SPACE""]","0","18","4247","3077","","","","","","","","","","","","","","","","","","",""
"pit-instructions","104","799301","0.0-2.0-20.0-1.0","battery-v0.2","","""event"",""trial"",""time""
""fullscreenenter"",""1"",""1594""
","
","
","""event"",""trial"",""time""
""fullscreenenter"",""1"",""1594""
","
","","[{""page_index"":0,""viewing_time"":2551}]","2552","","","","","","","","","","","","","","","","","","","","","","","",""
"pit-comprehension","105","805349","0.0-2.0-21.0-0.0","battery-v0.2","","""event"",""trial"",""time""
""fullscreenenter"",""1"",""1594""
","
","
","""event"",""trial"",""time""
""fullscreenenter"",""1"",""1594""
","
","","","6043","[""10""]","0","18","4247","3077","","","","","","","","","","","","","","","","","","",""
"pit-instructions","106","807272","0.0-2.0-21.0-1.0","battery-v0.2","","""event"",""trial"",""time""
""fullscreenenter"",""1"",""1594""
","
","
","""event"",""trial"",""time""
""fullscreenenter"",""1"",""1594""
","
","","[{""page_index"":0,""viewing_time"":1888}]","1888","","","","","","","","","","","","","","","","","","","","","","","",""
"pit-comprehension","107","814145","0.0-2.0-22.0-0.0","battery-v0.2","","""event"",""trial"",""time""
""fullscreenenter"",""1"",""1594""
","
","
","""event"",""trial"",""time""
""fullscreenenter"",""1"",""1594""
","
","","","6867.000000000116","[""0""]","0","18","4247","3077","","","","","","","","","","","","","","","","","","",""
"pit-instructions","108","816353","0.0-2.0-22.0-1.0","battery-v0.2","","""event"",""trial"",""time""
""fullscreenenter"",""1"",""1594""
","
","
","""event"",""trial"",""time""
""fullscreenenter"",""1"",""1594""
","
","","[{""page_index"":0,""viewing_time"":2171}]","2172","","","","","","","","","","","","","","","","","","","","","","","",""
"pit-comprehension","109","824841","0.0-2.0-23.0-0.0","battery-v0.2","","""event"",""trial"",""time""
""fullscreenenter"",""1"",""1594""
","
","
","""event"",""trial"",""time""
""fullscreenenter"",""1"",""1594""
","
","","","8482","[""True""]","0","18","4247","3077","","","","","","","","","","","","","","","","","","",""
"pit-instructions","110","827197","0.0-2.0-23.0-1.0","battery-v0.2","","""event"",""trial"",""time""
""fullscreenenter"",""1"",""1594""
","
","
","""event"",""trial"",""time""
""fullscreenenter"",""1"",""1594""
","
","","[{""page_index"":0,""viewing_time"":2321.0000000001164}]","2321.0000000001164","","","","","","","","","","","","","","","","","","","","","","","",""
"pit-comprehension","111","834706","0.0-2.0-24.0-0.0","battery-v0.2","","""event"",""trial"",""time""
""fullscreenenter"",""1"",""1594""
","
","
","""event"",""trial"",""time""
""fullscreenenter"",""1"",""1594""
","
","","","7502","[""True""]","0","18","4247","3077","","","","","","","","","","","","","","","","","","",""
"pit-instructions","112","836817","0.0-2.0-24.0-1.0","battery-v0.2","","""event"",""trial"",""time""
""fullscreenenter"",""1"",""1594""
","
","
","""event"",""trial"",""time""
""fullscreenenter"",""1"",""1594""
","
","","[{""page_index"":0,""viewing_time"":2075}]","2076.0000000001164","","","","","","","","","","","","","","","","","","","","","","","",""
"pit-comprehension","113","843386","0.0-2.0-25.0-0.0","battery-v0.2","","""event"",""trial"",""time""
""fullscreenenter"",""1"",""1594""
","
","
","""event"",""trial"",""time""
""fullscreenenter"",""1"",""1594""
","
","","","6565","[""True""]","0","18","4247","3077","","","","","","","","","","","","","","","","","","",""
"pit-instructions","114","845213","0.0-2.0-25.0-1.0","battery-v0.2","","""event"",""trial"",""time""
""fullscreenenter"",""1"",""1594""
","
","
","""event"",""trial"",""time""
""fullscreenenter"",""1"",""1594""
","
","","[{""page_index"":0,""viewing_time"":1793}]","1794","","","","","","","","","","","","","","","","","","","","","","","",""
"pit-comprehension","115","849824","0.0-2.0-26.0-0.0","battery-v0.2","","""event"",""trial"",""time""
""fullscreenenter"",""1"",""1594""
","
","
","""event"",""trial"",""time""
""fullscreenenter"",""1"",""1594""
","
","","","4606","[""False""]","0","18","4247","3077","","","","","","","","","","","","","","","","","","",""
"pit-instructions","116","851381","0.0-2.0-26.0-1.0","battery-v0.2","","""event"",""trial"",""time""
""fullscreenenter"",""1"",""1594""
","
","
","""event"",""trial"",""time""
""fullscreenenter"",""1"",""1594""
","
","","[{""page_index"":0,""viewing_time"":1519}]","1520","","","","","","","","","","","","","","","","","","","","","","","",""
"pit-instructions","117","867701","0.0-3.0","battery-v0.2","","""event"",""trial"",""time""
""fullscreenenter"",""1"",""1594""
","
","
","""event"",""trial"",""time""
""fullscreenenter"",""1"",""1594""
","
","","[{""page_index"":0,""viewing_time"":4151},{""page_index"":1,""viewing_time"":5024},{""page_index"":2,""viewing_time"":7139}]","16315","","","","","","","","","","","","","","","","","","","","","","","",""
"pit-trial","118","871158","0.0-4.0","battery-v0.2","","""event"",""trial"",""time""
""fullscreenenter"",""1"",""1594""
","
","
","""event"",""trial"",""time""
""fullscreenenter"",""1"",""1594""
","
","","","599","","","18","4247","3077","&#9730;","elianto","#3366ff99"," "," ","1","+10","[1449]","1","1","","","4247","1","1","1","win","go","0"
"pit-trial","119","874562","0.0-5.0","battery-v0.2","","""event"",""trial"",""time""
""fullscreenenter"",""1"",""1594""
","
","
","""event"",""trial"",""time""
""fullscreenenter"",""1"",""1594""
","
","","","548","","","18","4247","3077","&#9728;","elianto","#f73b6a7A","-1"," ","0","-10","[1399]","1","1","","","4247","2","0","4","lose","no-go","0"
"pit-trial","120","878158","0.0-6.0","battery-v0.2","","""event"",""trial"",""time""
""fullscreenenter"",""1"",""1594""
","
","
","""event"",""trial"",""time""
""fullscreenenter"",""1"",""1594""
","
","","","740","","","18","4247","3077","&#9733;","elianto","#3366ff99","-1"," ","0","0","[1591]","1","1","","","4247","3","2","2","win","no-go","0"
"pit-trial","121","881797","0.0-7.0","battery-v0.2","","""event"",""trial"",""time""
""fullscreenenter"",""1"",""1594""
","
","
","""event"",""trial"",""time""
""fullscreenenter"",""1"",""1594""
","
","","","781.9999999998836","","","18","4247","3077","&#9752;","elianto","#f73b6a7A"," "," ","1","0","[1632.9999999998836]","1","1","","","4247","4","3","3","lose","go","0"
"pit-trial","122","885436","0.0-8.0","battery-v0.2","","""event"",""trial"",""time""
""fullscreenenter"",""1"",""1594""
","
","
","""event"",""trial"",""time""
""fullscreenenter"",""1"",""1594""
","
","","","783","","","18","4247","3077","&#9752;","elianto","#f73b6a7A"," "," ","1","0","[1634]","1","1","","","4247","5","3","3","lose","go","0"
"pit-trial","123","890292","0.0-9.0","battery-v0.2","","""event"",""trial"",""time""
""fullscreenenter"",""1"",""1594""
","
","
","""event"",""trial"",""time""
""fullscreenenter"",""1"",""1594""
","
","","","-1","","","18","4247","3077","&#9728;","elianto","#f73b6a7A","-1","-1","1","0","[]","0","1","","","4247","6","0","4","lose","no-go","0"
"pit-trial","124","893682","0.0-10.0","battery-v0.2","","""event"",""trial"",""time""
""fullscreenenter"",""1"",""1594""
","
","
","""event"",""trial"",""time""
""fullscreenenter"",""1"",""1594""
","
","","","534","","","18","4247","3077","&#9730;","elianto","#3366ff99"," "," ","1","+10","[1385]","1","1","","","4247","7","1","1","win","go","0"
"pit-trial","125","898538","0.0-11.0","battery-v0.2","","""event"",""trial"",""time""
""fullscreenenter"",""1"",""1594""
","
","
","""event"",""trial"",""time""
""fullscreenenter"",""1"",""1594""
","
","","","-1","","","18","4247","3077","&#9733;","elianto","#3366ff99","-1","-1","1","+10","[]","0","1","","","4247","8","2","2","win","no-go","0"
"pit-trial","126","901970","0.0-12.0","battery-v0.2","","""event"",""trial"",""time""
""fullscreenenter"",""1"",""1594""
","
","
","""event"",""trial"",""time""
""fullscreenenter"",""1"",""1594""
","
","","","577","","","18","4247","3077","&#9730;","elianto","#3366ff99"," "," ","1","+10","[1426.9999999998836]","1","1","","","4247","9","1","1","win","go","0"
"pit-trial","127","906827","0.0-13.0","battery-v0.2","","""event"",""trial"",""time""
""fullscreenenter"",""1"",""1594""
","
","
","""event"",""trial"",""time""
""fullscreenenter"",""1"",""1594""
","
","","","-1","","","18","4247","3077","&#9733;","elianto","#3366ff99","-1","-1","1","0","[]","0","1","","","4247","10","2","2","win","no-go","1"
"pit-trial","128","911683","0.0-14.0","battery-v0.2","","""event"",""trial"",""time""
""fullscreenenter"",""1"",""1594""
","
","
","""event"",""trial"",""time""
""fullscreenenter"",""1"",""1594""
","
","","","-1","","","18","4247","3077","&#9728;","elianto","#f73b6a7A","-1","-1","1","0","[]","0","1","","","4247","11","0","4","lose","no-go","0"
"pit-trial","129","915061","0.0-15.0","battery-v0.2","","""event"",""trial"",""time""
""fullscreenenter"",""1"",""1594""
","
","
","""event"",""trial"",""time""
""fullscreenenter"",""1"",""1594""
","
","","","522.9999999998836","","","18","4247","3077","&#9752;","elianto","#f73b6a7A"," "," ","1","0","[1373]","1","1","","","4247","12","3","3","lose","go","0"
"pit-trial","130","919916","0.0-16.0","battery-v0.2","","""event"",""trial"",""time""
""fullscreenenter"",""1"",""1594""
","
","
","""event"",""trial"",""time""
""fullscreenenter"",""1"",""1594""
","
","","","-1","","","18","4247","3077","&#9733;","elianto","#3366ff99","-1","-1","1","+10","[]","0","1","","","4247","13","2","2","win","no-go","0"
"pit-trial","131","923461","0.0-17.0","battery-v0.2","","""event"",""trial"",""time""
""fullscreenenter"",""1"",""1594""
","
","
","""event"",""trial"",""time""
""fullscreenenter"",""1"",""1594""
","
","","","688","","","18","4247","3077","&#9752;","elianto","#f73b6a7A"," "," ","1","0","[1538]","1","1","","","4247","14","3","3","lose","go","0"
"pit-trial","132","928321","0.0-18.0","battery-v0.2","","""event"",""trial"",""time""
""fullscreenenter"",""1"",""1594""
","
","
","""event"",""trial"",""time""
""fullscreenenter"",""1"",""1594""
","
","","","-1","","","18","4247","3077","&#9728;","elianto","#f73b6a7A","-1","-1","1","0","[]","0","1","","","4247","15","0","4","lose","no-go","0"
"pit-trial","133","931813","0.0-19.0","battery-v0.2","","""event"",""trial"",""time""
""fullscreenenter"",""1"",""1594""
","
","
","""event"",""trial"",""time""
""fullscreenenter"",""1"",""1594""
","
","","","637","","","18","4247","3077","&#9730;","elianto","#3366ff99"," "," ","1","+10","[1487]","1","1","","","4247","16","1","1","win","go","0"
"pit-trial","134","936669","0.0-20.0","battery-v0.2","","""event"",""trial"",""time""
""fullscreenenter"",""1"",""1594""
","
","
","""event"",""trial"",""time""
""fullscreenenter"",""1"",""1594""
","
","","","-1","","","18","4247","3077","&#9733;","elianto","#3366ff99","-1","-1","1","+10","[]","0","1","","","4247","17","2","2","win","no-go","0"
"pit-trial","135","941525","0.0-21.0","battery-v0.2","","""event"",""trial"",""time""
""fullscreenenter"",""1"",""1594""
","
","
","""event"",""trial"",""time""
""fullscreenenter"",""1"",""1594""
","
","","","-1","","","18","4247","3077","&#9728;","elianto","#f73b6a7A","-1","-1","1","0","[]","0","1","","","4247","18","0","4","lose","no-go","0"
"pit-trial","136","944987","0.0-22.0","battery-v0.2","","""event"",""trial"",""time""
""fullscreenenter"",""1"",""1594""
","
","
","""event"",""trial"",""time""
""fullscreenenter"",""1"",""1594""
","
","","","606","","","18","4247","3077","&#9752;","elianto","#f73b6a7A"," "," ","1","0","[1457]","1","1","","","4247","19","3","3","lose","go","0"
"pit-trial","137","948524","0.0-23.0","battery-v0.2","","""event"",""trial"",""time""
""fullscreenenter"",""1"",""1594""
","
","
","""event"",""trial"",""time""
""fullscreenenter"",""1"",""1594""
","
","","","680","","","18","4247","3077","&#9730;","elianto","#3366ff99"," "," ","1","+10","[1531]","1","1","","","4247","20","1","1","win","go","0"
"pit-instructions","138","960647","0.0-24.0","battery-v0.2","","""event"",""trial"",""time""
""fullscreenenter"",""1"",""1594""
","
","
","""event"",""trial"",""time""
""fullscreenenter"",""1"",""1594""
","
","","[{""page_index"":0,""viewing_time"":5666},{""page_index"":1,""viewing_time"":6453}]","12120.000000000116","","","","","","","","","","","","","","","","","","","","","","","",""
"pit-trial","139","964774","0.0-25.0","battery-v0.2","","""event"",""trial"",""time""
""fullscreenenter"",""1"",""1594""
","
","
","""event"",""trial"",""time""
""fullscreenenter"",""1"",""1594""
","
","","","1268.0000000001164","","","18","4247","3077","r","elianto","#3366ff99","-1"," ","0","+10","[2118.0000000001164]","1","2","","","4247","21","1","2","win","no-go","1"
"pit-trial","140","968132","0.0-26.0","battery-v0.2","","""event"",""trial"",""time""
""fullscreenenter"",""1"",""1594""
","
","
","""event"",""trial"",""time""
""fullscreenenter"",""1"",""1594""
","
","","","502","","","18","4247","3077","m","elianto","#f73b6a7A"," "," ","1","0","[1352]","1","2","","","4247","22","0","3","lose","go","0"
"pit-trial","141","971695","0.0-27.0","battery-v0.2","","""event"",""trial"",""time""
""fullscreenenter"",""1"",""1594""
","
","
","""event"",""trial"",""time""
""fullscreenenter"",""1"",""1594""
","
","","","706","","","18","4247","3077","h","elianto","#f73b6a7A","-1"," ","0","-10","[1557]","1","2","","","4247","23","3","4","lose","no-go","0"
"pit-trial","142","975301","0.0-28.0","battery-v0.2","","""event"",""trial"",""time""
""fullscreenenter"",""1"",""1594""
","
","
","""event"",""trial"",""time""
""fullscreenenter"",""1"",""1594""
","
","","","751","","","18","4247","3077","y","elianto","#f73b6a7A"," "," ","1","0","[1601]","1","2","","","4247","24","2","3","lose","go","0"
"pit-trial","143","980157","0.0-29.0","battery-v0.2","","""event"",""trial"",""time""
""fullscreenenter"",""1"",""1594""
","
","
","""event"",""trial"",""time""
""fullscreenenter"",""1"",""1594""
","
","","","-1","","","18","4247","3077","h","elianto","#f73b6a7A","-1","-1","1","0","[]","0","2","","","4247","25","3","4","lose","no-go","0"
"pit-trial","144","984062","0.0-30.0","battery-v0.2","","""event"",""trial"",""time""
""fullscreenenter"",""1"",""1594""
","
","
","""event"",""trial"",""time""
""fullscreenenter"",""1"",""1594""
","
","","","1049.0000000001164","","","18","4247","3077","y","elianto","#f73b6a7A"," "," ","1","0","[1900.0000000001164]","1","2","","","4247","26","2","3","lose","go","0"
"pit-trial","145","987359","0.0-31.0","battery-v0.2","","""event"",""trial"",""time""
""fullscreenenter"",""1"",""1594""
","
","
","""event"",""trial"",""time""
""fullscreenenter"",""1"",""1594""
","
","","","439","","","18","4247","3077","r","elianto","#3366ff99","-1"," ","0","+10","[1290]","1","2","","","4247","27","1","2","win","no-go","1"
"pit-trial","146","990721","0.0-32.0","battery-v0.2","","""event"",""trial"",""time""
""fullscreenenter"",""1"",""1594""
","
","
","""event"",""trial"",""time""
""fullscreenenter"",""1"",""1594""
","
","","","506.0000000001164","","","18","4247","3077","m","elianto","#f73b6a7A"," "," ","1","0","[1356]","1","2","","","4247","28","0","3","lose","go","0"
"pit-trial","147","994097","0.0-33.0","battery-v0.2","","""event"",""trial"",""time""
""fullscreenenter"",""1"",""1594""
","
","
","""event"",""trial"",""time""
""fullscreenenter"",""1"",""1594""
","
","","","519.9999999998836","","","18","4247","3077","m","elianto","#f73b6a7A"," "," ","1","0","[1370.9999999998836]","1","2","","","4247","29","0","3","lose","go","0"
"pit-trial","148","997441","0.0-34.0","battery-v0.2","","""event"",""trial"",""time""
""fullscreenenter"",""1"",""1594""
","
","
","""event"",""trial"",""time""
""fullscreenenter"",""1"",""1594""
","
","","","484","","","18","4247","3077","r","elianto","#3366ff99","-1"," ","0","0","[1337]","1","2","","","4247","30","1","2","win","no-go","0"
"pit-trial","149","1002297","0.0-35.0","battery-v0.2","","""event"",""trial"",""time""
""fullscreenenter"",""1"",""1594""
","
","
","""event"",""trial"",""time""
""fullscreenenter"",""1"",""1594""
","
","","","-1","","","18","4247","3077","h","elianto","#f73b6a7A","-1","-1","1","0","[]","0","2","","","4247","31","3","4","lose","no-go","0"
"pit-trial","150","1005713","0.0-36.0","battery-v0.2","","""event"",""trial"",""time""
""fullscreenenter"",""1"",""1594""
","
","
","""event"",""trial"",""time""
""fullscreenenter"",""1"",""1594""
","
","","","560","","","18","4247","3077","y","elianto","#f73b6a7A"," "," ","1","0","[1410]","1","2","","","4247","32","2","3","lose","go","0"
"pit-trial","151","1009152","0.0-37.0","battery-v0.2","","""event"",""trial"",""time""
""fullscreenenter"",""1"",""1594""
","
","
","""event"",""trial"",""time""
""fullscreenenter"",""1"",""1594""
","
","","","583","","","18","4247","3077","y","elianto","#f73b6a7A"," "," ","1","0","[1433]","1","2","","","4247","33","2","3","lose","go","0"
"pit-trial","152","1012773","0.0-38.0","battery-v0.2","","""event"",""trial"",""time""
""fullscreenenter"",""1"",""1594""
","
","
","""event"",""trial"",""time""
""fullscreenenter"",""1"",""1594""
","
","","","765","","","18","4247","3077","m","elianto","#f73b6a7A"," "," ","1","-10","[1614.9999999998836]","1","2","","","4247","34","0","3","lose","go","1"
"pit-trial","153","1016041","0.0-39.0","battery-v0.2","","""event"",""trial"",""time""
""fullscreenenter"",""1"",""1594""
","
","
","""event"",""trial"",""time""
""fullscreenenter"",""1"",""1594""
","
","","","412","","","18","4247","3077","r","elianto","#3366ff99","-1"," ","0","+10","[1263]","1","2","","","4247","35","1","2","win","no-go","1"
"pit-trial","154","1020897","0.0-40.0","battery-v0.2","","""event"",""trial"",""time""
""fullscreenenter"",""1"",""1594""
","
","
","""event"",""trial"",""time""
""fullscreenenter"",""1"",""1594""
","
","","","-1","","","18","4247","3077","h","elianto","#f73b6a7A","-1","-1","1","0","[]","0","2","","","4247","36","3","4","lose","no-go","0"
"pit-trial","155","1024155","0.0-41.0","battery-v0.2","","""event"",""trial"",""time""
""fullscreenenter"",""1"",""1594""
","
","
","""event"",""trial"",""time""
""fullscreenenter"",""1"",""1594""
","
","","","402","","","18","4247","3077","m","elianto","#f73b6a7A"," "," ","1","0","[1252]","1","2","","","4247","37","0","3","lose","go","0"
"pit-trial","156","1027687","0.0-42.0","battery-v0.2","","""event"",""trial"",""time""
""fullscreenenter"",""1"",""1594""
","
","
","""event"",""trial"",""time""
""fullscreenenter"",""1"",""1594""
","
","","","674.9999999998836","","","18","4247","3077","y","elianto","#f73b6a7A"," "," ","1","0","[1526]","1","2","","","4247","38","2","3","lose","go","0"
"pit-trial","157","1031056","0.0-43.0","battery-v0.2","","""event"",""trial"",""time""
""fullscreenenter"",""1"",""1594""
","
","
","""event"",""trial"",""time""
""fullscreenenter"",""1"",""1594""
","
","","","513","","","18","4247","3077","r","elianto","#3366ff99","-1"," ","0","0","[1362.9999999998836]","1","2","","","4247","39","1","2","win","no-go","0"
"pit-trial","158","1034357","0.0-44.0","battery-v0.2","","""event"",""trial"",""time""
""fullscreenenter"",""1"",""1594""
","
","
","""event"",""trial"",""time""
""fullscreenenter"",""1"",""1594""
","
","","","445.0000000001164","","","18","4247","3077","h","elianto","#f73b6a7A","-1"," ","0","-10","[1296]","1","2","","","4247","40","3","4","lose","no-go","0"
"pit-trial","159","1037760","0.0-45.0","battery-v0.2","","""event"",""trial"",""time""
""fullscreenenter"",""1"",""1594""
","
","
","""event"",""trial"",""time""
""fullscreenenter"",""1"",""1594""
","
","","","548","","","18","4247","3077","m","elianto","#f73b6a7A"," "," ","1","0","[1397.9999999998836]","1","2","","","4247","41","0","3","lose","go","0"
"pit-trial","160","1041210","0.0-46.0","battery-v0.2","","""event"",""trial"",""time""
""fullscreenenter"",""1"",""1594""
","
","
","""event"",""trial"",""time""
""fullscreenenter"",""1"",""1594""
","
","","","594.0000000001164","","","18","4247","3077","r","elianto","#3366ff99","-1"," ","0","+10","[1445]","1","2","","","4247","42","1","2","win","no-go","1"
"pit-trial","161","1044699","0.0-47.0","battery-v0.2","","""event"",""trial"",""time""
""fullscreenenter"",""1"",""1594""
","
","
","""event"",""trial"",""time""
""fullscreenenter"",""1"",""1594""
","
","","","633","","","18","4247","3077","y","elianto","#f73b6a7A"," "," ","1","-10","[1483.9999999998836]","1","2","","","4247","43","2","3","lose","go","1"
"pit-trial","162","1049555","0.0-48.0","battery-v0.2","","""event"",""trial"",""time""
""fullscreenenter"",""1"",""1594""
","
","
","""event"",""trial"",""time""
""fullscreenenter"",""1"",""1594""
","
","","","-1","","","18","4247","3077","h","elianto","#f73b6a7A","-1","-1","1","0","[]","0","2","","","4247","44","3","4","lose","no-go","0"
"pit-trial","163","1052895","0.0-49.0","battery-v0.2","","""event"",""trial"",""time""
""fullscreenenter"",""1"",""1594""
","
","
","""event"",""trial"",""time""
""fullscreenenter"",""1"",""1594""
","
","","","483","","","18","4247","3077","y","elianto","#f73b6a7A"," "," ","1","-10","[1334]","1","2","","","4247","45","2","3","lose","go","1"
"pit-trial","164","1056324","0.0-50.0","battery-v0.2","","""event"",""trial"",""time""
""fullscreenenter"",""1"",""1594""
","
","
","""event"",""trial"",""time""
""fullscreenenter"",""1"",""1594""
","
","","","573","","","18","4247","3077","m","elianto","#f73b6a7A"," "," ","1","0","[1424]","1","2","","","4247","46","0","3","lose","go","0"
"pit-trial","165","1059869","0.0-51.0","battery-v0.2","","""event"",""trial"",""time""
""fullscreenenter"",""1"",""1594""
","
","
","""event"",""trial"",""time""
""fullscreenenter"",""1"",""1594""
","
","","","689","","","18","4247","3077","r","elianto","#3366ff99","-1"," ","0","+10","[1540]","1","2","","","4247","47","1","2","win","no-go","1"
"pit-trial","166","1064724","0.0-52.0","battery-v0.2","","""event"",""trial"",""time""
""fullscreenenter"",""1"",""1594""
","
","
","""event"",""trial"",""time""
""fullscreenenter"",""1"",""1594""
","
","","","-1","","","18","4247","3077","h","elianto","#f73b6a7A","-1","-1","1","0","[]","0","2","","","4247","48","3","4","lose","no-go","0"
"pit-trial","167","1068236","0.0-53.0","battery-v0.2","","""event"",""trial"",""time""
""fullscreenenter"",""1"",""1594""
","
","
","""event"",""trial"",""time""
""fullscreenenter"",""1"",""1594""
","
","","","656","","","18","4247","3077","r","elianto","#3366ff99","-1"," ","0","+10","[1507]","1","2","","","4247","49","1","2","win","no-go","1"
"pit-trial","168","1073091","0.0-54.0","battery-v0.2","","""event"",""trial"",""time""
""fullscreenenter"",""1"",""1594""
","
","
","""event"",""trial"",""time""
""fullscreenenter"",""1"",""1594""
","
","","","-1","","","18","4247","3077","y","elianto","#f73b6a7A"," ","-1","0","-10","[]","0","2","","","4247","50","2","3","lose","go","0"
"pit-trial","169","1076421","0.0-55.0","battery-v0.2","","""event"",""trial"",""time""
""fullscreenenter"",""1"",""1594""
","
","
","""event"",""trial"",""time""
""fullscreenenter"",""1"",""1594""
","
","","","474","","","18","4247","3077","m","elianto","#f73b6a7A"," "," ","1","0","[1324.9999999997672]","1","2","","","4247","51","0","3","lose","go","0"
"pit-trial","170","1081278","0.0-56.0","battery-v0.2","","""event"",""trial"",""time""
""fullscreenenter"",""1"",""1594""
","
","
","""event"",""trial"",""time""
""fullscreenenter"",""1"",""1594""
","
","","","-1","","","18","4247","3077","h","elianto","#f73b6a7A","-1","-1","1","0","[]","0","2","","","4247","52","3","4","lose","no-go","0"
"pit-trial","171","1084564","0.0-57.0","battery-v0.2","","""event"",""trial"",""time""
""fullscreenenter"",""1"",""1594""
","
","
","""event"",""trial"",""time""
""fullscreenenter"",""1"",""1594""
","
","","","427.99999999976717","","","18","4247","3077","r","elianto","#3366ff99","-1"," ","0","0","[1279]","1","2","","","4247","53","1","2","win","no-go","0"
"pit-trial","172","1088099","0.0-58.0","battery-v0.2","","""event"",""trial"",""time""
""fullscreenenter"",""1"",""1594""
","
","
","""event"",""trial"",""time""
""fullscreenenter"",""1"",""1594""
","
","","","678","","","18","4247","3077","m","elianto","#f73b6a7A"," "," ","1","0","[1530]","1","2","","","4247","54","0","3","lose","go","0"
"pit-trial","173","1091427","0.0-59.0","battery-v0.2","","""event"",""trial"",""time""
""fullscreenenter"",""1"",""1594""
","
","
","""event"",""trial"",""time""
""fullscreenenter"",""1"",""1594""
","
","","","472","","","18","4247","3077","y","elianto","#f73b6a7A"," "," ","1","0","[1322]","1","2","","","4247","55","2","3","lose","go","0"
"pit-trial","174","1096283","0.0-60.0","battery-v0.2","","""event"",""trial"",""time""
""fullscreenenter"",""1"",""1594""
","
","
","""event"",""trial"",""time""
""fullscreenenter"",""1"",""1594""
","
","","","-1","","","18","4247","3077","h","elianto","#f73b6a7A","-1","-1","1","0","[]","0","2","","","4247","56","3","4","lose","no-go","0"
"pit-trial","175","1099876","0.0-61.0","battery-v0.2","","""event"",""trial"",""time""
""fullscreenenter"",""1"",""1594""
","
","
","""event"",""trial"",""time""
""fullscreenenter"",""1"",""1594""
","
","","","737.0000000002328","","","18","4247","3077","m","elianto","#f73b6a7A"," "," ","1","0","[1587.0000000002328]","1","2","","","4247","57","0","3","lose","go","0"
"pit-trial","176","1103294","0.0-62.0","battery-v0.2","","""event"",""trial"",""time""
""fullscreenenter"",""1"",""1594""
","
","
","""event"",""trial"",""time""
""fullscreenenter"",""1"",""1594""
","
","","","562.9999999997672","","","18","4247","3077","y","elianto","#f73b6a7A"," "," ","1","-10","[1414]","1","2","","","4247","58","2","3","lose","go","1"
"pit-trial","177","1108151","0.0-63.0","battery-v0.2","","""event"",""trial"",""time""
""fullscreenenter"",""1"",""1594""
","
","
","""event"",""trial"",""time""
""fullscreenenter"",""1"",""1594""
","
","","","-1","","","18","4247","3077","h","elianto","#f73b6a7A","-1","-1","1","0","[]","0","2","","","4247","59","3","4","lose","no-go","0"
"pit-trial","178","1111663","0.0-64.0","battery-v0.2","","""event"",""trial"",""time""
""fullscreenenter"",""1"",""1594""
","
","
","""event"",""trial"",""time""
""fullscreenenter"",""1"",""1594""
","
","","","657","","","18","4247","3077","z","elianto","#3366ff99"," "," ","1","0","[1507]","1","2","","","4247","60","4","1","win","go","1"
"pit-trial","179","1115224","0.0-65.0","battery-v0.2","","""event"",""trial"",""time""
""fullscreenenter"",""1"",""1594""
","
","
","""event"",""trial"",""time""
""fullscreenenter"",""1"",""1594""
","
","","","704","","","18","4247","3077","y","elianto","#f73b6a7A"," "," ","1","-10","[1555]","1","2","","","4247","61","2","3","lose","go","1"
"pit-trial","180","1120079","0.0-66.0","battery-v0.2","","""event"",""trial"",""time""
""fullscreenenter"",""1"",""1594""
","
","
","""event"",""trial"",""time""
""fullscreenenter"",""1"",""1594""
","
","","","-1","","","18","4247","3077","h","elianto","#f73b6a7A","-1","-1","1","0","[]","0","2","","","4247","62","3","4","lose","no-go","0"
"pit-trial","181","1124935","0.0-67.0","battery-v0.2","","""event"",""trial"",""time""
""fullscreenenter"",""1"",""1594""
","
","
","""event"",""trial"",""time""
""fullscreenenter"",""1"",""1594""
","
","","","-1","","","18","4247","3077","z","elianto","#3366ff99"," ","-1","0","0","[]","0","2","","","4247","63","4","1","win","go","0"
"pit-trial","182","1128418","0.0-68.0","battery-v0.2","","""event"",""trial"",""time""
""fullscreenenter"",""1"",""1594""
","
","
","""event"",""trial"",""time""
""fullscreenenter"",""1"",""1594""
","
","","","628","","","18","4247","3077","r","elianto","#3366ff99","-1"," ","0","+10","[1478]","1","2","","","4247","64","1","2","win","no-go","1"
"pit-trial","183","1132038","0.0-69.0","battery-v0.2","","""event"",""trial"",""time""
""fullscreenenter"",""1"",""1594""
","
","
","""event"",""trial"",""time""
""fullscreenenter"",""1"",""1594""
","
","","","764","","","18","4247","3077","z","elianto","#3366ff99"," "," ","1","+10","[1614]","1","2","","","4247","65","4","1","win","go","0"
"pit-trial","184","1136894","0.0-70.0","battery-v0.2","","""event"",""trial"",""time""
""fullscreenenter"",""1"",""1594""
","
","
","""event"",""trial"",""time""
""fullscreenenter"",""1"",""1594""
","
","","","-1","","","18","4247","3077","h","elianto","#f73b6a7A","-1","-1","1","0","[]","0","2","","","4247","66","3","4","lose","no-go","0"
"pit-trial","185","1140336","0.0-71.0","battery-v0.2","","""event"",""trial"",""time""
""fullscreenenter"",""1"",""1594""
","
","
","""event"",""trial"",""time""
""fullscreenenter"",""1"",""1594""
","
","","","586","","","18","4247","3077","r","elianto","#3366ff99","-1"," ","0","+10","[1436]","1","2","","","4247","67","1","2","win","no-go","1"
"pit-trial","186","1144165","0.0-72.0","battery-v0.2","","""event"",""trial"",""time""
""fullscreenenter"",""1"",""1594""
","
","
","""event"",""trial"",""time""
""fullscreenenter"",""1"",""1594""
","
","","","972","","","18","4247","3077","c","elianto","#3366ff99","-1"," ","0","0","[1823]","1","2","","","4247","68","5","2","win","no-go","0"
"pit-trial","187","1147629","0.0-73.0","battery-v0.2","","""event"",""trial"",""time""
""fullscreenenter"",""1"",""1594""
","
","
","""event"",""trial"",""time""
""fullscreenenter"",""1"",""1594""
","
","","","608","","","18","4247","3077","r","elianto","#3366ff99","-1"," ","0","0","[1459]","1","2","","","4247","69","1","2","win","no-go","0"
"pit-trial","188","1151179","0.0-74.0","battery-v0.2","","""event"",""trial"",""time""
""fullscreenenter"",""1"",""1594""
","
","
","""event"",""trial"",""time""
""fullscreenenter"",""1"",""1594""
","
","","","693","","","18","4247","3077","z","elianto","#3366ff99"," "," ","1","0","[1543.9999999997672]","1","2","","","4247","70","4","1","win","go","1"
"pit-trial","189","1154569","0.0-75.0","battery-v0.2","","""event"",""trial"",""time""
""fullscreenenter"",""1"",""1594""
","
","
","""event"",""trial"",""time""
""fullscreenenter"",""1"",""1594""
","
","","","534","","","18","4247","3077","c","elianto","#3366ff99","-1"," ","0","0","[1385]","1","2","","","4247","71","5","2","win","no-go","0"
"pit-trial","190","1158459","0.0-76.0","battery-v0.2","","""event"",""trial"",""time""
""fullscreenenter"",""1"",""1594""
","
","
","""event"",""trial"",""time""
""fullscreenenter"",""1"",""1594""
","
","","","1035","","","18","4247","3077","y","elianto","#f73b6a7A"," "," ","1","-10","[1885]","1","2","","","4247","72","2","3","lose","go","1"
"pit-trial","191","1161911","0.0-77.0","battery-v0.2","","""event"",""trial"",""time""
""fullscreenenter"",""1"",""1594""
","
","
","""event"",""trial"",""time""
""fullscreenenter"",""1"",""1594""
","
","","","598","","","18","4247","3077","z","elianto","#3366ff99"," "," ","1","+10","[1448]","1","2","","","4247","73","4","1","win","go","0"
"pit-trial","192","1166771","0.0-78.0","battery-v0.2","","""event"",""trial"",""time""
""fullscreenenter"",""1"",""1594""
","
","
","""event"",""trial"",""time""
""fullscreenenter"",""1"",""1594""
","
","","","-1","","","18","4247","3077","h","elianto","#f73b6a7A","-1","-1","1","0","[]","0","2","","","4247","74","3","4","lose","no-go","0"
"pit-trial","193","1171627","0.0-79.0","battery-v0.2","","""event"",""trial"",""time""
""fullscreenenter"",""1"",""1594""
","
","
","""event"",""trial"",""time""
""fullscreenenter"",""1"",""1594""
","
","","","-1","","","18","4247","3077","c","elianto","#3366ff99","-1","-1","1","+10","[]","0","2","","","4247","75","5","2","win","no-go","0"
"pit-trial","194","1175151","0.0-80.0","battery-v0.2","","""event"",""trial"",""time""
""fullscreenenter"",""1"",""1594""
","
","
","""event"",""trial"",""time""
""fullscreenenter"",""1"",""1594""
","
","","","668","","","18","4247","3077","r","elianto","#3366ff99","-1"," ","0","0","[1519]","1","2","","","4247","76","1","2","win","no-go","0"
"pit-trial","195","1180005","0.0-81.0","battery-v0.2","","""event"",""trial"",""time""
""fullscreenenter"",""1"",""1594""
","
","
","""event"",""trial"",""time""
""fullscreenenter"",""1"",""1594""
","
","","","-1","","","18","4247","3077","z","elianto","#3366ff99"," ","-1","0","0","[]","0","2","","","4247","77","4","1","win","go","0"
"pit-trial","196","1184862","0.0-82.0","battery-v0.2","","""event"",""trial"",""time""
""fullscreenenter"",""1"",""1594""
","
","
","""event"",""trial"",""time""
""fullscreenenter"",""1"",""1594""
","
","","","-1","","","18","4247","3077","z","elianto","#3366ff99"," ","-1","0","0","[]","0","2","","","4247","78","4","1","win","go","0"
"pit-trial","197","1189719","0.0-83.0","battery-v0.2","","""event"",""trial"",""time""
""fullscreenenter"",""1"",""1594""
","
","
","""event"",""trial"",""time""
""fullscreenenter"",""1"",""1594""
","
","","","-1","","","18","4247","3077","h","elianto","#f73b6a7A","-1","-1","1","0","[]","0","2","","","4247","79","3","4","lose","no-go","0"
"pit-trial","198","1193366","0.0-84.0","battery-v0.2","","""event"",""trial"",""time""
""fullscreenenter"",""1"",""1594""
","
","
","""event"",""trial"",""time""
""fullscreenenter"",""1"",""1594""
","
","","","792","","","18","4247","3077","c","elianto","#3366ff99","-1"," ","0","0","[1642]","1","2","","","4247","80","5","2","win","no-go","0"
"pit-trial","199","1197040","0.0-85.0","battery-v0.2","","""event"",""trial"",""time""
""fullscreenenter"",""1"",""1594""
","
","
","""event"",""trial"",""time""
""fullscreenenter"",""1"",""1594""
","
","","","819","","","18","4247","3077","z","elianto","#3366ff99"," "," ","1","+10","[1669]","1","2","","","4247","81","4","1","win","go","0"
"pit-trial","200","1201897","0.0-86.0","battery-v0.2","","""event"",""trial"",""time""
""fullscreenenter"",""1"",""1594""
","
","
","""event"",""trial"",""time""
""fullscreenenter"",""1"",""1594""
","
","","","-1","","","18","4247","3077","c","elianto","#3366ff99","-1","-1","1","0","[]","0","2","","","4247","82","5","2","win","no-go","1"
"pit-trial","201","1206753","0.0-87.0","battery-v0.2","","""event"",""trial"",""time""
""fullscreenenter"",""1"",""1594""
","
","
","""event"",""trial"",""time""
""fullscreenenter"",""1"",""1594""
","
","","","-1","","","18","4247","3077","t","elianto","#f73b6a7A","-1","-1","1","0","[]","0","2","","","4247","83","7","4","lose","no-go","0"
"pit-trial","202","1211609","0.0-88.0","battery-v0.2","","""event"",""trial"",""time""
""fullscreenenter"",""1"",""1594""
","
","
","""event"",""trial"",""time""
""fullscreenenter"",""1"",""1594""
","
","","","-1","","","18","4247","3077","h","elianto","#f73b6a7A","-1","-1","1","0","[]","0","2","","","4247","84","3","4","lose","no-go","0"
"pit-trial","203","1216466","0.0-89.0","battery-v0.2","","""event"",""trial"",""time""
""fullscreenenter"",""1"",""1594""
","
","
","""event"",""trial"",""time""
""fullscreenenter"",""1"",""1594""
","
","","","-1","","","18","4247","3077","t","elianto","#f73b6a7A","-1","-1","1","0","[]","0","2","","","4247","85","7","4","lose","no-go","0"
"pit-trial","204","1220486","0.0-90.0","battery-v0.2","","""event"",""trial"",""time""
""fullscreenenter"",""1"",""1594""
","
","
","""event"",""trial"",""time""
""fullscreenenter"",""1"",""1594""
","
","","","1165","","","18","4247","3077","c","elianto","#3366ff99","-1"," ","0","0","[2014]","1","2","","","4247","86","5","2","win","no-go","0"
"pit-trial","205","1224550","0.0-91.0","battery-v0.2","","""event"",""trial"",""time""
""fullscreenenter"",""1"",""1594""
","
","
","""event"",""trial"",""time""
""fullscreenenter"",""1"",""1594""
","
","","","1209","","","18","4247","3077","b","elianto","#f73b6a7A"," "," ","1","0","[2059]","1","2","","","4247","87","6","3","lose","go","0"
"pit-trial","206","1228059","0.0-92.0","battery-v0.2","","""event"",""trial"",""time""
""fullscreenenter"",""1"",""1594""
","
","
","""event"",""trial"",""time""
""fullscreenenter"",""1"",""1594""
","
","","","653","","","18","4247","3077","z","elianto","#3366ff99"," "," ","1","0","[1504]","1","2","","","4247","88","4","1","win","go","1"
"pit-trial","207","1232037","0.0-93.0","battery-v0.2","","""event"",""trial"",""time""
""fullscreenenter"",""1"",""1594""
","
","
","""event"",""trial"",""time""
""fullscreenenter"",""1"",""1594""
","
","","","1125","","","18","4247","3077","b","elianto","#f73b6a7A"," "," ","1","-10","[1975.0000000002328]","1","2","","","4247","89","6","3","lose","go","1"
"pit-trial","208","1235654","0.0-94.0","battery-v0.2","","""event"",""trial"",""time""
""fullscreenenter"",""1"",""1594""
","
","
","""event"",""trial"",""time""
""fullscreenenter"",""1"",""1594""
","
","","","760.9999999997672","","","18","4247","3077","z","elianto","#3366ff99"," "," ","1","+10","[1611]","1","2","","","4247","90","4","1","win","go","0"
"pit-trial","209","1240511","0.0-95.0","battery-v0.2","","""event"",""trial"",""time""
""fullscreenenter"",""1"",""1594""
","
","
","""event"",""trial"",""time""
""fullscreenenter"",""1"",""1594""
","
","","","-1","","","18","4247","3077","t","elianto","#f73b6a7A","-1","-1","1","-10","[]","0","2","","","4247","91","7","4","lose","no-go","1"
"pit-trial","210","1245366","0.0-96.0","battery-v0.2","","""event"",""trial"",""time""
""fullscreenenter"",""1"",""1594""
","
","
","""event"",""trial"",""time""
""fullscreenenter"",""1"",""1594""
","
","","","-1","","","18","4247","3077","c","elianto","#3366ff99","-1","-1","1","+10","[]","0","2","","","4247","92","5","2","win","no-go","0"
"pit-trial","211","1248955","0.0-97.0","battery-v0.2","","""event"",""trial"",""time""
""fullscreenenter"",""1"",""1594""
","
","
","""event"",""trial"",""time""
""fullscreenenter"",""1"",""1594""
","
","","","733","","","18","4247","3077","b","elianto","#f73b6a7A"," "," ","1","0","[1583]","1","2","","","4247","93","6","3","lose","go","0"
"pit-trial","212","1252764","0.0-98.0","battery-v0.2","","""event"",""trial"",""time""
""fullscreenenter"",""1"",""1594""
","
","
","""event"",""trial"",""time""
""fullscreenenter"",""1"",""1594""
","
","","","953","","","18","4247","3077","f","elianto","#3366ff99"," "," ","1","+10","[1803]","1","2","","","4247","94","8","1","win","go","0"
"pit-trial","213","1257619","0.0-99.0","battery-v0.2","","""event"",""trial"",""time""
""fullscreenenter"",""1"",""1594""
","
","
","""event"",""trial"",""time""
""fullscreenenter"",""1"",""1594""
","
","","","-1","","","18","4247","3077","t","elianto","#f73b6a7A","-1","-1","1","0","[]","0","2","","","4247","95","7","4","lose","no-go","0"
"pit-trial","214","1261295","0.0-100.0","battery-v0.2","","""event"",""trial"",""time""
""fullscreenenter"",""1"",""1594""
","
","
","""event"",""trial"",""time""
""fullscreenenter"",""1"",""1594""
","
","","","820","","","18","4247","3077","c","elianto","#3366ff99","-1"," ","0","+10","[1670]","1","2","","","4247","96","5","2","win","no-go","1"
"pit-trial","215","1266150","0.0-101.0","battery-v0.2","","""event"",""trial"",""time""
""fullscreenenter"",""1"",""1594""
","
","
","""event"",""trial"",""time""
""fullscreenenter"",""1"",""1594""
","
","","","-1","","","18","4247","3077","t","elianto","#f73b6a7A","-1","-1","1","0","[]","0","2","","","4247","97","7","4","lose","no-go","0"
"pit-trial","216","1269866","0.0-102.0","battery-v0.2","","""event"",""trial"",""time""
""fullscreenenter"",""1"",""1594""
","
","
","""event"",""trial"",""time""
""fullscreenenter"",""1"",""1594""
","
","","","861","","","18","4247","3077","b","elianto","#f73b6a7A"," "," ","1","0","[1711]","1","2","","","4247","98","6","3","lose","go","0"
"pit-trial","217","1273840","0.0-103.0","battery-v0.2","","""event"",""trial"",""time""
""fullscreenenter"",""1"",""1594""
","
","
","""event"",""trial"",""time""
""fullscreenenter"",""1"",""1594""
","
","","","1119","","","18","4247","3077","f","elianto","#3366ff99"," "," ","1","+10","[1970]","1","2","","","4247","99","8","1","win","go","0"
"pit-trial","218","1277395","0.0-104.0","battery-v0.2","","""event"",""trial"",""time""
""fullscreenenter"",""1"",""1594""
","
","
","""event"",""trial"",""time""
""fullscreenenter"",""1"",""1594""
","
","","","699","","","18","4247","3077","c","elianto","#3366ff99","-1"," ","0","0","[1550]","1","2","","","4247","100","5","2","win","no-go","0"
"pit-trial","219","1282251","0.0-105.0","battery-v0.2","","""event"",""trial"",""time""
""fullscreenenter"",""1"",""1594""
","
","
","""event"",""trial"",""time""
""fullscreenenter"",""1"",""1594""
","
","","","-1","","","18","4247","3077","f","elianto","#3366ff99"," ","-1","0","0","[2915.000000000233]","1","2","","","4247","101","8","1","win","go","0"
"pit-trial","220","1287108","0.0-106.0","battery-v0.2","","""event"",""trial"",""time""
""fullscreenenter"",""1"",""1594""
","
","
","""event"",""trial"",""time""
""fullscreenenter"",""1"",""1594""
","
","","","-1","","","18","4247","3077","n","elianto","#3366ff99"," ","-1","0","0","[]","0","2","","","4247","102","9","1","win","go","0"
"pit-trial","221","1291966","0.0-107.0","battery-v0.2","","""event"",""trial"",""time""
""fullscreenenter"",""1"",""1594""
","
","
","""event"",""trial"",""time""
""fullscreenenter"",""1"",""1594""
","
","","","-1","","","18","4247","3077","t","elianto","#f73b6a7A","-1","-1","1","0","[]","0","2","","","4247","103","7","4","lose","no-go","0"
"pit-trial","222","1295418","0.0-108.0","battery-v0.2","","""event"",""trial"",""time""
""fullscreenenter"",""1"",""1594""
","
","
","""event"",""trial"",""time""
""fullscreenenter"",""1"",""1594""
","
","","","595","","","18","4247","3077","c","elianto","#3366ff99","-1"," ","0","0","[1446]","1","2","","","4247","104","5","2","win","no-go","0"
"pit-trial","223","1298807","0.0-109.0","battery-v0.2","","""event"",""trial"",""time""
""fullscreenenter"",""1"",""1594""
","
","
","""event"",""trial"",""time""
""fullscreenenter"",""1"",""1594""
","
","","","532.0000000002328","","","18","4247","3077","b","elianto","#f73b6a7A"," "," ","1","0","[1383.0000000002328]","1","2","","","4247","105","6","3","lose","go","0"
"pit-trial","224","1302115","0.0-110.0","battery-v0.2","","""event"",""trial"",""time""
""fullscreenenter"",""1"",""1594""
","
","
","""event"",""trial"",""time""
""fullscreenenter"",""1"",""1594""
","
","","","452","","","18","4247","3077","f","elianto","#3366ff99"," "," ","1","+10","[1302]","1","2","","","4247","106","8","1","win","go","0"
"pit-trial","225","1305388","0.0-111.0","battery-v0.2","","""event"",""trial"",""time""
""fullscreenenter"",""1"",""1594""
","
","
","""event"",""trial"",""time""
""fullscreenenter"",""1"",""1594""
","
","","","417","","","18","4247","3077","n","elianto","#3366ff99"," "," ","1","0","[1267]","1","2","","","4247","107","9","1","win","go","1"
"pit-trial","226","1308717","0.0-112.0","battery-v0.2","","""event"",""trial"",""time""
""fullscreenenter"",""1"",""1594""
","
","
","""event"",""trial"",""time""
""fullscreenenter"",""1"",""1594""
","
","","","472","","","18","4247","3077","z","elianto","#3366ff99"," "," ","1","+10","[1322]","1","2","","","4247","108","4","1","win","go","0"
"pit-trial","227","1312047","0.0-113.0","battery-v0.2","","""event"",""trial"",""time""
""fullscreenenter"",""1"",""1594""
","
","
","""event"",""trial"",""time""
""fullscreenenter"",""1"",""1594""
","
","","","475","","","18","4247","3077","c","elianto","#3366ff99","-1"," ","0","0","[1325]","1","2","","","4247","109","5","2","win","no-go","0"
"pit-trial","228","1315333","0.0-114.0","battery-v0.2","","""event"",""trial"",""time""
""fullscreenenter"",""1"",""1594""
","
","
","""event"",""trial"",""time""
""fullscreenenter"",""1"",""1594""
","
","","","429","","","18","4247","3077","n","elianto","#3366ff99"," "," ","1","+10","[1279]","1","2","","","4247","110","9","1","win","go","0"
"pit-trial","229","1318220","0.0-115.0","battery-v0.2","","""event"",""trial"",""time""
""fullscreenenter"",""1"",""1594""
","
","
","""event"",""trial"",""time""
""fullscreenenter"",""1"",""1594""
","
","","","31.00000000023283","","","18","4247","3077","f","elianto","#3366ff99"," "," ","1","0","[881.0000000002328]","1","2","","","4247","111","8","1","win","go","1"
"pit-trial","230","1321258","0.0-116.0","battery-v0.2","","""event"",""trial"",""time""
""fullscreenenter"",""1"",""1594""
","
","
","""event"",""trial"",""time""
""fullscreenenter"",""1"",""1594""
","
","","","182.00000000023283","","","18","4247","3077","b","elianto","#f73b6a7A"," "," ","1","0","[1032.0000000002328]","1","2","","","4247","112","6","3","lose","go","0"
"pit-trial","231","1324572","0.0-117.0","battery-v0.2","","""event"",""trial"",""time""
""fullscreenenter"",""1"",""1594""
","
","
","""event"",""trial"",""time""
""fullscreenenter"",""1"",""1594""
","
","","","458.99999999976717","","","18","4247","3077","f","elianto","#3366ff99"," "," ","1","+10","[1310]","1","2","","","4247","113","8","1","win","go","0"
"pit-trial","232","1327800","0.0-118.0","battery-v0.2","","""event"",""trial"",""time""
""fullscreenenter"",""1"",""1594""
","
","
","""event"",""trial"",""time""
""fullscreenenter"",""1"",""1594""
","
","","","373","","","18","4247","3077","c","elianto","#3366ff99","-1"," ","0","0","[1223]","1","2","","","4247","114","5","2","win","no-go","0"
"pit-trial","233","1330939","0.0-119.0","battery-v0.2","","""event"",""trial"",""time""
""fullscreenenter"",""1"",""1594""
","
","
","""event"",""trial"",""time""
""fullscreenenter"",""1"",""1594""
","
","","","283","","","18","4247","3077","n","elianto","#3366ff99"," "," ","1","+10","[1134]","1","2","","","4247","115","9","1","win","go","0"
"pit-trial","234","1334057","0.0-120.0","battery-v0.2","","""event"",""trial"",""time""
""fullscreenenter"",""1"",""1594""
","
","
","""event"",""trial"",""time""
""fullscreenenter"",""1"",""1594""
","
","","","262","","","18","4247","3077","b","elianto","#f73b6a7A"," "," ","1","0","[1112]","1","2","","","4247","116","6","3","lose","go","0"
"pit-trial","235","1337086","0.0-121.0","battery-v0.2","","""event"",""trial"",""time""
""fullscreenenter"",""1"",""1594""
","
","
","""event"",""trial"",""time""
""fullscreenenter"",""1"",""1594""
","
","","","172","","","18","4247","3077","b","elianto","#f73b6a7A"," "," ","1","0","[1023]","1","2","","","4247","117","6","3","lose","go","0"
"pit-trial","236","1340274","0.0-122.0","battery-v0.2","","""event"",""trial"",""time""
""fullscreenenter"",""1"",""1594""
","
","
","""event"",""trial"",""time""
""fullscreenenter"",""1"",""1594""
","
","","","331","","","18","4247","3077","f","elianto","#3366ff99"," "," ","1","0","[1182]","1","2","","","4247","118","8","1","win","go","1"
"pit-trial","237","1343279","0.0-123.0","battery-v0.2","","""event"",""trial"",""time""
""fullscreenenter"",""1"",""1594""
","
","
","""event"",""trial"",""time""
""fullscreenenter"",""1"",""1594""
","
","","","149","","","18","4247","3077","c","elianto","#3366ff99","-1"," ","0","0","[1000]","1","2","","","4247","119","5","2","win","no-go","0"
"pit-trial","238","1346549","0.0-124.0","battery-v0.2","","""event"",""trial"",""time""
""fullscreenenter"",""1"",""1594""
","
","
","""event"",""trial"",""time""
""fullscreenenter"",""1"",""1594""
","
","","","413","","","18","4247","3077","n","elianto","#3366ff99"," "," ","1","+10","[1263]","1","2","","","4247","120","9","1","win","go","0"
"pit-trial","239","1349609","0.0-125.0","battery-v0.2","","""event"",""trial"",""time""
""fullscreenenter"",""1"",""1594""
","
","
","""event"",""trial"",""time""
""fullscreenenter"",""1"",""1594""
","
","","","205","","","18","4247","3077","t","elianto","#f73b6a7A","-1"," ","0","-10","[1055]","1","2","","","4247","121","7","4","lose","no-go","0"
"pit-trial","240","1353373","0.0-126.0","battery-v0.2","","""event"",""trial"",""time""
""fullscreenenter"",""1"",""1594""
","
","
","""event"",""trial"",""time""
""fullscreenenter"",""1"",""1594""
","
","","","907","","","18","4247","3077","b","elianto","#f73b6a7A"," "," ","1","0","[1760]","1","2","","","4247","122","6","3","lose","go","0"
"pit-trial","241","1356776","0.0-127.0","battery-v0.2","","""event"",""trial"",""time""
""fullscreenenter"",""1"",""1594""
","
","
","""event"",""trial"",""time""
""fullscreenenter"",""1"",""1594""
","
","","","546","","","18","4247","3077","f","elianto","#3366ff99"," "," ","1","0","[1397]","1","2","","","4247","123","8","1","win","go","1"
"pit-trial","242","1360134","0.0-128.0","battery-v0.2","","""event"",""trial"",""time""
""fullscreenenter"",""1"",""1594""
","
","
","""event"",""trial"",""time""
""fullscreenenter"",""1"",""1594""
","
","","","501","","","18","4247","3077","n","elianto","#3366ff99"," "," ","1","+10","[1351.0000000002328]","1","2","","","4247","124","9","1","win","go","0"
"pit-trial","243","1363342","0.0-129.0","battery-v0.2","","""event"",""trial"",""time""
""fullscreenenter"",""1"",""1594""
","
","
","""event"",""trial"",""time""
""fullscreenenter"",""1"",""1594""
","
","","","354","","","18","4247","3077","n","elianto","#3366ff99"," "," ","1","+10","[1204]","1","2","","","4247","125","9","1","win","go","0"
"pit-trial","244","1366739","0.0-130.0","battery-v0.2","","""event"",""trial"",""time""
""fullscreenenter"",""1"",""1594""
","
","
","""event"",""trial"",""time""
""fullscreenenter"",""1"",""1594""
","
","","","538.9999999997672","","","18","4247","3077","b","elianto","#f73b6a7A"," "," ","1","-10","[1391]","1","2","","","4247","126","6","3","lose","go","1"
"pit-trial","245","1371596","0.0-131.0","battery-v0.2","","""event"",""trial"",""time""
""fullscreenenter"",""1"",""1594""
","
","
","""event"",""trial"",""time""
""fullscreenenter"",""1"",""1594""
","
","","","-1","","","18","4247","3077","t","elianto","#f73b6a7A","-1","-1","1","0","[]","0","2","","","4247","127","7","4","lose","no-go","0"
"pit-trial","246","1375021","0.0-132.0","battery-v0.2","","""event"",""trial"",""time""
""fullscreenenter"",""1"",""1594""
","
","
","""event"",""trial"",""time""
""fullscreenenter"",""1"",""1594""
","
","","","568","","","18","4247","3077","f","elianto","#3366ff99"," "," ","1","+10","[1419]","1","2","","","4247","128","8","1","win","go","0"
"pit-trial","247","1379876","0.0-133.0","battery-v0.2","","""event"",""trial"",""time""
""fullscreenenter"",""1"",""1594""
","
","
","""event"",""trial"",""time""
""fullscreenenter"",""1"",""1594""
","
","","","-1","","","18","4247","3077","t","elianto","#f73b6a7A","-1","-1","1","0","[]","0","2","","","4247","129","7","4","lose","no-go","0"
"pit-trial","248","1383555","0.0-134.0","battery-v0.2","","""event"",""trial"",""time""
""fullscreenenter"",""1"",""1594""
","
","
","""event"",""trial"",""time""
""fullscreenenter"",""1"",""1594""
","
","","","823","","","18","4247","3077","b","elianto","#f73b6a7A"," "," ","1","0","[1672.9999999997672]","1","2","","","4247","130","6","3","lose","go","0"
"pit-trial","249","1386912","0.0-135.0","battery-v0.2","","""event"",""trial"",""time""
""fullscreenenter"",""1"",""1594""
","
","
","""event"",""trial"",""time""
""fullscreenenter"",""1"",""1594""
","
","","","501","","","18","4247","3077","f","elianto","#3366ff99"," "," ","1","+10","[1352]","1","2","","","4247","131","8","1","win","go","0"
"pit-trial","250","1390303","0.0-136.0","battery-v0.2","","""event"",""trial"",""time""
""fullscreenenter"",""1"",""1594""
","
","
","""event"",""trial"",""time""
""fullscreenenter"",""1"",""1594""
","
","","","535","","","18","4247","3077","n","elianto","#3366ff99"," "," ","1","+10","[1385]","1","2","","","4247","132","9","1","win","go","0"
"pit-trial","251","1393653","0.0-137.0","battery-v0.2","","""event"",""trial"",""time""
""fullscreenenter"",""1"",""1594""
","
","
","""event"",""trial"",""time""
""fullscreenenter"",""1"",""1594""
","
","","","494","","","18","4247","3077","n","elianto","#3366ff99"," "," ","1","+10","[1345]","1","2","","","4247","133","9","1","win","go","0"
"pit-trial","252","1398510","0.0-138.0","battery-v0.2","","""event"",""trial"",""time""
""fullscreenenter"",""1"",""1594""
","
","
","""event"",""trial"",""time""
""fullscreenenter"",""1"",""1594""
","
","","","-1","","","18","4247","3077","t","elianto","#f73b6a7A","-1","-1","1","0","[]","0","2","","","4247","134","7","4","lose","no-go","0"
"pit-trial","253","1402010","0.0-139.0","battery-v0.2","","""event"",""trial"",""time""
""fullscreenenter"",""1"",""1594""
","
","
","""event"",""trial"",""time""
""fullscreenenter"",""1"",""1594""
","
","","","646","","","18","4247","3077","b","elianto","#f73b6a7A"," "," ","1","-10","[1496]","1","2","","","4247","135","6","3","lose","go","1"
"pit-trial","254","1405652","0.0-140.0","battery-v0.2","","""event"",""trial"",""time""
""fullscreenenter"",""1"",""1594""
","
","
","""event"",""trial"",""time""
""fullscreenenter"",""1"",""1594""
","
","","","786","","","18","4247","3077","f","elianto","#3366ff99"," "," ","1","+10","[1637]","1","2","","","4247","136","8","1","win","go","0"
"pit-trial","255","1408950","0.0-141.0","battery-v0.2","","""event"",""trial"",""time""
""fullscreenenter"",""1"",""1594""
","
","
","""event"",""trial"",""time""
""fullscreenenter"",""1"",""1594""
","
","","","442","","","18","4247","3077","n","elianto","#3366ff99"," "," ","1","0","[1292.0000000002328]","1","2","","","4247","137","9","1","win","go","1"
"pit-trial","256","1412312","0.0-142.0","battery-v0.2","","""event"",""trial"",""time""
""fullscreenenter"",""1"",""1594""
","
","
","""event"",""trial"",""time""
""fullscreenenter"",""1"",""1594""
","
","","","506","","","18","4247","3077","f","elianto","#3366ff99"," "," ","1","+10","[1356]","1","2","","","4247","138","8","1","win","go","0"
"pit-trial","257","1417169","0.0-143.0","battery-v0.2","","""event"",""trial"",""time""
""fullscreenenter"",""1"",""1594""
","
","
","""event"",""trial"",""time""
""fullscreenenter"",""1"",""1594""
","
","","","-1","","","18","4247","3077","t","elianto","#f73b6a7A","-1","-1","1","0","[]","0","2","","","4247","139","7","4","lose","no-go","0"
"pit-trial","258","1421014","0.0-144.0","battery-v0.2","","""event"",""trial"",""time""
""fullscreenenter"",""1"",""1594""
","
","
","""event"",""trial"",""time""
""fullscreenenter"",""1"",""1594""
","
","","","988","","","18","4247","3077","b","elianto","#f73b6a7A"," "," ","1","0","[1839]","1","2","","","4247","140","6","3","lose","go","0"
"pit-instructions","259","1471440","0.0-145.0","battery-v0.2","","""event"",""trial"",""time""
""fullscreenenter"",""1"",""1594""
","
","
","""event"",""trial"",""time""
""fullscreenenter"",""1"",""1594""
","
","","[{""page_index"":0,""viewing_time"":41892},{""page_index"":1,""viewing_time"":8530}]","50423","","","","","","","","","","","","","","","","","","","","","","","",""
"pit-trial","260","1474903","0.0-146.0","battery-v0.2","","""event"",""trial"",""time""
""fullscreenenter"",""1"",""1594""
","
","
","""event"",""trial"",""time""
""fullscreenenter"",""1"",""1594""
","
","","","604","","","18","4247","3077","e","elianto","#f73b6a7A","-1"," ","0","-10","[1453.9999999997672]","1","3","","","4247","141","2","4","lose","no-go","0"
"pit-trial","261","1478515","0.0-147.0","battery-v0.2","","""event"",""trial"",""time""
""fullscreenenter"",""1"",""1594""
","
","
","""event"",""trial"",""time""
""fullscreenenter"",""1"",""1594""
","
","","","756.0000000002328","","","18","4247","3077","j","elianto","#f73b6a7A","-1"," ","0","-10","[1607.0000000002328]","1","3","","","4247","142","0","4","lose","no-go","0"
"pit-trial","262","1483372","0.0-148.0","battery-v0.2","","""event"",""trial"",""time""
""fullscreenenter"",""1"",""1594""
","
","
","""event"",""trial"",""time""
""fullscreenenter"",""1"",""1594""
","
","","","-1","","","18","4247","3077","w","elianto","#f73b6a7A"," ","-1","0","-10","[]","0","3","","","4247","143","3","3","lose","go","0"
"pit-trial","263","1486939","0.0-149.0","battery-v0.2","","""event"",""trial"",""time""
""fullscreenenter"",""1"",""1594""
","
","
","""event"",""trial"",""time""
""fullscreenenter"",""1"",""1594""
","
","","","711","","","18","4247","3077","d","elianto","#3366ff99"," "," ","1","+10","[1561]","1","3","","","4247","144","1","1","win","go","0"
"pit-trial","264","1491794","0.0-150.0","battery-v0.2","","""event"",""trial"",""time""
""fullscreenenter"",""1"",""1594""
","
","
","""event"",""trial"",""time""
""fullscreenenter"",""1"",""1594""
","
","","","-1","","","18","4247","3077","e","elianto","#f73b6a7A","-1","-1","1","0","[]","0","3","","","4247","145","2","4","lose","no-go","0"
"pit-trial","265","1495562","0.0-151.0","battery-v0.2","","""event"",""trial"",""time""
""fullscreenenter"",""1"",""1594""
","
","
","""event"",""trial"",""time""
""fullscreenenter"",""1"",""1594""
","
","","","912","","","18","4247","3077","j","elianto","#f73b6a7A","-1"," ","0","-10","[1762]","1","3","","","4247","146","0","4","lose","no-go","0"
"pit-trial","266","1498930","0.0-152.0","battery-v0.2","","""event"",""trial"",""time""
""fullscreenenter"",""1"",""1594""
","
","
","""event"",""trial"",""time""
""fullscreenenter"",""1"",""1594""
","
","","","512","","","18","4247","3077","w","elianto","#f73b6a7A"," "," ","1","0","[1362.0000000002328]","1","3","","","4247","147","3","3","lose","go","0"
"pit-trial","267","1502298","0.0-153.0","battery-v0.2","","""event"",""trial"",""time""
""fullscreenenter"",""1"",""1594""
","
","
","""event"",""trial"",""time""
""fullscreenenter"",""1"",""1594""
","
","","","512","","","18","4247","3077","d","elianto","#3366ff99"," "," ","1","0","[1362]","1","3","","","4247","148","1","1","win","go","1"
"pit-trial","268","1505652","0.0-154.0","battery-v0.2","","""event"",""trial"",""time""
""fullscreenenter"",""1"",""1594""
","
","
","""event"",""trial"",""time""
""fullscreenenter"",""1"",""1594""
","
","","","499","","","18","4247","3077","w","elianto","#f73b6a7A"," "," ","1","0","[1348.9999999997672]","1","3","","","4247","149","3","3","lose","go","0"
"pit-trial","269","1509027","0.0-155.0","battery-v0.2","","""event"",""trial"",""time""
""fullscreenenter"",""1"",""1594""
","
","
","""event"",""trial"",""time""
""fullscreenenter"",""1"",""1594""
","
","","","518","","","18","4247","3077","d","elianto","#3366ff99"," "," ","1","+10","[1369]","1","3","","","4247","150","1","1","win","go","0"
"pit-trial","270","1513883","0.0-156.0","battery-v0.2","","""event"",""trial"",""time""
""fullscreenenter"",""1"",""1594""
","
","
","""event"",""trial"",""time""
""fullscreenenter"",""1"",""1594""
","
","","","-1","","","18","4247","3077","j","elianto","#f73b6a7A","-1","-1","1","0","[]","0","3","","","4247","151","0","4","lose","no-go","0"
"pit-trial","271","1518738","0.0-157.0","battery-v0.2","","""event"",""trial"",""time""
""fullscreenenter"",""1"",""1594""
","
","
","""event"",""trial"",""time""
""fullscreenenter"",""1"",""1594""
","
","","","-1","","","18","4247","3077","e","elianto","#f73b6a7A","-1","-1","1","0","[]","0","3","","","4247","152","2","4","lose","no-go","0"
"pit-trial","272","1522259","0.0-158.0","battery-v0.2","","""event"",""trial"",""time""
""fullscreenenter"",""1"",""1594""
","
","
","""event"",""trial"",""time""
""fullscreenenter"",""1"",""1594""
","
","","","665","","","18","4247","3077","w","elianto","#f73b6a7A"," "," ","1","0","[1516]","1","3","","","4247","153","3","3","lose","go","0"
"pit-trial","273","1525815","0.0-159.0","battery-v0.2","","""event"",""trial"",""time""
""fullscreenenter"",""1"",""1594""
","
","
","""event"",""trial"",""time""
""fullscreenenter"",""1"",""1594""
","
","","","699","","","18","4247","3077","d","elianto","#3366ff99"," "," ","1","0","[1548.9999999997672]","1","3","","","4247","154","1","1","win","go","1"
"pit-trial","274","1530671","0.0-160.0","battery-v0.2","","""event"",""trial"",""time""
""fullscreenenter"",""1"",""1594""
","
","
","""event"",""trial"",""time""
""fullscreenenter"",""1"",""1594""
","
","","","-1","","","18","4247","3077","j","elianto","#f73b6a7A","-1","-1","1","0","[]","0","3","","","4247","155","0","4","lose","no-go","0"
"pit-trial","275","1535527","0.0-161.0","battery-v0.2","","""event"",""trial"",""time""
""fullscreenenter"",""1"",""1594""
","
","
","""event"",""trial"",""time""
""fullscreenenter"",""1"",""1594""
","
