"trial_type","trial_index","time_elapsed","internal_node_id","task_version","subject_id","interactions","blur_events","focus_events","fullscreenenter_events","fullscreenexit_events","success","view_history","rt","responses","num_errors","age","subject","participantId","rune","rune_set","hex","correct","choice","accuracy","outcome","keys","total_keys","block","practice","value","sub","trial","stimulus","robot","valence","action","sham"
"pavlovia","0","25","0.0-0.0","battery-v0.2","","""event"",""trial"",""time""
""fullscreenenter"",""1"",""2146""
","
","
","""event"",""trial"",""time""
""fullscreenenter"",""1"",""2146""
","
","","","","","","","","","","","","","","","","","","","","","","","","","","",""
"fullscreen","1","3107","0.0-1.0","battery-v0.2","","""event"",""trial"",""time""
""fullscreenenter"",""1"",""2146""
","
","
","""event"",""trial"",""time""
""fullscreenenter"",""1"",""2146""
","
","true","","","","","","","","","","","","","","","","","","","","","","","","","",""
"pit-instructions","2","8349","0.0-2.0-0.0","battery-v0.2","","""event"",""trial"",""time""
""fullscreenenter"",""1"",""2146""
","
","
","""event"",""trial"",""time""
""fullscreenenter"",""1"",""2146""
","
","","[{""page_index"":0,""viewing_time"":5226.5}]","5230.5999999940395","","","","","","","","","","","","","","","","","","","","","","","",""
"pit-comprehension","3","12556","0.0-2.0-1.0-0.0","battery-v0.2","","""event"",""trial"",""time""
""fullscreenenter"",""1"",""2146""
","
","
","""event"",""trial"",""time""
""fullscreenenter"",""1"",""2146""
","
","","","4188.100000008941","[""shark""]","0","18","10545","3396","","","","","","","","","","","","","","","","","","",""
"pit-instructions","4","17083","0.0-2.0-1.0-1.0","battery-v0.2","","""event"",""trial"",""time""
""fullscreenenter"",""1"",""2146""
","
","
","""event"",""trial"",""time""
""fullscreenenter"",""1"",""2146""
","
","","[{""page_index"":0,""viewing_time"":4492.600000008941}]","4493.4000000059605","","","","","","","","","","","","","","","","","","","","","","","",""
"pit-comprehension","5","19884","0.0-2.0-2.0-0.0","battery-v0.2","","""event"",""trial"",""time""
""fullscreenenter"",""1"",""2146""
","
","
","""event"",""trial"",""time""
""fullscreenenter"",""1"",""2146""
","
","","","2783.2999999970198","[""tiger""]","0","18","10545","3396","","","","","","","","","","","","","","","","","","",""
"pit-instructions","6","21008","0.0-2.0-2.0-1.0","battery-v0.2","","""event"",""trial"",""time""
""fullscreenenter"",""1"",""2146""
","
","
","""event"",""trial"",""time""
""fullscreenenter"",""1"",""2146""
","
","","[{""page_index"":0,""viewing_time"":1117.2999999970198}]","1117.7000000029802","","","","","","","","","","","","","","","","","","","","","","","",""
"pit-instructions","7","132690","0.0-2.0-3.0","battery-v0.2","","""event"",""trial"",""time""
""fullscreenenter"",""1"",""2146""
","
","
","""event"",""trial"",""time""
""fullscreenenter"",""1"",""2146""
","
","","[{""page_index"":0,""viewing_time"":12144.40000000596},{""page_index"":1,""viewing_time"":7315},{""page_index"":2,""viewing_time"":6187.0999999940395},{""page_index"":3,""viewing_time"":5440.4000000059605},{""page_index"":4,""viewing_time"":5849.5},{""page_index"":5,""viewing_time"":5809},{""page_index"":6,""viewing_time"":7656.899999991059},{""page_index"":7,""viewing_time"":7637.600000008941},{""page_index"":8,""viewing_time"":6113.0999999940395},{""page_index"":9,""viewing_time"":17203.40000000596},{""page_index"":10,""viewing_time"":8053.79999999702},{""page_index"":11,""viewing_time"":7736.29999999702},{""page_index"":12,""viewing_time"":7779.20000000298},{""page_index"":13,""viewing_time"":6746.5}]","111672.79999999702","","","","","","","","","","","","","","","","","","","","","","","",""
"pit-trial","8","136248","0.0-2.0-4.0-0.0","battery-v0.2","","""event"",""trial"",""time""
""fullscreenenter"",""1"",""2146""
","
","
","""event"",""trial"",""time""
""fullscreenenter"",""1"",""2146""
","
","","","687.7000000029802","","","18","10545","3396","&#9784;","elianto","#FFFFF080"," "," ","1","&#10004","[1537.4000000059605]","1","0","0","","","","","","","",""
"pit-trial","9","139825","0.0-2.0-4.1-0.1","battery-v0.2","","""event"",""trial"",""time""
""fullscreenenter"",""1"",""2146""
","
","
","""event"",""trial"",""time""
""fullscreenenter"",""1"",""2146""
","
","","","710.5999999940395","","","18","10545","3396","&#9784;","elianto","#FFFFF080"," "," ","1","&#10004","[1569.2999999970198]","1","0","0","","","","","","","",""
"pit-trial","10","143420","0.0-2.0-4.2-0.2","battery-v0.2","","""event"",""trial"",""time""
""fullscreenenter"",""1"",""2146""
","
","
","""event"",""trial"",""time""
""fullscreenenter"",""1"",""2146""
","
","","","727.9000000059605","","","18","10545","3396","&#9784;","elianto","#FFFFF080"," "," ","1","&#10004","[1580]","1","0","0","","","","","","","",""
"pit-trial","11","146790","0.0-2.0-4.3-0.3","battery-v0.2","","""event"",""trial"",""time""
""fullscreenenter"",""1"",""2146""
","
","
","""event"",""trial"",""time""
""fullscreenenter"",""1"",""2146""
","
","","","497.90000000596046","","","18","10545","3396","&#9784;","elianto","#FFFFF080"," "," ","1","&#10004","[1361.2999999970198]","1","0","0","","","","","","","",""
"pit-trial","12","150282","0.0-2.0-4.4-0.4","battery-v0.2","","""event"",""trial"",""time""
""fullscreenenter"",""1"",""2146""
","
","
","""event"",""trial"",""time""
""fullscreenenter"",""1"",""2146""
","
","","","627.7000000029802","","","18","10545","3396","&#9784;","elianto","#FFFFF080"," "," ","1","&#10004","[1480.5]","1","0","0","","","","","","","",""
"pit-instructions","13","173830","0.0-2.0-5.0","battery-v0.2","","""event"",""trial"",""time""
""fullscreenenter"",""1"",""2146""
","
","
","""event"",""trial"",""time""
""fullscreenenter"",""1"",""2146""
","
","","[{""page_index"":0,""viewing_time"":5130.20000000298},{""page_index"":1,""viewing_time"":5834.699999988079},{""page_index"":2,""viewing_time"":6582.100000008941},{""page_index"":3,""viewing_time"":5981.899999991059}]","23529.79999999702","","","","","","","","","","","","","","","","","","","","","","","",""
"pit-trial","14","178716","0.0-2.0-6.0-0.0","battery-v0.2","","""event"",""trial"",""time""
""fullscreenenter"",""1"",""2146""
","
","
","""event"",""trial"",""time""
""fullscreenenter"",""1"",""2146""
","
","","","-1","","","18","10545","3396","&#9854;","elianto","#FFFFF080","-1","-1","1","&#10004","[]","0","0","1","","","","","","","",""
"pit-trial","15","183586","0.0-2.0-6.1-0.1","battery-v0.2","","""event"",""trial"",""time""
""fullscreenenter"",""1"",""2146""
","
","
","""event"",""trial"",""time""
""fullscreenenter"",""1"",""2146""
","
","","","-1","","","18","10545","3396","&#9854;","elianto","#FFFFF080","-1","-1","1","&#10004","[]","0","0","1","","","","","","","",""
"pit-trial","16","188464","0.0-2.0-6.2-0.2","battery-v0.2","","""event"",""trial"",""time""
""fullscreenenter"",""1"",""2146""
","
","
","""event"",""trial"",""time""
""fullscreenenter"",""1"",""2146""
","
","","","-1","","","18","10545","3396","&#9854;","elianto","#FFFFF080","-1","-1","1","&#10004","[]","0","0","1","","","","","","","",""
"pit-trial","17","193336","0.0-2.0-6.3-0.3","battery-v0.2","","""event"",""trial"",""time""
""fullscreenenter"",""1"",""2146""
","
","
","""event"",""trial"",""time""
""fullscreenenter"",""1"",""2146""
","
","","","-1","","","18","10545","3396","&#9854;","elianto","#FFFFF080","-1","-1","1","&#10004","[]","0","0","1","","","","","","","",""
"pit-trial","18","198225","0.0-2.0-6.4-0.4","battery-v0.2","","""event"",""trial"",""time""
""fullscreenenter"",""1"",""2146""
","
","
","""event"",""trial"",""time""
""fullscreenenter"",""1"",""2146""
","
","","","-1","","","18","10545","3396","&#9854;","elianto","#FFFFF080","-1","-1","1","&#10004","[]","0","0","1","","","","","","","",""
"pit-instructions","19","327315","0.0-2.0-7.0","battery-v0.2","","""event"",""trial"",""time""
""fullscreenenter"",""1"",""2146""
","
","
","""event"",""trial"",""time""
""fullscreenenter"",""1"",""2146""
","
","","[{""page_index"":0,""viewing_time"":5877.70000000298},{""page_index"":1,""viewing_time"":8519.10000000894},{""page_index"":2,""viewing_time"":6804.899999991059},{""page_index"":3,""viewing_time"":6879.29999999702},{""page_index"":4,""viewing_time"":6175.9000000059605},{""page_index"":5,""viewing_time"":7409},{""page_index"":6,""viewing_time"":4803.9000000059605},{""page_index"":7,""viewing_time"":8256.29999999702},{""page_index"":8,""viewing_time"":7253.79999999702},{""page_index"":9,""viewing_time"":7818.4000000059605},{""page_index"":10,""viewing_time"":7872},{""page_index"":11,""viewing_time"":4648.899999991059},{""page_index"":12,""viewing_time"":8530.79999999702},{""page_index"":13,""viewing_time"":9061.60000000894},{""page_index"":14,""viewing_time"":7688.70000000298},{""page_index"":15,""viewing_time"":7200.5},{""page_index"":16,""viewing_time"":6646.5},{""page_index"":17,""viewing_time"":7626.5999999940395}]","129074.80000001192","","","","","","","","","","","","","","","","","","","","","","","",""
"pit-trial","20","331178","0.0-2.0-8.0-0.0","battery-v0.2","","""event"",""trial"",""time""
""fullscreenenter"",""1"",""2146""
","
","
","""event"",""trial"",""time""
""fullscreenenter"",""1"",""2146""
","
","","","979.4000000059605","","","18","10545","3396","&#9776;","elianto","#3366ff99"," "," ","1","+10","[1840]","1","0","1","","","","","","","",""
"pit-trial","21","335205","0.0-2.0-8.0-1.0","battery-v0.2","","""event"",""trial"",""time""
""fullscreenenter"",""1"",""2146""
","
","
","""event"",""trial"",""time""
""fullscreenenter"",""1"",""2146""
","
","","","1152.0999999940395","","","18","10545","3396","&#9776;","elianto","#3366ff99"," "," ","1","+10","[2002.8999999910593]","1","0","1","","","","","","","",""
"pit-trial","22","338752","0.0-2.0-8.0-2.0","battery-v0.2","","""event"",""trial"",""time""
""fullscreenenter"",""1"",""2146""
","
","
","""event"",""trial"",""time""
""fullscreenenter"",""1"",""2146""
","
","","","688.0999999940395","","","18","10545","3396","&#9776;","elianto","#3366ff99"," "," ","1","+10","[1538.4000000059605]","1","0","1","","","","","","","",""
"pit-trial","23","342320","0.0-2.0-8.0-3.0","battery-v0.2","","""event"",""trial"",""time""
""fullscreenenter"",""1"",""2146""
","
","
","""event"",""trial"",""time""
""fullscreenenter"",""1"",""2146""
","
","","","685.2999999970198","","","18","10545","3396","&#9776;","elianto","#3366ff99"," "," ","1","0","[1550.9000000059605]","1","0","1","","","","","","","",""
"pit-trial","24","346395","0.0-2.0-8.0-4.0","battery-v0.2","","""event"",""trial"",""time""
""fullscreenenter"",""1"",""2146""
","
","
","""event"",""trial"",""time""
""fullscreenenter"",""1"",""2146""
","
","","","1207.1000000089407","","","18","10545","3396","&#9776;","elianto","#3366ff99"," "," ","1","+10","[2058.7000000029802,2125.2999999970198]","2","0","1","","","","","","","",""
"pit-trial","25","349830","0.0-2.0-8.1-0.1","battery-v0.2","","""event"",""trial"",""time""
""fullscreenenter"",""1"",""2146""
","
","
","""event"",""trial"",""time""
""fullscreenenter"",""1"",""2146""
","
","","","566.9000000059605","","","18","10545","3396","&#9776;","elianto","#3366ff99"," "," ","1","+10","[1422.1000000089407]","1","0","1","","","","","","","",""
"pit-trial","26","353243","0.0-2.0-8.1-1.1","battery-v0.2","","""event"",""trial"",""time""
""fullscreenenter"",""1"",""2146""
","
","
","""event"",""trial"",""time""
""fullscreenenter"",""1"",""2146""
","
","","","555.2000000029802","","","18","10545","3396","&#9776;","elianto","#3366ff99"," "," ","1","+10","[1405.7999999970198]","1","0","1","","","","","","","",""
"pit-trial","27","356762","0.0-2.0-8.1-2.1","battery-v0.2","","""event"",""trial"",""time""
""fullscreenenter"",""1"",""2146""
","
","
","""event"",""trial"",""time""
""fullscreenenter"",""1"",""2146""
","
","","","661.5999999940395","","","18","10545","3396","&#9776;","elianto","#3366ff99"," "," ","1","+10","[1514.1000000089407]","1","0","1","","","","","","","",""
"pit-trial","28","360264","0.0-2.0-8.1-3.1","battery-v0.2","","""event"",""trial"",""time""
""fullscreenenter"",""1"",""2146""
","
","
","""event"",""trial"",""time""
""fullscreenenter"",""1"",""2146""
","
","","","644.2999999970198","","","18","10545","3396","&#9776;","elianto","#3366ff99"," "," ","1","0","[1498.199999988079]","1","0","1","","","","","","","",""
"pit-trial","29","363757","0.0-2.0-8.1-4.1","battery-v0.2","","""event"",""trial"",""time""
""fullscreenenter"",""1"",""2146""
","
","
","""event"",""trial"",""time""
""fullscreenenter"",""1"",""2146""
","
","","","626","","","18","10545","3396","&#9776;","elianto","#3366ff99"," "," ","1","+10","[1481.0999999940395]","1","0","1","","","","","","","",""
"pit-trial","30","367353","0.0-2.0-8.2-0.2","battery-v0.2","","""event"",""trial"",""time""
""fullscreenenter"",""1"",""2146""
","
","
","""event"",""trial"",""time""
""fullscreenenter"",""1"",""2146""
","
","","","736.1000000089407","","","18","10545","3396","&#9776;","elianto","#3366ff99"," "," ","1","+10","[1589.2000000029802]","1","0","1","","","","","","","",""
"pit-trial","31","370655","0.0-2.0-8.2-1.2","battery-v0.2","","""event"",""trial"",""time""
""fullscreenenter"",""1"",""2146""
","
","
","""event"",""trial"",""time""
""fullscreenenter"",""1"",""2146""
","
","","","438.40000000596046","","","18","10545","3396","&#9776;","elianto","#3366ff99"," "," ","1","+10","[1295.5]","1","0","1","","","","","","","",""
"pit-trial","32","373925","0.0-2.0-8.2-2.2","battery-v0.2","","""event"",""trial"",""time""
""fullscreenenter"",""1"",""2146""
","
","
","""event"",""trial"",""time""
""fullscreenenter"",""1"",""2146""
","
","","","402.6000000089407","","","18","10545","3396","&#9776;","elianto","#3366ff99"," "," ","1","+10","[1266.5]","1","0","1","","","","","","","",""
"pit-trial","33","377269","0.0-2.0-8.2-3.2","battery-v0.2","","""event"",""trial"",""time""
""fullscreenenter"",""1"",""2146""
","
","
","""event"",""trial"",""time""
""fullscreenenter"",""1"",""2146""
","
","","","487.79999999701977","","","18","10545","3396","&#9776;","elianto","#3366ff99"," "," ","1","0","[1338.8999999910593]","1","0","1","","","","","","","",""
"pit-trial","34","380492","0.0-2.0-8.2-4.2","battery-v0.2","","""event"",""trial"",""time""
""fullscreenenter"",""1"",""2146""
","
","
","""event"",""trial"",""time""
""fullscreenenter"",""1"",""2146""
","
","","","355.29999999701977","","","18","10545","3396","&#9776;","elianto","#3366ff99"," "," ","1","+10","[1219.1000000089407]","1","0","1","","","","","","","",""
"call-function","35","380495","0.0-2.0-9.0","battery-v0.2","","""event"",""trial"",""time""
""fullscreenenter"",""1"",""2146""
","
","
","""event"",""trial"",""time""
""fullscreenenter"",""1"",""2146""
","
","","","","","","","","","","","","","","","","","","","","","","","","","","",""
"pit-instructions","36","428608","0.0-2.0-10.0","battery-v0.2","","""event"",""trial"",""time""
""fullscreenenter"",""1"",""2146""
","
","
","""event"",""trial"",""time""
""fullscreenenter"",""1"",""2146""
","
","","[{""page_index"":0,""viewing_time"":6693.70000000298},{""page_index"":1,""viewing_time"":7197.29999999702},{""page_index"":2,""viewing_time"":9409.29999999702},{""page_index"":3,""viewing_time"":9557.20000000298},{""page_index"":4,""viewing_time"":15253.60000000894}]","48111.60000000894","","","","","","","","","","","","","","","","","","","","","","","",""
"pit-trial","37","432970","0.0-2.0-11.0-0.0","battery-v0.2","","""event"",""trial"",""time""
""fullscreenenter"",""1"",""2146""
","
","
","""event"",""trial"",""time""
""fullscreenenter"",""1"",""2146""
","
","","","1500.5999999940395","","","18","10545","3396","&#9761;","elianto","#3366ff99","-1"," ","0","0","[2358.2000000029802]","1","0","2","","","","","","","",""
"pit-trial","38","436401","0.0-2.0-11.0-1.0","battery-v0.2","","""event"",""trial"",""time""
""fullscreenenter"",""1"",""2146""
","
","
","""event"",""trial"",""time""
""fullscreenenter"",""1"",""2146""
","
","","","570.7000000029802","","","18","10545","3396","&#9761;","elianto","#3366ff99","-1"," ","0","0","[1424.4000000059605]","1","0","2","","","","","","","",""
"pit-trial","39","441279","0.0-2.0-11.0-2.0","battery-v0.2","","""event"",""trial"",""time""
""fullscreenenter"",""1"",""2146""
","
","
","""event"",""trial"",""time""
""fullscreenenter"",""1"",""2146""
","
","","","-1","","","18","10545","3396","&#9761;","elianto","#3366ff99","-1","-1","1","+10","[]","0","0","2","","","","","","","",""
"pit-trial","40","446143","0.0-2.0-11.0-3.0","battery-v0.2","","""event"",""trial"",""time""
""fullscreenenter"",""1"",""2146""
","
","
","""event"",""trial"",""time""
""fullscreenenter"",""1"",""2146""
","
","","","-1","","","18","10545","3396","&#9761;","elianto","#3366ff99","-1","-1","1","0","[]","0","0","2","","","","","","","",""
"pit-trial","41","451014","0.0-2.0-11.0-4.0","battery-v0.2","","""event"",""trial"",""time""
""fullscreenenter"",""1"",""2146""
","
","
","""event"",""trial"",""time""
""fullscreenenter"",""1"",""2146""
","
","","","-1","","","18","10545","3396","&#9761;","elianto","#3366ff99","-1","-1","1","+10","[]","0","0","2","","","","","","","",""
"pit-trial","42","454409","0.0-2.0-11.1-0.1","battery-v0.2","","""event"",""trial"",""time""
""fullscreenenter"",""1"",""2146""
","
","
","""event"",""trial"",""time""
""fullscreenenter"",""1"",""2146""
","
","","","530.7999999970198","","","18","10545","3396","&#9761;","elianto","#3366ff99","-1"," ","0","0","[1388.5]","1","0","2","","","","","","","",""
"pit-trial","43","457646","0.0-2.0-11.1-1.1","battery-v0.2","","""event"",""trial"",""time""
""fullscreenenter"",""1"",""2146""
","
","
","""event"",""trial"",""time""
""fullscreenenter"",""1"",""2146""
","
","","","373.90000000596046","","","18","10545","3396","&#9761;","elianto","#3366ff99","-1"," ","0","0","[1228.1000000089407]","1","0","2","","","","","","","",""
"pit-trial","44","460943","0.0-2.0-11.1-2.1","battery-v0.2","","""event"",""trial"",""time""
""fullscreenenter"",""1"",""2146""
","
","
","""event"",""trial"",""time""
""fullscreenenter"",""1"",""2146""
","
","","","438.29999999701977","","","18","10545","3396","&#9761;","elianto","#3366ff99","-1"," ","0","0","[1289.300000011921]","1","0","2","","","","","","","",""
"pit-trial","45","465803","0.0-2.0-11.1-3.1","battery-v0.2","","""event"",""trial"",""time""
""fullscreenenter"",""1"",""2146""
","
","
","""event"",""trial"",""time""
""fullscreenenter"",""1"",""2146""
","
","","","-1","","","18","10545","3396","&#9761;","elianto","#3366ff99","-1","-1","1","0","[]","0","0","2","","","","","","","",""
"pit-trial","46","470670","0.0-2.0-11.1-4.1","battery-v0.2","","""event"",""trial"",""time""
""fullscreenenter"",""1"",""2146""
","
","
","""event"",""trial"",""time""
""fullscreenenter"",""1"",""2146""
","
","","","-1","","","18","10545","3396","&#9761;","elianto","#3366ff99","-1","-1","1","+10","[]","0","0","2","","","","","","","",""
"pit-trial","47","475537","0.0-2.0-11.2-0.2","battery-v0.2","","""event"",""trial"",""time""
""fullscreenenter"",""1"",""2146""
","
","
","""event"",""trial"",""time""
""fullscreenenter"",""1"",""2146""
","
","","","-1","","","18","10545","3396","&#9761;","elianto","#3366ff99","-1","-1","1","+10","[]","0","0","2","","","","","","","",""
"pit-trial","48","480411","0.0-2.0-11.2-1.2","battery-v0.2","","""event"",""trial"",""time""
""fullscreenenter"",""1"",""2146""
","
","
","""event"",""trial"",""time""
""fullscreenenter"",""1"",""2146""
","
","","","-1","","","18","10545","3396","&#9761;","elianto","#3366ff99","-1","-1","1","+10","[]","0","0","2","","","","","","","",""
"pit-trial","49","485273","0.0-2.0-11.2-2.2","battery-v0.2","","""event"",""trial"",""time""
""fullscreenenter"",""1"",""2146""
","
","
","""event"",""trial"",""time""
""fullscreenenter"",""1"",""2146""
","
","","","-1","","","18","10545","3396","&#9761;","elianto","#3366ff99","-1","-1","1","+10","[]","0","0","2","","","","","","","",""
"pit-trial","50","490138","0.0-2.0-11.2-3.2","battery-v0.2","","""event"",""trial"",""time""
""fullscreenenter"",""1"",""2146""
","
","
","""event"",""trial"",""time""
""fullscreenenter"",""1"",""2146""
","
","","","-1","","","18","10545","3396","&#9761;","elianto","#3366ff99","-1","-1","1","0","[]","0","0","2","","","","","","","",""
"pit-trial","51","494995","0.0-2.0-11.2-4.2","battery-v0.2","","""event"",""trial"",""time""
""fullscreenenter"",""1"",""2146""
","
","
","""event"",""trial"",""time""
""fullscreenenter"",""1"",""2146""
","
","","","-1","","","18","10545","3396","&#9761;","elianto","#3366ff99","-1","-1","1","+10","[]","0","0","2","","","","","","","",""
"pit-trial","52","499863","0.0-2.0-11.3-0.3","battery-v0.2","","""event"",""trial"",""time""
""fullscreenenter"",""1"",""2146""
","
","
","""event"",""trial"",""time""
""fullscreenenter"",""1"",""2146""
","
","","","-1","","","18","10545","3396","&#9761;","elianto","#3366ff99","-1","-1","1","+10","[]","0","0","2","","","","","","","",""
"pit-trial","53","504725","0.0-2.0-11.3-1.3","battery-v0.2","","""event"",""trial"",""time""
""fullscreenenter"",""1"",""2146""
","
","
","""event"",""trial"",""time""
""fullscreenenter"",""1"",""2146""
","
","","","-1","","","18","10545","3396","&#9761;","elianto","#3366ff99","-1","-1","1","+10","[]","0","0","2","","","","","","","",""
"pit-trial","54","509588","0.0-2.0-11.3-2.3","battery-v0.2","","""event"",""trial"",""time""
""fullscreenenter"",""1"",""2146""
","
","
","""event"",""trial"",""time""
""fullscreenenter"",""1"",""2146""
","
","","","-1","","","18","10545","3396","&#9761;","elianto","#3366ff99","-1","-1","1","+10","[]","0","0","2","","","","","","","",""
"pit-trial","55","514452","0.0-2.0-11.3-3.3","battery-v0.2","","""event"",""trial"",""time""
""fullscreenenter"",""1"",""2146""
","
","
","""event"",""trial"",""time""
""fullscreenenter"",""1"",""2146""
","
","","","-1","","","18","10545","3396","&#9761;","elianto","#3366ff99","-1","-1","1","0","[]","0","0","2","","","","","","","",""
"pit-trial","56","519315","0.0-2.0-11.3-4.3","battery-v0.2","","""event"",""trial"",""time""
""fullscreenenter"",""1"",""2146""
","
","
","""event"",""trial"",""time""
""fullscreenenter"",""1"",""2146""
","
","","","-1","","","18","10545","3396","&#9761;","elianto","#3366ff99","-1","-1","1","+10","[]","0","0","2","","","","","","","",""
"call-function","57","519318","0.0-2.0-12.0","battery-v0.2","","""event"",""trial"",""time""
""fullscreenenter"",""1"",""2146""
","
","
","""event"",""trial"",""time""
""fullscreenenter"",""1"",""2146""
","
","","","","","","","","","","","","","","","","","","","","","","","","","","",""
"pit-instructions","58","555790","0.0-2.0-13.0","battery-v0.2","","""event"",""trial"",""time""
""fullscreenenter"",""1"",""2146""
","
","
","""event"",""trial"",""time""
""fullscreenenter"",""1"",""2146""
","
","","[{""page_index"":0,""viewing_time"":6464.5},{""page_index"":1,""viewing_time"":8948.70000000298},{""page_index"":2,""viewing_time"":4108.5},{""page_index"":3,""viewing_time"":10946.79999999702},{""page_index"":4,""viewing_time"":6001.100000008941}]","36470.20000000298","","","","","","","","","","","","","","","","","","","","","","","",""
"pit-trial","59","560664","0.0-2.0-14.0-0.0","battery-v0.2","","""event"",""trial"",""time""
""fullscreenenter"",""1"",""2146""
","
","
","""event"",""trial"",""time""
""fullscreenenter"",""1"",""2146""
","
","","","-1","","","18","10545","3396","&#9826;","elianto","#f73b6a7A","-1","-1","1","0","[]","0","0","3","","","","","","","",""
"pit-trial","60","564438","0.0-2.0-14.0-1.0","battery-v0.2","","""event"",""trial"",""time""
""fullscreenenter"",""1"",""2146""
","
","
","""event"",""trial"",""time""
""fullscreenenter"",""1"",""2146""
","
","","","912.6000000089407","","","18","10545","3396","&#9826;","elianto","#f73b6a7A","-1"," ","0","-10","[1764.2999999970198]","1","0","3","","","","","","","",""
"pit-trial","61","569326","0.0-2.0-14.0-2.0","battery-v0.2","","""event"",""trial"",""time""
""fullscreenenter"",""1"",""2146""
","
","
","""event"",""trial"",""time""
""fullscreenenter"",""1"",""2146""
","
","","","-1","","","18","10545","3396","&#9826;","elianto","#f73b6a7A","-1","-1","1","0","[]","0","0","3","","","","","","","",""
"pit-trial","62","574193","0.0-2.0-14.0-3.0","battery-v0.2","","""event"",""trial"",""time""
""fullscreenenter"",""1"",""2146""
","
","
","""event"",""trial"",""time""
""fullscreenenter"",""1"",""2146""
","
","","","-1","","","18","10545","3396","&#9826;","elianto","#f73b6a7A","-1","-1","1","-10","[]","0","0","3","","","","","","","",""
"pit-trial","63","579063","0.0-2.0-14.0-4.0","battery-v0.2","","""event"",""trial"",""time""
""fullscreenenter"",""1"",""2146""
","
","
","""event"",""trial"",""time""
""fullscreenenter"",""1"",""2146""
","
","","","-1","","","18","10545","3396","&#9826;","elianto","#f73b6a7A","-1","-1","1","0","[]","0","0","3","","","","","","","",""
"pit-trial","64","582178","0.0-2.0-14.1-0.1","battery-v0.2","","""event"",""trial"",""time""
""fullscreenenter"",""1"",""2146""
","
","
","""event"",""trial"",""time""
""fullscreenenter"",""1"",""2146""
","
","","","246.70000000298023","","","18","10545","3396","&#9826;","elianto","#f73b6a7A","-1"," ","0","-10","[1109.7999999970198]","1","0","3","","","","","","","",""
"pit-trial","65","585947","0.0-2.0-14.1-1.1","battery-v0.2","","""event"",""trial"",""time""
""fullscreenenter"",""1"",""2146""
","
","
","""event"",""trial"",""time""
""fullscreenenter"",""1"",""2146""
","
","","","899.3999999910593","","","18","10545","3396","&#9826;","elianto","#f73b6a7A","-1"," ","0","-10","[1760.0999999940395]","1","0","3","","","","","","","",""
"pit-trial","66","590808","0.0-2.0-14.1-2.1","battery-v0.2","","""event"",""trial"",""time""
""fullscreenenter"",""1"",""2146""
","
","
","""event"",""trial"",""time""
""fullscreenenter"",""1"",""2146""
","
","","","-1","","","18","10545","3396","&#9826;","elianto","#f73b6a7A","-1","-1","1","0","[]","0","0","3","","","","","","","",""
"pit-trial","67","595664","0.0-2.0-14.1-3.1","battery-v0.2","","""event"",""trial"",""time""
""fullscreenenter"",""1"",""2146""
","
","
","""event"",""trial"",""time""
""fullscreenenter"",""1"",""2146""
","
","","","-1","","","18","10545","3396","&#9826;","elianto","#f73b6a7A","-1","-1","1","-10","[]","0","0","3","","","","","","","",""
"pit-trial","68","600523","0.0-2.0-14.1-4.1","battery-v0.2","","""event"",""trial"",""time""
""fullscreenenter"",""1"",""2146""
","
","
","""event"",""trial"",""time""
""fullscreenenter"",""1"",""2146""
","
","","","-1","","","18","10545","3396","&#9826;","elianto","#f73b6a7A","-1","-1","1","0","[]","0","0","3","","","","","","","",""
"pit-trial","69","605387","0.0-2.0-14.2-0.2","battery-v0.2","","""event"",""trial"",""time""
""fullscreenenter"",""1"",""2146""
","
","
","""event"",""trial"",""time""
""fullscreenenter"",""1"",""2146""
","
","","","-1","","","18","10545","3396","&#9826;","elianto","#f73b6a7A","-1","-1","1","0","[]","0","0","3","","","","","","","",""
"pit-trial","70","610258","0.0-2.0-14.2-1.2","battery-v0.2","","""event"",""trial"",""time""
""fullscreenenter"",""1"",""2146""
","
","
","""event"",""trial"",""time""
""fullscreenenter"",""1"",""2146""
","
","","","-1","","","18","10545","3396","&#9826;","elianto","#f73b6a7A","-1","-1","1","0","[]","0","0","3","","","","","","","",""
"pit-trial","71","614056","0.0-2.0-14.2-2.2","battery-v0.2","","""event"",""trial"",""time""
""fullscreenenter"",""1"",""2146""
","
","
","""event"",""trial"",""time""
""fullscreenenter"",""1"",""2146""
","
","","","929.6999999880791","","","18","10545","3396","&#9826;","elianto","#f73b6a7A","-1"," ","0","-10","[1794.7000000029802]","1","0","3","","","","","","","",""
"pit-trial","72","618918","0.0-2.0-14.2-3.2","battery-v0.2","","""event"",""trial"",""time""
""fullscreenenter"",""1"",""2146""
","
","
","""event"",""trial"",""time""
""fullscreenenter"",""1"",""2146""
","
","","","-1","","","18","10545","3396","&#9826;","elianto","#f73b6a7A","-1","-1","1","-10","[]","0","0","3","","","","","","","",""
"pit-trial","73","623782","0.0-2.0-14.2-4.2","battery-v0.2","","""event"",""trial"",""time""
""fullscreenenter"",""1"",""2146""
","
","
","""event"",""trial"",""time""
""fullscreenenter"",""1"",""2146""
","
","","","-1","","","18","10545","3396","&#9826;","elianto","#f73b6a7A","-1","-1","1","0","[]","0","0","3","","","","","","","",""
"pit-trial","74","628646","0.0-2.0-14.3-0.3","battery-v0.2","","""event"",""trial"",""time""
""fullscreenenter"",""1"",""2146""
","
","
","""event"",""trial"",""time""
""fullscreenenter"",""1"",""2146""
","
","","","-1","","","18","10545","3396","&#9826;","elianto","#f73b6a7A","-1","-1","1","0","[]","0","0","3","","","","","","","",""
"pit-trial","75","633503","0.0-2.0-14.3-1.3","battery-v0.2","","""event"",""trial"",""time""
""fullscreenenter"",""1"",""2146""
","
","
","""event"",""trial"",""time""
""fullscreenenter"",""1"",""2146""
","
","","","-1","","","18","10545","3396","&#9826;","elianto","#f73b6a7A","-1","-1","1","0","[]","0","0","3","","","","","","","",""
"pit-trial","76","638361","0.0-2.0-14.3-2.3","battery-v0.2","","""event"",""trial"",""time""
""fullscreenenter"",""1"",""2146""
","
","
","""event"",""trial"",""time""
""fullscreenenter"",""1"",""2146""
","
","","","-1","","","18","10545","3396","&#9826;","elianto","#f73b6a7A","-1","-1","1","0","[]","0","0","3","","","","","","","",""
"pit-trial","77","643225","0.0-2.0-14.3-3.3","battery-v0.2","","""event"",""trial"",""time""
""fullscreenenter"",""1"",""2146""
","
","
","""event"",""trial"",""time""
""fullscreenenter"",""1"",""2146""
","
","","","-1","","","18","10545","3396","&#9826;","elianto","#f73b6a7A","-1","-1","1","-10","[]","0","0","3","","","","","","","",""
"pit-trial","78","648090","0.0-2.0-14.3-4.3","battery-v0.2","","""event"",""trial"",""time""
""fullscreenenter"",""1"",""2146""
","
","
","""event"",""trial"",""time""
""fullscreenenter"",""1"",""2146""
","
","","","-1","","","18","10545","3396","&#9826;","elianto","#f73b6a7A","-1","-1","1","0","[]","0","0","3","","","","","","","",""
"call-function","79","648092","0.0-2.0-15.0","battery-v0.2","","""event"",""trial"",""time""
""fullscreenenter"",""1"",""2146""
","
","
","""event"",""trial"",""time""
""fullscreenenter"",""1"",""2146""
","
","","","","","","","","","","","","","","","","","","","","","","","","","","",""
"pit-instructions","80","683878","0.0-2.0-16.0","battery-v0.2","","""event"",""trial"",""time""
""fullscreenenter"",""1"",""2146""
","
","
","""event"",""trial"",""time""
""fullscreenenter"",""1"",""2146""
","
","","[{""page_index"":0,""viewing_time"":15531},{""page_index"":1,""viewing_time"":8900.29999999702},{""page_index"":2,""viewing_time"":5643.5},{""page_index"":3,""viewing_time"":5705.9000000059605}]","35781.20000000298","","","","","","","","","","","","","","","","","","","","","","","",""
"pit-trial","81","687205","0.0-2.0-17.0-0.0","battery-v0.2","","""event"",""trial"",""time""
""fullscreenenter"",""1"",""2146""
","
","
","""event"",""trial"",""time""
""fullscreenenter"",""1"",""2146""
","
","","","459.30000001192093","","","18","10545","3396","&#9789;","elianto","#f73b6a7A"," "," ","1","0","[1316.5]","1","0","4","","","","","","","",""
"pit-trial","82","690214","0.0-2.0-17.0-1.0","battery-v0.2","","""event"",""trial"",""time""
""fullscreenenter"",""1"",""2146""
","
","
","""event"",""trial"",""time""
""fullscreenenter"",""1"",""2146""
","
","","","142.09999999403954","","","18","10545","3396","&#9789;","elianto","#f73b6a7A"," "," ","1","0","[1003]","1","0","4","","","","","","","",""
"pit-trial","83","693264","0.0-2.0-17.0-2.0","battery-v0.2","","""event"",""trial"",""time""
""fullscreenenter"",""1"",""2146""
","
","
","""event"",""trial"",""time""
""fullscreenenter"",""1"",""2146""
","
","","","175.6000000089407","","","18","10545","3396","&#9789;","elianto","#f73b6a7A"," "," ","1","0","[1041.7000000029802]","1","0","4","","","","","","","",""
"pit-trial","84","696181","0.0-2.0-17.0-3.0","battery-v0.2","","""event"",""trial"",""time""
""fullscreenenter"",""1"",""2146""
","
","
","""event"",""trial"",""time""
""fullscreenenter"",""1"",""2146""
","
","","","45.29999999701977","","","18","10545","3396","&#9789;","elianto","#f73b6a7A"," "," ","1","-10","[909.2000000029802]","1","0","4","","","","","","","",""
"pit-trial","85","699164","0.0-2.0-17.0-4.0","battery-v0.2","","""event"",""trial"",""time""
""fullscreenenter"",""1"",""2146""
","
","
","""event"",""trial"",""time""
""fullscreenenter"",""1"",""2146""
","
","","","117.09999999403954","","","18","10545","3396","&#9789;","elianto","#f73b6a7A"," "," ","1","0","[970.5]","1","0","4","","","","","","","",""
"pit-trial","86","702128","0.0-2.0-17.1-0.1","battery-v0.2","","""event"",""trial"",""time""
""fullscreenenter"",""1"",""2146""
","
","
","""event"",""trial"",""time""
""fullscreenenter"",""1"",""2146""
","
","","","70.8999999910593","","","18","10545","3396","&#9789;","elianto","#f73b6a7A"," "," ","1","0","[938.5999999940395]","1","0","4","","","","","","","",""
"pit-trial","87","705030","0.0-2.0-17.1-1.1","battery-v0.2","","""event"",""trial"",""time""
""fullscreenenter"",""1"",""2146""
","
","
","""event"",""trial"",""time""
""fullscreenenter"",""1"",""2146""
","
","","","27.100000008940697","","","18","10545","3396","&#9789;","elianto","#f73b6a7A"," "," ","1","0","[889.7000000029802]","1","0","4","","","","","","","",""
"pit-trial","88","709894","0.0-2.0-17.1-2.1","battery-v0.2","","""event"",""trial"",""time""
""fullscreenenter"",""1"",""2146""
","
","
","""event"",""trial"",""time""
""fullscreenenter"",""1"",""2146""
","
","","","-1","","","18","10545","3396","&#9789;","elianto","#f73b6a7A"," ","-1","0","-10","[]","0","0","4","","","","","","","",""
"pit-trial","89","713240","0.0-2.0-17.1-3.1","battery-v0.2","","""event"",""trial"",""time""
""fullscreenenter"",""1"",""2146""
","
","
","""event"",""trial"",""time""
""fullscreenenter"",""1"",""2146""
","
","","","481","","","18","10545","3396","&#9789;","elianto","#f73b6a7A"," "," ","1","-10","[1335.5999999940395]","1","0","4","","","","","","","",""
"pit-trial","90","716285","0.0-2.0-17.1-4.1","battery-v0.2","","""event"",""trial"",""time""
""fullscreenenter"",""1"",""2146""
","
","
","""event"",""trial"",""time""
""fullscreenenter"",""1"",""2146""
","
","","","172.80000001192093","","","18","10545","3396","&#9789;","elianto","#f73b6a7A"," "," ","1","0","[1037.2000000029802]","1","0","4","","","","","","","",""
"pit-trial","91","719323","0.0-2.0-17.2-0.2","battery-v0.2","","""event"",""trial"",""time""
""fullscreenenter"",""1"",""2146""
","
","
","""event"",""trial"",""time""
""fullscreenenter"",""1"",""2146""
","
","","","168.5","","","18","10545","3396","&#9789;","elianto","#f73b6a7A"," "," ","1","0","[1026.699999988079]","1","0","4","","","","","","","",""
"pit-trial","92","722412","0.0-2.0-17.2-1.2","battery-v0.2","","""event"",""trial"",""time""
""fullscreenenter"",""1"",""2146""
","
","
","""event"",""trial"",""time""
""fullscreenenter"",""1"",""2146""
","
","","","221.90000000596046","","","18","10545","3396","&#9789;","elianto","#f73b6a7A"," "," ","1","0","[1080]","1","0","4","","","","","","","",""
"pit-trial","93","725396","0.0-2.0-17.2-2.2","battery-v0.2","","""event"",""trial"",""time""
""fullscreenenter"",""1"",""2146""
","
","
","""event"",""trial"",""time""
""fullscreenenter"",""1"",""2146""
","
","","","109.90000000596046","","","18","10545","3396","&#9789;","elianto","#f73b6a7A"," "," ","1","0","[963.6000000089407]","1","0","4","","","","","","","",""
"pit-trial","94","728354","0.0-2.0-17.2-3.2","battery-v0.2","","""event"",""trial"",""time""
""fullscreenenter"",""1"",""2146""
","
","
","""event"",""trial"",""time""
""fullscreenenter"",""1"",""2146""
","
","","","102","","","18","10545","3396","&#9789;","elianto","#f73b6a7A"," "," ","1","-10","[953.2999999970198]","1","0","4","","","","","","","",""
"pit-trial","95","731414","0.0-2.0-17.2-4.2","battery-v0.2","","""event"",""trial"",""time""
""fullscreenenter"",""1"",""2146""
","
","
","""event"",""trial"",""time""
""fullscreenenter"",""1"",""2146""
","
","","","190.69999998807907","","","18","10545","3396","&#9789;","elianto","#f73b6a7A"," "," ","1","0","[1054]","1","0","4","","","","","","","",""
"pit-trial","96","736278","0.0-2.0-17.3-0.3","battery-v0.2","","""event"",""trial"",""time""
""fullscreenenter"",""1"",""2146""
","
","
","""event"",""trial"",""time""
""fullscreenenter"",""1"",""2146""
","
","","","-1","","","18","10545","3396","&#9789;","elianto","#f73b6a7A"," ","-1","0","-10","[]","0","0","4","","","","","","","",""
"pit-trial","97","740676","0.0-2.0-17.3-1.3","battery-v0.2","","""event"",""trial"",""time""
""fullscreenenter"",""1"",""2146""
","
","
","""event"",""trial"",""time""
""fullscreenenter"",""1"",""2146""
","
","","","1543.800000011921","","","18","10545","3396","&#9789;","elianto","#f73b6a7A"," "," ","1","0","[2394.7000000029802]","1","0","4","","","","","","","",""
"pit-trial","98","745539","0.0-2.0-17.3-2.3","battery-v0.2","","""event"",""trial"",""time""
""fullscreenenter"",""1"",""2146""
","
","
","""event"",""trial"",""time""
""fullscreenenter"",""1"",""2146""
","
","","","-1","","","18","10545","3396","&#9789;","elianto","#f73b6a7A"," ","-1","0","-10","[]","0","0","4","","","","","","","",""
"pit-trial","99","748934","0.0-2.0-17.3-3.3","battery-v0.2","","""event"",""trial"",""time""
""fullscreenenter"",""1"",""2146""
","
","
","""event"",""trial"",""time""
""fullscreenenter"",""1"",""2146""
","
","","","533.2000000029802","","","18","10545","3396","&#9789;","elianto","#f73b6a7A"," "," ","1","-10","[1390.7000000029802]","1","0","4","","","","","","","",""
"pit-trial","100","752403","0.0-2.0-17.3-4.3","battery-v0.2","","""event"",""trial"",""time""
""fullscreenenter"",""1"",""2146""
","
","
","""event"",""trial"",""time""
""fullscreenenter"",""1"",""2146""
","
","","","604","","","18","10545","3396","&#9789;","elianto","#f73b6a7A"," "," ","1","0","[1461.4000000059605]","1","0","4","","","","","","","",""
"call-function","101","752406","0.0-2.0-18.0","battery-v0.2","","""event"",""trial"",""time""
""fullscreenenter"",""1"",""2146""
","
","
","""event"",""trial"",""time""
""fullscreenenter"",""1"",""2146""
","
","","","","","","","","","","","","","","","","","","","","","","","","","","",""
"pit-instructions","102","835981","0.0-2.0-19.0","battery-v0.2","","""event"",""trial"",""time""
""fullscreenenter"",""1"",""2146""
","
","
","""event"",""trial"",""time""
""fullscreenenter"",""1"",""2146""
","
","","[{""page_index"":0,""viewing_time"":7293.5},{""page_index"":1,""viewing_time"":6734.5999999940395},{""page_index"":2,""viewing_time"":18449.80000001192},{""page_index"":3,""viewing_time"":9642.699999988079},{""page_index"":4,""viewing_time"":9664.300000011921},{""page_index"":5,""viewing_time"":8756.699999988079},{""page_index"":6,""viewing_time"":9583.800000011921},{""page_index"":7,""viewing_time"":7578.899999991059},{""page_index"":8,""viewing_time"":5866.29999999702}]","83571.20000000298","","","","","","","","","","","","","","","","","","","","","","","",""
"pit-comprehension","103","842318","0.0-2.0-20.0-0.0","battery-v0.2","","""event"",""trial"",""time""
""fullscreenenter"",""1"",""2146""
","
","
","""event"",""trial"",""time""
""fullscreenenter"",""1"",""2146""
","
","","","6330.29999999702","[""SPACE""]","0","18","10545","3396","","","","","","","","","","","","","","","","","","",""
"pit-instructions","104","848114","0.0-2.0-20.0-1.0","battery-v0.2","","""event"",""trial"",""time""
""fullscreenenter"",""1"",""2146""
","
","
","""event"",""trial"",""time""
""fullscreenenter"",""1"",""2146""
","
","","[{""page_index"":0,""viewing_time"":5710}]","5710.79999999702","","","","","","","","","","","","","","","","","","","","","","","",""
"pit-comprehension","105","856228","0.0-2.0-21.0-0.0","battery-v0.2","","""event"",""trial"",""time""
""fullscreenenter"",""1"",""2146""
","
","
","""event"",""trial"",""time""
""fullscreenenter"",""1"",""2146""
","
","","","8102","[""10""]","0","18","10545","3396","","","","","","","","","","","","","","","","","","",""
"pit-instructions","106","858979","0.0-2.0-21.0-1.0","battery-v0.2","","""event"",""trial"",""time""
""fullscreenenter"",""1"",""2146""
","
","
","""event"",""trial"",""time""
""fullscreenenter"",""1"",""2146""
","
","","[{""page_index"":0,""viewing_time"":2671.7000000029802}]","2672.1000000089407","","","","","","","","","","","","","","","","","","","","","","","",""
"pit-comprehension","107","867438","0.0-2.0-22.0-0.0","battery-v0.2","","""event"",""trial"",""time""
""fullscreenenter"",""1"",""2146""
","
","
","""event"",""trial"",""time""
""fullscreenenter"",""1"",""2146""
","
","","","8449.70000000298","[""0""]","0","18","10545","3396","","","","","","","","","","","","","","","","","","",""
"pit-instructions","108","870755","0.0-2.0-22.0-1.0","battery-v0.2","","""event"",""trial"",""time""
""fullscreenenter"",""1"",""2146""
","
","
","""event"",""trial"",""time""
""fullscreenenter"",""1"",""2146""
","
","","[{""page_index"":0,""viewing_time"":3233.0999999940395}]","3233.5999999940395","","","","","","","","","","","","","","","","","","","","","","","",""
"pit-comprehension","109","888987","0.0-2.0-23.0-0.0","battery-v0.2","","""event"",""trial"",""time""
""fullscreenenter"",""1"",""2146""
","
","
","""event"",""trial"",""time""
""fullscreenenter"",""1"",""2146""
","
","","","18223.40000000596","[""True""]","0","18","10545","3396","","","","","","","","","","","","","","","","","","",""
"pit-instructions","110","891474","0.0-2.0-23.0-1.0","battery-v0.2","","""event"",""trial"",""time""
""fullscreenenter"",""1"",""2146""
","
","
","""event"",""trial"",""time""
""fullscreenenter"",""1"",""2146""
","
","","[{""page_index"":0,""viewing_time"":2411.7999999970198}]","2412.4000000059605","","","","","","","","","","","","","","","","","","","","","","","",""
"pit-comprehension","111","899814","0.0-2.0-24.0-0.0","battery-v0.2","","""event"",""trial"",""time""
""fullscreenenter"",""1"",""2146""
","
","
","""event"",""trial"",""time""
""fullscreenenter"",""1"",""2146""
","
","","","8333.90000000596","[""True""]","0","18","10545","3396","","","","","","","","","","","","","","","","","","",""
"pit-instructions","112","902522","0.0-2.0-24.0-1.0","battery-v0.2","","""event"",""trial"",""time""
""fullscreenenter"",""1"",""2146""
","
","
","""event"",""trial"",""time""
""fullscreenenter"",""1"",""2146""
","
","","[{""page_index"":0,""viewing_time"":2632.7999999970198}]","2633.6000000089407","","","","","","","","","","","","","","","","","","","","","","","",""
"pit-comprehension","113","911118","0.0-2.0-25.0-0.0","battery-v0.2","","""event"",""trial"",""time""
""fullscreenenter"",""1"",""2146""
","
","
","""event"",""trial"",""time""
""fullscreenenter"",""1"",""2146""
","
","","","8585.09999999404","[""True""]","0","18","10545","3396","","","","","","","","","","","","","","","","","","",""
"pit-instructions","114","913314","0.0-2.0-25.0-1.0","battery-v0.2","","""event"",""trial"",""time""
""fullscreenenter"",""1"",""2146""
","
","
","""event"",""trial"",""time""
""fullscreenenter"",""1"",""2146""
","
","","[{""page_index"":0,""viewing_time"":2126}]","2126.3999999910593","","","","","","","","","","","","","","","","","","","","","","","",""
"pit-comprehension","115","920174","0.0-2.0-26.0-0.0","battery-v0.2","","""event"",""trial"",""time""
""fullscreenenter"",""1"",""2146""
","
","
","""event"",""trial"",""time""
""fullscreenenter"",""1"",""2146""
","
","","","6853.5999999940395","[""False""]","0","18","10545","3396","","","","","","","","","","","","","","","","","","",""
"pit-instructions","116","922540","0.0-2.0-26.0-1.0","battery-v0.2","","""event"",""trial"",""time""
""fullscreenenter"",""1"",""2146""
","
","
","""event"",""trial"",""time""
""fullscreenenter"",""1"",""2146""
","
","","[{""page_index"":0,""viewing_time"":2281.3999999910593}]","2281.8999999910593","","","","","","","","","","","","","","","","","","","","","","","",""
"pit-instructions","117","942498","0.0-3.0","battery-v0.2","","""event"",""trial"",""time""
""fullscreenenter"",""1"",""2146""
","
","
","""event"",""trial"",""time""
""fullscreenenter"",""1"",""2146""
","
","","[{""page_index"":0,""viewing_time"":6568},{""page_index"":1,""viewing_time"":5932.399999991059},{""page_index"":2,""viewing_time"":7454.70000000298}]","19955.59999999404","","","","","","","","","","","","","","","","","","","","","","","",""
"pit-trial","118","947383","0.0-4.0","battery-v0.2","","""event"",""trial"",""time""
""fullscreenenter"",""1"",""2146""
","
","
","""event"",""trial"",""time""
""fullscreenenter"",""1"",""2146""
","
","","","-1","","","18","10545","3396","&#9728;","elianto","#f73b6a7A","-1","-1","1","0","[]","0","1","","","10545","1","0","4","lose","no-go","0"
"pit-trial","119","951340","0.0-5.0","battery-v0.2","","""event"",""trial"",""time""
""fullscreenenter"",""1"",""2146""
","
","
","""event"",""trial"",""time""
""fullscreenenter"",""1"",""2146""
","
","","","1086.5999999940395","","","18","10545","3396","&#9733;","elianto","#3366ff99","-1"," ","0","0","[1944.699999988079]","1","1","","","10545","2","2","2","win","no-go","0"
"pit-trial","120","955926","0.0-6.0","battery-v0.2","","""event"",""trial"",""time""
""fullscreenenter"",""1"",""2146""
","
","
","""event"",""trial"",""time""
""fullscreenenter"",""1"",""2146""
","
","","","1727.0999999940395","","","18","10545","3396","&#9752;","elianto","#f73b6a7A"," "," ","1","-10","[2579.5]","1","1","","","10545","3","3","3","lose","go","1"
"pit-trial","121","960802","0.0-7.0","battery-v0.2","","""event"",""trial"",""time""
""fullscreenenter"",""1"",""2146""
","
","
","""event"",""trial"",""time""
""fullscreenenter"",""1"",""2146""
","
","","","-1","","","18","10545","3396","&#9730;","elianto","#3366ff99"," ","-1","0","0","[]","0","1","","","10545","4","1","1","win","go","0"
"pit-trial","122","964769","0.0-8.0","battery-v0.2","","""event"",""trial"",""time""
""fullscreenenter"",""1"",""2146""
","
","
","""event"",""trial"",""time""
""fullscreenenter"",""1"",""2146""
","
","","","1101.2000000029802","","","18","10545","3396","&#9730;","elianto","#3366ff99"," "," ","1","+10","[1954.6000000089407]","1","1","","","10545","5","1","1","win","go","0"
"pit-trial","123","969644","0.0-9.0","battery-v0.2","","""event"",""trial"",""time""
""fullscreenenter"",""1"",""2146""
","
","
","""event"",""trial"",""time""
""fullscreenenter"",""1"",""2146""
","
","","","-1","","","18","10545","3396","&#9752;","elianto","#f73b6a7A"," ","-1","0","-10","[]","0","1","","","10545","6","3","3","lose","go","0"
"pit-trial","124","974521","0.0-10.0","battery-v0.2","","""event"",""trial"",""time""
""fullscreenenter"",""1"",""2146""
","
","
","""event"",""trial"",""time""
""fullscreenenter"",""1"",""2146""
","
","","","-1","","","18","10545","3396","&#9733;","elianto","#3366ff99","-1","-1","1","+10","[]","0","1","","","10545","7","2","2","win","no-go","0"
"pit-trial","125","978691","0.0-11.0","battery-v0.2","","""event"",""trial"",""time""
""fullscreenenter"",""1"",""2146""
","
","
","""event"",""trial"",""time""
""fullscreenenter"",""1"",""2146""
","
","","","1310.5","","","18","10545","3396","&#9728;","elianto","#f73b6a7A","-1"," ","0","0","[2163.1000000089407]","1","1","","","10545","8","0","4","lose","no-go","1"
"pit-trial","126","983549","0.0-12.0","battery-v0.2","","""event"",""trial"",""time""
""fullscreenenter"",""1"",""2146""
","
","
","""event"",""trial"",""time""
""fullscreenenter"",""1"",""2146""
","
","","","-1","","","18","10545","3396","&#9728;","elianto","#f73b6a7A","-1","-1","1","0","[]","0","1","","","10545","9","0","4","lose","no-go","0"
"pit-trial","127","987191","0.0-13.0","battery-v0.2","","""event"",""trial"",""time""
""fullscreenenter"",""1"",""2146""
","
","
","""event"",""trial"",""time""
""fullscreenenter"",""1"",""2146""
","
","","","778.5999999940395","","","18","10545","3396","&#9730;","elianto","#3366ff99"," "," ","1","+10","[1633.2000000029802]","1","1","","","10545","10","1","1","win","go","0"
"pit-trial","128","992055","0.0-14.0","battery-v0.2","","""event"",""trial"",""time""
""fullscreenenter"",""1"",""2146""
","
","
","""event"",""trial"",""time""
""fullscreenenter"",""1"",""2146""
","
","","","-1","","","18","10545","3396","&#9752;","elianto","#f73b6a7A"," ","-1","0","-10","[]","0","1","","","10545","11","3","3","lose","go","0"
"pit-trial","129","996919","0.0-15.0","battery-v0.2","","""event"",""trial"",""time""
""fullscreenenter"",""1"",""2146""
","
","
","""event"",""trial"",""time""
""fullscreenenter"",""1"",""2146""
","
","","","-1","","","18","10545","3396","&#9733;","elianto","#3366ff99","-1","-1","1","+10","[]","0","1","","","10545","12","2","2","win","no-go","0"
"pit-trial","130","1001784","0.0-16.0","battery-v0.2","","""event"",""trial"",""time""
""fullscreenenter"",""1"",""2146""
","
","
","""event"",""trial"",""time""
""fullscreenenter"",""1"",""2146""
","
","","","-1","","","18","10545","3396","&#9728;","elianto","#f73b6a7A","-1","-1","1","0","[]","0","1","","","10545","13","0","4","lose","no-go","0"
"pit-trial","131","1006646","0.0-17.0","battery-v0.2","","""event"",""trial"",""time""
""fullscreenenter"",""1"",""2146""
","
","
","""event"",""trial"",""time""
""fullscreenenter"",""1"",""2146""
","
","","","-1","","","18","10545","3396","&#9733;","elianto","#3366ff99","-1","-1","1","+10","[]","0","1","","","10545","14","2","2","win","no-go","0"
"pit-trial","132","1010485","0.0-18.0","battery-v0.2","","""event"",""trial"",""time""
""fullscreenenter"",""1"",""2146""
","
","
","""event"",""trial"",""time""
""fullscreenenter"",""1"",""2146""
","
","","","977.6000000089407","","","18","10545","3396","&#9730;","elianto","#3366ff99"," "," ","1","+10","[1829.6000000089407]","1","1","","","10545","15","1","1","win","go","0"
"pit-trial","133","1014919","0.0-19.0","battery-v0.2","","""event"",""trial"",""time""
""fullscreenenter"",""1"",""2146""
","
","
","""event"",""trial"",""time""
""fullscreenenter"",""1"",""2146""
","
","","","1574.5999999940395","","","18","10545","3396","&#9752;","elianto","#f73b6a7A"," "," ","1","0","[2425.2999999970198]","1","1","","","10545","16","3","3","lose","go","0"
"pit-trial","134","1019789","0.0-20.0","battery-v0.2","","""event"",""trial"",""time""
""fullscreenenter"",""1"",""2146""
","
","
","""event"",""trial"",""time""
""fullscreenenter"",""1"",""2146""
","
","","","-1","","","18","10545","3396","&#9728;","elianto","#f73b6a7A","-1","-1","1","0","[]","0","1","","","10545","17","0","4","lose","no-go","0"
"pit-trial","135","1024648","0.0-21.0","battery-v0.2","","""event"",""trial"",""time""
""fullscreenenter"",""1"",""2146""
","
","
","""event"",""trial"",""time""
""fullscreenenter"",""1"",""2146""
","
","","","-1","","","18","10545","3396","&#9733;","elianto","#3366ff99","-1","-1","1","+10","[]","0","1","","","10545","18","2","2","win","no-go","0"
"pit-trial","136","1028232","0.0-22.0","battery-v0.2","","""event"",""trial"",""time""
""fullscreenenter"",""1"",""2146""
","
","
","""event"",""trial"",""time""
""fullscreenenter"",""1"",""2146""
","
","","","717.6000000089407","","","18","10545","3396","&#9730;","elianto","#3366ff99"," "," ","1","+10","[1572.9000000059605]","1","1","","","10545","19","1","1","win","go","0"
"pit-trial","137","1032439","0.0-23.0","battery-v0.2","","""event"",""trial"",""time""
""fullscreenenter"",""1"",""2146""
","
","
","""event"",""trial"",""time""
""fullscreenenter"",""1"",""2146""
","
","","","1345.7000000029802","","","18","10545","3396","&#9752;","elianto","#f73b6a7A"," "," ","1","-10","[2200.1000000089407]","1","1","","","10545","20","3","3","lose","go","1"
"pit-instructions","138","1050083","0.0-24.0","battery-v0.2","","""event"",""trial"",""time""
""fullscreenenter"",""1"",""2146""
","
","
","""event"",""trial"",""time""
""fullscreenenter"",""1"",""2146""
","
","","[{""page_index"":0,""viewing_time"":8445.70000000298},{""page_index"":1,""viewing_time"":9194.79999999702}]","17640.90000000596","","","","","","","","","","","","","","","","","","","","","","","",""
"pit-trial","139","1054956","0.0-25.0","battery-v0.2","","""event"",""trial"",""time""
""fullscreenenter"",""1"",""2146""
","
","
","""event"",""trial"",""time""
""fullscreenenter"",""1"",""2146""
","
","","","-1","","","18","10545","3396","t","elianto","#f73b6a7A","-1","-1","1","0","[]","0","2","","","10545","21","2","4","lose","no-go","0"
"pit-trial","140","1059117","0.0-26.0","battery-v0.2","","""event"",""trial"",""time""
""fullscreenenter"",""1"",""2146""
","
","
","""event"",""trial"",""time""
""fullscreenenter"",""1"",""2146""
","
","","","1292.8999999910593","","","18","10545","3396","f","elianto","#3366ff99"," "," ","1","+10","[2149]","1","2","","","10545","22","1","1","win","go","0"
"pit-trial","141","1063047","0.0-27.0","battery-v0.2","","""event"",""trial"",""time""
""fullscreenenter"",""1"",""2146""
","
","
","""event"",""trial"",""time""
""fullscreenenter"",""1"",""2146""
","
","","","1060.2999999970198","","","18","10545","3396","b","elianto","#f73b6a7A"," "," ","1","0","[1910.5]","1","2","","","10545","23","3","3","lose","go","0"
"pit-trial","142","1067914","0.0-28.0","battery-v0.2","","""event"",""trial"",""time""
""fullscreenenter"",""1"",""2146""
","
","
","""event"",""trial"",""time""
""fullscreenenter"",""1"",""2146""
","
","","","-1","","","18","10545","3396","n","elianto","#f73b6a7A","-1","-1","1","0","[]","0","2","","","10545","24","0","4","lose","no-go","0"
"pit-trial","143","1072172","0.0-29.0","battery-v0.2","","""event"",""trial"",""time""
""fullscreenenter"",""1"",""2146""
","
","
","""event"",""trial"",""time""
""fullscreenenter"",""1"",""2146""
","
","","","1394.6000000089407","","","18","10545","3396","b","elianto","#f73b6a7A"," "," ","1","-10","[2246]","1","2","","","10545","25","3","3","lose","go","1"
"pit-trial","144","1077037","0.0-30.0","battery-v0.2","","""event"",""trial"",""time""
""fullscreenenter"",""1"",""2146""
","
","
","""event"",""trial"",""time""
""fullscreenenter"",""1"",""2146""
","
","","","-1","","","18","10545","3396","t","elianto","#f73b6a7A","-1","-1","1","0","[]","0","2","","","10545","26","2","4","lose","no-go","0"
"pit-trial","145","1080723","0.0-31.0","battery-v0.2","","""event"",""trial"",""time""
""fullscreenenter"",""1"",""2146""
","
","
","""event"",""trial"",""time""
""fullscreenenter"",""1"",""2146""
","
","","","820.6000000089407","","","18","10545","3396","f","elianto","#3366ff99"," "," ","1","+10","[1678.2000000029802]","1","2","","","10545","27","1","1","win","go","0"
"pit-trial","146","1085099","0.0-32.0","battery-v0.2","","""event"",""trial"",""time""
""fullscreenenter"",""1"",""2146""
","
","
","""event"",""trial"",""time""
""fullscreenenter"",""1"",""2146""
","
","","","1513.5","","","18","10545","3396","n","elianto","#f73b6a7A","-1"," ","0","-10","[2367.2000000029802]","1","2","","","10545","28","0","4","lose","no-go","0"
"pit-trial","147","1089963","0.0-33.0","battery-v0.2","","""event"",""trial"",""time""
""fullscreenenter"",""1"",""2146""
","
","
","""event"",""trial"",""time""
""fullscreenenter"",""1"",""2146""
","
","","","-1","","","18","10545","3396","t","elianto","#f73b6a7A","-1","-1","1","0","[]","0","2","","","10545","29","2","4","lose","no-go","0"
"pit-trial","148","1094828","0.0-34.0","battery-v0.2","","""event"",""trial"",""time""
""fullscreenenter"",""1"",""2146""
","
","
","""event"",""trial"",""time""
""fullscreenenter"",""1"",""2146""
","
","","","-1","","","18","10545","3396","n","elianto","#f73b6a7A","-1","-1","1","-10","[]","0","2","","","10545","30","0","4","lose","no-go","1"
"pit-trial","149","1099689","0.0-35.0","battery-v0.2","","""event"",""trial"",""time""
""fullscreenenter"",""1"",""2146""
","
","
","""event"",""trial"",""time""
""fullscreenenter"",""1"",""2146""
","
","","","-1","","","18","10545","3396","b","elianto","#f73b6a7A"," ","-1","0","-10","[]","0","2","","","10545","31","3","3","lose","go","0"
"pit-trial","150","1103766","0.0-36.0","battery-v0.2","","""event"",""trial"",""time""
""fullscreenenter"",""1"",""2146""
","
","
","""event"",""trial"",""time""
""fullscreenenter"",""1"",""2146""
","
","","","1217.3999999910593","","","18","10545","3396","f","elianto","#3366ff99"," "," ","1","+10","[2069.7000000029802]","1","2","","","10545","32","1","1","win","go","0"
"pit-trial","151","1107579","0.0-37.0","battery-v0.2","","""event"",""trial"",""time""
""fullscreenenter"",""1"",""2146""
","
","
","""event"",""trial"",""time""
""fullscreenenter"",""1"",""2146""
","
","","","942.1000000089407","","","18","10545","3396","n","elianto","#f73b6a7A","-1"," ","0","-10","[1800.1000000089407]","1","2","","","10545","33","0","4","lose","no-go","0"
"pit-trial","152","1111772","0.0-38.0","battery-v0.2","","""event"",""trial"",""time""
""fullscreenenter"",""1"",""2146""
","
","
","""event"",""trial"",""time""
""fullscreenenter"",""1"",""2146""
","
","","","1331.2000000029802","","","18","10545","3396","t","elianto","#f73b6a7A","-1"," ","0","-10","[2183.5]","1","2","","","10545","34","2","4","lose","no-go","0"
"pit-trial","153","1116636","0.0-39.0","battery-v0.2","","""event"",""trial"",""time""
""fullscreenenter"",""1"",""2146""
","
","
","""event"",""trial"",""time""
""fullscreenenter"",""1"",""2146""
","
","","","-1","","","18","10545","3396","f","elianto","#3366ff99"," ","-1","0","+10","[]","0","2","","","10545","35","1","1","win","go","1"
"pit-trial","154","1121444","0.0-40.0","battery-v0.2","","""event"",""trial"",""time""
""fullscreenenter"",""1"",""2146""
","
","
","""event"",""trial"",""time""
""fullscreenenter"",""1"",""2146""
","
","","","1942.5","","","18","10545","3396","b","elianto","#f73b6a7A"," "," ","1","-10","[2798.3999999910593]","1","2","","","10545","36","3","3","lose","go","1"
"pit-trial","155","1126310","0.0-41.0","battery-v0.2","","""event"",""trial"",""time""
""fullscreenenter"",""1"",""2146""
","
","
","""event"",""trial"",""time""
""fullscreenenter"",""1"",""2146""
","
","","","-1","","","18","10545","3396","t","elianto","#f73b6a7A","-1","-1","1","0","[]","0","2","","","10545","37","2","4","lose","no-go","0"
"pit-trial","156","1131169","0.0-42.0","battery-v0.2","","""event"",""trial"",""time""
""fullscreenenter"",""1"",""2146""
","
","
","""event"",""trial"",""time""
""fullscreenenter"",""1"",""2146""
","
","","","-1","","","18","10545","3396","f","elianto","#3366ff99"," ","-1","0","0","[]","0","2","","","10545","38","1","1","win","go","0"
"pit-trial","157","1135319","0.0-43.0","battery-v0.2","","""event"",""trial"",""time""
""fullscreenenter"",""1"",""2146""
","
","
","""event"",""trial"",""time""
""fullscreenenter"",""1"",""2146""
","
","","","1289.2000000029802","","","18","10545","3396","n","elianto","#f73b6a7A","-1"," ","0","-10","[2144]","1","2","","","10545","39","0","4","lose","no-go","0"
"pit-trial","158","1139080","0.0-44.0","battery-v0.2","","""event"",""trial"",""time""
""fullscreenenter"",""1"",""2146""
","
","
","""event"",""trial"",""time""
""fullscreenenter"",""1"",""2146""
","
","","","896.5","","","18","10545","3396","b","elianto","#f73b6a7A"," "," ","1","0","[1749]","1","2","","","10545","40","3","3","lose","go","0"
"pit-trial","159","1142950","0.0-45.0","battery-v0.2","","""event"",""trial"",""time""
""fullscreenenter"",""1"",""2146""
","
","
","""event"",""trial"",""time""
""fullscreenenter"",""1"",""2146""
","
","","","1008.7999999970198","","","18","10545","3396","f","elianto","#3366ff99"," "," ","1","+10","[1861.7000000029802]","1","2","","","10545","41","1","1","win","go","0"
"pit-trial","160","1147668","0.0-46.0","battery-v0.2","","""event"",""trial"",""time""
""fullscreenenter"",""1"",""2146""
","
","
","""event"",""trial"",""time""
""fullscreenenter"",""1"",""2146""
","
","","","1853","","","18","10545","3396","n","elianto","#f73b6a7A","-1"," ","0","0","[2709.2000000029802]","1","2","","","10545","42","0","4","lose","no-go","1"
"pit-trial","161","1152536","0.0-47.0","battery-v0.2","","""event"",""trial"",""time""
""fullscreenenter"",""1"",""2146""
","
","
","""event"",""trial"",""time""
""fullscreenenter"",""1"",""2146""
","
","","","-1","","","18","10545","3396","b","elianto","#f73b6a7A"," ","-1","0","-10","[]","0","2","","","10545","43","3","3","lose","go","0"
"pit-trial","162","1156129","0.0-48.0","battery-v0.2","","""event"",""trial"",""time""
""fullscreenenter"",""1"",""2146""
","
","
","""event"",""trial"",""time""
""fullscreenenter"",""1"",""2146""
","
","","","715.2999999970198","","","18","10545","3396","t","elianto","#f73b6a7A","-1"," ","0","0","[1581.3999999910593]","1","2","","","10545","44","2","4","lose","no-go","1"
"pit-trial","163","1160595","0.0-49.0","battery-v0.2","","""event"",""trial"",""time""
""fullscreenenter"",""1"",""2146""
","
","
","""event"",""trial"",""time""
""fullscreenenter"",""1"",""2146""
","
","","","1610.5999999940395","","","18","10545","3396","c","elianto","#3366ff99","-1"," ","0","0","[2464.2000000029802]","1","2","","","10545","45","4","2","win","no-go","0"
"pit-trial","164","1164413","0.0-50.0","battery-v0.2","","""event"",""trial"",""time""
""fullscreenenter"",""1"",""2146""
","
","
","""event"",""trial"",""time""
""fullscreenenter"",""1"",""2146""
","
","","","960.2000000029802","","","18","10545","3396","n","elianto","#f73b6a7A","-1"," ","0","-10","[1813.6000000089407]","1","2","","","10545","46","0","4","lose","no-go","0"
"pit-trial","165","1169267","0.0-51.0","battery-v0.2","","""event"",""trial"",""time""
""fullscreenenter"",""1"",""2146""
""blur"",""166"",""1173144""
","""event"",""trial"",""time""
""blur"",""166"",""1173144""
","
","""event"",""trial"",""time""
""fullscreenenter"",""1"",""2146""
","
","","","-1","","","18","10545","3396","t","elianto","#f73b6a7A","-1","-1","1","0","[]","0","2","","","10545","47","2","4","lose","no-go","0"
"pit-trial","166","1174128","0.0-52.0","battery-v0.2","","""event"",""trial"",""time""
""fullscreenenter"",""1"",""2146""
""blur"",""166"",""1173144""
""focus"",""167"",""1175319""
","""event"",""trial"",""time""
""blur"",""166"",""1173144""
","""event"",""trial"",""time""
""focus"",""167"",""1175319""
","""event"",""trial"",""time""
""fullscreenenter"",""1"",""2146""
","
","","","-1","","","18","10545","3396","b","elianto","#f73b6a7A"," ","-1","0","0","[]","0","2","","","10545","48","3","3","lose","go","1"
"pit-trial","167","1178990","0.0-53.0","battery-v0.2","","""event"",""trial"",""time""
""fullscreenenter"",""1"",""2146""
""blur"",""166"",""1173144""
""focus"",""167"",""1175319""
","""event"",""trial"",""time""
""blur"",""166"",""1173144""
","""event"",""trial"",""time""
""focus"",""167"",""1175319""
","""event"",""trial"",""time""
""fullscreenenter"",""1"",""2146""
","
","","","-1","","","18","10545","3396","c","elianto","#3366ff99","-1","-1","1","+10","[]","0","2","","","10545","49","4","2","win","no-go","0"
"pit-trial","168","1183062","0.0-54.0","battery-v0.2","","""event"",""trial"",""time""
""fullscreenenter"",""1"",""2146""
""blur"",""166"",""1173144""
""focus"",""167"",""1175319""
","""event"",""trial"",""time""
""blur"",""166"",""1173144""
","""event"",""trial"",""time""
""focus"",""167"",""1175319""
","""event"",""trial"",""time""
""fullscreenenter"",""1"",""2146""
","
","","","1210.2000000029802","","","18","10545","3396","f","elianto","#3366ff99"," "," ","1","+10","[2064.5]","1","2","","","10545","50","1","1","win","go","0"
"pit-trial","169","1187219","0.0-55.0","battery-v0.2","","""event"",""trial"",""time""
""fullscreenenter"",""1"",""2146""
""blur"",""166"",""1173144""
""focus"",""167"",""1175319""
","""event"",""trial"",""time""
""blur"",""166"",""1173144""
","""event"",""trial"",""time""
""focus"",""167"",""1175319""
","""event"",""trial"",""time""
""fullscreenenter"",""1"",""2146""
","
","","","1298.3999999910593","","","18","10545","3396","n","elianto","#f73b6a7A","-1"," ","0","-10","[2151.7999999970198]","1","2","","","10545","51","0","4","lose","no-go","0"
"pit-trial","170","1191218","0.0-56.0","battery-v0.2","","""event"",""trial"",""time""
""fullscreenenter"",""1"",""2146""
""blur"",""166"",""1173144""
""focus"",""167"",""1175319""
","""event"",""trial"",""time""
""blur"",""166"",""1173144""
","""event"",""trial"",""time""
""focus"",""167"",""1175319""
","""event"",""trial"",""time""
""fullscreenenter"",""1"",""2146""
","
","","","1141.5","","","18","10545","3396","b","elianto","#f73b6a7A"," "," ","1","-10","[1994.0999999940395]","1","2","","","10545","52","3","3","lose","go","1"
"pit-trial","171","1195269","0.0-57.0","battery-v0.2","","""event"",""trial"",""time""
""fullscreenenter"",""1"",""2146""
""blur"",""166"",""1173144""
""focus"",""167"",""1175319""
","""event"",""trial"",""time""
""blur"",""166"",""1173144""
","""event"",""trial"",""time""
""focus"",""167"",""1175319""
","""event"",""trial"",""time""
""fullscreenenter"",""1"",""2146""
","
","","","1191.3999999910593","","","18","10545","3396","f","elianto","#3366ff99"," "," ","1","+10","[2048.2999999970198]","1","2","","","10545","53","1","1","win","go","0"
"pit-trial","172","1199319","0.0-58.0","battery-v0.2","","""event"",""trial"",""time""
""fullscreenenter"",""1"",""2146""
""blur"",""166"",""1173144""
""focus"",""167"",""1175319""
","""event"",""trial"",""time""
""blur"",""166"",""1173144""
","""event"",""trial"",""time""
""focus"",""167"",""1175319""
","""event"",""trial"",""time""
""fullscreenenter"",""1"",""2146""
","
","","","1192.1000000089407","","","18","10545","3396","n","elianto","#f73b6a7A","-1"," ","0","-10","[2043.2000000029802]","1","2","","","10545","54","0","4","lose","no-go","0"
"pit-trial","173","1203369","0.0-59.0","battery-v0.2","","""event"",""trial"",""time""
""fullscreenenter"",""1"",""2146""
""blur"",""166"",""1173144""
""focus"",""167"",""1175319""
","""event"",""trial"",""time""
""blur"",""166"",""1173144""
","""event"",""trial"",""time""
""focus"",""167"",""1175319""
","""event"",""trial"",""time""
""fullscreenenter"",""1"",""2146""
","
","","","1187.9000000059605","","","18","10545","3396","t","elianto","#f73b6a7A","-1"," ","0","-10","[2038.699999988079]","1","2","","","10545","55","2","4","lose","no-go","0"
"pit-trial","174","1208230","0.0-60.0","battery-v0.2","","""event"",""trial"",""time""
""fullscreenenter"",""1"",""2146""
""blur"",""166"",""1173144""
""focus"",""167"",""1175319""
","""event"",""trial"",""time""
""blur"",""166"",""1173144""
","""event"",""trial"",""time""
""focus"",""167"",""1175319""
","""event"",""trial"",""time""
""fullscreenenter"",""1"",""2146""
","
","","","-1","","","18","10545","3396","c","elianto","#3366ff99","-1","-1","1","0","[]","0","2","","","10545","56","4","2","win","no-go","1"
"pit-trial","175","1212083","0.0-61.0","battery-v0.2","","""event"",""trial"",""time""
""fullscreenenter"",""1"",""2146""
""blur"",""166"",""1173144""
""focus"",""167"",""1175319""
","""event"",""trial"",""time""
""blur"",""166"",""1173144""
","""event"",""trial"",""time""
""focus"",""167"",""1175319""
","""event"",""trial"",""time""
""fullscreenenter"",""1"",""2146""
","
","","","986.4000000059605","","","18","10545","3396","f","elianto","#3366ff99"," "," ","1","0","[1844.2999999970198]","1","2","","","10545","57","1","1","win","go","1"
"pit-trial","176","1216942","0.0-62.0","battery-v0.2","","""event"",""trial"",""time""
""fullscreenenter"",""1"",""2146""
""blur"",""166"",""1173144""
""focus"",""167"",""1175319""
","""event"",""trial"",""time""
""blur"",""166"",""1173144""
","""event"",""trial"",""time""
""focus"",""167"",""1175319""
","""event"",""trial"",""time""
""fullscreenenter"",""1"",""2146""
","
","","","-1","","","18","10545","3396","b","elianto","#f73b6a7A"," ","-1","0","-10","[]","0","2","","","10545","58","3","3","lose","go","0"
"pit-trial","177","1220774","0.0-63.0","battery-v0.2","","""event"",""trial"",""time""
""fullscreenenter"",""1"",""2146""
""blur"",""166"",""1173144""
""focus"",""167"",""1175319""
","""event"",""trial"",""time""
""blur"",""166"",""1173144""
","""event"",""trial"",""time""
""focus"",""167"",""1175319""
","""event"",""trial"",""time""
""fullscreenenter"",""1"",""2146""
","
","","","972.2999999970198","","","18","10545","3396","c","elianto","#3366ff99","-1"," ","0","0","[1822.2999999970198]","1","2","","","10545","59","4","2","win","no-go","0"
"pit-trial","178","1224538","0.0-64.0","battery-v0.2","","""event"",""trial"",""time""
""fullscreenenter"",""1"",""2146""
""blur"",""166"",""1173144""
""focus"",""167"",""1175319""
","""event"",""trial"",""time""
""blur"",""166"",""1173144""
","""event"",""trial"",""time""
""focus"",""167"",""1175319""
","""event"",""trial"",""time""
""fullscreenenter"",""1"",""2146""
","
","","","907.0999999940395","","","18","10545","3396","n","elianto","#f73b6a7A","-1"," ","0","-10","[1758.5999999940395]","1","2","","","10545","60","0","4","lose","no-go","0"
"pit-trial","179","1228795","0.0-65.0","battery-v0.2","","""event"",""trial"",""time""
""fullscreenenter"",""1"",""2146""
""blur"",""166"",""1173144""
""focus"",""167"",""1175319""
","""event"",""trial"",""time""
""blur"",""166"",""1173144""
","""event"",""trial"",""time""
""focus"",""167"",""1175319""
","""event"",""trial"",""time""
""fullscreenenter"",""1"",""2146""
","
","","","1395.8999999910593","","","18","10545","3396","b","elianto","#f73b6a7A"," "," ","1","0","[2253.3999999910593]","1","2","","","10545","61","3","3","lose","go","0"
"pit-trial","180","1232186","0.0-66.0","battery-v0.2","","""event"",""trial"",""time""
""fullscreenenter"",""1"",""2146""
""blur"",""166"",""1173144""
""focus"",""167"",""1175319""
","""event"",""trial"",""time""
""blur"",""166"",""1173144""
","""event"",""trial"",""time""
""focus"",""167"",""1175319""
","""event"",""trial"",""time""
""fullscreenenter"",""1"",""2146""
","
","","","521.5","","","18","10545","3396","c","elianto","#3366ff99","-1"," ","0","0","[1385.9000000059605]","1","2","","","10545","62","4","2","win","no-go","0"
"pit-trial","181","1236599","0.0-67.0","battery-v0.2","","""event"",""trial"",""time""
""fullscreenenter"",""1"",""2146""
""blur"",""166"",""1173144""
""focus"",""167"",""1175319""
","""event"",""trial"",""time""
""blur"",""166"",""1173144""
","""event"",""trial"",""time""
""focus"",""167"",""1175319""
","""event"",""trial"",""time""
""fullscreenenter"",""1"",""2146""
","
","","","1547.2000000029802","","","18","10545","3396","t","elianto","#f73b6a7A","-1"," ","0","-10","[2397.7999999970198]","1","2","","","10545","63","2","4","lose","no-go","0"
"pit-trial","182","1240168","0.0-68.0","battery-v0.2","","""event"",""trial"",""time""
""fullscreenenter"",""1"",""2146""
""blur"",""166"",""1173144""
""focus"",""167"",""1175319""
","""event"",""trial"",""time""
""blur"",""166"",""1173144""
","""event"",""trial"",""time""
""focus"",""167"",""1175319""
","""event"",""trial"",""time""
""fullscreenenter"",""1"",""2146""
","
","","","706.8999999910593","","","18","10545","3396","f","elianto","#3366ff99"," "," ","1","+10","[1557.5999999940395]","1","2","","","10545","64","1","1","win","go","0"
"pit-trial","183","1245031","0.0-69.0","battery-v0.2","","""event"",""trial"",""time""
""fullscreenenter"",""1"",""2146""
""blur"",""166"",""1173144""
""focus"",""167"",""1175319""
","""event"",""trial"",""time""
""blur"",""166"",""1173144""
","""event"",""trial"",""time""
""focus"",""167"",""1175319""
","""event"",""trial"",""time""
""fullscreenenter"",""1"",""2146""
","
","","","-1","","","18","10545","3396","t","elianto","#f73b6a7A","-1","-1","1","0","[]","0","2","","","10545","65","2","4","lose","no-go","0"
"pit-trial","184","1248792","0.0-70.0","battery-v0.2","","""event"",""trial"",""time""
""fullscreenenter"",""1"",""2146""
""blur"",""166"",""1173144""
""focus"",""167"",""1175319""
","""event"",""trial"",""time""
""blur"",""166"",""1173144""
","""event"",""trial"",""time""
""focus"",""167"",""1175319""
","""event"",""trial"",""time""
""fullscreenenter"",""1"",""2146""
","
","","","895.5","","","18","10545","3396","f","elianto","#3366ff99"," "," ","1","+10","[1753.2000000029802]","1","2","","","10545","66","1","1","win","go","0"
"pit-trial","185","1253214","0.0-71.0","battery-v0.2","","""event"",""trial"",""time""
""fullscreenenter"",""1"",""2146""
""blur"",""166"",""1173144""
""focus"",""167"",""1175319""
","""event"",""trial"",""time""
""blur"",""166"",""1173144""
","""event"",""trial"",""time""
""focus"",""167"",""1175319""
","""event"",""trial"",""time""
""fullscreenenter"",""1"",""2146""
","
","","","1560","","","18","10545","3396","c","elianto","#3366ff99","-1"," ","0","0","[2411.8999999910593]","1","2","","","10545","67","4","2","win","no-go","0"
"pit-trial","186","1258074","0.0-72.0","battery-v0.2","","""event"",""trial"",""time""
""fullscreenenter"",""1"",""2146""
""blur"",""166"",""1173144""
""focus"",""167"",""1175319""
","""event"",""trial"",""time""
""blur"",""166"",""1173144""
","""event"",""trial"",""time""
""focus"",""167"",""1175319""
","""event"",""trial"",""time""
""fullscreenenter"",""1"",""2146""
","
","","","-1","","","18","10545","3396","b","elianto","#f73b6a7A"," ","-1","0","0","[]","0","2","","","10545","68","3","3","lose","go","1"
"pit-trial","187","1261978","0.0-73.0","battery-v0.2","","""event"",""trial"",""time""
""fullscreenenter"",""1"",""2146""
""blur"",""166"",""1173144""
""focus"",""167"",""1175319""
","""event"",""trial"",""time""
""blur"",""166"",""1173144""
","""event"",""trial"",""time""
""focus"",""167"",""1175319""
","""event"",""trial"",""time""
""fullscreenenter"",""1"",""2146""
","
","","","1037.6000000089407","","","18","10545","3396","f","elianto","#3366ff99"," "," ","1","+10","[1893.3999999910593]","1","2","","","10545","69","1","1","win","go","0"
"pit-trial","188","1266512","0.0-74.0","battery-v0.2","","""event"",""trial"",""time""
""fullscreenenter"",""1"",""2146""
""blur"",""166"",""1173144""
""focus"",""167"",""1175319""
","""event"",""trial"",""time""
""blur"",""166"",""1173144""
","""event"",""trial"",""time""
""focus"",""167"",""1175319""
","""event"",""trial"",""time""
""fullscreenenter"",""1"",""2146""
","
","","","1664.7999999970198","","","18","10545","3396","z","elianto","#3366ff99"," "," ","1","+10","[2522.1000000089407]","1","2","","","10545","70","5","1","win","go","0"
"pit-trial","189","1271389","0.0-75.0","battery-v0.2","","""event"",""trial"",""time""
""fullscreenenter"",""1"",""2146""
""blur"",""166"",""1173144""
""focus"",""167"",""1175319""
","""event"",""trial"",""time""
""blur"",""166"",""1173144""
","""event"",""trial"",""time""
""focus"",""167"",""1175319""
","""event"",""trial"",""time""
""fullscreenenter"",""1"",""2146""
","
","","","-1","","","18","10545","3396","b","elianto","#f73b6a7A"," ","-1","0","-10","[]","0","2","","","10545","71","3","3","lose","go","0"
"pit-trial","190","1275630","0.0-76.0","battery-v0.2","","""event"",""trial"",""time""
""fullscreenenter"",""1"",""2146""
""blur"",""166"",""1173144""
""focus"",""167"",""1175319""
","""event"",""trial"",""time""
""blur"",""166"",""1173144""
","""event"",""trial"",""time""
""focus"",""167"",""1175319""
","""event"",""trial"",""time""
""fullscreenenter"",""1"",""2146""
","
","","","1376.2000000029802","","","18","10545","3396","c","elianto","#3366ff99","-1"," ","0","0","[2231.7999999970198]","1","2","","","10545","72","4","2","win","no-go","0"
"pit-trial","191","1280504","0.0-77.0","battery-v0.2","","""event"",""trial"",""time""
""fullscreenenter"",""1"",""2146""
""blur"",""166"",""1173144""
""focus"",""167"",""1175319""
","""event"",""trial"",""time""
""blur"",""166"",""1173144""
","""event"",""trial"",""time""
""focus"",""167"",""1175319""
","""event"",""trial"",""time""
""fullscreenenter"",""1"",""2146""
","
","","","-1","","","18","10545","3396","z","elianto","#3366ff99"," ","-1","0","0","[]","0","2","","","10545","73","5","1","win","go","0"
"pit-trial","192","1284789","0.0-78.0","battery-v0.2","","""event"",""trial"",""time""
""fullscreenenter"",""1"",""2146""
""blur"",""166"",""1173144""
""focus"",""167"",""1175319""
","""event"",""trial"",""time""
""blur"",""166"",""1173144""
","""event"",""trial"",""time""
""focus"",""167"",""1175319""
","""event"",""trial"",""time""
""fullscreenenter"",""1"",""2146""
","
","","","1422.9000000059605","","","18","10545","3396","b","elianto","#f73b6a7A"," "," ","1","-10","[2278.1000000089407]","1","2","","","10545","74","3","3","lose","go","1"
"pit-trial","193","1288547","0.0-79.0","battery-v0.2","","""event"",""trial"",""time""
""fullscreenenter"",""1"",""2146""
""blur"",""166"",""1173144""
""focus"",""167"",""1175319""
","""event"",""trial"",""time""
""blur"",""166"",""1173144""
","""event"",""trial"",""time""
""focus"",""167"",""1175319""
","""event"",""trial"",""time""
""fullscreenenter"",""1"",""2146""
","
","","","895.5999999940395","","","18","10545","3396","f","elianto","#3366ff99"," "," ","1","0","[1750.9000000059605]","1","2","","","10545","75","1","1","win","go","1"
"pit-trial","194","1292448","0.0-80.0","battery-v0.2","","""event"",""trial"",""time""
""fullscreenenter"",""1"",""2146""
""blur"",""166"",""1173144""
""focus"",""167"",""1175319""
""blur"",""195"",""1296229""
","""event"",""trial"",""time""
""blur"",""166"",""1173144""
""blur"",""195"",""1296229""
","""event"",""trial"",""time""
""focus"",""167"",""1175319""
","""event"",""trial"",""time""
""fullscreenenter"",""1"",""2146""
","
","","","1043.699999988079","","","18","10545","3396","c","elianto","#3366ff99","-1"," ","0","0","[1895.199999988079]","1","2","","","10545","76","4","2","win","no-go","0"
"pit-trial","195","1296491","0.0-81.0","battery-v0.2","","""event"",""trial"",""time""
""fullscreenenter"",""1"",""2146""
""blur"",""166"",""1173144""
""focus"",""167"",""1175319""
""blur"",""195"",""1296229""
""focus"",""196"",""1297861""
","""event"",""trial"",""time""
""blur"",""166"",""1173144""
""blur"",""195"",""1296229""
","""event"",""trial"",""time""
""focus"",""167"",""1175319""
""focus"",""196"",""1297861""
","""event"",""trial"",""time""
""fullscreenenter"",""1"",""2146""
","
","","","1181.8999999910593","","","18","10545","3396","z","elianto","#3366ff99"," "," ","1","+10","[2038.5]","1","2","","","10545","77","5","1","win","go","0"
"pit-trial","196","1301359","0.0-82.0","battery-v0.2","","""event"",""trial"",""time""
""fullscreenenter"",""1"",""2146""
""blur"",""166"",""1173144""
""focus"",""167"",""1175319""
""blur"",""195"",""1296229""
""focus"",""196"",""1297861""
","""event"",""trial"",""time""
""blur"",""166"",""1173144""
""blur"",""195"",""1296229""
","""event"",""trial"",""time""
""focus"",""167"",""1175319""
""focus"",""196"",""1297861""
","""event"",""trial"",""time""
""fullscreenenter"",""1"",""2146""
","
","","","-1","","","18","10545","3396","c","elianto","#3366ff99","-1","-1","1","+10","[3001.5999999940395]","1","2","","","10545","78","4","2","win","no-go","0"
"pit-trial","197","1306217","0.0-83.0","battery-v0.2","","""event"",""trial"",""time""
""fullscreenenter"",""1"",""2146""
""blur"",""166"",""1173144""
""focus"",""167"",""1175319""
""blur"",""195"",""1296229""
""focus"",""196"",""1297861""
","""event"",""trial"",""time""
""blur"",""166"",""1173144""
""blur"",""195"",""1296229""
","""event"",""trial"",""time""
""focus"",""167"",""1175319""
""focus"",""196"",""1297861""
","""event"",""trial"",""time""
""fullscreenenter"",""1"",""2146""
","
","","","1980.5999999940395","","","18","10545","3396","h","elianto","#f73b6a7A","-1"," ","0","-10","[2833.5]","1","2","","","10545","79","6","4","lose","no-go","0"
"pit-trial","198","1311080","0.0-84.0","battery-v0.2","","""event"",""trial"",""time""
""fullscreenenter"",""1"",""2146""
""blur"",""166"",""1173144""
""focus"",""167"",""1175319""
""blur"",""195"",""1296229""
""focus"",""196"",""1297861""
","""event"",""trial"",""time""
""blur"",""166"",""1173144""
""blur"",""195"",""1296229""
","""event"",""trial"",""time""
""focus"",""167"",""1175319""
""focus"",""196"",""1297861""
","""event"",""trial"",""time""
""fullscreenenter"",""1"",""2146""
","
","","","-1","","","18","10545","3396","b","elianto","#f73b6a7A"," ","-1","0","-10","[]","0","2","","","10545","80","3","3","lose","go","0"
"pit-trial","199","1315120","0.0-85.0","battery-v0.2","","""event"",""trial"",""time""
""fullscreenenter"",""1"",""2146""
""blur"",""166"",""1173144""
""focus"",""167"",""1175319""
""blur"",""195"",""1296229""
""focus"",""196"",""1297861""
","""event"",""trial"",""time""
""blur"",""166"",""1173144""
""blur"",""195"",""1296229""
","""event"",""trial"",""time""
""focus"",""167"",""1175319""
""focus"",""196"",""1297861""
","""event"",""trial"",""time""
""fullscreenenter"",""1"",""2146""
","
","","","1167.5999999940395","","","18","10545","3396","y","elianto","#f73b6a7A"," "," ","1","0","[2023.2999999970198]","1","2","","","10545","81","7","3","lose","go","0"
"pit-trial","200","1319147","0.0-86.0","battery-v0.2","","""event"",""trial"",""time""
""fullscreenenter"",""1"",""2146""
""blur"",""166"",""1173144""
""focus"",""167"",""1175319""
""blur"",""195"",""1296229""
""focus"",""196"",""1297861""
","""event"",""trial"",""time""
""blur"",""166"",""1173144""
""blur"",""195"",""1296229""
","""event"",""trial"",""time""
""focus"",""167"",""1175319""
""focus"",""196"",""1297861""
","""event"",""trial"",""time""
""fullscreenenter"",""1"",""2146""
","
","","","1167.2000000029802","","","18","10545","3396","h","elianto","#f73b6a7A","-1"," ","0","-10","[2018]","1","2","","","10545","82","6","4","lose","no-go","0"
"pit-trial","201","1322917","0.0-87.0","battery-v0.2","","""event"",""trial"",""time""
""fullscreenenter"",""1"",""2146""
""blur"",""166"",""1173144""
""focus"",""167"",""1175319""
""blur"",""195"",""1296229""
""focus"",""196"",""1297861""
","""event"",""trial"",""time""
""blur"",""166"",""1173144""
""blur"",""195"",""1296229""
","""event"",""trial"",""time""
""focus"",""167"",""1175319""
""focus"",""196"",""1297861""
","""event"",""trial"",""time""
""fullscreenenter"",""1"",""2146""
","
","","","903.6999999880791","","","18","10545","3396","z","elianto","#3366ff99"," "," ","1","0","[1761.2999999970198]","1","2","","","10545","83","5","1","win","go","1"
"pit-trial","202","1326736","0.0-88.0","battery-v0.2","","""event"",""trial"",""time""
""fullscreenenter"",""1"",""2146""
""blur"",""166"",""1173144""
""focus"",""167"",""1175319""
""blur"",""195"",""1296229""
""focus"",""196"",""1297861""
","""event"",""trial"",""time""
""blur"",""166"",""1173144""
""blur"",""195"",""1296229""
","""event"",""trial"",""time""
""focus"",""167"",""1175319""
""focus"",""196"",""1297861""
","""event"",""trial"",""time""
""fullscreenenter"",""1"",""2146""
","
","","","953.8999999910593","","","18","10545","3396","c","elianto","#3366ff99","-1"," ","0","0","[1807.199999988079]","1","2","","","10545","84","4","2","win","no-go","0"
"pit-trial","203","1331598","0.0-89.0","battery-v0.2","","""event"",""trial"",""time""
""fullscreenenter"",""1"",""2146""
""blur"",""166"",""1173144""
""focus"",""167"",""1175319""
""blur"",""195"",""1296229""
""focus"",""196"",""1297861""
","""event"",""trial"",""time""
""blur"",""166"",""1173144""
""blur"",""195"",""1296229""
","""event"",""trial"",""time""
""focus"",""167"",""1175319""
""focus"",""196"",""1297861""
","""event"",""trial"",""time""
""fullscreenenter"",""1"",""2146""
","
","","","-1","","","18","10545","3396","z","elianto","#3366ff99"," ","-1","0","0","[]","0","2","","","10545","85","5","1","win","go","0"
"pit-trial","204","1336460","0.0-90.0","battery-v0.2","","""event"",""trial"",""time""
""fullscreenenter"",""1"",""2146""
""blur"",""166"",""1173144""
""focus"",""167"",""1175319""
""blur"",""195"",""1296229""
""focus"",""196"",""1297861""
","""event"",""trial"",""time""
""blur"",""166"",""1173144""
""blur"",""195"",""1296229""
","""event"",""trial"",""time""
""focus"",""167"",""1175319""
""focus"",""196"",""1297861""
","""event"",""trial"",""time""
""fullscreenenter"",""1"",""2146""
","
","","","-1","","","18","10545","3396","c","elianto","#3366ff99","-1","-1","1","+10","[]","0","2","","","10545","86","4","2","win","no-go","0"
"pit-trial","205","1341318","0.0-91.0","battery-v0.2","","""event"",""trial"",""time""
""fullscreenenter"",""1"",""2146""
""blur"",""166"",""1173144""
""focus"",""167"",""1175319""
""blur"",""195"",""1296229""
""focus"",""196"",""1297861""
","""event"",""trial"",""time""
""blur"",""166"",""1173144""
""blur"",""195"",""1296229""
","""event"",""trial"",""time""
""focus"",""167"",""1175319""
""focus"",""196"",""1297861""
","""event"",""trial"",""time""
""fullscreenenter"",""1"",""2146""
","
","","","-1","","","18","10545","3396","y","elianto","#f73b6a7A"," ","-1","0","-10","[]","0","2","","","10545","87","7","3","lose","go","0"
"pit-trial","206","1346179","0.0-92.0","battery-v0.2","","""event"",""trial"",""time""
""fullscreenenter"",""1"",""2146""
""blur"",""166"",""1173144""
""focus"",""167"",""1175319""
""blur"",""195"",""1296229""
""focus"",""196"",""1297861""
","""event"",""trial"",""time""
""blur"",""166"",""1173144""
""blur"",""195"",""1296229""
","""event"",""trial"",""time""
""focus"",""167"",""1175319""
""focus"",""196"",""1297861""
","""event"",""trial"",""time""
""fullscreenenter"",""1"",""2146""
","
","","","-1","","","18","10545","3396","h","elianto","#f73b6a7A","-1","-1","1","0","[]","0","2","","","10545","88","6","4","lose","no-go","0"
"pit-trial","207","1350611","0.0-93.0","battery-v0.2","","""event"",""trial"",""time""
""fullscreenenter"",""1"",""2146""
""blur"",""166"",""1173144""
""focus"",""167"",""1175319""
""blur"",""195"",""1296229""
""focus"",""196"",""1297861""
","""event"",""trial"",""time""
""blur"",""166"",""1173144""
""blur"",""195"",""1296229""
","""event"",""trial"",""time""
""focus"",""167"",""1175319""
""focus"",""196"",""1297861""
","""event"",""trial"",""time""
""fullscreenenter"",""1"",""2146""
","
","","","1571.8999999910593","","","18","10545","3396","z","elianto","#3366ff99"," "," ","1","+10","[2425.3999999910593]","1","2","","","10545","89","5","1","win","go","0"
"pit-trial","208","1355474","0.0-94.0","battery-v0.2","","""event"",""trial"",""time""
""fullscreenenter"",""1"",""2146""
""blur"",""166"",""1173144""
""focus"",""167"",""1175319""
""blur"",""195"",""1296229""
""focus"",""196"",""1297861""
","""event"",""trial"",""time""
""blur"",""166"",""1173144""
""blur"",""195"",""1296229""
","""event"",""trial"",""time""
""focus"",""167"",""1175319""
""focus"",""196"",""1297861""
","""event"",""trial"",""time""
""fullscreenenter"",""1"",""2146""
","
","","","-1","","","18","10545","3396","h","elianto","#f73b6a7A","-1","-1","1","0","[]","0","2","","","10545","90","6","4","lose","no-go","0"
"pit-trial","209","1360342","0.0-95.0","battery-v0.2","","""event"",""trial"",""time""
""fullscreenenter"",""1"",""2146""
""blur"",""166"",""1173144""
""focus"",""167"",""1175319""
""blur"",""195"",""1296229""
""focus"",""196"",""1297861""
","""event"",""trial"",""time""
""blur"",""166"",""1173144""
""blur"",""195"",""1296229""
","""event"",""trial"",""time""
""focus"",""167"",""1175319""
""focus"",""196"",""1297861""
","""event"",""trial"",""time""
""fullscreenenter"",""1"",""2146""
","
","","","-1","","","18","10545","3396","y","elianto","#f73b6a7A"," ","-1","0","-10","[]","0","2","","","10545","91","7","3","lose","go","0"
"pit-trial","210","1364555","0.0-96.0","battery-v0.2","","""event"",""trial"",""time""
""fullscreenenter"",""1"",""2146""
""blur"",""166"",""1173144""
""focus"",""167"",""1175319""
""blur"",""195"",""1296229""
""focus"",""196"",""1297861""
","""event"",""trial"",""time""
""blur"",""166"",""1173144""
""blur"",""195"",""1296229""
","""event"",""trial"",""time""
""focus"",""167"",""1175319""
""focus"",""196"",""1297861""
","""event"",""trial"",""time""
""fullscreenenter"",""1"",""2146""
","
","","","1352.5","","","18","10545","3396","c","elianto","#3366ff99","-1"," ","0","0","[2206.1000000089407]","1","2","","","10545","92","4","2","win","no-go","0"
"pit-trial","211","1368416","0.0-97.0","battery-v0.2","","""event"",""trial"",""time""
""fullscreenenter"",""1"",""2146""
""blur"",""166"",""1173144""
""focus"",""167"",""1175319""
""blur"",""195"",""1296229""
""focus"",""196"",""1297861""
","""event"",""trial"",""time""
""blur"",""166"",""1173144""
""blur"",""195"",""1296229""
","""event"",""trial"",""time""
""focus"",""167"",""1175319""
""focus"",""196"",""1297861""
","""event"",""trial"",""time""
""fullscreenenter"",""1"",""2146""
","
","","","991.5","","","18","10545","3396","z","elianto","#3366ff99"," "," ","1","+10","[1848.5999999940395]","1","2","","","10545","93","5","1","win","go","0"
"pit-trial","212","1372736","0.0-98.0","battery-v0.2","","""event"",""trial"",""time""
""fullscreenenter"",""1"",""2146""
""blur"",""166"",""1173144""
""focus"",""167"",""1175319""
""blur"",""195"",""1296229""
""focus"",""196"",""1297861""
","""event"",""trial"",""time""
""blur"",""166"",""1173144""
""blur"",""195"",""1296229""
","""event"",""trial"",""time""
""focus"",""167"",""1175319""
""focus"",""196"",""1297861""
","""event"",""trial"",""time""
""fullscreenenter"",""1"",""2146""
","
","","","1456.8999999910593","","","18","10545","3396","y","elianto","#f73b6a7A"," "," ","1","0","[2309.3999999910593]","1","2","","","10545","94","7","3","lose","go","0"
"pit-trial","213","1376672","0.0-99.0","battery-v0.2","","""event"",""trial"",""time""
""fullscreenenter"",""1"",""2146""
""blur"",""166"",""1173144""
""focus"",""167"",""1175319""
""blur"",""195"",""1296229""
""focus"",""196"",""1297861""
","""event"",""trial"",""time""
""blur"",""166"",""1173144""
""blur"",""195"",""1296229""
","""event"",""trial"",""time""
""focus"",""167"",""1175319""
""focus"",""196"",""1297861""
","""event"",""trial"",""time""
""fullscreenenter"",""1"",""2146""
","
","","","1074","","","18","10545","3396","r","elianto","#3366ff99","-1"," ","0","0","[1926.2999999970198]","1","2","","","10545","95","8","2","win","no-go","0"
"pit-trial","214","1380392","0.0-100.0","battery-v0.2","","""event"",""trial"",""time""
""fullscreenenter"",""1"",""2146""
""blur"",""166"",""1173144""
""focus"",""167"",""1175319""
""blur"",""195"",""1296229""
""focus"",""196"",""1297861""
","""event"",""trial"",""time""
""blur"",""166"",""1173144""
""blur"",""195"",""1296229""
","""event"",""trial"",""time""
""focus"",""167"",""1175319""
""focus"",""196"",""1297861""
","""event"",""trial"",""time""
""fullscreenenter"",""1"",""2146""
","
","","","858.7000000029802","","","18","10545","3396","h","elianto","#f73b6a7A","-1"," ","0","-10","[1708.7999999970198]","1","2","","","10545","96","6","4","lose","no-go","0"
"pit-trial","215","1385252","0.0-101.0","battery-v0.2","","""event"",""trial"",""time""
""fullscreenenter"",""1"",""2146""
""blur"",""166"",""1173144""
""focus"",""167"",""1175319""
""blur"",""195"",""1296229""
""focus"",""196"",""1297861""
","""event"",""trial"",""time""
""blur"",""166"",""1173144""
""blur"",""195"",""1296229""
","""event"",""trial"",""time""
""focus"",""167"",""1175319""
""focus"",""196"",""1297861""
","""event"",""trial"",""time""
""fullscreenenter"",""1"",""2146""
","
","","","-1","","","18","10545","3396","r","elianto","#3366ff99","-1","-1","1","0","[]","0","2","","","10545","97","8","2","win","no-go","1"
"pit-trial","216","1389269","0.0-102.0","battery-v0.2","","""event"",""trial"",""time""
""fullscreenenter"",""1"",""2146""
""blur"",""166"",""1173144""
""focus"",""167"",""1175319""
""blur"",""195"",""1296229""
""focus"",""196"",""1297861""
","""event"",""trial"",""time""
""blur"",""166"",""1173144""
""blur"",""195"",""1296229""
","""event"",""trial"",""time""
""focus"",""167"",""1175319""
""focus"",""196"",""1297861""
","""event"",""trial"",""time""
""fullscreenenter"",""1"",""2146""
","
","","","1148.4000000059605","","","18","10545","3396","z","elianto","#3366ff99"," "," ","1","+10","[2004.2999999970198]","1","2","","","10545","98","5","1","win","go","0"
"pit-trial","217","1394091","0.0-103.0","battery-v0.2","","""event"",""trial"",""time""
""fullscreenenter"",""1"",""2146""
""blur"",""166"",""1173144""
""focus"",""167"",""1175319""
""blur"",""195"",""1296229""
""focus"",""196"",""1297861""
","""event"",""trial"",""time""
""blur"",""166"",""1173144""
""blur"",""195"",""1296229""
","""event"",""trial"",""time""
""focus"",""167"",""1175319""
""focus"",""196"",""1297861""
","""event"",""trial"",""time""
""fullscreenenter"",""1"",""2146""
","
","","","1964.4000000059605","","","18","10545","3396","y","elianto","#f73b6a7A"," "," ","1","0","[2817]","1","2","","","10545","99","7","3","lose","go","0"
"pit-trial","218","1398955","0.0-104.0","battery-v0.2","","""event"",""trial"",""time""
""fullscreenenter"",""1"",""2146""
""blur"",""166"",""1173144""
""focus"",""167"",""1175319""
""blur"",""195"",""1296229""
""focus"",""196"",""1297861""
","""event"",""trial"",""time""
""blur"",""166"",""1173144""
""blur"",""195"",""1296229""
","""event"",""trial"",""time""
""focus"",""167"",""1175319""
""focus"",""196"",""1297861""
","""event"",""trial"",""time""
""fullscreenenter"",""1"",""2146""
","
","","","-1","","","18","10545","3396","h","elianto","#f73b6a7A","-1","-1","1","0","[]","0","2","","","10545","100","6","4","lose","no-go","0"
"pit-trial","219","1403344","0.0-105.0","battery-v0.2","","""event"",""trial"",""time""
""fullscreenenter"",""1"",""2146""
""blur"",""166"",""1173144""
""focus"",""167"",""1175319""
""blur"",""195"",""1296229""
""focus"",""196"",""1297861""
","""event"",""trial"",""time""
""blur"",""166"",""1173144""
""blur"",""195"",""1296229""
","""event"",""trial"",""time""
""focus"",""167"",""1175319""
""focus"",""196"",""1297861""
","""event"",""trial"",""time""
""fullscreenenter"",""1"",""2146""
","
","","","1526.5999999940395","","","18","10545","3396","z","elianto","#3366ff99"," "," ","1","+10","[2381.0999999940395]","1","2","","","10545","101","5","1","win","go","0"
"pit-trial","220","1408214","0.0-106.0","battery-v0.2","","""event"",""trial"",""time""
""fullscreenenter"",""1"",""2146""
""blur"",""166"",""1173144""
""focus"",""167"",""1175319""
""blur"",""195"",""1296229""
""focus"",""196"",""1297861""
","""event"",""trial"",""time""
""blur"",""166"",""1173144""
""blur"",""195"",""1296229""
","""event"",""trial"",""time""
""focus"",""167"",""1175319""
""focus"",""196"",""1297861""
","""event"",""trial"",""time""
""fullscreenenter"",""1"",""2146""
","
","","","-1","","","18","10545","3396","h","elianto","#f73b6a7A","-1","-1","1","0","[]","0","2","","","10545","102","6","4","lose","no-go","0"
"pit-trial","221","1412384","0.0-107.0","battery-v0.2","","""event"",""trial"",""time""
""fullscreenenter"",""1"",""2146""
""blur"",""166"",""1173144""
""focus"",""167"",""1175319""
""blur"",""195"",""1296229""
""focus"",""196"",""1297861""
","""event"",""trial"",""time""
""blur"",""166"",""1173144""
""blur"",""195"",""1296229""
","""event"",""trial"",""time""
""focus"",""167"",""1175319""
""focus"",""196"",""1297861""
","""event"",""trial"",""time""
""fullscreenenter"",""1"",""2146""
","
","","","1304.1000000089407","","","18","10545","3396","m","elianto","#3366ff99","-1"," ","0","0","[2157.2000000029802]","1","2","","","10545","103","9","2","win","no-go","0"
"pit-trial","222","1416564","0.0-108.0","battery-v0.2","","""event"",""trial"",""time""
""fullscreenenter"",""1"",""2146""
""blur"",""166"",""1173144""
""focus"",""167"",""1175319""
""blur"",""195"",""1296229""
""focus"",""196"",""1297861""
","""event"",""trial"",""time""
""blur"",""166"",""1173144""
""blur"",""195"",""1296229""
","""event"",""trial"",""time""
""focus"",""167"",""1175319""
""focus"",""196"",""1297861""
","""event"",""trial"",""time""
""fullscreenenter"",""1"",""2146""
","
","","","1324.1000000089407","","","18","10545","3396","r","elianto","#3366ff99","-1"," ","0","+10","[2174.7999999970198]","1","2","","","10545","104","8","2","win","no-go","1"
"pit-trial","223","1421428","0.0-109.0","battery-v0.2","","""event"",""trial"",""time""
""fullscreenenter"",""1"",""2146""
""blur"",""166"",""1173144""
""focus"",""167"",""1175319""
""blur"",""195"",""1296229""
""focus"",""196"",""1297861""
","""event"",""trial"",""time""
""blur"",""166"",""1173144""
""blur"",""195"",""1296229""
","""event"",""trial"",""time""
""focus"",""167"",""1175319""
""focus"",""196"",""1297861""
","""event"",""trial"",""time""
""fullscreenenter"",""1"",""2146""
","
","","","-1","","","18","10545","3396","m","elianto","#3366ff99","-1","-1","1","+10","[]","0","2","","","10545","105","9","2","win","no-go","0"
"pit-trial","224","1424987","0.0-110.0","battery-v0.2","","""event"",""trial"",""time""
""fullscreenenter"",""1"",""2146""
""blur"",""166"",""1173144""
""focus"",""167"",""1175319""
""blur"",""195"",""1296229""
""focus"",""196"",""1297861""
","""event"",""trial"",""time""
""blur"",""166"",""1173144""
""blur"",""195"",""1296229""
","""event"",""trial"",""time""
""focus"",""167"",""1175319""
""focus"",""196"",""1297861""
","""event"",""trial"",""time""
""fullscreenenter"",""1"",""2146""
","
","","","679.5999999940395","","","18","10545","3396","r","elianto","#3366ff99","-1"," ","0","0","[1536.5999999940395]","1","2","","","10545","106","8","2","win","no-go","0"
"pit-trial","225","1429852","0.0-111.0","battery-v0.2","","""event"",""trial"",""time""
""fullscreenenter"",""1"",""2146""
""blur"",""166"",""1173144""
""focus"",""167"",""1175319""
""blur"",""195"",""1296229""
""focus"",""196"",""1297861""
","""event"",""trial"",""time""
""blur"",""166"",""1173144""
""blur"",""195"",""1296229""
","""event"",""trial"",""time""
""focus"",""167"",""1175319""
""focus"",""196"",""1297861""
","""event"",""trial"",""time""
""fullscreenenter"",""1"",""2146""
","
","","","-1","","","18","10545","3396","h","elianto","#f73b6a7A","-1","-1","1","0","[]","0","2","","","10545","107","6","4","lose","no-go","0"
"pit-trial","226","1433514","0.0-112.0","battery-v0.2","","""event"",""trial"",""time""
""fullscreenenter"",""1"",""2146""
""blur"",""166"",""1173144""
""focus"",""167"",""1175319""