"trial_type","trial_index","time_elapsed","internal_node_id","task_version","subject_id","interactions","blur_events","focus_events","fullscreenenter_events","fullscreenexit_events","success","view_history","rt","responses","num_errors","age","subject","participantId","rune","rune_set","hex","correct","choice","accuracy","outcome","keys","total_keys","block","practice","value","sub","trial","stimulus","robot","valence","action","sham"
"pavlovia","0","11","0.0-0.0","battery-v0.2","","""event"",""trial"",""time""
""fullscreenenter"",""1"",""1908""
","
","
","""event"",""trial"",""time""
""fullscreenenter"",""1"",""1908""
","
","","","","","","","","","","","","","","","","","","","","","","","","","","",""
"fullscreen","1","2882","0.0-1.0","battery-v0.2","","""event"",""trial"",""time""
""fullscreenenter"",""1"",""1908""
","
","
","""event"",""trial"",""time""
""fullscreenenter"",""1"",""1908""
","
","true","","","","","","","","","","","","","","","","","","","","","","","","","",""
"pit-instructions","2","9546","0.0-2.0-0.0","battery-v0.2","","""event"",""trial"",""time""
""fullscreenenter"",""1"",""1908""
","
","
","""event"",""trial"",""time""
""fullscreenenter"",""1"",""1908""
","
","","[{""page_index"":0,""viewing_time"":6649.799999998882}]","6651.199999999255","","","","","","","","","","","","","","","","","","","","","","","",""
"pit-comprehension","3","14321","0.0-2.0-1.0-0.0","battery-v0.2","","""event"",""trial"",""time""
""fullscreenenter"",""1"",""1908""
","
","
","""event"",""trial"",""time""
""fullscreenenter"",""1"",""1908""
","
","","","4768","[""shark""]","0","17","14486","6010","","","","","","","","","","","","","","","","","","",""
"pit-instructions","4","16772","0.0-2.0-1.0-1.0","battery-v0.2","","""event"",""trial"",""time""
""fullscreenenter"",""1"",""1908""
","
","
","""event"",""trial"",""time""
""fullscreenenter"",""1"",""1908""
","
","","[{""page_index"":0,""viewing_time"":2420.2999999988824}]","2420.9000000003725","","","","","","","","","","","","","","","","","","","","","","","",""
"pit-comprehension","5","20417","0.0-2.0-2.0-0.0","battery-v0.2","","""event"",""trial"",""time""
""fullscreenenter"",""1"",""1908""
","
","
","""event"",""trial"",""time""
""fullscreenenter"",""1"",""1908""
","
","","","3638.5999999996275","[""tiger""]","0","17","14486","6010","","","","","","","","","","","","","","","","","","",""
"pit-instructions","6","24873","0.0-2.0-2.0-1.0","battery-v0.2","","""event"",""trial"",""time""
""fullscreenenter"",""1"",""1908""
","
","
","""event"",""trial"",""time""
""fullscreenenter"",""1"",""1908""
","
","","[{""page_index"":0,""viewing_time"":4450.700000001118}]","4451.300000000745","","","","","","","","","","","","","","","","","","","","","","","",""
"pit-instructions","7","175289","0.0-2.0-3.0","battery-v0.2","","""event"",""trial"",""time""
""fullscreenenter"",""1"",""1908""
","
","
","""event"",""trial"",""time""
""fullscreenenter"",""1"",""1908""
","
","","[{""page_index"":0,""viewing_time"":8611.800000000745},{""page_index"":1,""viewing_time"":6165.89999999851},{""page_index"":2,""viewing_time"":6171.60000000149},{""page_index"":3,""viewing_time"":6593},{""page_index"":4,""viewing_time"":6389.699999999255},{""page_index"":5,""viewing_time"":5584},{""page_index"":6,""viewing_time"":7172.9000000003725},{""page_index"":7,""viewing_time"":13671.099999999627},{""page_index"":8,""viewing_time"":49544.800000000745},{""page_index"":9,""viewing_time"":10045.799999998882},{""page_index"":10,""viewing_time"":7891.9000000003725},{""page_index"":11,""viewing_time"":7976},{""page_index"":12,""viewing_time"":8407.599999999627},{""page_index"":13,""viewing_time"":6184.4000000003725}]","150411.59999999963","","","","","","","","","","","","","","","","","","","","","","","",""
"pit-trial","8","178903","0.0-2.0-4.0-0.0","battery-v0.2","","""event"",""trial"",""time""
""fullscreenenter"",""1"",""1908""
","
","
","""event"",""trial"",""time""
""fullscreenenter"",""1"",""1908""
","
","","","759.3000000007451","","","17","14486","6010","&#9784;","elianto","#FFFFF080"," "," ","1","&#10004","[1609.5]","1","0","0","","","","","","","",""
"pit-trial","9","182483","0.0-2.0-4.1-0.1","battery-v0.2","","""event"",""trial"",""time""
""fullscreenenter"",""1"",""1908""
","
","
","""event"",""trial"",""time""
""fullscreenenter"",""1"",""1908""
","
","","","724.7000000011176","","","17","14486","6010","&#9784;","elianto","#FFFFF080"," "," ","1","&#10004","[1575]","1","0","0","","","","","","","",""
"pit-trial","10","186055","0.0-2.0-4.2-0.2","battery-v0.2","","""event"",""trial"",""time""
""fullscreenenter"",""1"",""1908""
","
","
","""event"",""trial"",""time""
""fullscreenenter"",""1"",""1908""
","
","","","718.5","","","17","14486","6010","&#9784;","elianto","#FFFFF080"," "," ","1","&#10004","[1568.699999999255]","1","0","0","","","","","","","",""
"pit-trial","11","189415","0.0-2.0-4.3-0.3","battery-v0.2","","""event"",""trial"",""time""
""fullscreenenter"",""1"",""1908""
","
","
","""event"",""trial"",""time""
""fullscreenenter"",""1"",""1908""
","
","","","505.59999999962747","","","17","14486","6010","&#9784;","elianto","#FFFFF080"," "," ","1","&#10004","[1356.2999999988824]","1","0","0","","","","","","","",""
"pit-trial","12","192818","0.0-2.0-4.4-0.4","battery-v0.2","","""event"",""trial"",""time""
""fullscreenenter"",""1"",""1908""
","
","
","""event"",""trial"",""time""
""fullscreenenter"",""1"",""1908""
","
","","","549.3000000007451","","","17","14486","6010","&#9784;","elianto","#FFFFF080"," "," ","1","&#10004","[1399.5]","1","0","0","","","","","","","",""
"pit-instructions","13","220363","0.0-2.0-5.0","battery-v0.2","","""event"",""trial"",""time""
""fullscreenenter"",""1"",""1908""
","
","
","""event"",""trial"",""time""
""fullscreenenter"",""1"",""1908""
","
","","[{""page_index"":0,""viewing_time"":7925.4000000003725},{""page_index"":1,""viewing_time"":7454.4000000003725},{""page_index"":2,""viewing_time"":5480.199999999255},{""page_index"":3,""viewing_time"":6680.5999999996275}]","27541.199999999255","","","","","","","","","","","","","","","","","","","","","","","",""
"pit-trial","14","225217","0.0-2.0-6.0-0.0","battery-v0.2","","""event"",""trial"",""time""
""fullscreenenter"",""1"",""1908""
","
","
","""event"",""trial"",""time""
""fullscreenenter"",""1"",""1908""
","
","","","-1","","","17","14486","6010","&#9854;","elianto","#FFFFF080","-1","-1","1","&#10004","[]","0","0","1","","","","","","","",""
"pit-trial","15","230071","0.0-2.0-6.1-0.1","battery-v0.2","","""event"",""trial"",""time""
""fullscreenenter"",""1"",""1908""
","
","
","""event"",""trial"",""time""
""fullscreenenter"",""1"",""1908""
","
","","","-1","","","17","14486","6010","&#9854;","elianto","#FFFFF080","-1","-1","1","&#10004","[]","0","0","1","","","","","","","",""
"pit-trial","16","234928","0.0-2.0-6.2-0.2","battery-v0.2","","""event"",""trial"",""time""
""fullscreenenter"",""1"",""1908""
","
","
","""event"",""trial"",""time""
""fullscreenenter"",""1"",""1908""
","
","","","-1","","","17","14486","6010","&#9854;","elianto","#FFFFF080","-1","-1","1","&#10004","[]","0","0","1","","","","","","","",""
"pit-trial","17","239782","0.0-2.0-6.3-0.3","battery-v0.2","","""event"",""trial"",""time""
""fullscreenenter"",""1"",""1908""
","
","
","""event"",""trial"",""time""
""fullscreenenter"",""1"",""1908""
","
","","","-1","","","17","14486","6010","&#9854;","elianto","#FFFFF080","-1","-1","1","&#10004","[]","0","0","1","","","","","","","",""
"pit-trial","18","244636","0.0-2.0-6.4-0.4","battery-v0.2","","""event"",""trial"",""time""
""fullscreenenter"",""1"",""1908""
","
","
","""event"",""trial"",""time""
""fullscreenenter"",""1"",""1908""
","
","","","-1","","","17","14486","6010","&#9854;","elianto","#FFFFF080","-1","-1","1","&#10004","[]","0","0","1","","","","","","","",""
"pit-instructions","19","370432","0.0-2.0-7.0","battery-v0.2","","""event"",""trial"",""time""
""fullscreenenter"",""1"",""1908""
","
","
","""event"",""trial"",""time""
""fullscreenenter"",""1"",""1908""
","
","","[{""page_index"":0,""viewing_time"":5740.199999999255},{""page_index"":1,""viewing_time"":7017.5999999996275},{""page_index"":2,""viewing_time"":6622.5},{""page_index"":3,""viewing_time"":6531.700000001118},{""page_index"":4,""viewing_time"":5921.799999998882},{""page_index"":5,""viewing_time"":5741.10000000149},{""page_index"":6,""viewing_time"":5689.5},{""page_index"":7,""viewing_time"":10340.299999998882},{""page_index"":8,""viewing_time"":7118.5999999996275},{""page_index"":9,""viewing_time"":6198},{""page_index"":10,""viewing_time"":6749.800000000745},{""page_index"":11,""viewing_time"":4288.4000000003725},{""page_index"":12,""viewing_time"":8269.099999999627},{""page_index"":13,""viewing_time"":7823.5999999996275},{""page_index"":14,""viewing_time"":10512.400000000373},{""page_index"":15,""viewing_time"":6542},{""page_index"":16,""viewing_time"":6853.0999999996275},{""page_index"":17,""viewing_time"":7832.0999999996275}]","125792.40000000037","","","","","","","","","","","","","","","","","","","","","","","",""
"pit-trial","20","374078","0.0-2.0-8.0-0.0","battery-v0.2","","""event"",""trial"",""time""
""fullscreenenter"",""1"",""1908""
","
","
","""event"",""trial"",""time""
""fullscreenenter"",""1"",""1908""
","
","","","792.5","","","17","14486","6010","&#9776;","elianto","#3366ff99"," "," ","1","+10","[1643.1000000014901]","1","0","1","","","","","","","",""
"pit-trial","21","377624","0.0-2.0-8.0-1.0","battery-v0.2","","""event"",""trial"",""time""
""fullscreenenter"",""1"",""1908""
","
","
","""event"",""trial"",""time""
""fullscreenenter"",""1"",""1908""
","
","","","692.2999999988824","","","17","14486","6010","&#9776;","elianto","#3366ff99"," "," ","1","+10","[1542.5999999996275]","1","0","1","","","","","","","",""
"pit-trial","22","381248","0.0-2.0-8.0-2.0","battery-v0.2","","""event"",""trial"",""time""
""fullscreenenter"",""1"",""1908""
","
","
","""event"",""trial"",""time""
""fullscreenenter"",""1"",""1908""
","
","","","768.5","","","17","14486","6010","&#9776;","elianto","#3366ff99"," "," ","1","+10","[1618.7999999988824]","1","0","1","","","","","","","",""
"pit-trial","23","385102","0.0-2.0-8.0-3.0","battery-v0.2","","""event"",""trial"",""time""
""fullscreenenter"",""1"",""1908""
","
","
","""event"",""trial"",""time""
""fullscreenenter"",""1"",""1908""
","
","","","1000.2000000011176","","","17","14486","6010","&#9776;","elianto","#3366ff99"," "," ","1","0","[1850.2000000011176]","1","0","1","","","","","","","",""
"pit-trial","24","388823","0.0-2.0-8.0-4.0","battery-v0.2","","""event"",""trial"",""time""
""fullscreenenter"",""1"",""1908""
","
","
","""event"",""trial"",""time""
""fullscreenenter"",""1"",""1908""
","
","","","868.5999999996275","","","17","14486","6010","&#9776;","elianto","#3366ff99"," "," ","1","+10","[1718.9000000003725]","1","0","1","","","","","","","",""
"pit-trial","25","392288","0.0-2.0-8.1-0.1","battery-v0.2","","""event"",""trial"",""time""
""fullscreenenter"",""1"",""1908""
","
","
","""event"",""trial"",""time""
""fullscreenenter"",""1"",""1908""
","
","","","607.8999999985099","","","17","14486","6010","&#9776;","elianto","#3366ff99"," "," ","1","+10","[1460.7999999988824]","1","0","1","","","","","","","",""
"pit-trial","26","395991","0.0-2.0-8.1-1.1","battery-v0.2","","""event"",""trial"",""time""
""fullscreenenter"",""1"",""1908""
","
","
","""event"",""trial"",""time""
""fullscreenenter"",""1"",""1908""
","
","","","849.2000000011176","","","17","14486","6010","&#9776;","elianto","#3366ff99"," "," ","1","+10","[1699.2999999988824]","1","0","1","","","","","","","",""
"pit-trial","27","399662","0.0-2.0-8.1-2.1","battery-v0.2","","""event"",""trial"",""time""
""fullscreenenter"",""1"",""1908""
","
","
","""event"",""trial"",""time""
""fullscreenenter"",""1"",""1908""
","
","","","818.5999999996275","","","17","14486","6010","&#9776;","elianto","#3366ff99"," "," ","1","+10","[1668.7999999988824]","1","0","1","","","","","","","",""
"pit-trial","28","403025","0.0-2.0-8.1-3.1","battery-v0.2","","""event"",""trial"",""time""
""fullscreenenter"",""1"",""1908""
","
","
","""event"",""trial"",""time""
""fullscreenenter"",""1"",""1908""
","
","","","509.69999999925494","","","17","14486","6010","&#9776;","elianto","#3366ff99"," "," ","1","0","[1360]","1","0","1","","","","","","","",""
"pit-trial","29","406508","0.0-2.0-8.1-4.1","battery-v0.2","","""event"",""trial"",""time""
""fullscreenenter"",""1"",""1908""
","
","
","""event"",""trial"",""time""
""fullscreenenter"",""1"",""1908""
","
","","","630.3999999985099","","","17","14486","6010","&#9776;","elianto","#3366ff99"," "," ","1","+10","[1480.4000000003725]","1","0","1","","","","","","","",""
"pit-trial","30","410045","0.0-2.0-8.2-0.2","battery-v0.2","","""event"",""trial"",""time""
""fullscreenenter"",""1"",""1908""
","
","
","""event"",""trial"",""time""
""fullscreenenter"",""1"",""1908""
","
","","","683.3000000007451","","","17","14486","6010","&#9776;","elianto","#3366ff99"," "," ","1","+10","[1533.5]","1","0","1","","","","","","","",""
"pit-trial","31","413698","0.0-2.0-8.2-1.2","battery-v0.2","","""event"",""trial"",""time""
""fullscreenenter"",""1"",""1908""
","
","
","""event"",""trial"",""time""
""fullscreenenter"",""1"",""1908""
","
","","","800.2999999988824","","","17","14486","6010","&#9776;","elianto","#3366ff99"," "," ","1","+10","[1650.5]","1","0","1","","","","","","","",""
"pit-trial","32","417817","0.0-2.0-8.2-2.2","battery-v0.2","","""event"",""trial"",""time""
""fullscreenenter"",""1"",""1908""
","
","
","""event"",""trial"",""time""
""fullscreenenter"",""1"",""1908""
","
","","","1265.4000000003725","","","17","14486","6010","&#9776;","elianto","#3366ff99"," "," ","1","+10","[2116.0999999996275]","1","0","1","","","","","","","",""
"pit-trial","33","421860","0.0-2.0-8.2-3.2","battery-v0.2","","""event"",""trial"",""time""
""fullscreenenter"",""1"",""1908""
","
","
","""event"",""trial"",""time""
""fullscreenenter"",""1"",""1908""
","
","","","1190.4000000003725","","","17","14486","6010","&#9776;","elianto","#3366ff99"," "," ","1","0","[2040.5999999996275]","1","0","1","","","","","","","",""
"pit-trial","34","425451","0.0-2.0-8.2-4.2","battery-v0.2","","""event"",""trial"",""time""
""fullscreenenter"",""1"",""1908""
","
","
","""event"",""trial"",""time""
""fullscreenenter"",""1"",""1908""
","
","","","737.4000000003725","","","17","14486","6010","&#9776;","elianto","#3366ff99"," "," ","1","+10","[1587.6000000014901]","1","0","1","","","","","","","",""
"call-function","35","425457","0.0-2.0-9.0","battery-v0.2","","""event"",""trial"",""time""
""fullscreenenter"",""1"",""1908""
","
","
","""event"",""trial"",""time""
""fullscreenenter"",""1"",""1908""
","
","","","","","","","","","","","","","","","","","","","","","","","","","","",""
"pit-instructions","36","468497","0.0-2.0-10.0","battery-v0.2","","""event"",""trial"",""time""
""fullscreenenter"",""1"",""1908""
","
","
","""event"",""trial"",""time""
""fullscreenenter"",""1"",""1908""
","
","","[{""page_index"":0,""viewing_time"":7452.799999998882},{""page_index"":1,""viewing_time"":8149},{""page_index"":2,""viewing_time"":9747.60000000149},{""page_index"":3,""viewing_time"":9945.099999999627},{""page_index"":4,""viewing_time"":7741.9000000003725}]","43037.59999999963","","","","","","","","","","","","","","","","","","","","","","","",""
"pit-trial","37","472186","0.0-2.0-11.0-0.0","battery-v0.2","","""event"",""trial"",""time""
""fullscreenenter"",""1"",""1908""
","
","
","""event"",""trial"",""time""
""fullscreenenter"",""1"",""1908""
","
","","","834.7000000011176","","","17","14486","6010","&#9761;","elianto","#3366ff99","-1"," ","0","0","[1686.2000000011176]","1","0","2","","","","","","","",""
"pit-trial","38","475704","0.0-2.0-11.0-1.0","battery-v0.2","","""event"",""trial"",""time""
""fullscreenenter"",""1"",""1908""
","
","
","""event"",""trial"",""time""
""fullscreenenter"",""1"",""1908""
","
","","","665.4000000003725","","","17","14486","6010","&#9761;","elianto","#3366ff99","-1"," ","0","0","[1515.4000000003725]","1","0","2","","","","","","","",""
"pit-trial","39","479000","0.0-2.0-11.0-2.0","battery-v0.2","","""event"",""trial"",""time""
""fullscreenenter"",""1"",""1908""
","
","
","""event"",""trial"",""time""
""fullscreenenter"",""1"",""1908""
","
","","","442.30000000074506","","","17","14486","6010","&#9761;","elianto","#3366ff99","-1"," ","0","0","[1292.5]","1","0","2","","","","","","","",""
"pit-trial","40","483853","0.0-2.0-11.0-3.0","battery-v0.2","","""event"",""trial"",""time""
""fullscreenenter"",""1"",""1908""
","
","
","""event"",""trial"",""time""
""fullscreenenter"",""1"",""1908""
","
","","","-1","","","17","14486","6010","&#9761;","elianto","#3366ff99","-1","-1","1","0","[]","0","0","2","","","","","","","",""
"pit-trial","41","488707","0.0-2.0-11.0-4.0","battery-v0.2","","""event"",""trial"",""time""
""fullscreenenter"",""1"",""1908""
","
","
","""event"",""trial"",""time""
""fullscreenenter"",""1"",""1908""
","
","","","-1","","","17","14486","6010","&#9761;","elianto","#3366ff99","-1","-1","1","+10","[]","0","0","2","","","","","","","",""
"pit-trial","42","493561","0.0-2.0-11.1-0.1","battery-v0.2","","""event"",""trial"",""time""
""fullscreenenter"",""1"",""1908""
","
","
","""event"",""trial"",""time""
""fullscreenenter"",""1"",""1908""
","
","","","-1","","","17","14486","6010","&#9761;","elianto","#3366ff99","-1","-1","1","+10","[]","0","0","2","","","","","","","",""
"pit-trial","43","498416","0.0-2.0-11.1-1.1","battery-v0.2","","""event"",""trial"",""time""
""fullscreenenter"",""1"",""1908""
","
","
","""event"",""trial"",""time""
""fullscreenenter"",""1"",""1908""
","
","","","-1","","","17","14486","6010","&#9761;","elianto","#3366ff99","-1","-1","1","+10","[]","0","0","2","","","","","","","",""
"pit-trial","44","503269","0.0-2.0-11.1-2.1","battery-v0.2","","""event"",""trial"",""time""
""fullscreenenter"",""1"",""1908""
","
","
","""event"",""trial"",""time""
""fullscreenenter"",""1"",""1908""
","
","","","-1","","","17","14486","6010","&#9761;","elianto","#3366ff99","-1","-1","1","+10","[]","0","0","2","","","","","","","",""
"pit-trial","45","508125","0.0-2.0-11.1-3.1","battery-v0.2","","""event"",""trial"",""time""
""fullscreenenter"",""1"",""1908""
","
","
","""event"",""trial"",""time""
""fullscreenenter"",""1"",""1908""
","
","","","-1","","","17","14486","6010","&#9761;","elianto","#3366ff99","-1","-1","1","0","[]","0","0","2","","","","","","","",""
"pit-trial","46","511692","0.0-2.0-11.1-4.1","battery-v0.2","","""event"",""trial"",""time""
""fullscreenenter"",""1"",""1908""
","
","
","""event"",""trial"",""time""
""fullscreenenter"",""1"",""1908""
","
","","","711.7999999988824","","","17","14486","6010","&#9761;","elianto","#3366ff99","-1"," ","0","0","[1562]","1","0","2","","","","","","","",""
"pit-trial","47","515135","0.0-2.0-11.2-0.2","battery-v0.2","","""event"",""trial"",""time""
""fullscreenenter"",""1"",""1908""
","
","
","""event"",""trial"",""time""
""fullscreenenter"",""1"",""1908""
","
","","","584.7999999988824","","","17","14486","6010","&#9761;","elianto","#3366ff99","-1"," ","0","0","[1434.9000000003725]","1","0","2","","","","","","","",""
"pit-trial","48","518390","0.0-2.0-11.2-1.2","battery-v0.2","","""event"",""trial"",""time""
""fullscreenenter"",""1"",""1908""
","
","
","""event"",""trial"",""time""
""fullscreenenter"",""1"",""1908""
","
","","","400.19999999925494","","","17","14486","6010","&#9761;","elianto","#3366ff99","-1"," ","0","0","[1250.199999999255]","1","0","2","","","","","","","",""
"pit-trial","49","523246","0.0-2.0-11.2-2.2","battery-v0.2","","""event"",""trial"",""time""
""fullscreenenter"",""1"",""1908""
","
","
","""event"",""trial"",""time""
""fullscreenenter"",""1"",""1908""
","
","","","-1","","","17","14486","6010","&#9761;","elianto","#3366ff99","-1","-1","1","+10","[]","0","0","2","","","","","","","",""
"pit-trial","50","528102","0.0-2.0-11.2-3.2","battery-v0.2","","""event"",""trial"",""time""
""fullscreenenter"",""1"",""1908""
","
","
","""event"",""trial"",""time""
""fullscreenenter"",""1"",""1908""
","
","","","-1","","","17","14486","6010","&#9761;","elianto","#3366ff99","-1","-1","1","0","[]","0","0","2","","","","","","","",""
"pit-trial","51","532956","0.0-2.0-11.2-4.2","battery-v0.2","","""event"",""trial"",""time""
""fullscreenenter"",""1"",""1908""
","
","
","""event"",""trial"",""time""
""fullscreenenter"",""1"",""1908""
","
","","","-1","","","17","14486","6010","&#9761;","elianto","#3366ff99","-1","-1","1","+10","[]","0","0","2","","","","","","","",""
"pit-trial","52","537813","0.0-2.0-11.3-0.3","battery-v0.2","","""event"",""trial"",""time""
""fullscreenenter"",""1"",""1908""
","
","
","""event"",""trial"",""time""
""fullscreenenter"",""1"",""1908""
","
","","","-1","","","17","14486","6010","&#9761;","elianto","#3366ff99","-1","-1","1","+10","[]","0","0","2","","","","","","","",""
"pit-trial","53","542669","0.0-2.0-11.3-1.3","battery-v0.2","","""event"",""trial"",""time""
""fullscreenenter"",""1"",""1908""
","
","
","""event"",""trial"",""time""
""fullscreenenter"",""1"",""1908""
","
","","","-1","","","17","14486","6010","&#9761;","elianto","#3366ff99","-1","-1","1","+10","[]","0","0","2","","","","","","","",""
"pit-trial","54","547524","0.0-2.0-11.3-2.3","battery-v0.2","","""event"",""trial"",""time""
""fullscreenenter"",""1"",""1908""
","
","
","""event"",""trial"",""time""
""fullscreenenter"",""1"",""1908""
","
","","","-1","","","17","14486","6010","&#9761;","elianto","#3366ff99","-1","-1","1","+10","[]","0","0","2","","","","","","","",""
"pit-trial","55","552378","0.0-2.0-11.3-3.3","battery-v0.2","","""event"",""trial"",""time""
""fullscreenenter"",""1"",""1908""
","
","
","""event"",""trial"",""time""
""fullscreenenter"",""1"",""1908""
","
","","","-1","","","17","14486","6010","&#9761;","elianto","#3366ff99","-1","-1","1","0","[]","0","0","2","","","","","","","",""
"pit-trial","56","557232","0.0-2.0-11.3-4.3","battery-v0.2","","""event"",""trial"",""time""
""fullscreenenter"",""1"",""1908""
","
","
","""event"",""trial"",""time""
""fullscreenenter"",""1"",""1908""
","
","","","-1","","","17","14486","6010","&#9761;","elianto","#3366ff99","-1","-1","1","+10","[]","0","0","2","","","","","","","",""
"call-function","57","557236","0.0-2.0-12.0","battery-v0.2","","""event"",""trial"",""time""
""fullscreenenter"",""1"",""1908""
","
","
","""event"",""trial"",""time""
""fullscreenenter"",""1"",""1908""
","
","","","","","","","","","","","","","","","","","","","","","","","","","","",""
"pit-instructions","58","1241143","0.0-2.0-13.0","battery-v0.2","","""event"",""trial"",""time""
""fullscreenenter"",""1"",""1908""
","
","
","""event"",""trial"",""time""
""fullscreenenter"",""1"",""1908""
","
","","[{""page_index"":0,""viewing_time"":7870.199999999255},{""page_index"":1,""viewing_time"":514961.2000000011},{""page_index"":2,""viewing_time"":115597.5},{""page_index"":3,""viewing_time"":11010.799999998882},{""page_index"":4,""viewing_time"":34465.20000000112}]","683905.5","","","","","","","","","","","","","","","","","","","","","","","",""
"pit-trial","59","1245420","0.0-2.0-14.0-0.0","battery-v0.2","","""event"",""trial"",""time""
""fullscreenenter"",""1"",""1908""
","
","
","""event"",""trial"",""time""
""fullscreenenter"",""1"",""1908""
","
","","","1422.9000000003725","","","17","14486","6010","&#9826;","elianto","#f73b6a7A","-1"," ","0","-10","[2273.10000000149]","1","0","3","","","","","","","",""
"pit-trial","60","1250276","0.0-2.0-14.0-1.0","battery-v0.2","","""event"",""trial"",""time""
""fullscreenenter"",""1"",""1908""
","
","
","""event"",""trial"",""time""
""fullscreenenter"",""1"",""1908""
","
","","","-1","","","17","14486","6010","&#9826;","elianto","#f73b6a7A","-1","-1","1","0","[]","0","0","3","","","","","","","",""
"pit-trial","61","1255131","0.0-2.0-14.0-2.0","battery-v0.2","","""event"",""trial"",""time""
""fullscreenenter"",""1"",""1908""
","
","
","""event"",""trial"",""time""
""fullscreenenter"",""1"",""1908""
","
","","","-1","","","17","14486","6010","&#9826;","elianto","#f73b6a7A","-1","-1","1","0","[]","0","0","3","","","","","","","",""
"pit-trial","62","1259987","0.0-2.0-14.0-3.0","battery-v0.2","","""event"",""trial"",""time""
""fullscreenenter"",""1"",""1908""
","
","
","""event"",""trial"",""time""
""fullscreenenter"",""1"",""1908""
","
","","","-1","","","17","14486","6010","&#9826;","elianto","#f73b6a7A","-1","-1","1","-10","[]","0","0","3","","","","","","","",""
"pit-trial","63","1264843","0.0-2.0-14.0-4.0","battery-v0.2","","""event"",""trial"",""time""
""fullscreenenter"",""1"",""1908""
","
","
","""event"",""trial"",""time""
""fullscreenenter"",""1"",""1908""
","
","","","-1","","","17","14486","6010","&#9826;","elianto","#f73b6a7A","-1","-1","1","0","[]","0","0","3","","","","","","","",""
"pit-trial","64","1269700","0.0-2.0-14.1-0.1","battery-v0.2","","""event"",""trial"",""time""
""fullscreenenter"",""1"",""1908""
","
","
","""event"",""trial"",""time""
""fullscreenenter"",""1"",""1908""
","
","","","-1","","","17","14486","6010","&#9826;","elianto","#f73b6a7A","-1","-1","1","0","[]","0","0","3","","","","","","","",""
"pit-trial","65","1274556","0.0-2.0-14.1-1.1","battery-v0.2","","""event"",""trial"",""time""
""fullscreenenter"",""1"",""1908""
","
","
","""event"",""trial"",""time""
""fullscreenenter"",""1"",""1908""
","
","","","-1","","","17","14486","6010","&#9826;","elianto","#f73b6a7A","-1","-1","1","0","[]","0","0","3","","","","","","","",""
"pit-trial","66","1279412","0.0-2.0-14.1-2.1","battery-v0.2","","""event"",""trial"",""time""
""fullscreenenter"",""1"",""1908""
","
","
","""event"",""trial"",""time""
""fullscreenenter"",""1"",""1908""
","
","","","-1","","","17","14486","6010","&#9826;","elianto","#f73b6a7A","-1","-1","1","0","[]","0","0","3","","","","","","","",""
"pit-trial","67","1284267","0.0-2.0-14.1-3.1","battery-v0.2","","""event"",""trial"",""time""
""fullscreenenter"",""1"",""1908""
","
","
","""event"",""trial"",""time""
""fullscreenenter"",""1"",""1908""
","
","","","-1","","","17","14486","6010","&#9826;","elianto","#f73b6a7A","-1","-1","1","-10","[]","0","0","3","","","","","","","",""
"pit-trial","68","1289123","0.0-2.0-14.1-4.1","battery-v0.2","","""event"",""trial"",""time""
""fullscreenenter"",""1"",""1908""
","
","
","""event"",""trial"",""time""
""fullscreenenter"",""1"",""1908""
","
","","","-1","","","17","14486","6010","&#9826;","elianto","#f73b6a7A","-1","-1","1","0","[]","0","0","3","","","","","","","",""
"pit-trial","69","1293981","0.0-2.0-14.2-0.2","battery-v0.2","","""event"",""trial"",""time""
""fullscreenenter"",""1"",""1908""
","
","
","""event"",""trial"",""time""
""fullscreenenter"",""1"",""1908""
","
","","","-1","","","17","14486","6010","&#9826;","elianto","#f73b6a7A","-1","-1","1","0","[]","0","0","3","","","","","","","",""
"pit-trial","70","1298836","0.0-2.0-14.2-1.2","battery-v0.2","","""event"",""trial"",""time""
""fullscreenenter"",""1"",""1908""
","
","
","""event"",""trial"",""time""
""fullscreenenter"",""1"",""1908""
","
","","","-1","","","17","14486","6010","&#9826;","elianto","#f73b6a7A","-1","-1","1","0","[]","0","0","3","","","","","","","",""
"pit-trial","71","1303690","0.0-2.0-14.2-2.2","battery-v0.2","","""event"",""trial"",""time""
""fullscreenenter"",""1"",""1908""
","
","
","""event"",""trial"",""time""
""fullscreenenter"",""1"",""1908""
","
","","","-1","","","17","14486","6010","&#9826;","elianto","#f73b6a7A","-1","-1","1","0","[]","0","0","3","","","","","","","",""
"pit-trial","72","1308546","0.0-2.0-14.2-3.2","battery-v0.2","","""event"",""trial"",""time""
""fullscreenenter"",""1"",""1908""
","
","
","""event"",""trial"",""time""
""fullscreenenter"",""1"",""1908""
","
","","","-1","","","17","14486","6010","&#9826;","elianto","#f73b6a7A","-1","-1","1","-10","[]","0","0","3","","","","","","","",""
"pit-trial","73","1313402","0.0-2.0-14.2-4.2","battery-v0.2","","""event"",""trial"",""time""
""fullscreenenter"",""1"",""1908""
","
","
","""event"",""trial"",""time""
""fullscreenenter"",""1"",""1908""
","
","","","-1","","","17","14486","6010","&#9826;","elianto","#f73b6a7A","-1","-1","1","0","[]","0","0","3","","","","","","","",""
"pit-trial","74","1318259","0.0-2.0-14.3-0.3","battery-v0.2","","""event"",""trial"",""time""
""fullscreenenter"",""1"",""1908""
","
","
","""event"",""trial"",""time""
""fullscreenenter"",""1"",""1908""
","
","","","-1","","","17","14486","6010","&#9826;","elianto","#f73b6a7A","-1","-1","1","0","[]","0","0","3","","","","","","","",""
"pit-trial","75","1323113","0.0-2.0-14.3-1.3","battery-v0.2","","""event"",""trial"",""time""
""fullscreenenter"",""1"",""1908""
","
","
","""event"",""trial"",""time""
""fullscreenenter"",""1"",""1908""
","
","","","-1","","","17","14486","6010","&#9826;","elianto","#f73b6a7A","-1","-1","1","0","[]","0","0","3","","","","","","","",""
"pit-trial","76","1327968","0.0-2.0-14.3-2.3","battery-v0.2","","""event"",""trial"",""time""
""fullscreenenter"",""1"",""1908""
","
","
","""event"",""trial"",""time""
""fullscreenenter"",""1"",""1908""
","
","","","-1","","","17","14486","6010","&#9826;","elianto","#f73b6a7A","-1","-1","1","0","[]","0","0","3","","","","","","","",""
"pit-trial","77","1332822","0.0-2.0-14.3-3.3","battery-v0.2","","""event"",""trial"",""time""
""fullscreenenter"",""1"",""1908""
","
","
","""event"",""trial"",""time""
""fullscreenenter"",""1"",""1908""
","
","","","-1","","","17","14486","6010","&#9826;","elianto","#f73b6a7A","-1","-1","1","-10","[]","0","0","3","","","","","","","",""
"pit-trial","78","1337677","0.0-2.0-14.3-4.3","battery-v0.2","","""event"",""trial"",""time""
""fullscreenenter"",""1"",""1908""
","
","
","""event"",""trial"",""time""
""fullscreenenter"",""1"",""1908""
","
","","","-1","","","17","14486","6010","&#9826;","elianto","#f73b6a7A","-1","-1","1","0","[]","0","0","3","","","","","","","",""
"call-function","79","1337683","0.0-2.0-15.0","battery-v0.2","","""event"",""trial"",""time""
""fullscreenenter"",""1"",""1908""
","
","
","""event"",""trial"",""time""
""fullscreenenter"",""1"",""1908""
","
","","","","","","","","","","","","","","","","","","","","","","","","","","",""
"pit-instructions","80","1433793","0.0-2.0-16.0","battery-v0.2","","""event"",""trial"",""time""
""fullscreenenter"",""1"",""1908""
","
","
","""event"",""trial"",""time""
""fullscreenenter"",""1"",""1908""
","
","","[{""page_index"":0,""viewing_time"":42261.70000000112},{""page_index"":1,""viewing_time"":8815},{""page_index"":2,""viewing_time"":5965.5999999996275},{""page_index"":3,""viewing_time"":39066.199999999255}]","96109","","","","","","","","","","","","","","","","","","","","","","","",""
"pit-trial","81","1437275","0.0-2.0-17.0-0.0","battery-v0.2","","""event"",""trial"",""time""
""fullscreenenter"",""1"",""1908""
","
","
","""event"",""trial"",""time""
""fullscreenenter"",""1"",""1908""
","
","","","628.3999999985099","","","17","14486","6010","&#9789;","elianto","#f73b6a7A"," "," ","1","0","[1478.5]","1","0","4","","","","","","","",""
"pit-trial","82","1440696","0.0-2.0-17.0-1.0","battery-v0.2","","""event"",""trial"",""time""
""fullscreenenter"",""1"",""1908""
","
","
","""event"",""trial"",""time""
""fullscreenenter"",""1"",""1908""
","
","","","565.5999999996275","","","17","14486","6010","&#9789;","elianto","#f73b6a7A"," "," ","1","0","[1415.800000000745]","1","0","4","","","","","","","",""
"pit-trial","83","1443997","0.0-2.0-17.0-2.0","battery-v0.2","","""event"",""trial"",""time""
""fullscreenenter"",""1"",""1908""
","
","
","""event"",""trial"",""time""
""fullscreenenter"",""1"",""1908""
","
","","","445.09999999962747","","","17","14486","6010","&#9789;","elianto","#f73b6a7A"," "," ","1","0","[1295.2000000011176]","1","0","4","","","","","","","",""
"pit-trial","84","1448852","0.0-2.0-17.0-3.0","battery-v0.2","","""event"",""trial"",""time""
""fullscreenenter"",""1"",""1908""
","
","
","""event"",""trial"",""time""
""fullscreenenter"",""1"",""1908""
","
","","","-1","","","17","14486","6010","&#9789;","elianto","#f73b6a7A"," ","-1","0","0","[]","0","0","4","","","","","","","",""
"pit-trial","85","1453708","0.0-2.0-17.0-4.0","battery-v0.2","","""event"",""trial"",""time""
""fullscreenenter"",""1"",""1908""
","
","
","""event"",""trial"",""time""
""fullscreenenter"",""1"",""1908""
","
","","","-1","","","17","14486","6010","&#9789;","elianto","#f73b6a7A"," ","-1","0","-10","[]","0","0","4","","","","","","","",""
"pit-trial","86","1458566","0.0-2.0-17.1-0.1","battery-v0.2","","""event"",""trial"",""time""
""fullscreenenter"",""1"",""1908""
","
","
","""event"",""trial"",""time""
""fullscreenenter"",""1"",""1908""
","
","","","-1","","","17","14486","6010","&#9789;","elianto","#f73b6a7A"," ","-1","0","-10","[]","0","0","4","","","","","","","",""
"pit-trial","87","1463422","0.0-2.0-17.1-1.1","battery-v0.2","","""event"",""trial"",""time""
""fullscreenenter"",""1"",""1908""
","
","
","""event"",""trial"",""time""
""fullscreenenter"",""1"",""1908""
","
","","","-1","","","17","14486","6010","&#9789;","elianto","#f73b6a7A"," ","-1","0","-10","[]","0","0","4","","","","","","","",""
"pit-trial","88","1468277","0.0-2.0-17.1-2.1","battery-v0.2","","""event"",""trial"",""time""
""fullscreenenter"",""1"",""1908""
","
","
","""event"",""trial"",""time""
""fullscreenenter"",""1"",""1908""
","
","","","-1","","","17","14486","6010","&#9789;","elianto","#f73b6a7A"," ","-1","0","-10","[]","0","0","4","","","","","","","",""
"pit-trial","89","1473133","0.0-2.0-17.1-3.1","battery-v0.2","","""event"",""trial"",""time""
""fullscreenenter"",""1"",""1908""
","
","
","""event"",""trial"",""time""
""fullscreenenter"",""1"",""1908""
","
","","","-1","","","17","14486","6010","&#9789;","elianto","#f73b6a7A"," ","-1","0","0","[]","0","0","4","","","","","","","",""
"pit-trial","90","1477989","0.0-2.0-17.1-4.1","battery-v0.2","","""event"",""trial"",""time""
""fullscreenenter"",""1"",""1908""
","
","
","""event"",""trial"",""time""
""fullscreenenter"",""1"",""1908""
","
","","","-1","","","17","14486","6010","&#9789;","elianto","#f73b6a7A"," ","-1","0","-10","[]","0","0","4","","","","","","","",""
"pit-trial","91","1482846","0.0-2.0-17.2-0.2","battery-v0.2","","""event"",""trial"",""time""
""fullscreenenter"",""1"",""1908""
","
","
","""event"",""trial"",""time""
""fullscreenenter"",""1"",""1908""
","
","","","-1","","","17","14486","6010","&#9789;","elianto","#f73b6a7A"," ","-1","0","-10","[]","0","0","4","","","","","","","",""
"pit-trial","92","1487707","0.0-2.0-17.2-1.2","battery-v0.2","","""event"",""trial"",""time""
""fullscreenenter"",""1"",""1908""
","
","
","""event"",""trial"",""time""
""fullscreenenter"",""1"",""1908""
","
","","","-1","","","17","14486","6010","&#9789;","elianto","#f73b6a7A"," ","-1","0","-10","[]","0","0","4","","","","","","","",""
"pit-trial","93","1492561","0.0-2.0-17.2-2.2","battery-v0.2","","""event"",""trial"",""time""
""fullscreenenter"",""1"",""1908""
","
","
","""event"",""trial"",""time""
""fullscreenenter"",""1"",""1908""
","
","","","-1","","","17","14486","6010","&#9789;","elianto","#f73b6a7A"," ","-1","0","-10","[]","0","0","4","","","","","","","",""
"pit-trial","94","1497417","0.0-2.0-17.2-3.2","battery-v0.2","","""event"",""trial"",""time""
""fullscreenenter"",""1"",""1908""
","
","
","""event"",""trial"",""time""
""fullscreenenter"",""1"",""1908""
","
","","","-1","","","17","14486","6010","&#9789;","elianto","#f73b6a7A"," ","-1","0","0","[]","0","0","4","","","","","","","",""
"pit-trial","95","1502273","0.0-2.0-17.2-4.2","battery-v0.2","","""event"",""trial"",""time""
""fullscreenenter"",""1"",""1908""
","
","
","""event"",""trial"",""time""
""fullscreenenter"",""1"",""1908""
","
","","","-1","","","17","14486","6010","&#9789;","elianto","#f73b6a7A"," ","-1","0","-10","[]","0","0","4","","","","","","","",""
"pit-trial","96","1507130","0.0-2.0-17.3-0.3","battery-v0.2","","""event"",""trial"",""time""
""fullscreenenter"",""1"",""1908""
","
","
","""event"",""trial"",""time""
""fullscreenenter"",""1"",""1908""
","
","","","-1","","","17","14486","6010","&#9789;","elianto","#f73b6a7A"," ","-1","0","-10","[]","0","0","4","","","","","","","",""
"pit-trial","97","1511985","0.0-2.0-17.3-1.3","battery-v0.2","","""event"",""trial"",""time""
""fullscreenenter"",""1"",""1908""
","
","
","""event"",""trial"",""time""
""fullscreenenter"",""1"",""1908""
","
","","","-1","","","17","14486","6010","&#9789;","elianto","#f73b6a7A"," ","-1","0","-10","[]","0","0","4","","","","","","","",""
"pit-trial","98","1516841","0.0-2.0-17.3-2.3","battery-v0.2","","""event"",""trial"",""time""
""fullscreenenter"",""1"",""1908""
","
","
","""event"",""trial"",""time""
""fullscreenenter"",""1"",""1908""
","
","","","-1","","","17","14486","6010","&#9789;","elianto","#f73b6a7A"," ","-1","0","-10","[]","0","0","4","","","","","","","",""
"pit-trial","99","1521697","0.0-2.0-17.3-3.3","battery-v0.2","","""event"",""trial"",""time""
""fullscreenenter"",""1"",""1908""
","
","
","""event"",""trial"",""time""
""fullscreenenter"",""1"",""1908""
","
","","","-1","","","17","14486","6010","&#9789;","elianto","#f73b6a7A"," ","-1","0","0","[]","0","0","4","","","","","","","",""
"pit-trial","100","1526552","0.0-2.0-17.3-4.3","battery-v0.2","","""event"",""trial"",""time""
""fullscreenenter"",""1"",""1908""
","
","
","""event"",""trial"",""time""
""fullscreenenter"",""1"",""1908""
","
","","","-1","","","17","14486","6010","&#9789;","elianto","#f73b6a7A"," ","-1","0","-10","[]","0","0","4","","","","","","","",""
"call-function","101","1526557","0.0-2.0-18.0","battery-v0.2","","""event"",""trial"",""time""
""fullscreenenter"",""1"",""1908""
","
","
","""event"",""trial"",""time""
""fullscreenenter"",""1"",""1908""
","
","","","","","","","","","","","","","","","","","","","","","","","","","","",""
"pit-instructions","102","1845635","0.0-2.0-19.0","battery-v0.2","","""event"",""trial"",""time""
""fullscreenenter"",""1"",""1908""
","
","
","""event"",""trial"",""time""
""fullscreenenter"",""1"",""1908""
","
","","[{""page_index"":0,""viewing_time"":127917.19999999925},{""page_index"":1,""viewing_time"":6369.300000000745},{""page_index"":2,""viewing_time"":9788},{""page_index"":3,""viewing_time"":7843.5},{""page_index"":4,""viewing_time"":8618},{""page_index"":5,""viewing_time"":8448.799999998882},{""page_index"":6,""viewing_time"":137372.70000000112},{""page_index"":7,""viewing_time"":8984.5},{""page_index"":8,""viewing_time"":3733.39999999851}]","319075.8999999985","","","","","","","","","","","","","","","","","","","","","","","",""
"pit-comprehension","103","1863824","0.0-2.0-20.0-0.0","battery-v0.2","","""event"",""trial"",""time""
""fullscreenenter"",""1"",""1908""
","
","
","""event"",""trial"",""time""
""fullscreenenter"",""1"",""1908""
","
","","","18182.900000000373","[""SPACE""]","0","17","14486","6010","","","","","","","","","","","","","","","","","","",""
"pit-instructions","104","1866602","0.0-2.0-20.0-1.0","battery-v0.2","","""event"",""trial"",""time""
""fullscreenenter"",""1"",""1908""
","
","
","""event"",""trial"",""time""
""fullscreenenter"",""1"",""1908""
","
","","[{""page_index"":0,""viewing_time"":2736.5999999996275}]","2737.0999999996275","","","","","","","","","","","","","","","","","","","","","","","",""
"pit-comprehension","105","1873535","0.0-2.0-21.0-0.0","battery-v0.2","","""event"",""trial"",""time""
""fullscreenenter"",""1"",""1908""
","
","
","""event"",""trial"",""time""
""fullscreenenter"",""1"",""1908""
","
","","","6925.5","[""10""]","0","17","14486","6010","","","","","","","","","","","","","","","","","","",""
"pit-instructions","106","1877675","0.0-2.0-21.0-1.0","battery-v0.2","","""event"",""trial"",""time""
""fullscreenenter"",""1"",""1908""
","
","
","""event"",""trial"",""time""
""fullscreenenter"",""1"",""1908""
","
","","[{""page_index"":0,""viewing_time"":4098.0999999996275}]","4099.199999999255","","","","","","","","","","","","","","","","","","","","","","","",""
"pit-comprehension","107","1885102","0.0-2.0-22.0-0.0","battery-v0.2","","""event"",""trial"",""time""
""fullscreenenter"",""1"",""1908""
","
","
","""event"",""trial"",""time""
""fullscreenenter"",""1"",""1908""
","
","","","7421.5999999996275","[""-10""]","1","17","14486","6010","","","","","","","","","","","","","","","","","","",""
"pit-instructions","108","1889620","0.0-2.0-22.0-1.0","battery-v0.2","","""event"",""trial"",""time""
""fullscreenenter"",""1"",""1908""
","
","
","""event"",""trial"",""time""
""fullscreenenter"",""1"",""1908""
","
","","[{""page_index"":0,""viewing_time"":4477.0999999996275}]","4478.5999999996275","","","","","","","","","","","","","","","","","","","","","","","",""
"pit-instructions","109","1890900","0.0-2.0-22.0-2.0-0.0","battery-v0.2","","""event"",""trial"",""time""
""fullscreenenter"",""1"",""1908""
","
","
","""event"",""trial"",""time""
""fullscreenenter"",""1"",""1908""
","
","","[{""page_index"":0,""viewing_time"":1276.7000000011176}]","1277.2000000011176","","","","","","","","","","","","","","","","","","","","","","","",""
"pit-comprehension","110","1899093","0.0-2.0-22.1-0.1","battery-v0.2","","""event"",""trial"",""time""
""fullscreenenter"",""1"",""1908""
","
","
","""event"",""trial"",""time""
""fullscreenenter"",""1"",""1908""
","
","","","8188.699999999255","[""10""]","1","17","14486","6010","","","","","","","","","","","","","","","","","","",""
"pit-instructions","111","1900600","0.0-2.0-22.1-1.1","battery-v0.2","","""event"",""trial"",""time""
""fullscreenenter"",""1"",""1908""
","
","
","""event"",""trial"",""time""
""fullscreenenter"",""1"",""1908""
","
","","[{""page_index"":0,""viewing_time"":1465.7000000011176}]","1466.5999999996275","","","","","","","","","","","","","","","","","","","","","","","",""
"pit-instructions","112","1904810","0.0-2.0-22.1-2.1-0.1","battery-v0.2","","""event"",""trial"",""time""
""fullscreenenter"",""1"",""1908""
","
","
","""event"",""trial"",""time""
""fullscreenenter"",""1"",""1908""
","
","","[{""page_index"":0,""viewing_time"":4203.300000000745}]","4204.0999999996275","","","","","","","","","","","","","","","","","","","","","","","",""
"pit-comprehension","113","1911223","0.0-2.0-22.2-0.2","battery-v0.2","","""event"",""trial"",""time""
""fullscreenenter"",""1"",""1908""
","
","
","""event"",""trial"",""time""
""fullscreenenter"",""1"",""1908""
","
","","","6409.700000001118","[""0""]","0","17","14486","6010","","","","","","","","","","","","","","","","","","",""
"pit-instructions","114","1913406","0.0-2.0-22.2-1.2","battery-v0.2","","""event"",""trial"",""time""
""fullscreenenter"",""1"",""1908""
","
","
","""event"",""trial"",""time""
""fullscreenenter"",""1"",""1908""
","
","","[{""page_index"":0,""viewing_time"":2129.2999999988824}]","2129.7999999988824","","","","","","","","","","","","","","","","","","","","","","","",""
"pit-comprehension","115","1923621","0.0-2.0-23.0-0.0","battery-v0.2","","""event"",""trial"",""time""
""fullscreenenter"",""1"",""1908""
","
","
","""event"",""trial"",""time""
""fullscreenenter"",""1"",""1908""
","
","","","10210.5","[""True""]","0","17","14486","6010","","","","","","","","","","","","","","","","","","",""
"pit-instructions","116","1926312","0.0-2.0-23.0-1.0","battery-v0.2","","""event"",""trial"",""time""
""fullscreenenter"",""1"",""1908""
","
","
","""event"",""trial"",""time""
""fullscreenenter"",""1"",""1908""
","
","","[{""page_index"":0,""viewing_time"":2646.0999999996275}]","2647.300000000745","","","","","","","","","","","","","","","","","","","","","","","",""
"pit-comprehension","117","1934016","0.0-2.0-24.0-0.0","battery-v0.2","","""event"",""trial"",""time""
""fullscreenenter"",""1"",""1908""
","
","
","""event"",""trial"",""time""
""fullscreenenter"",""1"",""1908""
","
","","","7697.5999999996275","[""True""]","0","17","14486","6010","","","","","","","","","","","","","","","","","","",""
"pit-instructions","118","1937947","0.0-2.0-24.0-1.0","battery-v0.2","","""event"",""trial"",""time""
""fullscreenenter"",""1"",""1908""
","
","
","""event"",""trial"",""time""
""fullscreenenter"",""1"",""1908""
","
","","[{""page_index"":0,""viewing_time"":3887.699999999255}]","3888.699999999255","","","","","","","","","","","","","","","","","","","","","","","",""
"pit-comprehension","119","1944976","0.0-2.0-25.0-0.0","battery-v0.2","","""event"",""trial"",""time""
""fullscreenenter"",""1"",""1908""
","
","
","""event"",""trial"",""time""
""fullscreenenter"",""1"",""1908""
","
","","","7022.5999999996275","[""False""]","1","17","14486","6010","","","","","","","","","","","","","","","","","","",""
"pit-instructions","120","1946573","0.0-2.0-25.0-1.0","battery-v0.2","","""event"",""trial"",""time""
""fullscreenenter"",""1"",""1908""
","
","
","""event"",""trial"",""time""
""fullscreenenter"",""1"",""1908""
","
","","[{""page_index"":0,""viewing_time"":1549.5}]","1549.9000000003725","","","","","","","","","","","","","","","","","","","","","","","",""
"pit-instructions","121","1949094","0.0-2.0-25.0-2.0-0.0","battery-v0.2","","""event"",""trial"",""time""
""fullscreenenter"",""1"",""1908""
","
","
","""event"",""trial"",""time""
""fullscreenenter"",""1"",""1908""
","
","","[{""page_index"":0,""viewing_time"":2517.60000000149}]","2518.7000000011176","","","","","","","","","","","","","","","","","","","","","","","",""
"pit-comprehension","122","1955478","0.0-2.0-25.1-0.1","battery-v0.2","","""event"",""trial"",""time""
""fullscreenenter"",""1"",""1908""
","
","
","""event"",""trial"",""time""
""fullscreenenter"",""1"",""1908""
","
","","","6380.0999999996275","[""True""]","0","17","14486","6010","","","","","","","","","","","","","","","","","","",""
"pit-instructions","123","1960948","0.0-2.0-25.1-1.1","battery-v0.2","","""event"",""trial"",""time""
""fullscreenenter"",""1"",""1908""
","
","
","""event"",""trial"",""time""
""fullscreenenter"",""1"",""1908""
","
","","[{""page_index"":0,""viewing_time"":5425.5999999996275}]","5426","","","","","","","","","","","","","","","","","","","","","","","",""
"pit-comprehension","124","1967474","0.0-2.0-26.0-0.0","battery-v0.2","","""event"",""trial"",""time""
""fullscreenenter"",""1"",""1908""
","
","
","""event"",""trial"",""time""
""fullscreenenter"",""1"",""1908""
","
","","","6517.800000000745","[""False""]","0","17","14486","6010","","","","","","","","","","","","","","","","","","",""
"pit-instructions","125","1993130","0.0-2.0-26.0-1.0","battery-v0.2","","""event"",""trial"",""time""
""fullscreenenter"",""1"",""1908""
","
","
","""event"",""trial"",""time""
""fullscreenenter"",""1"",""1908""
","
","","[{""page_index"":0,""viewing_time"":25611}]","25611.5","","","","","","","","","","","","","","","","","","","","","","","",""
"pit-instructions","126","2467478","0.0-3.0","battery-v0.2","","""event"",""trial"",""time""
""fullscreenenter"",""1"",""1908""
","
","
","""event"",""trial"",""time""
""fullscreenenter"",""1"",""1908""
","
","","[{""page_index"":0,""viewing_time"":7440.700000001118},{""page_index"":1,""viewing_time"":10192.799999998882},{""page_index"":2,""viewing_time"":456711}]","474344.80000000075","","","","","","","","","","","","","","","","","","","","","","","",""
"pit-trial","127","2471597","0.0-4.0","battery-v0.2","","""event"",""trial"",""time""
""fullscreenenter"",""1"",""1908""
","
","
","""event"",""trial"",""time""
""fullscreenenter"",""1"",""1908""
","
","","","1260.7999999988824","","","17","14486","6010","&#9730;","elianto","#3366ff99"," "," ","1","+10","[2111.0999999996275]","1","1","","","14486","1","1","1","win","go","0"
"pit-trial","128","2476455","0.0-5.0","battery-v0.2","","""event"",""trial"",""time""
""fullscreenenter"",""1"",""1908""
","
","
","""event"",""trial"",""time""
""fullscreenenter"",""1"",""1908""
","
","","","-1","","","17","14486","6010","&#9728;","elianto","#f73b6a7A","-1","-1","1","0","[]","0","1","","","14486","2","0","4","lose","no-go","0"
"pit-trial","129","2480158","0.0-6.0","battery-v0.2","","""event"",""trial"",""time""
""fullscreenenter"",""1"",""1908""
","
","
","""event"",""trial"",""time""
""fullscreenenter"",""1"",""1908""
","
","","","847.2999999988824","","","17","14486","6010","&#9733;","elianto","#3366ff99","-1"," ","0","+10","[1697.5]","1","1","","","14486","3","2","2","win","no-go","1"
"pit-trial","130","2483676","0.0-7.0","battery-v0.2","","""event"",""trial"",""time""
""fullscreenenter"",""1"",""1908""
","
","
","""event"",""trial"",""time""
""fullscreenenter"",""1"",""1908""
","
","","","662.2000000011176","","","17","14486","6010","&#9752;","elianto","#f73b6a7A"," "," ","1","0","[1512.300000000745]","1","1","","","14486","4","3","3","lose","go","0"
"pit-trial","131","2488532","0.0-8.0","battery-v0.2","","""event"",""trial"",""time""
""fullscreenenter"",""1"",""1908""
","
","
","""event"",""trial"",""time""
""fullscreenenter"",""1"",""1908""
","
","","","-1","","","17","14486","6010","&#9728;","elianto","#f73b6a7A","-1","-1","1","0","[]","0","1","","","14486","5","0","4","lose","no-go","0"
"pit-trial","132","2492778","0.0-9.0","battery-v0.2","","""event"",""trial"",""time""
""fullscreenenter"",""1"",""1908""
","
","
","""event"",""trial"",""time""
""fullscreenenter"",""1"",""1908""
","
","","","1390.5","","","17","14486","6010","&#9733;","elianto","#3366ff99","-1"," ","0","0","[2240.5]","1","1","","","14486","6","2","2","win","no-go","0"
"pit-trial","133","2497634","0.0-10.0","battery-v0.2","","""event"",""trial"",""time""
""fullscreenenter"",""1"",""1908""
","
","
","""event"",""trial"",""time""
""fullscreenenter"",""1"",""1908""
","
","","","-1","","","17","14486","6010","&#9752;","elianto","#f73b6a7A"," ","-1","0","-10","[]","0","1","","","14486","7","3","3","lose","go","0"
"pit-trial","134","2502489","0.0-11.0","battery-v0.2","","""event"",""trial"",""time""
""fullscreenenter"",""1"",""1908""
","
","
","""event"",""trial"",""time""
""fullscreenenter"",""1"",""1908""
","
","","","-1","","","17","14486","6010","&#9730;","elianto","#3366ff99"," ","-1","0","0","[]","0","1","","","14486","8","1","1","win","go","0"
"pit-trial","135","2507221","0.0-12.0","battery-v0.2","","""event"",""trial"",""time""
""fullscreenenter"",""1"",""1908""
","
","
","""event"",""trial"",""time""
""fullscreenenter"",""1"",""1908""
","
","","","1876.7000000011176","","","17","14486","6010","&#9733;","elianto","#3366ff99","-1"," ","0","+10","[2726.9000000003725]","1","1","","","14486","9","2","2","win","no-go","1"
"pit-trial","136","2510817","0.0-13.0","battery-v0.2","","""event"",""trial"",""time""
""fullscreenenter"",""1"",""1908""
","
","
","""event"",""trial"",""time""
""fullscreenenter"",""1"",""1908""
","
","","","740.4000000003725","","","17","14486","6010","&#9730;","elianto","#3366ff99"," "," ","1","+10","[1590.5999999996275]","1","1","","","14486","10","1","1","win","go","0"
"pit-trial","137","2515672","0.0-14.0","battery-v0.2","","""event"",""trial"",""time""
""fullscreenenter"",""1"",""1908""
","
","
","""event"",""trial"",""time""
""fullscreenenter"",""1"",""1908""
","
","","","-1","","","17","14486","6010","&#9752;","elianto","#f73b6a7A"," ","-1","0","0","[395.7999999988824]","1","1","","","14486","11","3","3","lose","go","1"
"pit-trial","138","2520526","0.0-15.0","battery-v0.2","","""event"",""trial"",""time""
""fullscreenenter"",""1"",""1908""
","
","
","""event"",""trial"",""time""
""fullscreenenter"",""1"",""1908""
","
","","","-1","","","17","14486","6010","&#9728;","elianto","#f73b6a7A","-1","-1","1","0","[]","0","1","","","14486","12","0","4","lose","no-go","0"
"pit-trial","139","2525381","0.0-16.0","battery-v0.2","","""event"",""trial"",""time""
""fullscreenenter"",""1"",""1908""
","
","
","""event"",""trial"",""time""
""fullscreenenter"",""1"",""1908""
","
","","","-1","","","17","14486","6010","&#9728;","elianto","#f73b6a7A","-1","-1","1","0","[]","0","1","","","14486","13","0","4","lose","no-go","0"
"pit-trial","140","2530237","0.0-17.0","battery-v0.2","","""event"",""trial"",""time""
""fullscreenenter"",""1"",""1908""
","
","
","""event"",""trial"",""time""
""fullscreenenter"",""1"",""1908""
","
","","","-1","","","17","14486","6010","&#9752;","elianto","#f73b6a7A"," ","-1","0","-10","[]","0","1","","","14486","14","3","3","lose","go","0"
"pit-trial","141","2535092","0.0-18.0","battery-v0.2","","""event"",""trial"",""time""
""fullscreenenter"",""1"",""1908""
","
","
","""event"",""trial"",""time""
""fullscreenenter"",""1"",""1908""
","
","","","-1","","","17","14486","6010","&#9730;","elianto","#3366ff99"," ","-1","0","0","[]","0","1","","","14486","15","1","1","win","go","0"
"pit-trial","142","2538592","0.0-19.0","battery-v0.2","","""event"",""trial"",""time""
""fullscreenenter"",""1"",""1908""
","
","
","""event"",""trial"",""time""
""fullscreenenter"",""1"",""1908""
","
","","","644.6000000014901","","","17","14486","6010","&#9733;","elianto","#3366ff99","-1"," ","0","0","[1494.7999999988824]","1","1","","","14486","16","2","2","win","no-go","0"
"pit-trial","143","2543447","0.0-20.0","battery-v0.2","","""event"",""trial"",""time""
""fullscreenenter"",""1"",""1908""
","
","
","""event"",""trial"",""time""
""fullscreenenter"",""1"",""1908""
","
","","","-1","","","17","14486","6010","&#9728;","elianto","#f73b6a7A","-1","-1","1","0","[4020.9000000003725]","1","1","","","14486","17","0","4","lose","no-go","0"
"pit-trial","144","2546850","0.0-21.0","battery-v0.2","","""event"",""trial"",""time""
""fullscreenenter"",""1"",""1908""
","
","
","""event"",""trial"",""time""
""fullscreenenter"",""1"",""1908""
","
","","","547.3000000007451","","","17","14486","6010","&#9733;","elianto","#3366ff99","-1"," ","0","0","[1397.4000000003725]","1","1","","","14486","18","2","2","win","no-go","0"
"pit-trial","145","2550389","0.0-22.0","battery-v0.2","","""event"",""trial"",""time""
""fullscreenenter"",""1"",""1908""
","
","
","""event"",""trial"",""time""
""fullscreenenter"",""1"",""1908""
","
","","","685.1999999992549","","","17","14486","6010","&#9730;","elianto","#3366ff99"," "," ","1","+10","[1535.4000000003725]","1","1","","","14486","19","1","1","win","go","0"
"pit-trial","146","2555245","0.0-23.0","battery-v0.2","","""event"",""trial"",""time""
""fullscreenenter"",""1"",""1908""
","
","
","""event"",""trial"",""time""
""fullscreenenter"",""1"",""1908""
","
","","","-1","","","17","14486","6010","&#9752;","elianto","#f73b6a7A"," ","-1","0","-10","[]","0","1","","","14486","20","3","3","lose","go","0"
"pit-instructions","147","2948187","0.0-24.0","battery-v0.2","","""event"",""trial"",""time""
""fullscreenenter"",""1"",""1908""
","
","
","""event"",""trial"",""time""
""fullscreenenter"",""1"",""1908""
","
","","[{""page_index"":0,""viewing_time"":384549.0999999996},{""page_index"":1,""viewing_time"":8388.800000000745}]","392938.4000000004","","","","","","","","","","","","","","","","","","","","","","","",""
"pit-trial","148","2953043","0.0-25.0","battery-v0.2","","""event"",""trial"",""time""
""fullscreenenter"",""1"",""1908""
","
","
","""event"",""trial"",""time""
""fullscreenenter"",""1"",""1908""
","
","","","-1","","","17","14486","6010","w","elianto","#f73b6a7A"," ","-1","0","0","[]","0","2","","","14486","21","3","3","lose","go","1"
"pit-trial","149","2957896","0.0-26.0","battery-v0.2","","""event"",""trial"",""time""
""fullscreenenter"",""1"",""1908""
","
","
","""event"",""trial"",""time""
""fullscreenenter"",""1"",""1908""
","
","","","-1","","","17","14486","6010","j","elianto","#f73b6a7A","-1","-1","1","0","[]","0","2","","","14486","22","0","4","lose","no-go","0"
"pit-trial","150","2962750","0.0-27.0","battery-v0.2","","""event"",""trial"",""time""
""fullscreenenter"",""1"",""1908""
","
","
","""event"",""trial"",""time""
""fullscreenenter"",""1"",""1908""
","
","","","-1","","","17","14486","6010","d","elianto","#3366ff99"," ","-1","0","+10","[3541.2999999988824]","1","2","","","14486","23","1","1","win","go","1"
"pit-trial","151","2967603","0.0-28.0","battery-v0.2","","""event"",""trial"",""time""
""fullscreenenter"",""1"",""1908""
","
","
","""event"",""trial"",""time""
""fullscreenenter"",""1"",""1908""
","
","","","-1","","","17","14486","6010","e","elianto","#f73b6a7A","-1","-1","1","0","[]","0","2","","","14486","24","2","4","lose","no-go","0"
"pit-trial","152","2972456","0.0-29.0","battery-v0.2","","""event"",""trial"",""time""
""fullscreenenter"",""1"",""1908""
","
","
","""event"",""trial"",""time""
""fullscreenenter"",""1"",""1908""
","
","","","-1","","","17","14486","6010","e","elianto","#f73b6a7A","-1","-1","1","0","[]","0","2","","","14486","25","2","4","lose","no-go","0"
"pit-trial","153","2977311","0.0-30.0","battery-v0.2","","""event"",""trial"",""time""
""fullscreenenter"",""1"",""1908""
","
","
","""event"",""trial"",""time""
""fullscreenenter"",""1"",""1908""
","
","","","-1","","","17","14486","6010","j","elianto","#f73b6a7A","-1","-1","1","0","[]","0","2","","","14486","26","0","4","lose","no-go","0"
"pit-trial","154","2982167","0.0-31.0","battery-v0.2","","""event"",""trial"",""time""
""fullscreenenter"",""1"",""1908""
","
","
","""event"",""trial"",""time""
""fullscreenenter"",""1"",""1908""
","
","","","-1","","","17","14486","6010","w","elianto","#f73b6a7A"," ","-1","0","-10","[]","0","2","","","14486","27","3","3","lose","go","0"
"pit-trial","155","2985793","0.0-32.0","battery-v0.2","","""event"",""trial"",""time""
""fullscreenenter"",""1"",""1908""
","
","
","""event"",""trial"",""time""
""fullscreenenter"",""1"",""1908""
","
","","","770.1999999992549","","","17","14486","6010","d","elianto","#3366ff99"," "," ","1","+10","[1620.199999999255]","1","2","","","14486","28","1","1","win","go","0"
"pit-trial","156","2990647","0.0-33.0","battery-v0.2","","""event"",""trial"",""time""
""fullscreenenter"",""1"",""1908""
","
","
","""event"",""trial"",""time""
""fullscreenenter"",""1"",""1908""
","
","","","-1","","","17","14486","6010","w","elianto","#f73b6a7A"," ","-1","0","-10","[]","0","2","","","14486","29","3","3","lose","go","0"
"pit-trial","157","2994155","0.0-34.0","battery-v0.2","","""event"",""trial"",""time""
""fullscreenenter"",""1"",""1908""
","
","
","""event"",""trial"",""time""
""fullscreenenter"",""1"",""1908""
","
","","","652.6000000014901","","","17","14486","6010","d","elianto","#3366ff99"," "," ","1","+10","[1502.5999999996275]","1","2","","","14486","30","1","1","win","go","0"
"pit-trial","158","2999011","0.0-35.0","battery-v0.2","","""event"",""trial"",""time""
""fullscreenenter"",""1"",""1908""
","
","
","""event"",""trial"",""time""
""fullscreenenter"",""1"",""1908""
","
","","","-1","","","17","14486","6010","e","elianto","#f73b6a7A","-1","-1","1","-10","[]","0","2","","","14486","31","2","4","lose","no-go","1"
"pit-trial","159","3003867","0.0-36.0","battery-v0.2","","""event"",""trial"",""time""
""fullscreenenter"",""1"",""1908""
","
","
","""event"",""trial"",""time""
""fullscreenenter"",""1"",""1908""
","
","","","-1","","","17","14486","6010","j","elianto","#f73b6a7A","-1","-1","1","0","[]","0","2","","","14486","32","0","4","lose","no-go","0"
"pit-trial","160","3008723","0.0-37.0","battery-v0.2","","""event"",""trial"",""time""
""fullscreenenter"",""1"",""1908""
","
","
","""event"",""trial"",""time""
""fullscreenenter"",""1"",""1908""
","
","","","-1","","","17","14486","6010","w","elianto","#f73b6a7A"," ","-1","0","-10","[]","0","2","","","14486","33","3","3","lose","go","0"
"pit-trial","161","3012089","0.0-38.0","battery-v0.2","","""event"",""trial"",""time""
""fullscreenenter"",""1"",""1908""
","
","
","""event"",""trial"",""time""
""fullscreenenter"",""1"",""1908""
","
","","","510.5","","","17","14486","6010","d","elianto","#3366ff99"," "," ","1","0","[1360.4000000003725]","1","2","","","14486","34","1","1","win","go","1"
"pit-trial","162","3016946","0.0-39.0","battery-v0.2","","""event"",""trial"",""time""
""fullscreenenter"",""1"",""1908""
","
","
","""event"",""trial"",""time""
""fullscreenenter"",""1"",""1908""
","
","","","-1","","","17","14486","6010","j","elianto","#f73b6a7A","-1","-1","1","0","[]","0","2","","","14486","35","0","4","lose","no-go","0"
"pit-trial","163","3021802","0.0-40.0","battery-v0.2","","""event"",""trial"",""time""
""fullscreenenter"",""1"",""1908""
","
","
","""event"",""trial"",""time""
""fullscreenenter"",""1"",""1908""
","
","","","-1","","","17","14486","6010","e","elianto","#f73b6a7A","-1","-1","1","-10","[]","0","2","","","14486","36","2","4","lose","no-go","1"
"pit-trial","164","3026658","0.0-41.0","battery-v0.2","","""event"",""trial"",""time""
""fullscreenenter"",""1"",""1908""
","
","
","""event"",""trial"",""time""
""fullscreenenter"",""1"",""1908""
","
","","","-1","","","17","14486","6010","j","elianto","#f73b6a7A","-1","-1","1","0","[]","0","2","","","14486","37","0","4","lose","no-go","0"
"pit-trial","165","3029972","0.0-42.0","battery-v0.2","","""event"",""trial"",""time""
""fullscreenenter"",""1"",""1908""
","
","
","""event"",""trial"",""time""
""fullscreenenter"",""1"",""1908""
","
","","","458.80000000074506","","","17","14486","6010","d","elianto","#3366ff99"," "," ","1","+10","[1308.8999999985099]","1","2","","","14486","38","1","1","win","go","0"
"pit-trial","166","3034829","0.0-43.0","battery-v0.2","","""event"",""trial"",""time""
""fullscreenenter"",""1"",""1908""
","
","
","""event"",""trial"",""time""
""fullscreenenter"",""1"",""1908""
","
","","","-1","","","17","14486","6010","e","elianto","#f73b6a7A","-1","-1","1","0","[]","0","2","","","14486","39","2","4","lose","no-go","0"
"pit-trial","167","3039685","0.0-44.0","battery-v0.2","","""event"",""trial"",""time""
""fullscreenenter"",""1"",""1908""
","
","
","""event"",""trial"",""time""
""fullscreenenter"",""1"",""1908""
","
","","","-1","","","17","14486","6010","w","elianto","#f73b6a7A"," ","-1","0","-10","[]","0","2","","","14486","40","3","3","lose","go","0"
"pit-trial","168","3044541","0.0-45.0","battery-v0.2","","""event"",""trial"",""time""
""fullscreenenter"",""1"",""1908""
","
","
","""event"",""trial"",""time""
""fullscreenenter"",""1"",""1908""
","
","","","-1","","","17","14486","6010","w","elianto","#f73b6a7A"," ","-1","0","-10","[]","0","2","","","14486","41","3","3","lose","go","0"
"pit-trial","169","3047833","0.0-46.0","battery-v0.2","","""event"",""trial"",""time""
""fullscreenenter"",""1"",""1908""
","
","
","""event"",""trial"",""time""
""fullscreenenter"",""1"",""1908""
","
","","","433","","","17","14486","6010","d","elianto","#3366ff99"," "," ","1","+10","[1284.5999999996275]","1","2","","","14486","42","1","1","win","go","0"
"pit-trial","170","3052688","0.0-47.0","battery-v0.2","","""event"",""trial"",""time""
""fullscreenenter"",""1"",""1908""
","
","
","""event"",""trial"",""time""
""fullscreenenter"",""1"",""1908""
","
","","","-1","","","17","14486","6010","j","elianto","#f73b6a7A","-1","-1","1","0","[]","0","2","","","14486","43","0","4","lose","no-go","0"
"pit-trial","171","3057544","0.0-48.0","battery-v0.2","","""event"",""trial"",""time""
""fullscreenenter"",""1"",""1908""
","
","
","""event"",""trial"",""time""
""fullscreenenter"",""1"",""1908""
","
","","","-1","","","17","14486","6010","e","elianto","#f73b6a7A","-1","-1","1","0","[]","0","2","","","14486","44","2","4","lose","no-go","0"
"pit-trial","172","3062401","0.0-49.0","battery-v0.2","","""event"",""trial"",""time""
""fullscreenenter"",""1"",""1908""
","
","
","""event"",""trial"",""time""
""fullscreenenter"",""1"",""1908""
","
","","","-1","","","17","14486","6010","e","elianto","#f73b6a7A","-1","-1","1","0","[]","0","2","","","14486","45","2","4","lose","no-go","0"
"pit-trial","173","3067257","0.0-50.0","battery-v0.2","","""event"",""trial"",""time""
""fullscreenenter"",""1"",""1908""
","
","
","""event"",""trial"",""time""
""fullscreenenter"",""1"",""1908""
","
","","","-1","","","17","14486","6010","j","elianto","#f73b6a7A","-1","-1","1","0","[]","0","2","","","14486","46","0","4","lose","no-go","0"
"pit-trial","174","3072113","0.0-51.0","battery-v0.2","","""event"",""trial"",""time""
""fullscreenenter"",""1"",""1908""
","
","
","""event"",""trial"",""time""
""fullscreenenter"",""1"",""1908""
","
","","","-1","","","17","14486","6010","w","elianto","#f73b6a7A"," ","-1","0","-10","[]","0","2","","","14486","47","3","3","lose","go","0"
"pit-trial","175","3075465","0.0-52.0","battery-v0.2","","""event"",""trial"",""time""
""fullscreenenter"",""1"",""1908""
","
","
","""event"",""trial"",""time""
""fullscreenenter"",""1"",""1908""
","
","","","496.3999999985099","","","17","14486","6010","s","elianto","#3366ff99","-1"," ","0","0","[1346.7999999988824]","1","2","","","14486","48","4","2","win","no-go","0"
"pit-trial","176","3078817","0.0-53.0","battery-v0.2","","""event"",""trial"",""time""
""fullscreenenter"",""1"",""1908""
","
","
","""event"",""trial"",""time""
""fullscreenenter"",""1"",""1908""
","
","","","492.69999999925494","","","17","14486","6010","s","elianto","#3366ff99","-1"," ","0","0","[1346.2999999988824]","1","2","","","14486","49","4","2","win","no-go","0"
"pit-trial","177","3083673","0.0-54.0","battery-v0.2","","""event"",""trial"",""time""
""fullscreenenter"",""1"",""1908""
","
","
","""event"",""trial"",""time""
""fullscreenenter"",""1"",""1908""
","
","","","-1","","","17","14486","6010","w","elianto","#f73b6a7A"," ","-1","0","-10","[]","0","2","","","14486","50","3","3","lose","go","0"
"pit-trial","178","3087076","0.0-55.0","battery-v0.2","","""event"",""trial"",""time""
""fullscreenenter"",""1"",""1908""
","
","
","""event"",""trial"",""time""
""fullscreenenter"",""1"",""1908""
","
","","","547.4000000003725","","","17","14486","6010","d","elianto","#3366ff99"," "," ","1","+10","[1397.5]","1","2","","","14486","51","1","1","win","go","0"
"pit-trial","179","3091932","0.0-56.0","battery-v0.2","","""event"",""trial"",""time""
""fullscreenenter"",""1"",""1908""
","
","
","""event"",""trial"",""time""
""fullscreenenter"",""1"",""1908""
","
","","","-1","","","17","14486","6010","j","elianto","#f73b6a7A","-1","-1","1","0","[]","0","2","","","14486","52","0","4","lose","no-go","0"
"pit-trial","180","3095456","0.0-57.0","battery-v0.2","","""event"",""trial"",""time""
""fullscreenenter"",""1"",""1908""
","
","
","""event"",""trial"",""time""
""fullscreenenter"",""1"",""1908""
","
","","","668.0999999996275","","","17","14486","6010","d","elianto","#3366ff99"," "," ","1","+10","[1518.4000000003725]","1","2","","","14486","53","1","1","win","go","0"
"pit-trial","181","3098890","0.0-58.0","battery-v0.2","","""event"",""trial"",""time""
""fullscreenenter"",""1"",""1908""
","
","
","""event"",""trial"",""time""
""fullscreenenter"",""1"",""1908""
","
","","","578.5","","","17","14486","6010","s","elianto","#3366ff99","-1"," ","0","+10","[1428.7000000011176]","1","2","","","14486","54","4","2","win","no-go","1"
"pit-trial","182","3103746","0.0-59.0","battery-v0.2","","""event"",""trial"",""time""
""fullscreenenter"",""1"",""1908""
","
","
","""event"",""trial"",""time""
""fullscreenenter"",""1"",""1908""
","
","","","-1","","","17","14486","6010","j","elianto","#f73b6a7A","-1","-1","1","-10","[]","0","2","","","14486","55","0","4","lose","no-go","1"
"pit-trial","183","3108601","0.0-60.0","battery-v0.2","","""event"",""trial"",""time""
""fullscreenenter"",""1"",""1908""
","
","
","""event"",""trial"",""time""
""fullscreenenter"",""1"",""1908""
","
","","","-1","","","17","14486","6010","e","elianto","#f73b6a7A","-1","-1","1","0","[]","0","2","","","14486","56","2","4","lose","no-go","0"
"pit-trial","184","3113458","0.0-61.0","battery-v0.2","","""event"",""trial"",""time""
""fullscreenenter"",""1"",""1908""
","
","
","""event"",""trial"",""time""
""fullscreenenter"",""1"",""1908""
","
","","","-1","","","17","14486","6010","j","elianto","#f73b6a7A","-1","-1","1","0","[]","0","2","","","14486","57","0","4","lose","no-go","0"
"pit-trial","185","3116828","0.0-62.0","battery-v0.2","","""event"",""trial"",""time""
""fullscreenenter"",""1"",""1908""
","
","
","""event"",""trial"",""time""
""fullscreenenter"",""1"",""1908""
","
","","","514.9000000003725","","","17","14486","6010","s","elianto","#3366ff99","-1"," ","0","0","[1365]","1","2","","","14486","58","4","2","win","no-go","0"
"pit-trial","186","3120251","0.0-63.0","battery-v0.2","","""event"",""trial"",""time""
""fullscreenenter"",""1"",""1908""
","
","
","""event"",""trial"",""time""
""fullscreenenter"",""1"",""1908""
","
","","","568","","","17","14486","6010","d","elianto","#3366ff99"," "," ","1","+10","[1418.1000000014901]","1","2","","","14486","59","1","1","win","go","0"
"pit-trial","187","3125107","0.0-64.0","battery-v0.2","","""event"",""trial"",""time""
""fullscreenenter"",""1"",""1908""
","
","
","""event"",""trial"",""time""
""fullscreenenter"",""1"",""1908""
","
","","","-1","","","17","14486","6010","w","elianto","#f73b6a7A"," ","-1","0","-10","[]","0","2","","","14486","60","3","3","lose","go","0"
"pit-trial","188","3128682","0.0-65.0","battery-v0.2","","""event"",""trial"",""time""
""fullscreenenter"",""1"",""1908""
","
","
","""event"",""trial"",""time""
""fullscreenenter"",""1"",""1908""
","
","","","718.6999999992549","","","17","14486","6010","d","elianto","#3366ff99"," "," ","1","+10","[1568.7999999988824]","1","2","","","14486","61","1","1","win","go","0"
"pit-trial","189","3133538","0.0-66.0","battery-v0.2","","""event"",""trial"",""time""
""fullscreenenter"",""1"",""1908""
","
","
","""event"",""trial"",""time""
""fullscreenenter"",""1"",""1908""
","
","","","-1","","","17","14486","6010","e","elianto","#f73b6a7A","-1","-1","1","0","[]","0","2","","","14486","62","2","4","lose","no-go","0"
"pit-trial","190","3138393","0.0-67.0","battery-v0.2","","""event"",""trial"",""time""
""fullscreenenter"",""1"",""1908""
","
","
","""event"",""trial"",""time""
""fullscreenenter"",""1"",""1908""
","
","","","-1","","","17","14486","6010","w","elianto","#f73b6a7A"," ","-1","0","-10","[]","0","2","","","14486","63","3","3","lose","go","0"
"pit-trial","191","3141807","0.0-68.0","battery-v0.2","","""event"",""trial"",""time""
""fullscreenenter"",""1"",""1908""
","
","
","""event"",""trial"",""time""
""fullscreenenter"",""1"",""1908""
","
","","","553.1999999992549","","","17","14486","6010","s","elianto","#3366ff99","-1"," ","0","+10","[1407.5999999996275]","1","2","","","14486","64","4","2","win","no-go","1"
"pit-trial","192","3145656","0.0-69.0","battery-v0.2","","""event"",""trial"",""time""
""fullscreenenter"",""1"",""1908""
","
","
","""event"",""trial"",""time""
""fullscreenenter"",""1"",""1908""
","
","","","992.8000000007451","","","17","14486","6010","s","elianto","#3366ff99","-1"," ","0","0","[1843.2000000011176]","1","2","","","14486","65","4","2","win","no-go","0"
"pit-trial","193","3150513","0.0-70.0","battery-v0.2","","""event"",""trial"",""time""
""fullscreenenter"",""1"",""1908""
","
","
","""event"",""trial"",""time""
""fullscreenenter"",""1"",""1908""
","
","","","-1","","","17","14486","6010","w","elianto","#f73b6a7A"," ","-1","0","-10","[]","0","2","","","14486","66","3","3","lose","go","0"
"pit-trial","194","3154439","0.0-71.0","battery-v0.2","","""event"",""trial"",""time""
""fullscreenenter"",""1"",""1908""
","
","
","""event"",""trial"",""time""
""fullscreenenter"",""1"",""1908""
","
","","","1070.7999999988824","","","17","14486","6010","d","elianto","#3366ff99"," "," ","1","+10","[1920.9000000003725]","1","2","","","14486","67","1","1","win","go","0"
"pit-trial","195","3159295","0.0-72.0","battery-v0.2","","""event"",""trial"",""time""
""fullscreenenter"",""1"",""1908""
","
","
","""event"",""trial"",""time""
""fullscreenenter"",""1"",""1908""
","
","","","-1","","","17","14486","6010","e","elianto","#f73b6a7A","-1","-1","1","0","[]","0","2","","","14486","68","2","4","lose","no-go","0"
"pit-trial","196","3162726","0.0-73.0","battery-v0.2","","""event"",""trial"",""time""
""fullscreenenter"",""1"",""1908""
","
","
","""event"",""trial"",""time""
""fullscreenenter"",""1"",""1908""
","
","","","575.1999999992549","","","17","14486","6010","d","elianto","#3366ff99"," "," ","1","+10","[1425.4000000003725]","1","2","","","14486","69","1","1","win","go","0"
"pit-trial","197","3166120","0.0-74.0","battery-v0.2","","""event"",""trial"",""time""
""fullscreenenter"",""1"",""1908""
","
","
","""event"",""trial"",""time""
""fullscreenenter"",""1"",""1908""
","
","","","537.9000000003725","","","17","14486","6010","s","elianto","#3366ff99","-1"," ","0","0","[1388]","1","2","","","14486","70","4","2","win","no-go","0"
"pit-trial","198","3170976","0.0-75.0","battery-v0.2","","""event"",""trial"",""time""
""fullscreenenter"",""1"",""1908""
","
","
","""event"",""trial"",""time""
""fullscreenenter"",""1"",""1908""
","
","","","-1","","","17","14486","6010","w","elianto","#f73b6a7A"," ","-1","0","0","[]","0","2","","","14486","71","3","3","lose","go","1"
"pit-trial","199","3174627","0.0-76.0","battery-v0.2","","""event"",""trial"",""time""
""fullscreenenter"",""1"",""1908""
","
","
","""event"",""trial"",""time""
""fullscreenenter"",""1"",""1908""
","
","","","794.9000000003725","","","17","14486","6010","p","elianto","#3366ff99"," "," ","1","+10","[1645]","1","2","","","14486","72","5","1","win","go","0"
"pit-trial","200","3178080","0.0-77.0","battery-v0.2","","""event"",""trial"",""time""
""fullscreenenter"",""1"",""1908""
","
","
","""event"",""trial"",""time""
""fullscreenenter"",""1"",""1908""
","
","","","597.4000000003725","","","17","14486","6010","p","elianto","#3366ff99"," "," ","1","+10","[1447.5]","1","2","","","14486","73","5","1","win","go","0"
"pit-trial","201","3182935","0.0-78.0","battery-v0.2","","""event"",""trial"",""time""
""fullscreenenter"",""1"",""1908""
","
","
","""event"",""trial"",""time""
""fullscreenenter"",""1"",""1908""
","
","","","-1","","","17","14486","6010","s","elianto","#3366ff99","-1","-1","1","0","[]","0","2","","","14486","74","4","2","win","no-go","1"
"pit-trial","202","3187790","0.0-79.0","battery-v0.2","","""event"",""trial"",""time""
""fullscreenenter"",""1"",""1908""
","
","
","""event"",""trial"",""time""
""fullscreenenter"",""1"",""1908""
","
","","","-1","","","17","14486","6010","w","elianto","#f73b6a7A"," ","-1","0","-10","[]","0","2","","","14486","75","3","3","lose","go","0"
"pit-trial","203","3191794","0.0-80.0","battery-v0.2","","""event"",""trial"",""time""
""fullscreenenter"",""1"",""1908""
","
","
","""event"",""trial"",""time""
""fullscreenenter"",""1"",""1908""
","
","","","1147.300000000745","","","17","14486","6010","d","elianto","#3366ff99"," "," ","1","+10","[1997.9000000003725]","1","2","","","14486","76","1","1","win","go","0"
"pit-trial","204","3196650","0.0-81.0","battery-v0.2","","""event"",""trial"",""time""
""fullscreenenter"",""1"",""1908""
","
","
","""event"",""trial"",""time""
""fullscreenenter"",""1"",""1908""
","
","","","-1","","","17","14486","6010","w","elianto","#f73b6a7A"," ","-1","0","0","[]","0","2","","","14486","77","3","3","lose","go","1"
"pit-trial","205","3200001","0.0-82.0","battery-v0.2","","""event"",""trial"",""time""
""fullscreenenter"",""1"",""1908""
","
","
","""event"",""trial"",""time""
""fullscreenenter"",""1"",""1908""
","
","","","494.09999999962747","","","17","14486","6010","s","elianto","#3366ff99","-1"," ","0","0","[1344.300000000745]","1","2","","","14486","78","4","2","win","no-go","0"
"pit-trial","206","3203799","0.0-83.0","battery-v0.2","","""event"",""trial"",""time""
""fullscreenenter"",""1"",""1908""
","
","
","""event"",""trial"",""time""
""fullscreenenter"",""1"",""1908""
","
","","","941.8000000007451","","","17","14486","6010","p","elianto","#3366ff99"," "," ","1","+10","[1792.0999999996275]","1","2","","","14486","79","5","1","win","go","0"
"pit-trial","207","3208654","0.0-84.0","battery-v0.2","","""event"",""trial"",""time""
""fullscreenenter"",""1"",""1908""
","
","
","""event"",""trial"",""time""
""fullscreenenter"",""1"",""1908""
","
","","","-1","","","17","14486","6010","g","elianto","#f73b6a7A","-1","-1","1","0","[]","0","2","","","14486","80","6","4","lose","no-go","0"
"pit-trial","208","3212471","0.0-85.0","battery-v0.2","","""event"",""trial"",""time""
""fullscreenenter"",""1"",""1908""
","
","
","""event"",""trial"",""time""
""fullscreenenter"",""1"",""1908""
","
","","","963.7999999988824","","","17","14486","6010","s","elianto","#3366ff99","-1"," ","0","0","[1814]","1","2","","","14486","81","4","2","win","no-go","0"
"pit-trial","209","3217325","0.0-86.0","battery-v0.2","","""event"",""trial"",""time""
""fullscreenenter"",""1"",""1908""
","
","
","""event"",""trial"",""time""
""fullscreenenter"",""1"",""1908""
","
","","","-1","","","17","14486","6010","g","elianto","#f73b6a7A","-1","-1","1","0","[]","0","2","","","14486","82","6","4","lose","no-go","0"
"pit-trial","210","3222180","0.0-87.0","battery-v0.2","","""event"",""trial"",""time""
""fullscreenenter"",""1"",""1908""
","
","
","""event"",""trial"",""time""
""fullscreenenter"",""1"",""1908""
","
","","","-1","","","17","14486","6010","a","elianto","#f73b6a7A"," ","-1","0","-10","[]","0","2","","","14486","83","7","3","lose","go","0"
"pit-trial","211","3225567","0.0-88.0","battery-v0.2","","""event"",""trial"",""time""
""fullscreenenter"",""1"",""1908""
","
","
","""event"",""trial"",""time""
""fullscreenenter"",""1"",""1908""
","
","","","533","","","17","14486","6010","p","elianto","#3366ff99"," "," ","1","+10","[1383.0999999996275]","1","2","","","14486","84","5","1","win","go","0"
"pit-trial","212","3228945","0.0-89.0","battery-v0.2","","""event"",""trial"",""time""
""fullscreenenter"",""1"",""1908""
","
","
","""event"",""trial"",""time""
""fullscreenenter"",""1"",""1908""
","
","","","522.8000000007451","","","17","14486","6010","p","elianto","#3366ff99"," "," ","1","+10","[1372.8999999985099]","1","2","","","14486","85","5","1","win","go","0"
"pit-trial","213","3233801","0.0-90.0","battery-v0.2","","""event"",""trial"",""time""
""fullscreenenter"",""1"",""1908""
","
","
","""event"",""trial"",""time""
""fullscreenenter"",""1"",""1908""
","
","","","-1","","","17","14486","6010","a","elianto","#f73b6a7A"," ","-1","0","-10","[]","0","2","","","14486","86","7","3","lose","go","0"
"pit-trial","214","3238022","0.0-91.0","battery-v0.2","","""event"",""trial"",""time""
""fullscreenenter"",""1"",""1908""
","
","
","""event"",""trial"",""time""
""fullscreenenter"",""1"",""1908""
","
","","","1365.2000000011176","","","17","14486","6010","s","elianto","#3366ff99","-1"," ","0","0","[2215.2000000011176]","1","2","","","14486","87","4","2","win","no-go","0"
"pit-trial","215","3242879","0.0-92.0","battery-v0.2","","""event"",""trial"",""time""
""fullscreenenter"",""1"",""1908""
","
","
","""event"",""trial"",""time""
""fullscreenenter"",""1"",""1908""
","
","","","-1","","","17","14486","6010","g","elianto","#f73b6a7A","-1","-1","1","0","[]","0","2","","","14486","88","6","4","lose","no-go","0"
"pit-trial","216","3246931","0.0-93.0","battery-v0.2","","""event"",""trial"",""time""
""fullscreenenter"",""1"",""1908""
","
","
","""event"",""trial"",""time""
""fullscreenenter"",""1"",""1908""
","
","","","1196.300000000745","","","17","14486","6010","s","elianto","#3366ff99","-1"," ","0","+10","[2046.7000000011176]","1","2","","","14486","89","4","2","win","no-go","1"
"pit-trial","217","3251788","0.0-94.0","battery-v0.2","","""event"",""trial"",""time""
""fullscreenenter"",""1"",""1908""
","
","
","""event"",""trial"",""time""
""fullscreenenter"",""1"",""1908""
","
","","","-1","","","17","14486","6010","g","elianto","#f73b6a7A","-1","-1","1","0","[]","0","2","","","14486","90","6","4","lose","no-go","0"
"pit-trial","218","3256643","0.0-95.0","battery-v0.2","","""event"",""trial"",""time""
""fullscreenenter"",""1"",""1908""
","
","
","""event"",""trial"",""time""
""fullscreenenter"",""1"",""1908""
","
","","","-1","","","17","14486","6010","a","elianto","#f73b6a7A"," ","-1","0","0","[]","0","2","","","14486","91","7","3","lose","go","1"
"pit-trial","219","3260061","0.0-96.0","battery-v0.2","","""event"",""trial"",""time""
""fullscreenenter"",""1"",""1908""
","
","
","""event"",""trial"",""time""
""fullscreenenter"",""1"",""1908""
","
","","","564","","","17","14486","6010","p","elianto","#3366ff99"," "," ","1","+10","[1414.199999999255]","1","2","","","14486","92","5","1","win","go","0"
"pit-trial","220","3264917","0.0-97.0","battery-v0.2","","""event"",""trial"",""time""
""fullscreenenter"",""1"",""1908""
","
","
","""event"",""trial"",""time""
""fullscreenenter"",""1"",""1908""
","
","","","-1","","","17","14486","6010","a","elianto","#f73b6a7A"," ","-1","0","-10","[]","0","2","","","14486","93","7","3","lose","go","0"
"pit-trial","221","3268478","0.0-98.0","battery-v0.2","","""event"",""trial"",""time""
""fullscreenenter"",""1"",""1908""
","
","
","""event"",""trial"",""time""
""fullscreenenter"",""1"",""1908""
","
","","","703.8000000007451","","","17","14486","6010","l","elianto","#3366ff99","-1"," ","0","0","[1554]","1","2","","","14486","94","8","2","win","no-go","0"
"pit-trial","222","3272385","0.0-99.0","battery-v0.2","","""event"",""trial"",""time""
""fullscreenenter"",""1"",""1908""
","
","
","""event"",""trial"",""time""
""fullscreenenter"",""1"",""1908""
","
","","","1050.8999999985099","","","17","14486","6010","p","elianto","#3366ff99"," "," ","1","0","[1901.0999999996275]","1","2","","","14486","95","5","1","win","go","1"
"pit-trial","223","3277241","0.0-100.0","battery-v0.2","","""event"",""trial"",""time""
""fullscreenenter"",""1"",""1908""
","
","
","""event"",""trial"",""time""
""fullscreenenter"",""1"",""1908""
","
","","","-1","","","17","14486","6010","g","elianto","#f73b6a7A","-1","-1","1","-10","[]","0","2","","","14486","96","6","4","lose","no-go","1"
"pit-trial","224","3282097","0.0-101.0","battery-v0.2","","""event"",""trial"",""time""
""fullscreenenter"",""1"",""1908""
","
","
","""event"",""trial"",""time""
""fullscreenenter"",""1"",""1908""
","
","","","-1","","","17","14486","6010","g","elianto","#f73b6a7A","-1","-1","1","0","[]","0","2","","","14486","97","6","4","lose","no-go","0"
"pit-trial","225","3285745","0.0-102.0","battery-v0.2","","""event"",""trial"",""time""
""fullscreenenter"",""1"",""1908""
","
","
","""event"",""trial"",""time""
""fullscreenenter"",""1"",""1908""
","
","","","792.3999999985099","","","17","14486","6010","l","elianto","#3366ff99","-1"," ","0","+10","[1642.9000000003725]","1","2","","","14486","98","8","2","win","no-go","1"
"pit-trial","226","3289457","0.0-103.0","battery-v0.2","","""event"",""trial"",""time""
""fullscreenenter"",""1"",""1908""
","
","
","""event"",""trial"",""time""
""fullscreenenter"",""1"",""1908""
","
","","","853.1999999992549","","","17","14486","6010","p","elianto","#3366ff99"," "," ","1","0","[1706]","1","2","","","14486","99","5","1","win","go","1"
"pit-trial","227","3294313","0.0-104.0","battery-v0.2","","""event"",""trial"",""time""
""fullscreenenter"",""1"",""1908""
","
","
","""event"",""trial"",""time""
""fullscreenenter"",""1"",""1908""
","
","","","-1","","","17","14486","6010","a","elianto","#f73b6a7A"," ","-1","0","0","[]","0","2","","","14486","100","7","3","lose","go","1"
"pit-trial","228","3297803","0.0-105.0","battery-v0.2","","""event"",""trial"",""time""
""fullscreenenter"",""1"",""1908""
","
","
","""event"",""trial"",""time""
""fullscreenenter"",""1"",""1908""
","
","","","634.5999999996275","","","17","14486","6010","u","elianto","#3366ff99","-1"," ","0","0","[1484.6000000014901]","1","2","","","14486","101","9","2","win","no-go","0"
"pit-trial","229","3301332","0.0-106.0","battery-v0.2","","""event"",""trial"",""time""
""fullscreenenter"",""1"",""1908""
","
","
","""event"",""trial"",""time""
""fullscreenenter"",""1"",""1908""
","
","","","672.5999999996275","","","17","14486","6010","p","elianto","#3366ff99"," "," ","1","+10","[1522.5999999996275]","1","2","","","14486","102","5","1","win","go","0"
"pit-trial","230","3305104","0.0-107.0","battery-v0.2","","""event"",""trial"",""time""
""fullscreenenter"",""1"",""1908""
","
","
","""event"",""trial"",""time""
""fullscreenenter"",""1"",""1908""
","
","","","916.9000000003725","","","17","14486","6010","l","elianto","#3366ff99","-1"," ","0","0","[1767.1000000014901]","1","2","","","14486","103","8","2","win","no-go","0"
"pit-trial","231","3309960","0.0-108.0","battery-v0.2","","""event"",""trial"",""time""
""fullscreenenter"",""1"",""1908""
","
","
","""event"",""trial"",""time""
""fullscreenenter"",""1"",""1908""
","
","","","-1","","","17","14486","6010","g","elianto","#f73b6a7A","-1","-1","1","0","[]","0","2","","","14486","104","6","4","lose","no-go","0"
"pit-trial","232","3313366","0.0-109.0","battery-v0.2","","""event"",""trial"",""time""
""fullscreenenter"",""1"",""1908""
","
","
","""event"",""trial"",""time""
""fullscreenenter"",""1"",""1908""
","
","","","549.5","","","17","14486","6010","l","elianto","#3366ff99","-1"," ","0","0","[1399.699999999255]","1","2","","","14486","105","8","2","win","no-go","0"
"pit-trial","233","3316755","0.0-110.0","battery-v0.2","","""event"",""trial"",""time""
""fullscreenenter"",""1"",""1908""
","
","
","""event"",""trial"",""time""
""fullscreenenter"",""1"",""1908""
","
","","","532.5","","","17","14486","6010","p","elianto","#3366ff99"," "," ","1","+10","[1382.800000000745]","1","2","","","14486","106","5","1","win","go","0"
"pit-trial","234","3321611","0.0-111.0","battery-v0.2","","""event"",""trial"",""time""
""fullscreenenter"",""1"",""1908""
","
","
","""event"",""trial"",""time""
""fullscreenenter"",""1"",""1908""
","
","","","-1","","","17","14486","6010","g","elianto","#f73b6a7A","-1","-1","1","-10","[]","0","2","","","14486","107","6","4","lose","no-go","1"
"pit-trial","235","3326124","0.0-112.0","battery-v0.2","","""event"",""trial"",""time""
""fullscreenenter"",""1"",""1908""
","
","
","""event"",""trial"",""time""
""fullscreenenter"",""1"",""1908""
","
","","","1656.9000000003725","","","17","14486","6010","u","elianto","#3366ff99","-1"," ","0","0","[2507.2000000011176]","1","2","","","14486","108","9","2","win","no-go","0"
"pit-trial","236","3329549","0.0-113.0","battery-v0.2","","""event"",""trial"",""time""
""fullscreenenter"",""1"",""1908""
","
","
","""event"",""trial"",""time""
""fullscreenenter"",""1"",""1908""
","
","","","570.1999999992549","","","17","14486","6010","u","elianto","#3366ff99","-1"," ","0","0","[1420.4000000003725]","1","2","","","14486","109","9","2","win","no-go","0"
"pit-trial","237","3334406","0.0-114.0","battery-v0.2","","""event"",""trial"",""time""
""fullscreenenter"",""1"",""1908""
","
","
","""event"",""trial"",""time""
""fullscreenenter"",""1"",""1908""
","
","","","-1","","","17","14486","6010","g","elianto","#f73b6a7A","-1","-1","1","-10","[]","0","2","","","14486","110","6","4","lose","no-go","1"
"pit-trial","238","3337809","0.0-115.0","battery-v0.2","","""event"",""trial"",""time""
""fullscreenenter"",""1"",""1908""
","
","
","""event"",""trial"",""time""
""fullscreenenter"",""1"",""1908""
","
","","","547.6000000014901","","","17","14486","6010","p","elianto","#3366ff99"," "," ","1","+10","[1397.9000000003725]","1","2","","","14486","111","5","1","win","go","0"
"pit-trial","239","3341371","0.0-116.0","battery-v0.2","","""event"",""trial"",""time""
""fullscreenenter"",""1"",""1908""
","
","
","""event"",""trial"",""time""
""fullscreenenter"",""1"",""1908""
","
","","","701.7999999988824","","","17","14486","6010","l","elianto","#3366ff99","-1"," ","0","0","[1556.199999999255]","1","2","","","14486","112","8","2","win","no-go","0"
"pit-trial","240","3346227","0.0-117.0","battery-v0.2","","""event"",""trial"",""time""
""fullscreenenter"",""1"",""1908""
","
","
","""event"",""trial"",""time""
""fullscreenenter"",""1"",""1908""
","
","","","-1","","","17","14486","6010","a","elianto","#f73b6a7A"," ","-1","0","-10","[]","0","2","","","14486","113","7","3","lose","go","0"
"pit-trial","241","3350305","0.0-118.0","battery-v0.2","","""event"",""trial"",""time""
""fullscreenenter"",""1"",""1908""
","
","
","""event"",""trial"",""time""
""fullscreenenter"",""1"",""1908""
","
","","","1221.5","","","17","14486","6010","l","elianto","#3366ff99","-1"," ","0","0","[2071.5999999996275]","1","2","","","14486","114","8","2","win","no-go","0"
"pit-trial","242","3354047","0.0-119.0","battery-v0.2","","""event"",""trial"",""time""
""fullscreenenter"",""1"",""1908""
","
","
","""event"",""trial"",""time""
""fullscreenenter"",""1"",""1908""
","
","","","886","","","17","14486","6010","p","elianto","#3366ff99"," "," ","1","+10","[1736.0999999996275]","1","2","","","14486","115","5","1","win","go","0"
"pit-trial","243","3357687","0.0-120.0","battery-v0.2","","""event"",""trial"",""time""
""fullscreenenter"",""1"",""1908""
","
","
","""event"",""trial"",""time""
""fullscreenenter"",""1"",""1908""
","
","","","785.3999999985099","","","17","14486","6010","u","elianto","#3366ff99","-1"," ","0","0","[1635.4000000003725]","1","2","","","14486","116","9","2","win","no-go","0"
"pit-trial","244","3361266","0.0-121.0","battery-v0.2","","""event"",""trial"",""time""
""fullscreenenter"",""1"",""1908""
","
","
","""event"",""trial"",""time""
""fullscreenenter"",""1"",""1908""
","
","","","725.6999999992549","","","17","14486","6010","l","elianto","#3366ff99","-1"," ","0","0","[1576]","1","2","","","14486","117","8","2","win","no-go","0"
"pit-trial","245","3366119","0.0-122.0","battery-v0.2","","""event"",""trial"",""time""
""fullscreenenter"",""1"",""1908""
","
","
","""event"",""trial"",""time""
""fullscreenenter"",""1"",""1908""
","
","","","-1","","","17","14486","6010","u","elianto","#3366ff99","-1","-1","1","+10","[]","0","2","","","14486","118","9","2","win","no-go","0"
"pit-trial","246","3369724","0.0-123.0","battery-v0.2","","""event"",""trial"",""time""
""fullscreenenter"",""1"",""1908""
","
","
","""event"",""trial"",""time""
""fullscreenenter"",""1"",""1908""
","
","","","750.7999999988824","","","17","14486","6010","p","elianto","#3366ff99"," "," ","1","+10","[1602.2999999988824]","1","2","","","14486","119","5","1","win","go","0"
"pit-trial","247","3374578","0.0-124.0","battery-v0.2","","""event"",""trial"",""time""
""fullscreenenter"",""1"",""1908""
","
","
","""event"",""trial"",""time""
""fullscreenenter"",""1"",""1908""
","
","","","-1","","","17","14486","6010","g","elianto","#f73b6a7A","-1","-1","1","0","[]","0","2","","","14486","120","6","4","lose","no-go","0"
"pit-trial","248","3379432","0.0-125.0","battery-v0.2","","""event"",""trial"",""time""
""fullscreenenter"",""1"",""1908""
","
","
","""event"",""trial"",""time""
""fullscreenenter"",""1"",""1908""
","
","","","-1","","","17","14486","6010","a","elianto","#f73b6a7A"," ","-1","0","-10","[]","0","2","","","14486","121","7","3","lose","go","0"
"pit-trial","249","3384285","0.0-126.0","battery-v0.2","","""event"",""trial"",""time""
""fullscreenenter"",""1"",""1908""
","
","
","""event"",""trial"",""time""
""fullscreenenter"",""1"",""1908""
","
","","","-1","","","17","14486","6010","u","elianto","#3366ff99","-1","-1","1","0","[]","0","2","","","14486","122","9","2","win","no-go","1"
"pit-trial","250","3389138","0.0-127.0","battery-v0.2","","""event"",""trial"",""time""
""fullscreenenter"",""1"",""1908""
","
","
","""event"",""trial"",""time""
""fullscreenenter"",""1"",""1908""
","
","","","-1","","","17","14486","6010","l","elianto","#3366ff99","-1","-1","1","+10","[]","0","2","","","14486","123","8","2","win","no-go","0"
"pit-trial","251","3392839","0.0-128.0","battery-v0.2","","""event"",""trial"",""time""
""fullscreenenter"",""1"",""1908""
","
","
","""event"",""trial"",""time""
""fullscreenenter"",""1"",""1908""
","
","","","848.5999999996275","","","17","14486","6010","p","elianto","#3366ff99"," "," ","1","+10","[1698.800000000745]","1","2","","","14486","124","5","1","win","go","0"
"pit-trial","252","3397693","0.0-129.0","battery-v0.2","","""event"",""trial"",""time""
""fullscreenenter"",""1"",""1908""
","
","
","""event"",""trial"",""time""
""fullscreenenter"",""1"",""1908""
","
","","","-1","","","17","14486","6010","a","elianto","#f73b6a7A"," ","-1","0","-10","[]","0","2","","","14486","125","7","3","lose","go","0"
"pit-trial","253","3402549","0.0-130.0","battery-v0.2","","""event"",""trial"",""time""
""fullscreenenter"",""1"",""1908""
","
","
","""event"",""trial"",""time""
""fullscreenenter"",""1"",""1908""
","
","","","-1","","","17","14486","6010","u","elianto","#3366ff99","-1","-1","1","+10","[]","0","2","","","14486","126","9","2","win","no-go","0"
"pit-trial","254","3406171","0.0-131.0","battery-v0.2","","""event"",""trial"",""time""
""fullscreenenter"",""1"",""1908""
","
","
","""event"",""trial"",""time""
""fullscreenenter"",""1"",""1908""
","
","","","769.4000000003725","","","17","14486","6010","l","elianto","#3366ff99","-1"," ","0","0","[1619.5999999996275]","1","2","","","14486","127","8","2","win","no-go","0"
"pit-trial","255","3411025","0.0-132.0","battery-v0.2","","""event"",""trial"",""time""
""fullscreenenter"",""1"",""1908""
","
","
","""event"",""trial"",""time""
""fullscreenenter"",""1"",""1908""
","
","","","-1","","","17","14486","6010","g","elianto","#f73b6a7A","-1","-1","1","0","[]","0","2","","","14486","128","6","4","lose","no-go","0"
"pit-trial","256","3415878","0.0-133.0","battery-v0.2","","""event"",""trial"",""time""
""fullscreenenter"",""1"",""1908""
","
","
","""event"",""trial"",""time""
""fullscreenenter"",""1"",""1908""
","
","","","-1","","","17","14486","6010","g","elianto","#f73b6a7A","-1","-1","1","0","[]","0","2","","","14486","129","6","4","lose","no-go","0"
"pit-trial","257","3420734","0.0-134.0","battery-v0.2","","""event"",""trial"",""time""
""fullscreenenter"",""1"",""1908""
","
","
","""event"",""trial"",""time""
""fullscreenenter"",""1"",""1908""
","
","","","-1","","","17","14486","6010","a","elianto","#f73b6a7A"," ","-1","0","-10","[]","0","2","","","14486","130","7","3","lose","go","0"
"pit-trial","258","3425590","0.0-135.0","battery-v0.2","","""event"",""trial"",""time""
""fullscreenenter"",""1"",""1908""
","
","
","""event"",""trial"",""time""
""fullscreenenter"",""1"",""1908""
","
","","","-1","","","17","14486","6010","u","elianto","#3366ff99","-1","-1","1","+10","[]","0","2","","","14486","131","9","2","win","no-go","0"
"pit-trial","259","3429344","0.0-136.0","battery-v0.2","","""event"",""trial"",""time""
""fullscreenenter"",""1"",""1908""
","
","
","""event"",""trial"",""time""
""fullscreenenter"",""1"",""1908""
","
","","","899","","","17","14486","6010","l","elianto","#3366ff99","-1"," ","0","0","[1749.4000000003725]","1","2","","","14486","132","8","2","win","no-go","0"
"pit-trial","260","3434197","0.0-137.0","battery-v0.2","","""event"",""trial"",""time""
""fullscreenenter"",""1"",""1908""
","
","
","""event"",""trial"",""time""
""fullscreenenter"",""1"",""1908""
","
","","","-1","","","17","14486","6010","l","elianto","#3366ff99","-1","-1","1","+10","[]","0","2","","","14486","133","8","2","win","no-go","0"
"pit-trial","261","3439050","0.0-138.0","battery-v0.2","","""event"",""trial"",""time""
""fullscreenenter"",""1"",""1908""
","
","
","""event"",""trial"",""time""
""fullscreenenter"",""1"",""1908""
","
","","","-1","","","17","14486","6010","g","elianto","#f73b6a7A","-1","-1","1","0","[]","0","2","","","14486","134","6","4","lose","no-go","0"
"pit-trial","262","3443903","0.0-139.0","battery-v0.2","","""event"",""trial"",""time""
""fullscreenenter"",""1"",""1908""
","
","
","""event"",""trial"",""time""
""fullscreenenter"",""1"",""1908""
","
","","","-1","","","17","14486","6010","a","elianto","#f73b6a7A"," ","-1","0","0","[]","0","2","","","14486","135","7","3","lose","go","1"
"pit-trial","263","3447870","0.0-140.0","battery-v0.2","","""event"",""trial"",""time""
""fullscreenenter"",""1"",""1908""
","
","
","""event"",""trial"",""time""
""fullscreenenter"",""1"",""1908""
","
","","","1114.5","","","17","14486","6010","u","elianto","#3366ff99","-1"," ","0","0","[1964.6000000014901]","1","2","","","14486","136","9","2","win","no-go","0"
"pit-trial","264","3452724","0.0-141.0","battery-v0.2","","""event"",""trial"",""time""
""fullscreenenter"",""1"",""1908""
","
","
","""event"",""trial"",""time""
""fullscreenenter"",""1"",""1908""
","
","","","-1","","","17","14486","6010","a","elianto","#f73b6a7A"," ","-1","0","-10","[]","0","2","","","14486","137","7","3","lose","go","0"
"pit-trial","265","3456861","0.0-142.0","battery-v0.2","","""event"",""trial"",""time""
""fullscreenenter"",""1"",""1908""
","
","
","""event"",""trial"",""time""
""fullscreenenter"",""1"",""1908""
","
","","","1281.9000000003725","","","17","14486","6010","l","elianto","#3366ff99","-1"," ","0","0","[2133.7000000011176]","1","2","","","14486","138","8","2","win","no-go","0"
"pit-trial","266","3461717","0.0-143.0","battery-v0.2","","""event"",""trial"",""time""
""fullscreenenter"",""1"",""1908""
","
","
","""event"",""trial"",""time""
""fullscreenenter"",""1"",""1908""
","
","","","-1","","","17","14486","6010","g","elianto","#f73b6a7A","-1","-1","1","0","[]","0","2","","","14486","139","6","4","lose","no-go","0"
"pit-trial","267","3466574","0.0-144.0","battery-v0.2","","""event"",""trial"",""time""
""fullscreenenter"",""1"",""1908""
","
","
","""event"",""trial"",""time""
""fullscreenenter"",""1"",""1908""
","
","","","-1","","","17","14486","6010","u","elianto","#3366ff99","-1","-1","1","+10","[]","0","2","","","14486","140","9","2","win","no-go","0"
"pit-instructions","268","3905229","0.0-145.0","battery-v0.2","","""event"",""trial"",""time""
""fullscreenenter"",""1"",""1908""
","
","
","""event"",""trial"",""time""
""fullscreenenter"",""1"",""1908""
","
