"trial_type","trial_index","time_elapsed","internal_node_id","task_version","subject_id","interactions","blur_events","focus_events","fullscreenenter_events","fullscreenexit_events","success","view_history","rt","responses","num_errors","age","subject","participantId","rune","rune_set","hex","correct","choice","accuracy","outcome","keys","total_keys","block","practice","value","sub","trial","stimulus","robot","valence","action","sham"
"pavlovia","0","13","0.0-0.0","battery-v0.2","","""event"",""trial"",""time""
""fullscreenenter"",""1"",""3341""
","
","
","""event"",""trial"",""time""
""fullscreenenter"",""1"",""3341""
","
","","","","","","","","","","","","","","","","","","","","","","","","","","",""
"fullscreen","1","4333","0.0-1.0","battery-v0.2","","""event"",""trial"",""time""
""fullscreenenter"",""1"",""3341""
","
","
","""event"",""trial"",""time""
""fullscreenenter"",""1"",""3341""
","
","true","","","","","","","","","","","","","","","","","","","","","","","","","",""
"pit-instructions","2","8944","0.0-2.0-0.0","battery-v0.2","","""event"",""trial"",""time""
""fullscreenenter"",""1"",""3341""
","
","
","""event"",""trial"",""time""
""fullscreenenter"",""1"",""3341""
","
","","[{""page_index"":0,""viewing_time"":4604.300000011921}]","4604.9000000059605","","","","","","","","","","","","","","","","","","","","","","","",""
"pit-comprehension","3","11700","0.0-2.0-1.0-0.0","battery-v0.2","","""event"",""trial"",""time""
""fullscreenenter"",""1"",""3341""
","
","
","""event"",""trial"",""time""
""fullscreenenter"",""1"",""3341""
","
","","","2747.2999999821186","[""shark""]","0","21","3172","2388","","","","","","","","","","","","","","","","","","",""
"pit-instructions","4","13564","0.0-2.0-1.0-1.0","battery-v0.2","","""event"",""trial"",""time""
""fullscreenenter"",""1"",""3341""
","
","
","""event"",""trial"",""time""
""fullscreenenter"",""1"",""3341""
","
","","[{""page_index"":0,""viewing_time"":1835.199999988079}]","1835.5999999940395","","","","","","","","","","","","","","","","","","","","","","","",""
"pit-comprehension","5","16280","0.0-2.0-2.0-0.0","battery-v0.2","","""event"",""trial"",""time""
""fullscreenenter"",""1"",""3341""
","
","
","""event"",""trial"",""time""
""fullscreenenter"",""1"",""3341""
","
","","","2706.800000011921","[""tiger""]","0","21","3172","2388","","","","","","","","","","","","","","","","","","",""
"pit-instructions","6","20554","0.0-2.0-2.0-1.0","battery-v0.2","","""event"",""trial"",""time""
""fullscreenenter"",""1"",""3341""
","
","
","""event"",""trial"",""time""
""fullscreenenter"",""1"",""3341""
","
","","[{""page_index"":0,""viewing_time"":4266.199999988079}]","4266.699999988079","","","","","","","","","","","","","","","","","","","","","","","",""
"pit-instructions","7","121448","0.0-2.0-3.0","battery-v0.2","","""event"",""trial"",""time""
""fullscreenenter"",""1"",""3341""
","
","
","""event"",""trial"",""time""
""fullscreenenter"",""1"",""3341""
","
","","[{""page_index"":0,""viewing_time"":11676.90000000596},{""page_index"":1,""viewing_time"":6069.9000000059605},{""page_index"":2,""viewing_time"":6199},{""page_index"":3,""viewing_time"":6777.0999999940395},{""page_index"":4,""viewing_time"":7548.0999999940395},{""page_index"":5,""viewing_time"":6343.600000023842},{""page_index"":6,""viewing_time"":7005.5999999940395},{""page_index"":7,""viewing_time"":6702.0999999940395},{""page_index"":8,""viewing_time"":6342.4000000059605},{""page_index"":9,""viewing_time"":8364.199999988079},{""page_index"":10,""viewing_time"":7846},{""page_index"":11,""viewing_time"":7554.4000000059605},{""page_index"":12,""viewing_time"":7445},{""page_index"":13,""viewing_time"":5011}]","100886","","","","","","","","","","","","","","","","","","","","","","","",""
"pit-trial","8","124985","0.0-2.0-4.0-0.0","battery-v0.2","","""event"",""trial"",""time""
""fullscreenenter"",""1"",""3341""
","
","
","""event"",""trial"",""time""
""fullscreenenter"",""1"",""3341""
","
","","","667.0999999940395","","","21","3172","2388","&#9784;","elianto","#FFFFF080"," "," ","1","&#10004","[1519.9000000059605]","1","0","0","","","","","","","",""
"pit-trial","9","128547","0.0-2.0-4.1-0.1","battery-v0.2","","""event"",""trial"",""time""
""fullscreenenter"",""1"",""3341""
","
","
","""event"",""trial"",""time""
""fullscreenenter"",""1"",""3341""
","
","","","696.4000000059605","","","21","3172","2388","&#9784;","elianto","#FFFFF080"," "," ","1","&#10004","[1550.5999999940395]","1","0","0","","","","","","","",""
"pit-trial","10","132106","0.0-2.0-4.2-0.2","battery-v0.2","","""event"",""trial"",""time""
""fullscreenenter"",""1"",""3341""
","
","
","""event"",""trial"",""time""
""fullscreenenter"",""1"",""3341""
","
","","","696.6000000238419","","","21","3172","2388","&#9784;","elianto","#FFFFF080"," "," ","1","&#10004","[1548.5]","1","0","0","","","","","","","",""
"pit-trial","11","135681","0.0-2.0-4.3-0.3","battery-v0.2","","""event"",""trial"",""time""
""fullscreenenter"",""1"",""3341""
","
","
","""event"",""trial"",""time""
""fullscreenenter"",""1"",""3341""
","
","","","710.8000000119209","","","21","3172","2388","&#9784;","elianto","#FFFFF080"," "," ","1","&#10004","[1564.9000000059605]","1","0","0","","","","","","","",""
"pit-trial","12","139117","0.0-2.0-4.4-0.4","battery-v0.2","","""event"",""trial"",""time""
""fullscreenenter"",""1"",""3341""
","
","
","""event"",""trial"",""time""
""fullscreenenter"",""1"",""3341""
","
","","","570.5","","","21","3172","2388","&#9784;","elianto","#FFFFF080"," "," ","1","&#10004","[1423.0999999940395]","1","0","0","","","","","","","",""
"pit-instructions","13","159123","0.0-2.0-5.0","battery-v0.2","","""event"",""trial"",""time""
""fullscreenenter"",""1"",""3341""
","
","
","""event"",""trial"",""time""
""fullscreenenter"",""1"",""3341""
","
","","[{""page_index"":0,""viewing_time"":4700.4000000059605},{""page_index"":1,""viewing_time"":5436.699999988079},{""page_index"":2,""viewing_time"":4847.5999999940395},{""page_index"":3,""viewing_time"":5009.600000023842}]","19994.69999998808","","","","","","","","","","","","","","","","","","","","","","","",""
"pit-trial","14","163988","0.0-2.0-6.0-0.0","battery-v0.2","","""event"",""trial"",""time""
""fullscreenenter"",""1"",""3341""
","
","
","""event"",""trial"",""time""
""fullscreenenter"",""1"",""3341""
","
","","","-1","","","21","3172","2388","&#9854;","elianto","#FFFFF080","-1","-1","1","&#10004","[]","0","0","1","","","","","","","",""
"pit-trial","15","168856","0.0-2.0-6.1-0.1","battery-v0.2","","""event"",""trial"",""time""
""fullscreenenter"",""1"",""3341""
","
","
","""event"",""trial"",""time""
""fullscreenenter"",""1"",""3341""
","
","","","-1","","","21","3172","2388","&#9854;","elianto","#FFFFF080","-1","-1","1","&#10004","[]","0","0","1","","","","","","","",""
"pit-trial","16","173723","0.0-2.0-6.2-0.2","battery-v0.2","","""event"",""trial"",""time""
""fullscreenenter"",""1"",""3341""
","
","
","""event"",""trial"",""time""
""fullscreenenter"",""1"",""3341""
","
","","","-1","","","21","3172","2388","&#9854;","elianto","#FFFFF080","-1","-1","1","&#10004","[]","0","0","1","","","","","","","",""
"pit-trial","17","178585","0.0-2.0-6.3-0.3","battery-v0.2","","""event"",""trial"",""time""
""fullscreenenter"",""1"",""3341""
","
","
","""event"",""trial"",""time""
""fullscreenenter"",""1"",""3341""
","
","","","-1","","","21","3172","2388","&#9854;","elianto","#FFFFF080","-1","-1","1","&#10004","[]","0","0","1","","","","","","","",""
"pit-trial","18","183444","0.0-2.0-6.4-0.4","battery-v0.2","","""event"",""trial"",""time""
""fullscreenenter"",""1"",""3341""
","
","
","""event"",""trial"",""time""
""fullscreenenter"",""1"",""3341""
","
","","","-1","","","21","3172","2388","&#9854;","elianto","#FFFFF080","-1","-1","1","&#10004","[]","0","0","1","","","","","","","",""
"pit-instructions","19","298045","0.0-2.0-7.0","battery-v0.2","","""event"",""trial"",""time""
""fullscreenenter"",""1"",""3341""
","
","
","""event"",""trial"",""time""
""fullscreenenter"",""1"",""3341""
","
","","[{""page_index"":0,""viewing_time"":5570.100000023842},{""page_index"":1,""viewing_time"":6326.5999999940395},{""page_index"":2,""viewing_time"":6163},{""page_index"":3,""viewing_time"":6307.799999982119},{""page_index"":4,""viewing_time"":6481},{""page_index"":5,""viewing_time"":6542.200000017881},{""page_index"":6,""viewing_time"":4650.4000000059605},{""page_index"":7,""viewing_time"":8195.299999982119},{""page_index"":8,""viewing_time"":6491.5},{""page_index"":9,""viewing_time"":5342},{""page_index"":10,""viewing_time"":8421.200000017881},{""page_index"":11,""viewing_time"":4424.799999982119},{""page_index"":12,""viewing_time"":6154.300000011921},{""page_index"":13,""viewing_time"":7078},{""page_index"":14,""viewing_time"":7071.4000000059605},{""page_index"":15,""viewing_time"":6809.5},{""page_index"":16,""viewing_time"":6183.899999976158},{""page_index"":17,""viewing_time"":6320.300000011921}]","114533.70000001788","","","","","","","","","","","","","","","","","","","","","","","",""
"pit-trial","20","301423","0.0-2.0-8.0-0.0","battery-v0.2","","""event"",""trial"",""time""
""fullscreenenter"",""1"",""3341""
","
","
","""event"",""trial"",""time""
""fullscreenenter"",""1"",""3341""
","
","","","518.5","","","21","3172","2388","&#9776;","elianto","#3366ff99"," "," ","1","+10","[1368.5]","1","0","1","","","","","","","",""
"pit-trial","21","304880","0.0-2.0-8.0-1.0","battery-v0.2","","""event"",""trial"",""time""
""fullscreenenter"",""1"",""3341""
","
","
","""event"",""trial"",""time""
""fullscreenenter"",""1"",""3341""
","
","","","595.9000000059605","","","21","3172","2388","&#9776;","elianto","#3366ff99"," "," ","1","+10","[1446.6000000238419]","1","0","1","","","","","","","",""
"pit-trial","22","308146","0.0-2.0-8.0-2.0","battery-v0.2","","""event"",""trial"",""time""
""fullscreenenter"",""1"",""3341""
","
","
","""event"",""trial"",""time""
""fullscreenenter"",""1"",""3341""
","
","","","407.69999998807907","","","21","3172","2388","&#9776;","elianto","#3366ff99"," "," ","1","+10","[1258.800000011921]","1","0","1","","","","","","","",""
"pit-trial","23","311291","0.0-2.0-8.0-3.0","battery-v0.2","","""event"",""trial"",""time""
""fullscreenenter"",""1"",""3341""
","
","
","""event"",""trial"",""time""
""fullscreenenter"",""1"",""3341""
","
","","","281.7000000178814","","","21","3172","2388","&#9776;","elianto","#3366ff99"," "," ","1","0","[1134.9000000059605]","1","0","1","","","","","","","",""
"pit-trial","24","314306","0.0-2.0-8.0-4.0","battery-v0.2","","""event"",""trial"",""time""
""fullscreenenter"",""1"",""3341""
","
","
","""event"",""trial"",""time""
""fullscreenenter"",""1"",""3341""
","
","","","156.40000000596046","","","21","3172","2388","&#9776;","elianto","#3366ff99"," "," ","1","+10","[1007.5]","1","0","1","","","","","","","",""
"call-function","25","314312","0.0-2.0-9.0","battery-v0.2","","""event"",""trial"",""time""
""fullscreenenter"",""1"",""3341""
","
","
","""event"",""trial"",""time""
""fullscreenenter"",""1"",""3341""
","
","","","","","","","","","","","","","","","","","","","","","","","","","","",""
"pit-instructions","26","356266","0.0-2.0-10.0","battery-v0.2","","""event"",""trial"",""time""
""fullscreenenter"",""1"",""3341""
","
","
","""event"",""trial"",""time""
""fullscreenenter"",""1"",""3341""
","
","","[{""page_index"":0,""viewing_time"":6421.5999999940395},{""page_index"":1,""viewing_time"":8124.0999999940395},{""page_index"":2,""viewing_time"":9543.90000000596},{""page_index"":3,""viewing_time"":10066.59999999404},{""page_index"":4,""viewing_time"":7795.699999988079}]","41952.5","","","","","","","","","","","","","","","","","","","","","","","",""
"pit-trial","27","361126","0.0-2.0-11.0-0.0","battery-v0.2","","""event"",""trial"",""time""
""fullscreenenter"",""1"",""3341""
","
","
","""event"",""trial"",""time""
""fullscreenenter"",""1"",""3341""
","
","","","-1","","","21","3172","2388","&#9761;","elianto","#3366ff99","-1","-1","1","+10","[]","0","0","2","","","","","","","",""
"pit-trial","28","365989","0.0-2.0-11.0-1.0","battery-v0.2","","""event"",""trial"",""time""
""fullscreenenter"",""1"",""3341""
","
","
","""event"",""trial"",""time""
""fullscreenenter"",""1"",""3341""
","
","","","-1","","","21","3172","2388","&#9761;","elianto","#3366ff99","-1","-1","1","+10","[]","0","0","2","","","","","","","",""
"pit-trial","29","370850","0.0-2.0-11.0-2.0","battery-v0.2","","""event"",""trial"",""time""
""fullscreenenter"",""1"",""3341""
","
","
","""event"",""trial"",""time""
""fullscreenenter"",""1"",""3341""
","
","","","-1","","","21","3172","2388","&#9761;","elianto","#3366ff99","-1","-1","1","+10","[]","0","0","2","","","","","","","",""
"pit-trial","30","375710","0.0-2.0-11.0-3.0","battery-v0.2","","""event"",""trial"",""time""
""fullscreenenter"",""1"",""3341""
","
","
","""event"",""trial"",""time""
""fullscreenenter"",""1"",""3341""
","
","","","-1","","","21","3172","2388","&#9761;","elianto","#3366ff99","-1","-1","1","0","[]","0","0","2","","","","","","","",""
"pit-trial","31","380570","0.0-2.0-11.0-4.0","battery-v0.2","","""event"",""trial"",""time""
""fullscreenenter"",""1"",""3341""
","
","
","""event"",""trial"",""time""
""fullscreenenter"",""1"",""3341""
","
","","","-1","","","21","3172","2388","&#9761;","elianto","#3366ff99","-1","-1","1","+10","[]","0","0","2","","","","","","","",""
"call-function","32","380575","0.0-2.0-12.0","battery-v0.2","","""event"",""trial"",""time""
""fullscreenenter"",""1"",""3341""
","
","
","""event"",""trial"",""time""
""fullscreenenter"",""1"",""3341""
","
","","","","","","","","","","","","","","","","","","","","","","","","","","",""
"pit-instructions","33","411633","0.0-2.0-13.0","battery-v0.2","","""event"",""trial"",""time""
""fullscreenenter"",""1"",""3341""
","
","
","""event"",""trial"",""time""
""fullscreenenter"",""1"",""3341""
","
","","[{""page_index"":0,""viewing_time"":7183.699999988079},{""page_index"":1,""viewing_time"":6434.0999999940395},{""page_index"":2,""viewing_time"":3110.9000000059605},{""page_index"":3,""viewing_time"":10125.300000011921},{""page_index"":4,""viewing_time"":4201.5}]","31056.19999998808","","","","","","","","","","","","","","","","","","","","","","","",""
"pit-trial","34","415151","0.0-2.0-14.0-0.0","battery-v0.2","","""event"",""trial"",""time""
""fullscreenenter"",""1"",""3341""
","
","
","""event"",""trial"",""time""
""fullscreenenter"",""1"",""3341""
","
","","","657.5","","","21","3172","2388","&#9826;","elianto","#f73b6a7A","-1"," ","0","-10","[1508.7000000178814]","1","0","3","","","","","","","",""
"pit-trial","35","418239","0.0-2.0-14.0-1.0","battery-v0.2","","""event"",""trial"",""time""
""fullscreenenter"",""1"",""3341""
","
","
","""event"",""trial"",""time""
""fullscreenenter"",""1"",""3341""
","
","","","227.5","","","21","3172","2388","&#9826;","elianto","#f73b6a7A","-1"," ","0","-10","[1078.9000000059605]","1","0","3","","","","","","","",""
"pit-trial","36","423097","0.0-2.0-14.0-2.0","battery-v0.2","","""event"",""trial"",""time""
""fullscreenenter"",""1"",""3341""
","
","
","""event"",""trial"",""time""
""fullscreenenter"",""1"",""3341""
","
","","","-1","","","21","3172","2388","&#9826;","elianto","#f73b6a7A","-1","-1","1","0","[]","0","0","3","","","","","","","",""
"pit-trial","37","427956","0.0-2.0-14.0-3.0","battery-v0.2","","""event"",""trial"",""time""
""fullscreenenter"",""1"",""3341""
","
","
","""event"",""trial"",""time""
""fullscreenenter"",""1"",""3341""
","
","","","-1","","","21","3172","2388","&#9826;","elianto","#f73b6a7A","-1","-1","1","-10","[]","0","0","3","","","","","","","",""
"pit-trial","38","432816","0.0-2.0-14.0-4.0","battery-v0.2","","""event"",""trial"",""time""
""fullscreenenter"",""1"",""3341""
","
","
","""event"",""trial"",""time""
""fullscreenenter"",""1"",""3341""
","
","","","-1","","","21","3172","2388","&#9826;","elianto","#f73b6a7A","-1","-1","1","0","[]","0","0","3","","","","","","","",""
"pit-trial","39","437677","0.0-2.0-14.1-0.1","battery-v0.2","","""event"",""trial"",""time""
""fullscreenenter"",""1"",""3341""
","
","
","""event"",""trial"",""time""
""fullscreenenter"",""1"",""3341""
","
","","","-1","","","21","3172","2388","&#9826;","elianto","#f73b6a7A","-1","-1","1","0","[]","0","0","3","","","","","","","",""
"pit-trial","40","442538","0.0-2.0-14.1-1.1","battery-v0.2","","""event"",""trial"",""time""
""fullscreenenter"",""1"",""3341""
","
","
","""event"",""trial"",""time""
""fullscreenenter"",""1"",""3341""
","
","","","-1","","","21","3172","2388","&#9826;","elianto","#f73b6a7A","-1","-1","1","0","[]","0","0","3","","","","","","","",""
"pit-trial","41","447402","0.0-2.0-14.1-2.1","battery-v0.2","","""event"",""trial"",""time""
""fullscreenenter"",""1"",""3341""
","
","
","""event"",""trial"",""time""
""fullscreenenter"",""1"",""3341""
","
","","","-1","","","21","3172","2388","&#9826;","elianto","#f73b6a7A","-1","-1","1","0","[]","0","0","3","","","","","","","",""
"pit-trial","42","452267","0.0-2.0-14.1-3.1","battery-v0.2","","""event"",""trial"",""time""
""fullscreenenter"",""1"",""3341""
","
","
","""event"",""trial"",""time""
""fullscreenenter"",""1"",""3341""
","
","","","-1","","","21","3172","2388","&#9826;","elianto","#f73b6a7A","-1","-1","1","-10","[]","0","0","3","","","","","","","",""
"pit-trial","43","457131","0.0-2.0-14.1-4.1","battery-v0.2","","""event"",""trial"",""time""
""fullscreenenter"",""1"",""3341""
","
","
","""event"",""trial"",""time""
""fullscreenenter"",""1"",""3341""
","
","","","-1","","","21","3172","2388","&#9826;","elianto","#f73b6a7A","-1","-1","1","0","[]","0","0","3","","","","","","","",""
"call-function","44","457137","0.0-2.0-15.0","battery-v0.2","","""event"",""trial"",""time""
""fullscreenenter"",""1"",""3341""
","
","
","""event"",""trial"",""time""
""fullscreenenter"",""1"",""3341""
","
","","","","","","","","","","","","","","","","","","","","","","","","","","",""
"pit-instructions","45","480216","0.0-2.0-16.0","battery-v0.2","","""event"",""trial"",""time""
""fullscreenenter"",""1"",""3341""
","
","
","""event"",""trial"",""time""
""fullscreenenter"",""1"",""3341""
","
","","[{""page_index"":0,""viewing_time"":6004.5999999940395},{""page_index"":1,""viewing_time"":8248.90000000596},{""page_index"":2,""viewing_time"":4761},{""page_index"":3,""viewing_time"":4063.5}]","23078.69999998808","","","","","","","","","","","","","","","","","","","","","","","",""
"pit-trial","46","483638","0.0-2.0-17.0-0.0","battery-v0.2","","""event"",""trial"",""time""
""fullscreenenter"",""1"",""3341""
","
","
","""event"",""trial"",""time""
""fullscreenenter"",""1"",""3341""
","
","","","560.9000000059605","","","21","3172","2388","&#9789;","elianto","#f73b6a7A"," "," ","1","0","[1410.9000000059605]","1","0","4","","","","","","","",""
"pit-trial","47","486830","0.0-2.0-17.0-1.0","battery-v0.2","","""event"",""trial"",""time""
""fullscreenenter"",""1"",""3341""
","
","
","""event"",""trial"",""time""
""fullscreenenter"",""1"",""3341""
","
","","","330.80000001192093","","","21","3172","2388","&#9789;","elianto","#f73b6a7A"," "," ","1","0","[1184.4000000059605]","1","0","4","","","","","","","",""
"pit-trial","48","490195","0.0-2.0-17.0-2.0","battery-v0.2","","""event"",""trial"",""time""
""fullscreenenter"",""1"",""3341""
","
","
","""event"",""trial"",""time""
""fullscreenenter"",""1"",""3341""
","
","","","500.7999999821186","","","21","3172","2388","&#9789;","elianto","#f73b6a7A"," "," ","1","0","[1355.7999999821186]","1","0","4","","","","","","","",""
"pit-trial","49","493286","0.0-2.0-17.0-3.0","battery-v0.2","","""event"",""trial"",""time""
""fullscreenenter"",""1"",""3341""
","
","
","""event"",""trial"",""time""
""fullscreenenter"",""1"",""3341""
","
","","","230","","","21","3172","2388","&#9789;","elianto","#f73b6a7A"," "," ","1","-10","[1083.300000011921]","1","0","4","","","","","","","",""
"pit-trial","50","496613","0.0-2.0-17.0-4.0","battery-v0.2","","""event"",""trial"",""time""
""fullscreenenter"",""1"",""3341""
","
","
","""event"",""trial"",""time""
""fullscreenenter"",""1"",""3341""
","
","","","461.19999998807907","","","21","3172","2388","&#9789;","elianto","#f73b6a7A"," "," ","1","0","[1315.8999999761581]","1","0","4","","","","","","","",""
"call-function","51","496619","0.0-2.0-18.0","battery-v0.2","","""event"",""trial"",""time""
""fullscreenenter"",""1"",""3341""
","
","
","""event"",""trial"",""time""
""fullscreenenter"",""1"",""3341""
","
","","","","","","","","","","","","","","","","","","","","","","","","","","",""
"pit-instructions","52","554025","0.0-2.0-19.0","battery-v0.2","","""event"",""trial"",""time""
""fullscreenenter"",""1"",""3341""
","
","
","""event"",""trial"",""time""
""fullscreenenter"",""1"",""3341""
","
","","[{""page_index"":0,""viewing_time"":6417.5},{""page_index"":1,""viewing_time"":5076},{""page_index"":2,""viewing_time"":8672},{""page_index"":3,""viewing_time"":5266.199999988079},{""page_index"":4,""viewing_time"":11352.5},{""page_index"":5,""viewing_time"":8685},{""page_index"":6,""viewing_time"":4088.4000000059605},{""page_index"":7,""viewing_time"":4792},{""page_index"":8,""viewing_time"":3053.7000000178814}]","57403.90000000596","","","","","","","","","","","","","","","","","","","","","","","",""
"pit-comprehension","53","558390","0.0-2.0-20.0-0.0","battery-v0.2","","""event"",""trial"",""time""
""fullscreenenter"",""1"",""3341""
","
","
","""event"",""trial"",""time""
""fullscreenenter"",""1"",""3341""
","
","","","4349.300000011921","[""SPACE""]","0","21","3172","2388","","","","","","","","","","","","","","","","","","",""
"pit-instructions","54","561014","0.0-2.0-20.0-1.0","battery-v0.2","","""event"",""trial"",""time""
""fullscreenenter"",""1"",""3341""
","
","
","""event"",""trial"",""time""
""fullscreenenter"",""1"",""3341""
","
","","[{""page_index"":0,""viewing_time"":2600.4000000059605}]","2601","","","","","","","","","","","","","","","","","","","","","","","",""
"pit-comprehension","55","566243","0.0-2.0-21.0-0.0","battery-v0.2","","""event"",""trial"",""time""
""fullscreenenter"",""1"",""3341""
","
","
","""event"",""trial"",""time""
""fullscreenenter"",""1"",""3341""
","
","","","5221.299999982119","[""10""]","0","21","3172","2388","","","","","","","","","","","","","","","","","","",""
"pit-instructions","56","567971","0.0-2.0-21.0-1.0","battery-v0.2","","""event"",""trial"",""time""
""fullscreenenter"",""1"",""3341""
","
","
","""event"",""trial"",""time""
""fullscreenenter"",""1"",""3341""
","
","","[{""page_index"":0,""viewing_time"":1705.4000000059605}]","1705.9000000059605","","","","","","","","","","","","","","","","","","","","","","","",""
"pit-comprehension","57","574095","0.0-2.0-22.0-0.0","battery-v0.2","","""event"",""trial"",""time""
""fullscreenenter"",""1"",""3341""
","
","
","""event"",""trial"",""time""
""fullscreenenter"",""1"",""3341""
","
","","","6115.9000000059605","[""0""]","0","21","3172","2388","","","","","","","","","","","","","","","","","","",""
"pit-instructions","58","575535","0.0-2.0-22.0-1.0","battery-v0.2","","""event"",""trial"",""time""
""fullscreenenter"",""1"",""3341""
","
","
","""event"",""trial"",""time""
""fullscreenenter"",""1"",""3341""
","
","","[{""page_index"":0,""viewing_time"":1417.199999988079}]","1417.8999999761581","","","","","","","","","","","","","","","","","","","","","","","",""
"pit-comprehension","59","583902","0.0-2.0-23.0-0.0","battery-v0.2","","""event"",""trial"",""time""
""fullscreenenter"",""1"",""3341""
","
","
","""event"",""trial"",""time""
""fullscreenenter"",""1"",""3341""
","
","","","8359.399999976158","[""True""]","0","21","3172","2388","","","","","","","","","","","","","","","","","","",""
"pit-instructions","60","585356","0.0-2.0-23.0-1.0","battery-v0.2","","""event"",""trial"",""time""
""fullscreenenter"",""1"",""3341""
","
","
","""event"",""trial"",""time""
""fullscreenenter"",""1"",""3341""
","
","","[{""page_index"":0,""viewing_time"":1429.5999999940395}]","1430.0999999940395","","","","","","","","","","","","","","","","","","","","","","","",""
"pit-comprehension","61","592773","0.0-2.0-24.0-0.0","battery-v0.2","","""event"",""trial"",""time""
""fullscreenenter"",""1"",""3341""
","
","
","""event"",""trial"",""time""
""fullscreenenter"",""1"",""3341""
","
","","","7410.4000000059605","[""False""]","1","21","3172","2388","","","","","","","","","","","","","","","","","","",""
"pit-instructions","62","594647","0.0-2.0-24.0-1.0","battery-v0.2","","""event"",""trial"",""time""
""fullscreenenter"",""1"",""3341""
","
","
","""event"",""trial"",""time""
""fullscreenenter"",""1"",""3341""
","
","","[{""page_index"":0,""viewing_time"":1850.699999988079}]","1851.0999999940395","","","","","","","","","","","","","","","","","","","","","","","",""
"pit-instructions","63","595439","0.0-2.0-24.0-2.0-0.0","battery-v0.2","","""event"",""trial"",""time""
""fullscreenenter"",""1"",""3341""
","
","
","""event"",""trial"",""time""
""fullscreenenter"",""1"",""3341""
","
","","[{""page_index"":0,""viewing_time"":785.2999999821186}]","785.6999999880791","","","","","","","","","","","","","","","","","","","","","","","",""
"pit-comprehension","64","602815","0.0-2.0-24.1-0.1","battery-v0.2","","""event"",""trial"",""time""
""fullscreenenter"",""1"",""3341""
","
","
","""event"",""trial"",""time""
""fullscreenenter"",""1"",""3341""
","
","","","7369.199999988079","[""True""]","0","21","3172","2388","","","","","","","","","","","","","","","","","","",""
"pit-instructions","65","603978","0.0-2.0-24.1-1.1","battery-v0.2","","""event"",""trial"",""time""
""fullscreenenter"",""1"",""3341""
","
","
","""event"",""trial"",""time""
""fullscreenenter"",""1"",""3341""
","
","","[{""page_index"":0,""viewing_time"":1138.6000000238419}]","1139.2000000178814","","","","","","","","","","","","","","","","","","","","","","","",""
"pit-comprehension","66","610370","0.0-2.0-25.0-0.0","battery-v0.2","","""event"",""trial"",""time""
""fullscreenenter"",""1"",""3341""
","
","
","""event"",""trial"",""time""
""fullscreenenter"",""1"",""3341""
","
","","","6384.0999999940395","[""True""]","0","21","3172","2388","","","","","","","","","","","","","","","","","","",""
"pit-instructions","67","611839","0.0-2.0-25.0-1.0","battery-v0.2","","""event"",""trial"",""time""
""fullscreenenter"",""1"",""3341""
","
","
","""event"",""trial"",""time""
""fullscreenenter"",""1"",""3341""
","
","","[{""page_index"":0,""viewing_time"":1444.4000000059605}]","1445","","","","","","","","","","","","","","","","","","","","","","","",""
"pit-comprehension","68","616219","0.0-2.0-26.0-0.0","battery-v0.2","","""event"",""trial"",""time""
""fullscreenenter"",""1"",""3341""
","
","
","""event"",""trial"",""time""
""fullscreenenter"",""1"",""3341""
","
","","","4371.4000000059605","[""False""]","0","21","3172","2388","","","","","","","","","","","","","","","","","","",""
"pit-instructions","69","621076","0.0-2.0-26.0-1.0","battery-v0.2","","""event"",""trial"",""time""
""fullscreenenter"",""1"",""3341""
","
","
","""event"",""trial"",""time""
""fullscreenenter"",""1"",""3341""
","
","","[{""page_index"":0,""viewing_time"":4832.700000017881}]","4833.200000017881","","","","","","","","","","","","","","","","","","","","","","","",""
"pit-instructions","70","646268","0.0-3.0","battery-v0.2","","""event"",""trial"",""time""
""fullscreenenter"",""1"",""3341""
","
","
","""event"",""trial"",""time""
""fullscreenenter"",""1"",""3341""
","
","","[{""page_index"":0,""viewing_time"":9037.199999988079},{""page_index"":1,""viewing_time"":6526},{""page_index"":2,""viewing_time"":9620.800000011921}]","25184.5","","","","","","","","","","","","","","","","","","","","","","","",""
"pit-trial","71","649782","0.0-4.0","battery-v0.2","","""event"",""trial"",""time""
""fullscreenenter"",""1"",""3341""
","
","
","""event"",""trial"",""time""
""fullscreenenter"",""1"",""3341""
","
","","","652.9000000059605","","","21","3172","2388","&#9728;","elianto","#f73b6a7A","-1"," ","0","-10","[1504.300000011921]","1","1","","","3172","1","0","4","lose","no-go","0"
"pit-trial","72","653312","0.0-5.0","battery-v0.2","","""event"",""trial"",""time""
""fullscreenenter"",""1"",""3341""
","
","
","""event"",""trial"",""time""
""fullscreenenter"",""1"",""3341""
","
","","","668.9000000059605","","","21","3172","2388","&#9730;","elianto","#3366ff99"," "," ","1","0","[1520.9000000059605]","1","1","","","3172","2","1","1","win","go","1"
"pit-trial","73","657221","0.0-6.0","battery-v0.2","","""event"",""trial"",""time""
""fullscreenenter"",""1"",""3341""
","
","
","""event"",""trial"",""time""
""fullscreenenter"",""1"",""3341""
","
","","","1046.5999999940395","","","21","3172","2388","&#9752;","elianto","#f73b6a7A"," "," ","1","0","[1899.199999988079]","1","1","","","3172","3","3","3","lose","go","0"
"pit-trial","74","660907","0.0-7.0","battery-v0.2","","""event"",""trial"",""time""
""fullscreenenter"",""1"",""3341""
","
","
","""event"",""trial"",""time""
""fullscreenenter"",""1"",""3341""
","
","","","825.7999999821186","","","21","3172","2388","&#9733;","elianto","#3366ff99","-1"," ","0","+10","[1677.5999999940395]","1","1","","","3172","4","2","2","win","no-go","1"
"pit-trial","75","664612","0.0-8.0","battery-v0.2","","""event"",""trial"",""time""
""fullscreenenter"",""1"",""3341""
","
","
","""event"",""trial"",""time""
""fullscreenenter"",""1"",""3341""
","
","","","845","","","21","3172","2388","&#9752;","elianto","#f73b6a7A"," "," ","1","0","[1696]","1","1","","","3172","5","3","3","lose","go","0"
"pit-trial","76","668319","0.0-9.0","battery-v0.2","","""event"",""trial"",""time""
""fullscreenenter"",""1"",""3341""
","
","
","""event"",""trial"",""time""
""fullscreenenter"",""1"",""3341""
","
","","","845.9000000059605","","","21","3172","2388","&#9733;","elianto","#3366ff99","-1"," ","0","0","[1697.4000000059605]","1","1","","","3172","6","2","2","win","no-go","0"
"pit-trial","77","673180","0.0-10.0","battery-v0.2","","""event"",""trial"",""time""
""fullscreenenter"",""1"",""3341""
","
","
","""event"",""trial"",""time""
""fullscreenenter"",""1"",""3341""
","
","","","-1","","","21","3172","2388","&#9730;","elianto","#3366ff99"," ","-1","0","0","[]","0","1","","","3172","7","1","1","win","go","0"
"pit-trial","78","678045","0.0-11.0","battery-v0.2","","""event"",""trial"",""time""
""fullscreenenter"",""1"",""3341""
","
","
","""event"",""trial"",""time""
""fullscreenenter"",""1"",""3341""
","
","","","-1","","","21","3172","2388","&#9728;","elianto","#f73b6a7A","-1","-1","1","0","[]","0","1","","","3172","8","0","4","lose","no-go","0"
"pit-trial","79","681677","0.0-12.0","battery-v0.2","","""event"",""trial"",""time""
""fullscreenenter"",""1"",""3341""
","
","
","""event"",""trial"",""time""
""fullscreenenter"",""1"",""3341""
","
","","","771.3000000119209","","","21","3172","2388","&#9730;","elianto","#3366ff99"," "," ","1","+10","[1623.9000000059605]","1","1","","","3172","9","1","1","win","go","0"
"pit-trial","80","686541","0.0-13.0","battery-v0.2","","""event"",""trial"",""time""
""fullscreenenter"",""1"",""3341""
","
","
","""event"",""trial"",""time""
""fullscreenenter"",""1"",""3341""
","
","","","-1","","","21","3172","2388","&#9728;","elianto","#f73b6a7A","-1","-1","1","0","[]","0","1","","","3172","10","0","4","lose","no-go","0"
"pit-trial","81","690269","0.0-14.0","battery-v0.2","","""event"",""trial"",""time""
""fullscreenenter"",""1"",""3341""
","
","
","""event"",""trial"",""time""
""fullscreenenter"",""1"",""3341""
","
","","","867.2000000178814","","","21","3172","2388","&#9752;","elianto","#f73b6a7A"," "," ","1","-10","[1719.2000000178814]","1","1","","","3172","11","3","3","lose","go","1"
"pit-trial","82","693954","0.0-15.0","battery-v0.2","","""event"",""trial"",""time""
""fullscreenenter"",""1"",""3341""
","
","
","""event"",""trial"",""time""
""fullscreenenter"",""1"",""3341""
","
","","","825.1000000238419","","","21","3172","2388","&#9733;","elianto","#3366ff99","-1"," ","0","0","[1676.5]","1","1","","","3172","12","2","2","win","no-go","0"
"pit-trial","83","697874","0.0-16.0","battery-v0.2","","""event"",""trial"",""time""
""fullscreenenter"",""1"",""3341""
","
","
","""event"",""trial"",""time""
""fullscreenenter"",""1"",""3341""
","
","","","1060.4000000059605","","","21","3172","2388","&#9733;","elianto","#3366ff99","-1"," ","0","0","[1911.2000000178814]","1","1","","","3172","13","2","2","win","no-go","0"
"pit-trial","84","701624","0.0-17.0","battery-v0.2","","""event"",""trial"",""time""
""fullscreenenter"",""1"",""3341""
","
","
","""event"",""trial"",""time""
""fullscreenenter"",""1"",""3341""
","
","","","889.6000000238419","","","21","3172","2388","&#9730;","elianto","#3366ff99"," "," ","1","+10","[1742.7000000178814]","1","1","","","3172","14","1","1","win","go","0"
"pit-trial","85","705633","0.0-18.0","battery-v0.2","","""event"",""trial"",""time""
""fullscreenenter"",""1"",""3341""
","
","
","""event"",""trial"",""time""
""fullscreenenter"",""1"",""3341""
","
","","","1146.9000000059605","","","21","3172","2388","&#9728;","elianto","#f73b6a7A","-1"," ","0","-10","[1998]","1","1","","","3172","15","0","4","lose","no-go","0"
"pit-trial","86","709736","0.0-19.0","battery-v0.2","","""event"",""trial"",""time""
""fullscreenenter"",""1"",""3341""
","
","
","""event"",""trial"",""time""
""fullscreenenter"",""1"",""3341""
","
","","","1240.300000011921","","","21","3172","2388","&#9752;","elianto","#f73b6a7A"," "," ","1","-10","[2094.2999999821186]","1","1","","","3172","16","3","3","lose","go","1"
"pit-trial","87","713282","0.0-20.0","battery-v0.2","","""event"",""trial"",""time""
""fullscreenenter"",""1"",""3341""
","
","
","""event"",""trial"",""time""
""fullscreenenter"",""1"",""3341""
","
","","","683.4000000059605","","","21","3172","2388","&#9730;","elianto","#3366ff99"," "," ","1","+10","[1535.9000000059605]","1","1","","","3172","17","1","1","win","go","0"
"pit-trial","88","718149","0.0-21.0","battery-v0.2","","""event"",""trial"",""time""
""fullscreenenter"",""1"",""3341""
","
","
","""event"",""trial"",""time""
""fullscreenenter"",""1"",""3341""
","
","","","-1","","","21","3172","2388","&#9728;","elianto","#f73b6a7A","-1","-1","1","0","[]","0","1","","","3172","18","0","4","lose","no-go","0"
"pit-trial","89","723010","0.0-22.0","battery-v0.2","","""event"",""trial"",""time""
""fullscreenenter"",""1"",""3341""
","
","
","""event"",""trial"",""time""
""fullscreenenter"",""1"",""3341""
","
","","","-1","","","21","3172","2388","&#9752;","elianto","#f73b6a7A"," ","-1","0","0","[]","0","1","","","3172","19","3","3","lose","go","1"
"pit-trial","90","726558","0.0-23.0","battery-v0.2","","""event"",""trial"",""time""
""fullscreenenter"",""1"",""3341""
","
","
","""event"",""trial"",""time""
""fullscreenenter"",""1"",""3341""
","
","","","689.5999999940395","","","21","3172","2388","&#9733;","elianto","#3366ff99","-1"," ","0","0","[1541.5999999940395]","1","1","","","3172","20","2","2","win","no-go","0"
"pit-instructions","91","739762","0.0-24.0","battery-v0.2","","""event"",""trial"",""time""
""fullscreenenter"",""1"",""3341""
","
","
","""event"",""trial"",""time""
""fullscreenenter"",""1"",""3341""
","
","","[{""page_index"":0,""viewing_time"":5501.200000017881},{""page_index"":1,""viewing_time"":7696}]","13197.40000000596","","","","","","","","","","","","","","","","","","","","","","","",""
"pit-trial","92","743382","0.0-25.0","battery-v0.2","","""event"",""trial"",""time""
""fullscreenenter"",""1"",""3341""
","
","
","""event"",""trial"",""time""
""fullscreenenter"",""1"",""3341""
","
","","","758.7999999821186","","","21","3172","2388","y","elianto","#f73b6a7A"," "," ","1","0","[1610.0999999940395]","1","2","","","3172","21","2","3","lose","go","0"
"pit-trial","93","747010","0.0-26.0","battery-v0.2","","""event"",""trial"",""time""
""fullscreenenter"",""1"",""3341""
","
","
","""event"",""trial"",""time""
""fullscreenenter"",""1"",""3341""
","
","","","768.2999999821186","","","21","3172","2388","m","elianto","#f73b6a7A"," "," ","1","-10","[1620.2999999821186]","1","2","","","3172","22","0","3","lose","go","1"
"pit-trial","94","750684","0.0-27.0","battery-v0.2","","""event"",""trial"",""time""
""fullscreenenter"",""1"",""3341""
","
","
","""event"",""trial"",""time""
""fullscreenenter"",""1"",""3341""
","
","","","811.0999999940395","","","21","3172","2388","r","elianto","#3366ff99","-1"," ","0","+10","[1662.300000011921]","1","2","","","3172","23","1","2","win","no-go","1"
"pit-trial","95","754275","0.0-28.0","battery-v0.2","","""event"",""trial"",""time""
""fullscreenenter"",""1"",""3341""
","
","
","""event"",""trial"",""time""
""fullscreenenter"",""1"",""3341""
","
","","","729.1000000238419","","","21","3172","2388","h","elianto","#f73b6a7A","-1"," ","0","-10","[1579.300000011921]","1","2","","","3172","24","3","4","lose","no-go","0"
"pit-trial","96","757837","0.0-29.0","battery-v0.2","","""event"",""trial"",""time""
""fullscreenenter"",""1"",""3341""
","
","
","""event"",""trial"",""time""
""fullscreenenter"",""1"",""3341""
","
","","","697.6999999880791","","","21","3172","2388","r","elianto","#3366ff99","-1"," ","0","0","[1551.2000000178814]","1","2","","","3172","25","1","2","win","no-go","0"
"pit-trial","97","762695","0.0-30.0","battery-v0.2","","""event"",""trial"",""time""
""fullscreenenter"",""1"",""3341""
","
","
","""event"",""trial"",""time""
""fullscreenenter"",""1"",""3341""
","
","","","-1","","","21","3172","2388","h","elianto","#f73b6a7A","-1","-1","1","0","[]","0","2","","","3172","26","3","4","lose","no-go","0"
"pit-trial","98","766207","0.0-31.0","battery-v0.2","","""event"",""trial"",""time""
""fullscreenenter"",""1"",""3341""
","
","
","""event"",""trial"",""time""
""fullscreenenter"",""1"",""3341""
","
","","","649.1999999880791","","","21","3172","2388","m","elianto","#f73b6a7A"," "," ","1","-10","[1500]","1","2","","","3172","27","0","3","lose","go","1"
"pit-trial","99","769911","0.0-32.0","battery-v0.2","","""event"",""trial"",""time""
""fullscreenenter"",""1"",""3341""
","
","
","""event"",""trial"",""time""
""fullscreenenter"",""1"",""3341""
","
","","","840.7000000178814","","","21","3172","2388","y","elianto","#f73b6a7A"," "," ","1","0","[1693]","1","2","","","3172","28","2","3","lose","go","0"
"pit-trial","100","774776","0.0-33.0","battery-v0.2","","""event"",""trial"",""time""
""fullscreenenter"",""1"",""3341""
","
","
","""event"",""trial"",""time""
""fullscreenenter"",""1"",""3341""
","
","","","-1","","","21","3172","2388","h","elianto","#f73b6a7A","-1","-1","1","-10","[]","0","2","","","3172","29","3","4","lose","no-go","1"
"pit-trial","101","778840","0.0-34.0","battery-v0.2","","""event"",""trial"",""time""
""fullscreenenter"",""1"",""3341""
","
","
","""event"",""trial"",""time""
""fullscreenenter"",""1"",""3341""
","
","","","1202.300000011921","","","21","3172","2388","m","elianto","#f73b6a7A"," "," ","1","0","[2054.9000000059605]","1","2","","","3172","30","0","3","lose","go","0"
"pit-trial","102","783704","0.0-35.0","battery-v0.2","","""event"",""trial"",""time""
""fullscreenenter"",""1"",""3341""
","
","
","""event"",""trial"",""time""
""fullscreenenter"",""1"",""3341""
","
","","","-1","","","21","3172","2388","y","elianto","#f73b6a7A"," ","-1","0","-10","[]","0","2","","","3172","31","2","3","lose","go","0"
"pit-trial","103","787549","0.0-36.0","battery-v0.2","","""event"",""trial"",""time""
""fullscreenenter"",""1"",""3341""
","
","
","""event"",""trial"",""time""
""fullscreenenter"",""1"",""3341""
","
","","","985.3000000119209","","","21","3172","2388","r","elianto","#3366ff99","-1"," ","0","0","[1836]","1","2","","","3172","32","1","2","win","no-go","0"
"pit-trial","104","791544","0.0-37.0","battery-v0.2","","""event"",""trial"",""time""
""fullscreenenter"",""1"",""3341""
","
","
","""event"",""trial"",""time""
""fullscreenenter"",""1"",""3341""
","
","","","1132.5","","","21","3172","2388","y","elianto","#f73b6a7A"," "," ","1","0","[1984.800000011921]","1","2","","","3172","33","2","3","lose","go","0"
"pit-trial","105","795438","0.0-38.0","battery-v0.2","","""event"",""trial"",""time""
""fullscreenenter"",""1"",""3341""
","
","
","""event"",""trial"",""time""
""fullscreenenter"",""1"",""3341""
","
","","","1034.2000000178814","","","21","3172","2388","m","elianto","#f73b6a7A"," "," ","1","0","[1886.5999999940395]","1","2","","","3172","34","0","3","lose","go","0"
"pit-trial","106","799091","0.0-39.0","battery-v0.2","","""event"",""trial"",""time""
""fullscreenenter"",""1"",""3341""
","
","
","""event"",""trial"",""time""
""fullscreenenter"",""1"",""3341""
","
","","","790.0999999940395","","","21","3172","2388","r","elianto","#3366ff99","-1"," ","0","0","[1642.5999999940395]","1","2","","","3172","35","1","2","win","no-go","0"
"pit-trial","107","803955","0.0-40.0","battery-v0.2","","""event"",""trial"",""time""
""fullscreenenter"",""1"",""3341""
","
","
","""event"",""trial"",""time""
""fullscreenenter"",""1"",""3341""
","
","","","-1","","","21","3172","2388","h","elianto","#f73b6a7A","-1","-1","1","0","[]","0","2","","","3172","36","3","4","lose","no-go","0"
"pit-trial","108","807731","0.0-41.0","battery-v0.2","","""event"",""trial"",""time""
""fullscreenenter"",""1"",""3341""
","
","
","""event"",""trial"",""time""
""fullscreenenter"",""1"",""3341""
","
","","","912.5","","","21","3172","2388","m","elianto","#f73b6a7A"," "," ","1","0","[1764.8999999761581]","1","2","","","3172","37","0","3","lose","go","0"
"pit-trial","109","812595","0.0-42.0","battery-v0.2","","""event"",""trial"",""time""
""fullscreenenter"",""1"",""3341""
","
","
","""event"",""trial"",""time""
""fullscreenenter"",""1"",""3341""
","
","","","-1","","","21","3172","2388","h","elianto","#f73b6a7A","-1","-1","1","0","[]","0","2","","","3172","38","3","4","lose","no-go","0"
"pit-trial","110","816499","0.0-43.0","battery-v0.2","","""event"",""trial"",""time""
""fullscreenenter"",""1"",""3341""
","
","
","""event"",""trial"",""time""
""fullscreenenter"",""1"",""3341""
","
","","","1044.5999999940395","","","21","3172","2388","y","elianto","#f73b6a7A"," "," ","1","0","[1896.800000011921]","1","2","","","3172","39","2","3","lose","go","0"
"pit-trial","111","821363","0.0-44.0","battery-v0.2","","""event"",""trial"",""time""
""fullscreenenter"",""1"",""3341""
","
","
","""event"",""trial"",""time""
""fullscreenenter"",""1"",""3341""
","
","","","-1","","","21","3172","2388","r","elianto","#3366ff99","-1","-1","1","+10","[]","0","2","","","3172","40","1","2","win","no-go","0"
"pit-trial","112","825082","0.0-45.0","battery-v0.2","","""event"",""trial"",""time""
""fullscreenenter"",""1"",""3341""
","
","
","""event"",""trial"",""time""
""fullscreenenter"",""1"",""3341""
","
","","","858.5999999940395","","","21","3172","2388","y","elianto","#f73b6a7A"," "," ","1","0","[1711.2000000178814]","1","2","","","3172","41","2","3","lose","go","0"
"pit-trial","113","828731","0.0-46.0","battery-v0.2","","""event"",""trial"",""time""
""fullscreenenter"",""1"",""3341""
","
","
","""event"",""trial"",""time""
""fullscreenenter"",""1"",""3341""
","
","","","788.5","","","21","3172","2388","m","elianto","#f73b6a7A"," "," ","1","0","[1639.0999999940395]","1","2","","","3172","42","0","3","lose","go","0"
"pit-trial","114","832569","0.0-47.0","battery-v0.2","","""event"",""trial"",""time""
""fullscreenenter"",""1"",""3341""
","
","
","""event"",""trial"",""time""
""fullscreenenter"",""1"",""3341""
","
","","","979.2000000178814","","","21","3172","2388","r","elianto","#3366ff99","-1"," ","0","0","[1832.4000000059605]","1","2","","","3172","43","1","2","win","no-go","0"
"pit-trial","115","837432","0.0-48.0","battery-v0.2","","""event"",""trial"",""time""
""fullscreenenter"",""1"",""3341""
","
","
","""event"",""trial"",""time""
""fullscreenenter"",""1"",""3341""
","
","","","-1","","","21","3172","2388","h","elianto","#f73b6a7A","-1","-1","1","0","[]","0","2","","","3172","44","3","4","lose","no-go","0"
"pit-trial","116","842296","0.0-49.0","battery-v0.2","","""event"",""trial"",""time""
""fullscreenenter"",""1"",""3341""
","
","
","""event"",""trial"",""time""
""fullscreenenter"",""1"",""3341""
","
","","","-1","","","21","3172","2388","h","elianto","#f73b6a7A","-1","-1","1","0","[]","0","2","","","3172","45","3","4","lose","no-go","0"
"pit-trial","117","847161","0.0-50.0","battery-v0.2","","""event"",""trial"",""time""
""fullscreenenter"",""1"",""3341""
","
","
","""event"",""trial"",""time""
""fullscreenenter"",""1"",""3341""
","
","","","-1","","","21","3172","2388","r","elianto","#3366ff99","-1","-1","1","+10","[]","0","2","","","3172","46","1","2","win","no-go","0"
"pit-trial","118","850638","0.0-51.0","battery-v0.2","","""event"",""trial"",""time""
""fullscreenenter"",""1"",""3341""
","
","
","""event"",""trial"",""time""
""fullscreenenter"",""1"",""3341""
","
","","","616.8000000119209","","","21","3172","2388","m","elianto","#f73b6a7A"," "," ","1","0","[1469.4000000059605]","1","2","","","3172","47","0","3","lose","go","0"
"pit-trial","119","854137","0.0-52.0","battery-v0.2","","""event"",""trial"",""time""
""fullscreenenter"",""1"",""3341""
","
","
","""event"",""trial"",""time""
""fullscreenenter"",""1"",""3341""
","
","","","637.8000000119209","","","21","3172","2388","y","elianto","#f73b6a7A"," "," ","1","0","[1490.699999988079]","1","2","","","3172","48","2","3","lose","go","0"
"pit-trial","120","857716","0.0-53.0","battery-v0.2","","""event"",""trial"",""time""
""fullscreenenter"",""1"",""3341""
","
","
","""event"",""trial"",""time""
""fullscreenenter"",""1"",""3341""
","
","","","717.1999999880791","","","21","3172","2388","m","elianto","#f73b6a7A"," "," ","1","0","[1570.7999999821186]","1","2","","","3172","49","0","3","lose","go","0"
"pit-trial","121","862580","0.0-54.0","battery-v0.2","","""event"",""trial"",""time""
""fullscreenenter"",""1"",""3341""
","
","
","""event"",""trial"",""time""
""fullscreenenter"",""1"",""3341""
","
","","","-1","","","21","3172","2388","r","elianto","#3366ff99","-1","-1","1","0","[]","0","2","","","3172","50","1","2","win","no-go","1"
"pit-trial","122","867444","0.0-55.0","battery-v0.2","","""event"",""trial"",""time""
""fullscreenenter"",""1"",""3341""
","
","
","""event"",""trial"",""time""
""fullscreenenter"",""1"",""3341""
","
","","","-1","","","21","3172","2388","h","elianto","#f73b6a7A","-1","-1","1","0","[]","0","2","","","3172","51","3","4","lose","no-go","0"
"pit-trial","123","871028","0.0-56.0","battery-v0.2","","""event"",""trial"",""time""
""fullscreenenter"",""1"",""3341""
","
","
","""event"",""trial"",""time""
""fullscreenenter"",""1"",""3341""
","
","","","720.6999999880791","","","21","3172","2388","y","elianto","#f73b6a7A"," "," ","1","0","[1573.9000000059605]","1","2","","","3172","52","2","3","lose","go","0"
"pit-trial","124","875892","0.0-57.0","battery-v0.2","","""event"",""trial"",""time""
""fullscreenenter"",""1"",""3341""
","
","
","""event"",""trial"",""time""
""fullscreenenter"",""1"",""3341""
","
","","","-1","","","21","3172","2388","h","elianto","#f73b6a7A","-1","-1","1","0","[]","0","2","","","3172","53","3","4","lose","no-go","0"
"pit-trial","125","879466","0.0-58.0","battery-v0.2","","""event"",""trial"",""time""
""fullscreenenter"",""1"",""3341""
","
","
","""event"",""trial"",""time""
""fullscreenenter"",""1"",""3341""
","
","","","714.6000000238419","","","21","3172","2388","y","elianto","#f73b6a7A"," "," ","1","0","[1566.4000000059605]","1","2","","","3172","54","2","3","lose","go","0"
"pit-trial","126","884330","0.0-59.0","battery-v0.2","","""event"",""trial"",""time""
""fullscreenenter"",""1"",""3341""
","
","
","""event"",""trial"",""time""
""fullscreenenter"",""1"",""3341""
","
","","","-1","","","21","3172","2388","r","elianto","#3366ff99","-1","-1","1","+10","[]","0","2","","","3172","55","1","2","win","no-go","0"
"pit-trial","127","887919","0.0-60.0","battery-v0.2","","""event"",""trial"",""time""
""fullscreenenter"",""1"",""3341""
","
","
","""event"",""trial"",""time""
""fullscreenenter"",""1"",""3341""
","
","","","726.8000000119209","","","21","3172","2388","m","elianto","#f73b6a7A"," "," ","1","0","[1578.7999999821186]","1","2","","","3172","56","0","3","lose","go","0"
"pit-trial","128","892783","0.0-61.0","battery-v0.2","","""event"",""trial"",""time""
""fullscreenenter"",""1"",""3341""
","
","
","""event"",""trial"",""time""
""fullscreenenter"",""1"",""3341""
","
","","","-1","","","21","3172","2388","h","elianto","#f73b6a7A","-1","-1","1","0","[]","0","2","","","3172","57","3","4","lose","no-go","0"
"pit-trial","129","896394","0.0-62.0","battery-v0.2","","""event"",""trial"",""time""
""fullscreenenter"",""1"",""3341""
","
","
","""event"",""trial"",""time""
""fullscreenenter"",""1"",""3341""
","
","","","747.4000000059605","","","21","3172","2388","m","elianto","#f73b6a7A"," "," ","1","0","[1599.5999999940395]","1","2","","","3172","58","0","3","lose","go","0"
"pit-trial","130","900202","0.0-63.0","battery-v0.2","","""event"",""trial"",""time""
""fullscreenenter"",""1"",""3341""
","
","
","""event"",""trial"",""time""
""fullscreenenter"",""1"",""3341""
","
","","","942.5","","","21","3172","2388","y","elianto","#f73b6a7A"," "," ","1","0","[1797.2000000178814]","1","2","","","3172","59","2","3","lose","go","0"
"pit-trial","131","904346","0.0-64.0","battery-v0.2","","""event"",""trial"",""time""
""fullscreenenter"",""1"",""3341""
","
","
","""event"",""trial"",""time""
""fullscreenenter"",""1"",""3341""
","
","","","1282.5","","","21","3172","2388","z","elianto","#3366ff99"," "," ","1","+10","[2134.2999999821186]","1","2","","","3172","60","4","1","win","go","0"
"pit-trial","132","909210","0.0-65.0","battery-v0.2","","""event"",""trial"",""time""
""fullscreenenter"",""1"",""3341""
","
","
","""event"",""trial"",""time""
""fullscreenenter"",""1"",""3341""
","
","","","-1","","","21","3172","2388","r","elianto","#3366ff99","-1","-1","1","+10","[]","0","2","","","3172","61","1","2","win","no-go","0"
"pit-trial","133","912853","0.0-66.0","battery-v0.2","","""event"",""trial"",""time""
""fullscreenenter"",""1"",""3341""
","
","
","""event"",""trial"",""time""
""fullscreenenter"",""1"",""3341""
","
","","","783.2000000178814","","","21","3172","2388","z","elianto","#3366ff99"," "," ","1","0","[1635.4000000059605]","1","2","","","3172","62","4","1","win","go","1"
"pit-trial","134","917717","0.0-67.0","battery-v0.2","","""event"",""trial"",""time""
""fullscreenenter"",""1"",""3341""
","
","
","""event"",""trial"",""time""
""fullscreenenter"",""1"",""3341""
","
","","","-1","","","21","3172","2388","h","elianto","#f73b6a7A","-1","-1","1","0","[]","0","2","","","3172","63","3","4","lose","no-go","0"
"pit-trial","135","921444","0.0-68.0","battery-v0.2","","""event"",""trial"",""time""
""fullscreenenter"",""1"",""3341""
","
","
","""event"",""trial"",""time""
""fullscreenenter"",""1"",""3341""
","
","","","865","","","21","3172","2388","y","elianto","#f73b6a7A"," "," ","1","-10","[1716.7999999821186]","1","2","","","3172","64","2","3","lose","go","1"
"pit-trial","136","925242","0.0-69.0","battery-v0.2","","""event"",""trial"",""time""
""fullscreenenter"",""1"",""3341""
","
","
","""event"",""trial"",""time""
""fullscreenenter"",""1"",""3341""
","
","","","940","","","21","3172","2388","r","elianto","#3366ff99","-1"," ","0","0","[1791]","1","2","","","3172","65","1","2","win","no-go","0"
"pit-trial","137","929072","0.0-70.0","battery-v0.2","","""event"",""trial"",""time""
""fullscreenenter"",""1"",""3341""
","
","
","""event"",""trial"",""time""
""fullscreenenter"",""1"",""3341""
","
","","","967","","","21","3172","2388","c","elianto","#3366ff99","-1"," ","0","+10","[1821.4000000059605]","1","2","","","3172","66","5","2","win","no-go","1"
"pit-trial","138","932826","0.0-71.0","battery-v0.2","","""event"",""trial"",""time""
""fullscreenenter"",""1"",""3341""
","
","
","""event"",""trial"",""time""
""fullscreenenter"",""1"",""3341""
","
","","","891.7999999821186","","","21","3172","2388","z","elianto","#3366ff99"," "," ","1","+10","[1744.0999999940395]","1","2","","","3172","67","4","1","win","go","0"
"pit-trial","139","937690","0.0-72.0","battery-v0.2","","""event"",""trial"",""time""
""fullscreenenter"",""1"",""3341""
","
","
","""event"",""trial"",""time""
""fullscreenenter"",""1"",""3341""
","
","","","-1","","","21","3172","2388","h","elianto","#f73b6a7A","-1","-1","1","0","[]","0","2","","","3172","68","3","4","lose","no-go","0"
"pit-trial","140","941272","0.0-73.0","battery-v0.2","","""event"",""trial"",""time""
""fullscreenenter"",""1"",""3341""
","
","
","""event"",""trial"",""time""
""fullscreenenter"",""1"",""3341""
","
","","","715.9000000059605","","","21","3172","2388","c","elianto","#3366ff99","-1"," ","0","0","[1570.5]","1","2","","","3172","69","5","2","win","no-go","0"
"pit-trial","141","945648","0.0-74.0","battery-v0.2","","""event"",""trial"",""time""
""fullscreenenter"",""1"",""3341""
","
","
","""event"",""trial"",""time""
""fullscreenenter"",""1"",""3341""
","
","","","1514.5","","","21","3172","2388","y","elianto","#f73b6a7A"," "," ","1","0","[2364.5999999940395]","1","2","","","3172","70","2","3","lose","go","0"
"pit-trial","142","949051","0.0-75.0","battery-v0.2","","""event"",""trial"",""time""
""fullscreenenter"",""1"",""3341""
","
","
","""event"",""trial"",""time""
""fullscreenenter"",""1"",""3341""
","
","","","539.8000000119209","","","21","3172","2388","r","elianto","#3366ff99","-1"," ","0","0","[1392.2000000178814]","1","2","","","3172","71","1","2","win","no-go","0"
"pit-trial","143","952459","0.0-76.0","battery-v0.2","","""event"",""trial"",""time""
""fullscreenenter"",""1"",""3341""
","
","
","""event"",""trial"",""time""
""fullscreenenter"",""1"",""3341""
","
","","","546.9000000059605","","","21","3172","2388","z","elianto","#3366ff99"," "," ","1","+10","[1399.9000000059605]","1","2","","","3172","72","4","1","win","go","0"
"pit-trial","144","955941","0.0-77.0","battery-v0.2","","""event"",""trial"",""time""
""fullscreenenter"",""1"",""3341""
","
","
","""event"",""trial"",""time""
""fullscreenenter"",""1"",""3341""
","
","","","623.5","","","21","3172","2388","z","elianto","#3366ff99"," "," ","1","+10","[1473.8999999761581]","1","2","","","3172","73","4","1","win","go","0"
"pit-trial","145","960806","0.0-78.0","battery-v0.2","","""event"",""trial"",""time""
""fullscreenenter"",""1"",""3341""
","
","
","""event"",""trial"",""time""
""fullscreenenter"",""1"",""3341""
","
","","","-1","","","21","3172","2388","h","elianto","#f73b6a7A","-1","-1","1","-10","[]","0","2","","","3172","74","3","4","lose","no-go","1"
"pit-trial","146","964310","0.0-79.0","battery-v0.2","","""event"",""trial"",""time""
""fullscreenenter"",""1"",""3341""
","
","
","""event"",""trial"",""time""
""fullscreenenter"",""1"",""3341""
","
","","","640.5999999940395","","","21","3172","2388","r","elianto","#3366ff99","-1"," ","0","0","[1492.9000000059605]","1","2","","","3172","75","1","2","win","no-go","0"
"pit-trial","147","967893","0.0-80.0","battery-v0.2","","""event"",""trial"",""time""
""fullscreenenter"",""1"",""3341""
","
","
","""event"",""trial"",""time""
""fullscreenenter"",""1"",""3341""
","
","","","724.0999999940395","","","21","3172","2388","c","elianto","#3366ff99","-1"," ","0","0","[1576.300000011921]","1","2","","","3172","76","5","2","win","no-go","0"
"pit-trial","148","971536","0.0-81.0","battery-v0.2","","""event"",""trial"",""time""
""fullscreenenter"",""1"",""3341""
","
","
","""event"",""trial"",""time""
""fullscreenenter"",""1"",""3341""
","
","","","779.3000000119209","","","21","3172","2388","c","elianto","#3366ff99","-1"," ","0","0","[1632.9000000059605]","1","2","","","3172","77","5","2","win","no-go","0"
"pit-trial","149","976401","0.0-82.0","battery-v0.2","","""event"",""trial"",""time""
""fullscreenenter"",""1"",""3341""
","
","
","""event"",""trial"",""time""
""fullscreenenter"",""1"",""3341""
","
","","","-1","","","21","3172","2388","h","elianto","#f73b6a7A","-1","-1","1","0","[]","0","2","","","3172","78","3","4","lose","no-go","0"
"pit-trial","150","979937","0.0-83.0","battery-v0.2","","""event"",""trial"",""time""
""fullscreenenter"",""1"",""3341""
","
","
","""event"",""trial"",""time""
""fullscreenenter"",""1"",""3341""
","
","","","676.5","","","21","3172","2388","z","elianto","#3366ff99"," "," ","1","+10","[1528]","1","2","","","3172","79","4","1","win","go","0"
"pit-trial","151","983451","0.0-84.0","battery-v0.2","","""event"",""trial"",""time""
""fullscreenenter"",""1"",""3341""
","
","
","""event"",""trial"",""time""
""fullscreenenter"",""1"",""3341""
","
","","","650.8000000119209","","","21","3172","2388","z","elianto","#3366ff99"," "," ","1","+10","[1502.8999999761581]","1","2","","","3172","80","4","1","win","go","0"
"pit-trial","152","987382","0.0-85.0","battery-v0.2","","""event"",""trial"",""time""
""fullscreenenter"",""1"",""3341""
","
","
","""event"",""trial"",""time""
""fullscreenenter"",""1"",""3341""
","
","","","1069.2000000178814","","","21","3172","2388","h","elianto","#f73b6a7A","-1"," ","0","-10","[1921.2999999821186]","1","2","","","3172","81","3","4","lose","no-go","0"
"pit-trial","153","992241","0.0-86.0","battery-v0.2","","""event"",""trial"",""time""
""fullscreenenter"",""1"",""3341""
","
","
","""event"",""trial"",""time""
""fullscreenenter"",""1"",""3341""
","
","","","-1","","","21","3172","2388","c","elianto","#3366ff99","-1","-1","1","+10","[]","0","2","","","3172","82","5","2","win","no-go","0"
"pit-trial","154","996305","0.0-87.0","battery-v0.2","","""event"",""trial"",""time""
""fullscreenenter"",""1"",""3341""
","
","
","""event"",""trial"",""time""
""fullscreenenter"",""1"",""3341""
","
","","","1201.199999988079","","","21","3172","2388","z","elianto","#3366ff99"," "," ","1","+10","[2053.5999999940395]","1","2","","","3172","83","4","1","win","go","0"
"pit-trial","155","1000352","0.0-88.0","battery-v0.2","","""event"",""trial"",""time""
""fullscreenenter"",""1"",""3341""
","
","
","""event"",""trial"",""time""
""fullscreenenter"",""1"",""3341""
","
","","","1186.800000011921","","","21","3172","2388","t","elianto","#f73b6a7A","-1"," ","0","0","[2038]","1","2","","","3172","84","7","4","lose","no-go","1"
"pit-trial","156","1004278","0.0-89.0","battery-v0.2","","""event"",""trial"",""time""
""fullscreenenter"",""1"",""3341""
","
","
","""event"",""trial"",""time""
""fullscreenenter"",""1"",""3341""
","
","","","1060.699999988079","","","21","3172","2388","z","elianto","#3366ff99"," "," ","1","+10","[1914.699999988079]","1","2","","","3172","85","4","1","win","go","0"
"pit-trial","157","1009142","0.0-90.0","battery-v0.2","","""event"",""trial"",""time""
""fullscreenenter"",""1"",""3341""
","
","
","""event"",""trial"",""time""
""fullscreenenter"",""1"",""3341""
","
","","","-1","","","21","3172","2388","c","elianto","#3366ff99","-1","-1","1","+10","[]","0","2","","","3172","86","5","2","win","no-go","0"
"pit-trial","158","1012838","0.0-91.0","battery-v0.2","","""event"",""trial"",""time""
""fullscreenenter"",""1"",""3341""
","
","
","""event"",""trial"",""time""
""fullscreenenter"",""1"",""3341""
","
","","","836.7000000178814","","","21","3172","2388","b","elianto","#f73b6a7A"," "," ","1","-10","[1688.5999999940395]","1","2","","","3172","87","6","3","lose","go","1"
"pit-trial","159","1017702","0.0-92.0","battery-v0.2","","""event"",""trial"",""time""
""fullscreenenter"",""1"",""3341""
","
","
","""event"",""trial"",""time""
""fullscreenenter"",""1"",""3341""
","
","","","-1","","","21","3172","2388","t","elianto","#f73b6a7A","-1","-1","1","-10","[]","0","2","","","3172","88","7","4","lose","no-go","1"
"pit-trial","160","1022567","0.0-93.0","battery-v0.2","","""event"",""trial"",""time""
""fullscreenenter"",""1"",""3341""
","
","
","""event"",""trial"",""time""
""fullscreenenter"",""1"",""3341""
","
","","","-1","","","21","3172","2388","b","elianto","#f73b6a7A"," ","-1","0","-10","[]","0","2","","","3172","89","6","3","lose","go","0"
"pit-trial","161","1027431","0.0-94.0","battery-v0.2","","""event"",""trial"",""time""
""fullscreenenter"",""1"",""3341""
","
","
","""event"",""trial"",""time""
""fullscreenenter"",""1"",""3341""
","
","","","-1","","","21","3172","2388","t","elianto","#f73b6a7A","-1","-1","1","-10","[]","0","2","","","3172","90","7","4","lose","no-go","1"
"pit-trial","162","1031247","0.0-95.0","battery-v0.2","","""event"",""trial"",""time""
""fullscreenenter"",""1"",""3341""
","
","
","""event"",""trial"",""time""
""fullscreenenter"",""1"",""3341""
","
","","","956","","","21","3172","2388","z","elianto","#3366ff99"," "," ","1","0","[1806.5999999940395]","1","2","","","3172","91","4","1","win","go","1"
"pit-trial","163","1034732","0.0-96.0","battery-v0.2","","""event"",""trial"",""time""
""fullscreenenter"",""1"",""3341""
","
","
","""event"",""trial"",""time""
""fullscreenenter"",""1"",""3341""
","
","","","620.0999999940395","","","21","3172","2388","c","elianto","#3366ff99","-1"," ","0","+10","[1474.199999988079]","1","2","","","3172","92","5","2","win","no-go","1"
"pit-trial","164","1037601","0.0-97.0","battery-v0.2","","""event"",""trial"",""time""
""fullscreenenter"",""1"",""3341""
","
","
","""event"",""trial"",""time""
""fullscreenenter"",""1"",""3341""
","
","","","8.800000011920929","","","21","3172","2388","b","elianto","#f73b6a7A"," "," ","1","0","[860.6999999880791,1736.8999999761581]","2","2","","","3172","93","6","3","lose","go","0"
"pit-trial","165","1041740","0.0-98.0","battery-v0.2","","""event"",""trial"",""time""
""fullscreenenter"",""1"",""3341""
","
","
","""event"",""trial"",""time""
""fullscreenenter"",""1"",""3341""
","
","","","1275.0999999940395","","","21","3172","2388","f","elianto","#3366ff99"," "," ","1","+10","[2129.5]","1","2","","","3172","94","8","1","win","go","0"
"pit-trial","166","1046604","0.0-99.0","battery-v0.2","","""event"",""trial"",""time""
""fullscreenenter"",""1"",""3341""
","
","
","""event"",""trial"",""time""
""fullscreenenter"",""1"",""3341""
","
","","","-1","","","21","3172","2388","c","elianto","#3366ff99","-1","-1","1","0","[]","0","2","","","3172","95","5","2","win","no-go","1"
"pit-trial","167","1050615","0.0-100.0","battery-v0.2","","""event"",""trial"",""time""
""fullscreenenter"",""1"",""3341""
","
","
","""event"",""trial"",""time""
""fullscreenenter"",""1"",""3341""
","
","","","1149","","","21","3172","2388","t","elianto","#f73b6a7A","-1"," ","0","0","[1999.199999988079]","1","2","","","3172","96","7","4","lose","no-go","1"
"pit-trial","168","1054599","0.0-101.0","battery-v0.2","","""event"",""trial"",""time""
""fullscreenenter"",""1"",""3341""
","
","
","""event"",""trial"",""time""
""fullscreenenter"",""1"",""3341""
","
","","","1120","","","21","3172","2388","c","elianto","#3366ff99","-1"," ","0","0","[1972.5999999940395]","1","2","","","3172","97","5","2","win","no-go","0"
"pit-trial","169","1058562","0.0-102.0","battery-v0.2","","""event"",""trial"",""time""
""fullscreenenter"",""1"",""3341""
","
","
","""event"",""trial"",""time""
""fullscreenenter"",""1"",""3341""
","
","","","1102.2000000178814","","","21","3172","2388","t","elianto","#f73b6a7A","-1"," ","0","-10","[1955.2000000178814]","1","2","","","3172","98","7","4","lose","no-go","0"
"pit-trial","170","1062252","0.0-103.0","battery-v0.2","","""event"",""trial"",""time""
""fullscreenenter"",""1"",""3341""
","
","
","""event"",""trial"",""time""
""fullscreenenter"",""1"",""3341""
","
","","","830.9000000059605","","","21","3172","2388","f","elianto","#3366ff99"," "," ","1","+10","[1682.800000011921]","1","2","","","3172","99","8","1","win","go","0"
"pit-trial","171","1067116","0.0-104.0","battery-v0.2","","""event"",""trial"",""time""
""fullscreenenter"",""1"",""3341""
","
","
","""event"",""trial"",""time""
""fullscreenenter"",""1"",""3341""
","
","","","-1","","","21","3172","2388","b","elianto","#f73b6a7A"," ","-1","0","-10","[]","0","2","","","3172","100","6","3","lose","go","0"
"pit-trial","172","1070631","0.0-105.0","battery-v0.2","","""event"",""trial"",""time""
""fullscreenenter"",""1"",""3341""
","
","
","""event"",""trial"",""time""
""fullscreenenter"",""1"",""3341""
","
","","","651.6999999880791","","","21","3172","2388","c","elianto","#3366ff99","-1"," ","0","0","[1505.800000011921]","1","2","","","3172","101","5","2","win","no-go","0"
"pit-trial","173","1074146","0.0-106.0","battery-v0.2","","""event"",""trial"",""time""
""fullscreenenter"",""1"",""3341""
","
","
","""event"",""trial"",""time""
""fullscreenenter"",""1"",""3341""
","
","","","652.2999999821186","","","21","3172","2388","t","elianto","#f73b6a7A","-1"," ","0","0","[1504.0999999940395]","1","2","","","3172","102","7","4","lose","no-go","1"
"pit-trial","174","1077970","0.0-107.0","battery-v0.2","","""event"",""trial"",""time""
""fullscreenenter"",""1"",""3341""
","
","
","""event"",""trial"",""time""
""fullscreenenter"",""1"",""3341""
","
","","","959.8999999761581","","","21","3172","2388","n","elianto","#3366ff99"," "," ","1","+10","[1812.5999999940395]","1","2","","","3172","103","9","1","win","go","0"
"pit-trial","175","1081650","0.0-108.0","battery-v0.2","","""event"",""trial"",""time""
""fullscreenenter"",""1"",""3341""
","
","
","""event"",""trial"",""time""
""fullscreenenter"",""1"",""3341""
","
","","","818.8000000119209","","","21","3172","2388","f","elianto","#3366ff99"," "," ","1","+10","[1671]","1","2","","","3172","104","8","1","win","go","0"
"pit-trial","176","1085304","0.0-109.0","battery-v0.2","","""event"",""trial"",""time""
""fullscreenenter"",""1"",""3341""
","
","
","""event"",""trial"",""time""
""fullscreenenter"",""1"",""3341""
","
","","","794.5","","","21","3172","2388","z","elianto","#3366ff99"," "," ","1","0","[1647]","1","2","","","3172","105","4","1","win","go","1"
"pit-trial","177","1090167","0.0-110.0","battery-v0.2","","""event"",""trial"",""time""
""fullscreenenter"",""1"",""3341""
","
","
","""event"",""trial"",""time""
""fullscreenenter"",""1"",""3341""
","
","","","-1","","","21","3172","2388","f","elianto","#3366ff99"," ","-1","0","0","[]","0","2","","","3172","106","8","1","win","go","0"
"pit-trial","178","1093928","0.0-111.0","battery-v0.2","","""event"",""trial"",""time""
""fullscreenenter"",""1"",""3341""
","
","
","""event"",""trial"",""time""
""fullscreenenter"",""1"",""3341""
","
","","","900.5","","","21","3172","2388","n","elianto","#3366ff99"," "," ","1","+10","[1752.5999999940395]","1","2","","","3172","107","9","1","win","go","0"
"pit-trial","179","1098792","0.0-112.0","battery-v0.2","","""event"",""trial"",""time""
""fullscreenenter"",""1"",""3341""
","
","
","""event"",""trial"",""time""
""fullscreenenter"",""1"",""3341""
","
","","","-1","","","21","3172","2388","b","elianto","#f73b6a7A"," ","-1","0","-10","[]","0","2","","","3172","108","6","3","lose","go","0"
"pit-trial","180","1102301","0.0-113.0","battery-v0.2","","""event"",""trial"",""time""
""fullscreenenter"",""1"",""3341""
","
","
","""event"",""trial"",""time""
""fullscreenenter"",""1"",""3341""
","
","","","646.0999999940395","","","21","3172","2388","n","elianto","#3366ff99"," "," ","1","+10","[1500]","1","2","","","3172","109","9","1","win","go","0"
"pit-trial","181","1105720","0.0-114.0","battery-v0.2","","""event"",""trial"",""time""
""fullscreenenter"",""1"",""3341""
","
","
","""event"",""trial"",""time""
""fullscreenenter"",""1"",""3341""
","
","","","556.9000000059605","","","21","3172","2388","f","elianto","#3366ff99"," "," ","1","+10","[1409.199999988079]","1","2","","","3172","110","8","1","win","go","0"
"pit-trial","182","1109469","0.0-115.0","battery-v0.2","","""event"",""trial"",""time""
""fullscreenenter"",""1"",""3341""
","
","
","""event"",""trial"",""time""
""fullscreenenter"",""1"",""3341""
","
","","","887.7000000178814","","","21","3172","2388","c","elianto","#3366ff99","-1"," ","0","+10","[521.8000000119209,1739.699999988079]","2","2","","","3172","111","5","2","win","no-go","1"
"pit-trial","183","1114045","0.0-116.0","battery-v0.2","","""event"",""trial"",""time""
""fullscreenenter"",""1"",""3341""
","
","
","""event"",""trial"",""time""
""fullscreenenter"",""1"",""3341""
","
","","","1715.5","","","21","3172","2388","b","elianto","#f73b6a7A"," "," ","1","-10","[2567.5]","1","2","","","3172","112","6","3","lose","go","1"
"pit-trial","184","1117800","0.0-117.0","battery-v0.2","","""event"",""trial"",""time""
""fullscreenenter"",""1"",""3341""
","
","
","""event"",""trial"",""time""
""fullscreenenter"",""1"",""3341""
","
","","","895.9000000059605","","","21","3172","2388","b","elianto","#f73b6a7A"," "," ","1","-10","[1746.0999999940395]","1","2","","","3172","113","6","3","lose","go","1"
"pit-trial","185","1121811","0.0-118.0","battery-v0.2","","""event"",""trial"",""time""
""fullscreenenter"",""1"",""3341""
","
","
","""event"",""trial"",""time""
""fullscreenenter"",""1"",""3341""
","
","","","1148","","","21","3172","2388","c","elianto","#3366ff99","-1"," ","0","0","[2000.7999999821186]","1","2","","","3172","114","5","2","win","no-go","0"
"pit-trial","186","1126114","0.0-119.0","battery-v0.2","","""event"",""trial"",""time""
""fullscreenenter"",""1"",""3341""
","
","
","""event"",""trial"",""time""
""fullscreenenter"",""1"",""3341""
","
","","","1444.9000000059605","","","21","3172","2388","f","elianto","#3366ff99"," "," ","1","0","[2296]","1","2","","","3172","115","8","1","win","go","1"
"pit-trial","187","1130973","0.0-120.0","battery-v0.2","","""event"",""trial"",""time""
""fullscreenenter"",""1"",""3341""
","
","
","""event"",""trial"",""time""
""fullscreenenter"",""1"",""3341""
","
","","","-1","","","21","3172","2388","n","elianto","#3366ff99"," ","-1","0","+10","[]","0","2","","","3172","116","9","1","win","go","1"
"pit-trial","188","1135837","0.0-121.0","battery-v0.2","","""event"",""trial"",""time""
""fullscreenenter"",""1"",""3341""
","
","
","""event"",""trial"",""time""
""fullscreenenter"",""1"",""3341""
","
","","","-1","","","21","3172","2388","c","elianto","#3366ff99","-1","-1","1","+10","[]","0","2","","","3172","117","5","2","win","no-go","0"
"pit-trial","189","1139528","0.0-122.0","battery-v0.2","","""event"",""trial"",""time""
""fullscreenenter"",""1"",""3341""
","
","
","""event"",""trial"",""time""
""fullscreenenter"",""1"",""3341""
","
","","","827.5","","","21","3172","2388","n","elianto","#3366ff99"," "," ","1","0","[1680.0999999940395]","1","2","","","3172","118","9","1","win","go","1"
"pit-trial","190","1144392","0.0-123.0","battery-v0.2","","""event"",""trial"",""time""
""fullscreenenter"",""1"",""3341""
","
","
","""event"",""trial"",""time""
""fullscreenenter"",""1"",""3341""
","
","","","-1","","","21","3172","2388","f","elianto","#3366ff99"," ","-1","0","0","[]","0","2","","","3172","119","8","1","win","go","0"
"pit-trial","191","1148113","0.0-124.0","battery-v0.2","","""event"",""trial"",""time""
""fullscreenenter"",""1"",""3341""
","
","
","""event"",""trial"",""time""
""fullscreenenter"",""1"",""3341""
","
","","","858.5999999940395","","","21","3172","2388","b","elianto","#f73b6a7A"," "," ","1","0","[1710.2999999821186]","1","2","","","3172","120","6","3","lose","go","0"
"pit-trial","192","1151918","0.0-125.0","battery-v0.2","","""event"",""trial"",""time""
""fullscreenenter"",""1"",""3341""
","
","
","""event"",""trial"",""time""
""fullscreenenter"",""1"",""3341""
","
","","","941.4000000059605","","","21","3172","2388","f","elianto","#3366ff99"," "," ","1","+10","[1796.2000000178814]","1","2","","","3172","121","8","1","win","go","0"
"pit-trial","193","1155581","0.0-126.0","battery-v0.2","","""event"",""trial"",""time""
""fullscreenenter"",""1"",""3341""
","
","
","""event"",""trial"",""time""
""fullscreenenter"",""1"",""3341""
","
","","","803.7000000178814","","","21","3172","2388","t","elianto","#f73b6a7A","-1"," ","0","-10","[1655.6000000238419]","1","2","","","3172","122","7","4","lose","no-go","0"
"pit-trial","194","1160446","0.0-127.0","battery-v0.2","","""event"",""trial"",""time""
""fullscreenenter"",""1"",""3341""
","
","
","""event"",""trial"",""time""
""fullscreenenter"",""1"",""3341""
","
","","","-1","","","21","3172","2388","n","elianto","#3366ff99"," ","-1","0","0","[]","0","2","","","3172","123","9","1","win","go","0"
"pit-trial","195","1165310","0.0-128.0","battery-v0.2","","""event"",""trial"",""time""
""fullscreenenter"",""1"",""3341""
","
","
","""event"",""trial"",""time""
""fullscreenenter"",""1"",""3341""
","
","","","-1","","","21","3172","2388","b","elianto","#f73b6a7A"," ","-1","0","-10","[]","0","2","","","3172","124","6","3","lose","go","0"
"pit-trial","196","1168787","0.0-129.0","battery-v0.2","","""event"",""trial"",""time""
""fullscreenenter"",""1"",""3341""
","
","
","""event"",""trial"",""time""
""fullscreenenter"",""1"",""3341""
","
","","","614.8000000119209","","","21","3172","2388","b","elianto","#f73b6a7A"," "," ","1","0","[1467.199999988079]","1","2","","","3172","125","6","3","lose","go","0"
"pit-trial","197","1172282","0.0-130.0","battery-v0.2","","""event"",""trial"",""time""
""fullscreenenter"",""1"",""3341""
","
","
","""event"",""trial"",""time""
""fullscreenenter"",""1"",""3341""
","
","","","631","","","21","3172","2388","t","elianto","#f73b6a7A","-1"," ","0","-10","[1483.1000000238419]","1","2","","","3172","126","7","4","lose","no-go","0"
"pit-trial","198","1175998","0.0-131.0","battery-v0.2","","""event"",""trial"",""time""
""fullscreenenter"",""1"",""3341""
","
","
","""event"",""trial"",""time""
""fullscreenenter"",""1"",""3341""
","
","","","856","","","21","3172","2388","n","elianto","#3366ff99"," "," ","1","+10","[1706.3999999761581]","1","2","","","3172","127","9","1","win","go","0"
"pit-trial","199","1179785","0.0-132.0","battery-v0.2","","""event"",""trial"",""time""
""fullscreenenter"",""1"",""3341""
","
","
","""event"",""trial"",""time""
""fullscreenenter"",""1"",""3341""
","
","","","923.5999999940395","","","21","3172","2388","f","elianto","#3366ff99"," "," ","1","+10","[1775.8999999761581]","1","2","","","3172","128","8","1","win","go","0"
"pit-trial","200","1183342","0.0-133.0","battery-v0.2","","""event"",""trial"",""time""
""fullscreenenter"",""1"",""3341""
","
","
","""event"",""trial"",""time""
""fullscreenenter"",""1"",""3341""
","
","","","693.9000000059605","","","21","3172","2388","t","elianto","#f73b6a7A","-1"," ","0","-10","[1547.9000000059605]","1","2","","","3172","129","7","4","lose","no-go","0"
"pit-trial","201","1187001","0.0-134.0","battery-v0.2","","""event"",""trial"",""time""
""fullscreenenter"",""1"",""3341""
","
","
","""event"",""trial"",""time""
""fullscreenenter"",""1"",""3341""
","
","","","797.4000000059605","","","21","3172","2388","b","elianto","#f73b6a7A"," "," ","1","0","[1649.4000000059605]","1","2","","","3172","130","6","3","lose","go","0"
"pit-trial","202","1190744","0.0-135.0","battery-v0.2","","""event"",""trial"",""time""
""fullscreenenter"",""1"",""3341""
","
","
","""event"",""trial"",""time""
""fullscreenenter"",""1"",""3341""
","
","","","879.1999999880791","","","21","3172","2388","f","elianto","#3366ff99"," "," ","1","+10","[1731.5999999940395]","1","2","","","3172","131","8","1","win","go","0"
"pit-trial","203","1195607","0.0-136.0","battery-v0.2","","""event"",""trial"",""time""
""fullscreenenter"",""1"",""3341""
","
","
","""event"",""trial"",""time""
""fullscreenenter"",""1"",""3341""
","
","","","-1","","","21","3172","2388","n","elianto","#3366ff99"," ","-1","0","0","[]","0","2","","","3172","132","9","1","win","go","0"
"pit-trial","204","1199084","0.0-137.0","battery-v0.2","","""event"",""trial"",""time""
""fullscreenenter"",""1"",""3341""
","
","
","""event"",""trial"",""time""
""fullscreenenter"",""1"",""3341""
","
","","","615.0999999940395","","","21","3172","2388","n","elianto","#3366ff99"," "," ","1","+10","[1469.2999999821186]","1","2","","","3172","133","9","1","win","go","0"
"pit-trial","205","1202528","0.0-138.0","battery-v0.2","","""event"",""trial"",""time""
""fullscreenenter"",""1"",""3341""
","
","
","""event"",""trial"",""time""
""fullscreenenter"",""1"",""3341""
","
","","","583.8000000119209","","","21","3172","2388","f","elianto","#3366ff99"," "," ","1","+10","[1436]","1","2","","","3172","134","8","1","win","go","0"
"pit-trial","206","1205947","0.0-139.0","battery-v0.2","","""event"",""trial"",""time""
""fullscreenenter"",""1"",""3341""
","
","
","""event"",""trial"",""time""
""fullscreenenter"",""1"",""3341""
","
","","","556","","","21","3172","2388","b","elianto","#f73b6a7A"," "," ","1","0","[1408.4000000059605]","1","2","","","3172","135","6","3","lose","go","0"
"pit-trial","207","1209525","0.0-140.0","battery-v0.2","","""event"",""trial"",""time""
""fullscreenenter"",""1"",""3341""
","
","
","""event"",""trial"",""time""
""fullscreenenter"",""1"",""3341""
","
","","","718.5","","","21","3172","2388","t","elianto","#f73b6a7A","-1"," ","0","-10","[1571]","1","2","","","3172","136","7","4","lose","no-go","0"
"pit-trial","208","1214389","0.0-141.0","battery-v0.2","","""event"",""trial"",""time""
""fullscreenenter"",""1"",""3341""
","
","
","""event"",""trial"",""time""
""fullscreenenter"",""1"",""3341""
","
","","","-1","","","21","3172","2388","t","elianto","#f73b6a7A","-1","-1","1","0","[]","0","2","","","3172","137","7","4","lose","no-go","0"
"pit-trial","209","1218533","0.0-142.0","battery-v0.2","","""event"",""trial"",""time""
""fullscreenenter"",""1"",""3341""
","
","
","""event"",""trial"",""time""
""fullscreenenter"",""1"",""3341""
","
","","","1283.2999999821186","","","21","3172","2388","b","elianto","#f73b6a7A"," "," ","1","0","[2135.7999999821186]","1","2","","","3172","138","6","3","lose","go","0"
"pit-trial","210","1222656","0.0-143.0","battery-v0.2","","""event"",""trial"",""time""
""fullscreenenter"",""1"",""3341""
","
","
","""event"",""trial"",""time""
""fullscreenenter"",""1"",""3341""
","
","","","1260.199999988079","","","21","3172","2388","n","elianto","#3366ff99"," "," ","1","+10","[2113.699999988079]","1","2","","","3172","139","9","1","win","go","0"
"pit-trial","211","1226494","0.0-144.0","battery-v0.2","","""event"",""trial"",""time""
""fullscreenenter"",""1"",""3341""
","
","
","""event"",""trial"",""time""
""fullscreenenter"",""1"",""3341""
","
","","","972.8999999761581","","","21","3172","2388","f","elianto","#3366ff99"," "," ","1","+10","[1826.5]","1","2","","","3172","140","8","1","win","go","0"
"pit-instructions","212","1245269","0.0-145.0","battery-v0.2","","""event"",""trial"",""time""
""fullscreenenter"",""1"",""3341""
","
","
","""event"",""trial"",""time""
""fullscreenenter"",""1"",""3341""
","
","","[{""page_index"":0,""viewing_time"":9802.700000017881},{""page_index"":1,""viewing_time"":8968.699999988079}]","18772.100000023842","","","","","","","","","","","","","","","","","","","","","","","",""
"pit-trial","213","1248804","0.0-146.0","battery-v0.2","","""event"",""trial"",""time""
""fullscreenenter"",""1"",""3341""
","
","
","""event"",""trial"",""time""
""fullscreenenter"",""1"",""3341""
","
","","","667","","","21","3172","2388","w","elianto","#f73b6a7A"," "," ","1","0","[1517]","1","3","","","3172","141","3","3","lose","go","0"
"pit-trial","214","1252474","0.0-147.0","battery-v0.2","","""event"",""trial"",""time""
""fullscreenenter"",""1"",""3341""
","
","
","""event"",""trial"",""time""
""fullscreenenter"",""1"",""3341""
","
","","","814.5","","","21","3172","2388","j","elianto","#f73b6a7A","-1"," ","0","-10","[1666]","1","3","","","3172","142","0","4","lose","no-go","0"
"pit-trial","215","1256019","0.0-148.0","battery-v0.2","","""event"",""trial"",""time""
""fullscreenenter"",""1"",""3341""
","
","
","""event"",""trial"",""time""
""fullscreenenter"",""1"",""3341""
","
","","","682.2000000178814","","","21","3172","2388","e","elianto","#f73b6a7A","-1"," ","0","0","[1532.4000000059605]","1","3","","","3172","143","2","4","lose","no-go","1"
"pit-trial","216","1259605","0.0-149.0","battery-v0.2","","""event"",""trial"",""time""
""fullscreenenter"",""1"",""3341""
","
","
","""event"",""trial"",""time""
""fullscreenenter"",""1"",""3341""
","
","","","723.8000000119209","","","21","3172","2388","d","elianto","#3366ff99"," "," ","1","+10","[1578.300000011921]","1","3","","","3172","144","1","1","win","go","0"
"pit-trial","217","1263075","0.0-150.0","battery-v0.2","","""event"",""trial"",""time""
""fullscreenenter"",""1"",""3341""
","
","
","""event"",""trial"",""time""
""fullscreenenter"",""1"",""3341""
","
","","","610.5","","","21","3172","2388","j","elianto","#f73b6a7A","-1"," ","0","-10","[1462.2999999821186]","1","3","","","3172","145","0","4","lose","no-go","0"
"pit-trial","218","1267224","0.0-151.0","battery-v0.2","","""event"",""trial"",""time""
""fullscreenenter"",""1"",""3341""
","
","
","""event"",""trial"",""time""
""fullscreenenter"",""1"",""3341""
","
","","","1287.5","","","21","3172","2388","w","elianto","#f73b6a7A"," "," ","1","-10","[2140.2999999821186]","1","3","","","3172","146","3","3","lose","go","1"
"pit-trial","219","1270799","0.0-152.0","battery-v0.2","","""event"",""trial"",""time""
""fullscreenenter"",""1"",""3341""
","
","
","""event"",""trial"",""time""
""fullscreenenter"",""1"",""3341""
","
","","","714.4000000059605","","","21","3172","2388","e","elianto","#f73b6a7A","-1"," ","0","-10","[1566.300000011921]","1","3","","","3172","147","2","4","lose","no-go","0"
"pit-trial","220","1274230","0.0-153.0","battery-v0.2","","""event"",""trial"",""time""
""fullscreenenter"",""1"",""3341""
","
","
","""event"",""trial"",""time""
""fullscreenenter"",""1"",""3341""
","
","","","566.5","","","21","3172","2388","d","elianto","#3366ff99"," "," ","1","+10","[1420.2000000178814]","1","3","","","3172","148","1","1","win","go","0"
"pit-trial","221","1277921","0.0-154.0","battery-v0.2","","""event"",""trial"",""time""
""fullscreenenter"",""1"",""3341""
","
","
","""event"",""trial"",""time""
""fullscreenenter"",""1"",""3341""
","
","","","829.8000000119209","","","21","3172","2388","d","elianto","#3366ff99"," "," ","1","+10","[1682.5999999940395]","1","3","","","3172","149","1","1","win","go","0"
"pit-trial","222","1281809","0.0-155.0","battery-v0.2","","""event"",""trial"",""time""
""fullscreenenter"",""1"",""3341""
","
","
","""event"",""trial"",""time""
""fullscreenenter"",""1"",""3341""
","
","","","1025","","","21","3172","2388","w","elianto","#f73b6a7A"," "," ","1","-10","[1877.4000000059605]","1","3","","","3172","150","3","3","lose","go","1"
"pit-trial","223","1285659","0.0-156.0","battery-v0.2","","""event"",""trial"",""time""
""fullscreenenter"",""1"",""3341""
","
","
","""event"",""trial"",""time""
""fullscreenenter"",""1"",""3341""
","
","","","988.5","","","21","3172","2388","e","elianto","#f73b6a7A","-1"," ","0","-10","[1840.199999988079]","1","3","","","3172","151","2","4","lose","no-go","0"
"pit-trial","224","1290524","0.0-157.0","battery-v0.2","","""event"",""trial"",""time""
""fullscreenenter"",""1"",""3341""
","
","
","""event"",""trial"",""time""
""fullscreenenter"",""1"",""3341""
","
","","","-1","","","21","3172","2388","j","elianto","#f73b6a7A","-1","-1","1","0","[]","0","3","","","3172","152","0","4","lose","no-go","0"
"pit-trial","225","1295388","0.0-158.0","battery-v0.2","","""event"",""trial"",""time""
""fullscreenenter"",""1"",""3341""
","
","
","""event"",""trial"",""time""
""fullscreenenter"",""1"",""3341""
","
","","","-1","","","21","3172","2388","e","elianto","#f73b6a7A","-1","-1","1","0","[]","0","3","","","3172","153","2","4","lose","no-go","0"
"pit-trial","226","1299100","0.0-159.0","battery-v0.2","","""event"",""trial"",""time""
""fullscreenenter"",""1"",""3341""
","
","
","""event"",""trial"",""time""
""fullscreenenter"",""1"",""3341""
","
","","","847.7999999821186","","","21","3172","2388","d","elianto","#3366ff99"," "," ","1","+10","[1699.4000000059605]","1","3","","","3172","154","1","1","win","go","0"
"pit-trial","227","1303964","0.0-160.0","battery-v0.2","","""event"",""trial"",""time""
""fullscreenenter"",""1"",""3341""
","
","
","""event"",""trial"",""time""
""fullscreenenter"",""1"",""3341""
","
","","","-1","","","21","3172","2388","w","elianto","#f73b6a7A"," ","-1","0","-10","[]","0","3","","","3172","155","3","3","lose","go","0"
"pit-trial","228","1307894","0.0-161.0","battery-v0.2","","""event"",""trial"",""time""
""fullscreenenter"",""1"",""3341""
","
","
","""event"",""trial"",""time""
""fullscreenenter"",""1"",""3341""
","
","","","1067.699999988079","","","21","3172","2388","j","elianto","#f73b6a7A","-1"," ","0","-10","[1919.9000000059605]","1","3","","","3172","156","0","4","lose","no-go","0"
"pit-trial","229","1312759","0.0-162.0","battery-v0.2","","""event"",""trial"",""time""
""fullscreenenter"",""1"",""3341""
","
","
","""event"",""trial"",""time""
""fullscreenenter"",""1"",""3341""
","
","","","-1","","","21","3172","2388","e","elianto","#f73b6a7A","-1","-1","1","-10","[]","0","3","","","3172","157","2","4","lose","no-go","1"
"pit-trial","230","1317623","0.0-163.0","battery-v0.2","","""event"",""trial"",""time""
""fullscreenenter"",""1"",""3341""
","
","
","""event"",""trial"",""time""
""fullscreenenter"",""1"",""3341""
","
","","","-1","","","21","3172","2388","w","elianto","#f73b6a7A"," ","-1","0","-10","[]","0","3","","","3172","158","3","3","lose","go","0"
"pit-trial","231","1321153","0.0-164.0","battery-v0.2","","""event"",""trial"",""time""
""fullscreenenter"",""1"",""3341""
","
","
","""event"",""trial"",""time""
""fullscreenenter"",""1"",""3341""
","
","","","668.5999999940395","","","21","3172","2388","d","elianto","#3366ff99"," "," ","1","+10","[1520.800000011921]","1","3","","","3172","159","1","1","win","go","0"
"pit-trial","232","1325265","0.0-165.0","battery-v0.2","","""event"",""trial"",""time""
""fullscreenenter"",""1"",""3341""
","
","
","""event"",""trial"",""time""
""fullscreenenter"",""1"",""3341""
","
","","","1250.7000000178814","","","21","3172","2388","j","elianto","#f73b6a7A","-1"," ","0","-10","[2102.9000000059605]","1","3","","","3172","160","0","4","lose","no-go","0"
"pit-trial","233","1330124","0.0-166.0","battery-v0.2","","""event"",""trial"",""time""
""fullscreenenter"",""1"",""3341""
","
","
","""event"",""trial"",""time""
""fullscreenenter"",""1"",""3341""
","
","","","-1","","","21","3172","2388","j","elianto","#f73b6a7A","-1","-1","1","-10","[]","0","3","","","3172","161","0","4","lose","no-go","1"
"pit-trial","234","1333916","0.0-167.0","battery-v0.2","","""event"",""trial"",""time""
""fullscreenenter"",""1"",""3341""
","
","
","""event"",""trial"",""time""
""fullscreenenter"",""1"",""3341""
","
","","","932.1999999880791","","","21","3172","2388","d","elianto","#3366ff99"," "," ","1","+10","[1784.5999999940395]","1","3","","","3172","162","1","1","win","go","0"
"pit-trial","235","1338210","0.0-168.0","battery-v0.2","","""event"",""trial"",""time""
""fullscreenenter"",""1"",""3341""
","
","
","""event"",""trial"",""time""
""fullscreenenter"",""1"",""3341""
","
","","","1432.300000011921","","","21","3172","2388","e","elianto","#f73b6a7A","-1"," ","0","-10","[2285.2000000178814]","1","3","","","3172","163","2","4","lose","no-go","0"
"pit-trial","236","1343068","0.0-169.0","battery-v0.2","","""event"",""trial"",""time""
""fullscreenenter"",""1"",""3341""
","
","
","""event"",""trial"",""time""
""fullscreenenter"",""1"",""3341""
","
","","","-1","","","21","3172","2388","w","elianto","#f73b6a7A"," ","-1","0","0","[3041.5]","1","3","","","3172","164","3","3","lose","go","1"
"pit-trial","237","1346625","0.0-170.0","battery-v0.2","","""event"",""trial"",""time""
""fullscreenenter"",""1"",""3341""
","
","
","""event"",""trial"",""time""
""fullscreenenter"",""1"",""3341""
","
","","","695.5999999940395","","","21","3172","2388","e","elianto","#f73b6a7A","-1"," ","0","-10","[1549.7999999821186]","1","3","","","3172","165","2","4","lose","no-go","0"
"pit-trial","238","1351490","0.0-171.0","battery-v0.2","","""event"",""trial"",""time""
""fullscreenenter"",""1"",""3341""
","
","
","""event"",""trial"",""time""
""fullscreenenter"",""1"",""3341""
","
","","","-1","","","21","3172","2388","w","elianto","#f73b6a7A"," ","-1","0","-10","[]","0","3","","","3172","166","3","3","lose","go","0"
"pit-trial","239","1355362","0.0-172.0","battery-v0.2","","""event"",""trial"",""time""
""fullscreenenter"",""1"",""3341""
","
","
","""event"",""trial"",""time""
""fullscreenenter"",""1"",""3341""
","
","","","1010.6000000238419","","","21","3172","2388","s","elianto","#3366ff99","-1"," ","0","+10","[1861.2000000178814]","1","3","","","3172","167","4","2","win","no-go","1"
"pit-trial","240","1360226","0.0-173.0","battery-v0.2","","""event"",""trial"",""time""
""fullscreenenter"",""1"",""3341""
","
","
","""event"",""trial"",""time""
""fullscreenenter"",""1"",""3341""
","
","","","-1","","","21","3172","2388","j","elianto","#f73b6a7A","-1","-1","1","0","[]","0","3","","","3172","168","0","4","lose","no-go","0"
"pit-trial","241","1364002","0.0-174.0","battery-v0.2","","""event"",""trial"",""time""
""fullscreenenter"",""1"",""3341""
","
","
","""event"",""trial"",""time""
""fullscreenenter"",""1"",""3341""
","
","","","915.7999999821186","","","21","3172","2388","s","elianto","#3366ff99","-1"," ","0","0","[1768.2000000178814]","1","3","","","3172","169","4","2","win","no-go","0"
"pit-trial","242","1367554","0.0-175.0","battery-v0.2","","""event"",""trial"",""time""
""fullscreenenter"",""1"",""3341""
","
","
","""event"",""trial"",""time""
""fullscreenenter"",""1"",""3341""
","
","","","692.4000000059605","","","21","3172","2388","d","elianto","#3366ff99"," "," ","1","+10","[1545.0999999940395]","1","3","","","3172","170","1","1","win","go","0"
"pit-trial","243","1371446","0.0-176.0","battery-v0.2","","""event"",""trial"",""time""
""fullscreenenter"",""1"",""3341""
","
","
","""event"",""trial"",""time""
""fullscreenenter"",""1"",""3341""
","
","","","1028.5999999940395","","","21","3172","2388","w","elianto","#f73b6a7A"," "," ","1","0","[1880.800000011921]","1","3","","","3172","171","3","3","lose","go","0"
"pit-trial","244","1375047","0.0-177.0","battery-v0.2","","""event"",""trial"",""time""
""fullscreenenter"",""1"",""3341""
","
","
","""event"",""trial"",""time""
""fullscreenenter"",""1"",""3341""
","
","","","739.8000000119209","","","21","3172","2388","j","elianto","#f73b6a7A","-1"," ","0","-10","[1593.1000000238419,1965.5]","2","3","","","3172","172","0","4","lose","no-go","0"
"pit-trial","245","1379026","0.0-178.0","battery-v0.2","","""event"",""trial"",""time""
""fullscreenenter"",""1"",""3341""
","
","
","""event"",""trial"",""time""
""fullscreenenter"",""1"",""3341""
","
","","","1119.6000000238419","","","21","3172","2388","e","elianto","#f73b6a7A","-1"," ","0","-10","[1972.800000011921]","1","3","","","3172","173","2","4","lose","no-go","0"
"pit-trial","246","1383890","0.0-179.0","battery-v0.2","","""event"",""trial"",""time""
""fullscreenenter"",""1"",""3341""
","
","
","""event"",""trial"",""time""
""fullscreenenter"",""1"",""3341""
","
","","","-1","","","21","3172","2388","j","elianto","#f73b6a7A","-1","-1","1","0","[]","0","3","","","3172","174","0","4","lose","no-go","0"
"pit-trial","247","1387624","0.0-180.0","battery-v0.2","","""event"",""trial"",""time""
""fullscreenenter"",""1"",""3341""
","
","
","""event"",""trial"",""time""
""fullscreenenter"",""1"",""3341""
","
","","","869.5999999940395","","","21","3172","2388","d","elianto","#3366ff99"," "," ","1","+10","[1722]","1","3","","","3172","175","1","1","win","go","0"
"pit-trial","248","1391133","0.0-181.0","battery-v0.2","","""event"",""trial"",""time""
""fullscreenenter"",""1"",""3341""
","
","
","""event"",""trial"",""time""
""fullscreenenter"",""1"",""3341""
","
","","","651.0999999940395","","","21","3172","2388","s","elianto","#3366ff99","-1"," ","0","0","[1502.4000000059605]","1","3","","","3172","176","4","2","win","no-go","0"
"pit-trial","249","1394306","0.0-182.0","battery-v0.2","","""event"",""trial"",""time""
""fullscreenenter"",""1"",""3341""
","
","
","""event"",""trial"",""time""
""fullscreenenter"",""1"",""3341""
","
","","","309.59999999403954","","","21","3172","2388","d","elianto","#3366ff99"," "," ","1","0","[1163]","1","3","","","3172","177","1","1","win","go","1"
"pit-trial","250","1397757","0.0-183.0","battery-v0.2","","""event"",""trial"",""time""
""fullscreenenter"",""1"",""3341""
","
","
","""event"",""trial"",""time""
""fullscreenenter"",""1"",""3341""
","
","","","588.7999999821186","","","21","3172","2388","j","elianto","#f73b6a7A","-1"," ","0","-10","[1440.199999988079]","1","3","","","3172","178","0","4","lose","no-go","0"
"pit-trial","251","1401772","0.0-184.0","battery-v0.2","","""event"",""trial"",""time""
""fullscreenenter"",""1"",""3341""
","
","
","""event"",""trial"",""time""
""fullscreenenter"",""1"",""3341""
","
","","","1151.800000011921","","","21","3172","2388","w","elianto","#f73b6a7A"," "," ","1","0","[2004]","1","3","","","3172","179","3","3","lose","go","0"
"pit-trial","252","1406637","0.0-185.0","battery-v0.2","","""event"",""trial"",""time""
""fullscreenenter"",""1"",""3341""
","
","
","""event"",""trial"",""time""
""fullscreenenter"",""1"",""3341""
","
","","","-1","","","21","3172","2388","s","elianto","#3366ff99","-1","-1","1","0","[]","0","3","","","3172","180","4","2","win","no-go","1"
"pit-trial","253","1409891","0.0-186.0","battery-v0.2","","""event"",""trial"",""time""
""fullscreenenter"",""1"",""3341""
","
","
","""event"",""trial"",""time""
""fullscreenenter"",""1"",""3341""
","
","","","394.19999998807907","","","21","3172","2388","d","elianto","#3366ff99"," "," ","1","+10","[1246.199999988079]","1","3","","","3172","181","1","1","win","go","0"
"pit-trial","254","1413960","0.0-187.0","battery-v0.2","","""event"",""trial"",""time""
""fullscreenenter"",""1"",""3341""
","
","
","""event"",""trial"",""time""
""fullscreenenter"",""1"",""3341""
","
","","","1209.5","","","21","3172","2388","s","elianto","#3366ff99","-1"," ","0","0","[2061]","1","3","","","3172","182","4","2","win","no-go","0"
"pit-trial","255","1417571","0.0-188.0","battery-v0.2","","""event"",""trial"",""time""
""fullscreenenter"",""1"",""3341""
","
","
","""event"",""trial"",""time""
""fullscreenenter"",""1"",""3341""
","
","","","748.3000000119209","","","21","3172","2388","e","elianto","#f73b6a7A","-1"," ","0","-10","[1600.5]","1","3","","","3172","183","2","4","lose","no-go","0"
"pit-trial","256","1421208","0.0-189.0","battery-v0.2","","""event"",""trial"",""time""
""fullscreenenter"",""1"",""3341""
","
","
","""event"",""trial"",""time""
""fullscreenenter"",""1"",""3341""
","
","","","775.1999999880791","","","21","3172","2388","w","elianto","#f73b6a7A"," "," ","1","0","[1625.800000011921]","1","3","","","3172","184","3","3","lose","go","0"
"pit-trial","257","1424787","0.0-190.0","battery-v0.2","","""event"",""trial"",""time""
""fullscreenenter"",""1"",""3341""
","
","
","""event"",""trial"",""time""
""fullscreenenter"",""1"",""3341""
","
","","","715.1999999880791","","","21","3172","2388","s","elianto","#3366ff99","-1"," ","0","0","[1567.5999999940395]","1","3","","","3172","185","4","2","win","no-go","0"
"pit-trial","258","1429651","0.0-191.0","battery-v0.2","","""event"",""trial"",""time""
""fullscreenenter"",""1"",""3341""
","
","
","""event"",""trial"",""time""
""fullscreenenter"",""1"",""3341""
","
","","","-1","","","21","3172","2388","e","elianto","#f73b6a7A","-1","-1","1","0","[]","0","3","","","3172","186","2","4","lose","no-go","0"
"pit-trial","259","1433731","0.0-192.0","battery-v0.2","","""event"",""trial"",""time""
""fullscreenenter"",""1"",""3341""
","
","
","""event"",""trial"",""time""
""fullscreenenter"",""1"",""3341""
","
","","","1216.5","","","21","3172","2388","w","elianto","#f73b6a7A"," "," ","1","0","[2068.5999999940395]","1","3","","","3172","187","3","3","lose","go","0"
"pit-trial","260","1437731","0.0-193.0","battery-v0.2","","""event"",""trial"",""time""
""fullscreenenter"",""1"",""3341""
","
","
","""event"",""trial"",""time""
""fullscreenenter"",""1"",""3341""
","
","","","1138.800000011921","","","21","3172","2388","d","elianto","#3366ff99"," "," ","1","+10","[1992.6000000238419]","1","3","","","3172","188","1","1","win","go","0"
"pit-trial","261","1441550","0.0-194.0","battery-v0.2","","""event"",""trial"",""time""
""fullscreenenter"",""1"",""3341""
","
","
","""event"",""trial"",""time""
""fullscreenenter"",""1"",""3341""
","
","","","957.8000000119209","","","21","3172","2388","w","elianto","#f73b6a7A"," "," ","1","-10","[1811.0999999940395]","1","3","","","3172","189","3","3","lose","go","1"
"pit-trial","262","1445374","0.0-195.0","battery-v0.2","","""event"",""trial"",""time""
""fullscreenenter"",""1"",""3341""
","
","
","""event"",""trial"",""time""
""fullscreenenter"",""1"",""3341""
","
","","","962","","","21","3172","2388","s","elianto","#3366ff99","-1"," ","0","0","[1814.4000000059605]","1","3","","","3172","190","4","2","win","no-go","0"
"pit-trial","263","1448845","0.0-196.0","battery-v0.2","","""event"",""trial"",""time""
""fullscreenenter"",""1"",""3341""
","
","
","""event"",""trial"",""time""
""fullscreenenter"",""1"",""3341""
","
","","","610.4000000059605","","","21","3172","2388","p","elianto","#3366ff99"," "," ","1","+10","[1462.5]","1","3","","","3172","191","5","1","win","go","0"
"pit-trial","264","1452184","0.0-197.0","battery-v0.2","","""event"",""trial"",""time""
""fullscreenenter"",""1"",""3341""
","
","
","""event"",""trial"",""time""
""fullscreenenter"",""1"",""3341""
","
","","","480.30000001192093","","","21","3172","2388","d","elianto","#3366ff99"," "," ","1","+10","[1332.5]","1","3","","","3172","192","1","1","win","go","0"
"pit-trial","265","1455208","0.0-198.0","battery-v0.2","","""event"",""trial"",""time""
""fullscreenenter"",""1"",""3341""
","
","
","""event"",""trial"",""time""
""fullscreenenter"",""1"",""3341""
","
