"trial_type","trial_index","time_elapsed","internal_node_id","task_version","subject_id","interactions","blur_events","focus_events","fullscreenenter_events","fullscreenexit_events","success","view_history","rt","responses","num_errors","age","subject","participantId","rune","rune_set","hex","correct","choice","accuracy","outcome","keys","total_keys","block","practice","value","sub","trial","stimulus","robot","valence","action","sham"
"pavlovia","0","11","0.0-0.0","battery-v0.2","","""event"",""trial"",""time""
""fullscreenenter"",""1"",""2326""
","
","
","""event"",""trial"",""time""
""fullscreenenter"",""1"",""2326""
","
","","","","","","","","","","","","","","","","","","","","","","","","","","",""
"fullscreen","1","3336","0.0-1.0","battery-v0.2","","""event"",""trial"",""time""
""fullscreenenter"",""1"",""2326""
","
","
","""event"",""trial"",""time""
""fullscreenenter"",""1"",""2326""
","
","true","","","","","","","","","","","","","","","","","","","","","","","","","",""
"pit-instructions","2","9032","0.0-2.0-0.0","battery-v0.2","","""event"",""trial"",""time""
""fullscreenenter"",""1"",""2326""
","
","
","""event"",""trial"",""time""
""fullscreenenter"",""1"",""2326""
","
","","[{""page_index"":0,""viewing_time"":5691.699999999255}]","5692.39999999851","","","","","","","","","","","","","","","","","","","","","","","",""
"pit-comprehension","3","13784","0.0-2.0-1.0-0.0","battery-v0.2","","""event"",""trial"",""time""
""fullscreenenter"",""1"",""2326""
","
","
","""event"",""trial"",""time""
""fullscreenenter"",""1"",""2326""
","
","","","4747.800000000745","[""shark""]","0","17","5130","3237","","","","","","","","","","","","","","","","","","",""
"pit-instructions","4","16995","0.0-2.0-1.0-1.0","battery-v0.2","","""event"",""trial"",""time""
""fullscreenenter"",""1"",""2326""
","
","
","""event"",""trial"",""time""
""fullscreenenter"",""1"",""2326""
","
","","[{""page_index"":0,""viewing_time"":3194.89999999851}]","3195.199999999255","","","","","","","","","","","","","","","","","","","","","","","",""
"pit-comprehension","5","20372","0.0-2.0-2.0-0.0","battery-v0.2","","""event"",""trial"",""time""
""fullscreenenter"",""1"",""2326""
","
","
","""event"",""trial"",""time""
""fullscreenenter"",""1"",""2326""
","
","","","3373.800000000745","[""tiger""]","0","17","5130","3237","","","","","","","","","","","","","","","","","","",""
"pit-instructions","6","23031","0.0-2.0-2.0-1.0","battery-v0.2","","""event"",""trial"",""time""
""fullscreenenter"",""1"",""2326""
","
","
","""event"",""trial"",""time""
""fullscreenenter"",""1"",""2326""
","
","","[{""page_index"":0,""viewing_time"":2655.5}]","2655.800000000745","","","","","","","","","","","","","","","","","","","","","","","",""
"pit-instructions","7","125845","0.0-2.0-3.0","battery-v0.2","","""event"",""trial"",""time""
""fullscreenenter"",""1"",""2326""
","
","
","""event"",""trial"",""time""
""fullscreenenter"",""1"",""2326""
","
","","[{""page_index"":0,""viewing_time"":8775.60000000149},{""page_index"":1,""viewing_time"":8127.5},{""page_index"":2,""viewing_time"":6761.79999999702},{""page_index"":3,""viewing_time"":5830.400000002235},{""page_index"":4,""viewing_time"":6640},{""page_index"":5,""viewing_time"":5638.699999999255},{""page_index"":6,""viewing_time"":6036.10000000149},{""page_index"":7,""viewing_time"":6307},{""page_index"":8,""viewing_time"":6821.79999999702},{""page_index"":9,""viewing_time"":10045.400000002235},{""page_index"":10,""viewing_time"":7143},{""page_index"":11,""viewing_time"":11780.699999999255},{""page_index"":12,""viewing_time"":6533},{""page_index"":13,""viewing_time"":6369.10000000149}]","102810.89999999851","","","","","","","","","","","","","","","","","","","","","","","",""
"pit-trial","8","130712","0.0-2.0-4.0-0.0","battery-v0.2","","""event"",""trial"",""time""
""fullscreenenter"",""1"",""2326""
","
","
","""event"",""trial"",""time""
""fullscreenenter"",""1"",""2326""
","
","","","-1","","","17","5130","3237","&#9784;","elianto","#FFFFF080"," ","-1","0","&#10060","[2909.300000000745]","1","0","0","","","","","","","",""
"pit-trial","9","135119","0.0-2.0-4.1-0.1","battery-v0.2","","""event"",""trial"",""time""
""fullscreenenter"",""1"",""2326""
","
","
","""event"",""trial"",""time""
""fullscreenenter"",""1"",""2326""
","
","","","1534.3999999985099","","","17","5130","3237","&#9784;","elianto","#FFFFF080"," "," ","1","&#10004","[2385.89999999851]","1","0","0","","","","","","","",""
"pit-trial","10","138866","0.0-2.0-4.2-0.2","battery-v0.2","","""event"",""trial"",""time""
""fullscreenenter"",""1"",""2326""
","
","
","""event"",""trial"",""time""
""fullscreenenter"",""1"",""2326""
","
","","","872","","","17","5130","3237","&#9784;","elianto","#FFFFF080"," "," ","1","&#10004","[1723.8999999985099]","1","0","0","","","","","","","",""
"pit-trial","11","142448","0.0-2.0-4.3-0.3","battery-v0.2","","""event"",""trial"",""time""
""fullscreenenter"",""1"",""2326""
","
","
","""event"",""trial"",""time""
""fullscreenenter"",""1"",""2326""
","
","","","718.1000000014901","","","17","5130","3237","&#9784;","elianto","#FFFFF080"," "," ","1","&#10004","[1575.6000000014901]","1","0","0","","","","","","","",""
"pit-trial","12","145753","0.0-2.0-4.4-0.4","battery-v0.2","","""event"",""trial"",""time""
""fullscreenenter"",""1"",""2326""
","
","
","""event"",""trial"",""time""
""fullscreenenter"",""1"",""2326""
","
","","","442.4000000022352","","","17","5130","3237","&#9784;","elianto","#FFFFF080"," "," ","1","&#10004","[1293.199999999255]","1","0","0","","","","","","","",""
"pit-instructions","13","168138","0.0-2.0-5.0","battery-v0.2","","""event"",""trial"",""time""
""fullscreenenter"",""1"",""2326""
","
","
","""event"",""trial"",""time""
""fullscreenenter"",""1"",""2326""
","
","","[{""page_index"":0,""viewing_time"":6047.099999997765},{""page_index"":1,""viewing_time"":5341.800000000745},{""page_index"":2,""viewing_time"":4871.300000000745},{""page_index"":3,""viewing_time"":6122.10000000149}]","22382.599999997765","","","","","","","","","","","","","","","","","","","","","","","",""
"pit-trial","14","173014","0.0-2.0-6.0-0.0","battery-v0.2","","""event"",""trial"",""time""
""fullscreenenter"",""1"",""2326""
","
","
","""event"",""trial"",""time""
""fullscreenenter"",""1"",""2326""
","
","","","-1","","","17","5130","3237","&#9854;","elianto","#FFFFF080","-1","-1","1","&#10004","[]","0","0","1","","","","","","","",""
"pit-trial","15","177899","0.0-2.0-6.1-0.1","battery-v0.2","","""event"",""trial"",""time""
""fullscreenenter"",""1"",""2326""
","
","
","""event"",""trial"",""time""
""fullscreenenter"",""1"",""2326""
","
","","","-1","","","17","5130","3237","&#9854;","elianto","#FFFFF080","-1","-1","1","&#10004","[]","0","0","1","","","","","","","",""
"pit-trial","16","182777","0.0-2.0-6.2-0.2","battery-v0.2","","""event"",""trial"",""time""
""fullscreenenter"",""1"",""2326""
","
","
","""event"",""trial"",""time""
""fullscreenenter"",""1"",""2326""
","
","","","-1","","","17","5130","3237","&#9854;","elianto","#FFFFF080","-1","-1","1","&#10004","[]","0","0","1","","","","","","","",""
"pit-trial","17","187664","0.0-2.0-6.3-0.3","battery-v0.2","","""event"",""trial"",""time""
""fullscreenenter"",""1"",""2326""
","
","
","""event"",""trial"",""time""
""fullscreenenter"",""1"",""2326""
","
","","","-1","","","17","5130","3237","&#9854;","elianto","#FFFFF080","-1","-1","1","&#10004","[]","0","0","1","","","","","","","",""
"pit-trial","18","192555","0.0-2.0-6.4-0.4","battery-v0.2","","""event"",""trial"",""time""
""fullscreenenter"",""1"",""2326""
","
","
","""event"",""trial"",""time""
""fullscreenenter"",""1"",""2326""
","
","","","-1","","","17","5130","3237","&#9854;","elianto","#FFFFF080","-1","-1","1","&#10004","[]","0","0","1","","","","","","","",""
"pit-instructions","19","313799","0.0-2.0-7.0","battery-v0.2","","""event"",""trial"",""time""
""fullscreenenter"",""1"",""2326""
","
","
","""event"",""trial"",""time""
""fullscreenenter"",""1"",""2326""
","
","","[{""page_index"":0,""viewing_time"":6867.300000000745},{""page_index"":1,""viewing_time"":7092.900000002235},{""page_index"":2,""viewing_time"":8525.099999997765},{""page_index"":3,""viewing_time"":6462.699999999255},{""page_index"":4,""viewing_time"":5778.10000000149},{""page_index"":5,""viewing_time"":5619.800000000745},{""page_index"":6,""viewing_time"":4668.599999997765},{""page_index"":7,""viewing_time"":7918.800000000745},{""page_index"":8,""viewing_time"":6793.699999999255},{""page_index"":9,""viewing_time"":5739.20000000298},{""page_index"":10,""viewing_time"":6949.79999999702},{""page_index"":11,""viewing_time"":4149.400000002235},{""page_index"":12,""viewing_time"":7749.599999997765},{""page_index"":13,""viewing_time"":6981.300000000745},{""page_index"":14,""viewing_time"":6735.5},{""page_index"":15,""viewing_time"":6832.10000000149},{""page_index"":16,""viewing_time"":7459.300000000745},{""page_index"":17,""viewing_time"":8916}]","121239.70000000298","","","","","","","","","","","","","","","","","","","","","","","",""
"pit-trial","20","317300","0.0-2.0-8.0-0.0","battery-v0.2","","""event"",""trial"",""time""
""fullscreenenter"",""1"",""2326""
","
","
","""event"",""trial"",""time""
""fullscreenenter"",""1"",""2326""
","
","","","625.4000000022352","","","17","5130","3237","&#9776;","elianto","#3366ff99"," "," ","1","+10","[1477.1000000014901]","1","0","1","","","","","","","",""
"pit-trial","21","320743","0.0-2.0-8.0-1.0","battery-v0.2","","""event"",""trial"",""time""
""fullscreenenter"",""1"",""2326""
","
","
","""event"",""trial"",""time""
""fullscreenenter"",""1"",""2326""
","
","","","572.7999999970198","","","17","5130","3237","&#9776;","elianto","#3366ff99"," "," ","1","+10","[1424.699999999255]","1","0","1","","","","","","","",""
"pit-trial","22","324037","0.0-2.0-8.0-2.0","battery-v0.2","","""event"",""trial"",""time""
""fullscreenenter"",""1"",""2326""
","
","
","""event"",""trial"",""time""
""fullscreenenter"",""1"",""2326""
","
","","","423.5","","","17","5130","3237","&#9776;","elianto","#3366ff99"," "," ","1","+10","[1276.4000000022352]","1","0","1","","","","","","","",""
"pit-trial","23","327272","0.0-2.0-8.0-3.0","battery-v0.2","","""event"",""trial"",""time""
""fullscreenenter"",""1"",""2326""
","
","
","""event"",""trial"",""time""
""fullscreenenter"",""1"",""2326""
","
","","","360.5","","","17","5130","3237","&#9776;","elianto","#3366ff99"," "," ","1","0","[1214.5]","1","0","1","","","","","","","",""
"pit-trial","24","330809","0.0-2.0-8.0-4.0","battery-v0.2","","""event"",""trial"",""time""
""fullscreenenter"",""1"",""2326""
","
","
","""event"",""trial"",""time""
""fullscreenenter"",""1"",""2326""
","
","","","663.8999999985099","","","17","5130","3237","&#9776;","elianto","#3366ff99"," "," ","1","+10","[1516.0999999977648]","1","0","1","","","","","","","",""
"pit-trial","25","334502","0.0-2.0-8.1-0.1","battery-v0.2","","""event"",""trial"",""time""
""fullscreenenter"",""1"",""2326""
","
","
","""event"",""trial"",""time""
""fullscreenenter"",""1"",""2326""
","
","","","825.8999999985099","","","17","5130","3237","&#9776;","elianto","#3366ff99"," "," ","1","+10","[1680.3999999985099]","1","0","1","","","","","","","",""
"pit-trial","26","338150","0.0-2.0-8.1-1.1","battery-v0.2","","""event"",""trial"",""time""
""fullscreenenter"",""1"",""2326""
","
","
","""event"",""trial"",""time""
""fullscreenenter"",""1"",""2326""
","
","","","777.3000000007451","","","17","5130","3237","&#9776;","elianto","#3366ff99"," "," ","1","+10","[1632.0999999977648]","1","0","1","","","","","","","",""
"pit-trial","27","341542","0.0-2.0-8.1-2.1","battery-v0.2","","""event"",""trial"",""time""
""fullscreenenter"",""1"",""2326""
","
","
","""event"",""trial"",""time""
""fullscreenenter"",""1"",""2326""
","
","","","519.8000000007451","","","17","5130","3237","&#9776;","elianto","#3366ff99"," "," ","1","+10","[1372.3999999985099]","1","0","1","","","","","","","",""
"pit-trial","28","344918","0.0-2.0-8.1-3.1","battery-v0.2","","""event"",""trial"",""time""
""fullscreenenter"",""1"",""2326""
","
","
","""event"",""trial"",""time""
""fullscreenenter"",""1"",""2326""
","
","","","516.8000000007451","","","17","5130","3237","&#9776;","elianto","#3366ff99"," "," ","1","0","[1368]","1","0","1","","","","","","","",""
"pit-trial","29","348230","0.0-2.0-8.1-4.1","battery-v0.2","","""event"",""trial"",""time""
""fullscreenenter"",""1"",""2326""
","
","
","""event"",""trial"",""time""
""fullscreenenter"",""1"",""2326""
","
","","","449.80000000074506","","","17","5130","3237","&#9776;","elianto","#3366ff99"," "," ","1","+10","[1303.8999999985099]","1","0","1","","","","","","","",""
"pit-trial","30","351526","0.0-2.0-8.2-0.2","battery-v0.2","","""event"",""trial"",""time""
""fullscreenenter"",""1"",""2326""
","
","
","""event"",""trial"",""time""
""fullscreenenter"",""1"",""2326""
","
","","","435.4000000022352","","","17","5130","3237","&#9776;","elianto","#3366ff99"," "," ","1","+10","[1289]","1","0","1","","","","","","","",""
"pit-trial","31","354789","0.0-2.0-8.2-1.2","battery-v0.2","","""event"",""trial"",""time""
""fullscreenenter"",""1"",""2326""
","
","
","""event"",""trial"",""time""
""fullscreenenter"",""1"",""2326""
","
","","","406.30000000074506","","","17","5130","3237","&#9776;","elianto","#3366ff99"," "," ","1","+10","[1256.9000000022352]","1","0","1","","","","","","","",""
"pit-trial","32","358110","0.0-2.0-8.2-2.2","battery-v0.2","","""event"",""trial"",""time""
""fullscreenenter"",""1"",""2326""
","
","
","""event"",""trial"",""time""
""fullscreenenter"",""1"",""2326""
","
","","","466.3999999985099","","","17","5130","3237","&#9776;","elianto","#3366ff99"," "," ","1","+10","[1316.699999999255]","1","0","1","","","","","","","",""
"pit-trial","33","361341","0.0-2.0-8.2-3.2","battery-v0.2","","""event"",""trial"",""time""
""fullscreenenter"",""1"",""2326""
","
","
","""event"",""trial"",""time""
""fullscreenenter"",""1"",""2326""
","
","","","370.9000000022352","","","17","5130","3237","&#9776;","elianto","#3366ff99"," "," ","1","0","[1224.6000000014901]","1","0","1","","","","","","","",""
"pit-trial","34","364574","0.0-2.0-8.2-4.2","battery-v0.2","","""event"",""trial"",""time""
""fullscreenenter"",""1"",""2326""
","
","
","""event"",""trial"",""time""
""fullscreenenter"",""1"",""2326""
","
","","","371.3999999985099","","","17","5130","3237","&#9776;","elianto","#3366ff99"," "," ","1","+10","[1226.5]","1","0","1","","","","","","","",""
"call-function","35","364576","0.0-2.0-9.0","battery-v0.2","","""event"",""trial"",""time""
""fullscreenenter"",""1"",""2326""
","
","
","""event"",""trial"",""time""
""fullscreenenter"",""1"",""2326""
","
","","","","","","","","","","","","","","","","","","","","","","","","","","",""
"pit-instructions","36","401470","0.0-2.0-10.0","battery-v0.2","","""event"",""trial"",""time""
""fullscreenenter"",""1"",""2326""
","
","
","""event"",""trial"",""time""
""fullscreenenter"",""1"",""2326""
","
","","[{""page_index"":0,""viewing_time"":5496.300000000745},{""page_index"":1,""viewing_time"":6503.699999999255},{""page_index"":2,""viewing_time"":9017.800000000745},{""page_index"":3,""viewing_time"":8517.599999997765},{""page_index"":4,""viewing_time"":7357.900000002235}]","36893.699999999255","","","","","","","","","","","","","","","","","","","","","","","",""
"pit-trial","37","406347","0.0-2.0-11.0-0.0","battery-v0.2","","""event"",""trial"",""time""
""fullscreenenter"",""1"",""2326""
","
","
","""event"",""trial"",""time""
""fullscreenenter"",""1"",""2326""
","
","","","-1","","","17","5130","3237","&#9761;","elianto","#3366ff99","-1","-1","1","+10","[]","0","0","2","","","","","","","",""
"pit-trial","38","411213","0.0-2.0-11.0-1.0","battery-v0.2","","""event"",""trial"",""time""
""fullscreenenter"",""1"",""2326""
","
","
","""event"",""trial"",""time""
""fullscreenenter"",""1"",""2326""
","
","","","-1","","","17","5130","3237","&#9761;","elianto","#3366ff99","-1","-1","1","+10","[]","0","0","2","","","","","","","",""
"pit-trial","39","416099","0.0-2.0-11.0-2.0","battery-v0.2","","""event"",""trial"",""time""
""fullscreenenter"",""1"",""2326""
","
","
","""event"",""trial"",""time""
""fullscreenenter"",""1"",""2326""
","
","","","-1","","","17","5130","3237","&#9761;","elianto","#3366ff99","-1","-1","1","+10","[]","0","0","2","","","","","","","",""
"pit-trial","40","420979","0.0-2.0-11.0-3.0","battery-v0.2","","""event"",""trial"",""time""
""fullscreenenter"",""1"",""2326""
","
","
","""event"",""trial"",""time""
""fullscreenenter"",""1"",""2326""
","
","","","-1","","","17","5130","3237","&#9761;","elianto","#3366ff99","-1","-1","1","0","[]","0","0","2","","","","","","","",""
"pit-trial","41","425854","0.0-2.0-11.0-4.0","battery-v0.2","","""event"",""trial"",""time""
""fullscreenenter"",""1"",""2326""
","
","
","""event"",""trial"",""time""
""fullscreenenter"",""1"",""2326""
","
","","","-1","","","17","5130","3237","&#9761;","elianto","#3366ff99","-1","-1","1","+10","[]","0","0","2","","","","","","","",""
"pit-trial","42","430725","0.0-2.0-11.1-0.1","battery-v0.2","","""event"",""trial"",""time""
""fullscreenenter"",""1"",""2326""
","
","
","""event"",""trial"",""time""
""fullscreenenter"",""1"",""2326""
","
","","","-1","","","17","5130","3237","&#9761;","elianto","#3366ff99","-1","-1","1","+10","[]","0","0","2","","","","","","","",""
"pit-trial","43","435589","0.0-2.0-11.1-1.1","battery-v0.2","","""event"",""trial"",""time""
""fullscreenenter"",""1"",""2326""
","
","
","""event"",""trial"",""time""
""fullscreenenter"",""1"",""2326""
","
","","","-1","","","17","5130","3237","&#9761;","elianto","#3366ff99","-1","-1","1","+10","[]","0","0","2","","","","","","","",""
"pit-trial","44","440460","0.0-2.0-11.1-2.1","battery-v0.2","","""event"",""trial"",""time""
""fullscreenenter"",""1"",""2326""
","
","
","""event"",""trial"",""time""
""fullscreenenter"",""1"",""2326""
","
","","","-1","","","17","5130","3237","&#9761;","elianto","#3366ff99","-1","-1","1","+10","[]","0","0","2","","","","","","","",""
"pit-trial","45","445325","0.0-2.0-11.1-3.1","battery-v0.2","","""event"",""trial"",""time""
""fullscreenenter"",""1"",""2326""
","
","
","""event"",""trial"",""time""
""fullscreenenter"",""1"",""2326""
","
","","","-1","","","17","5130","3237","&#9761;","elianto","#3366ff99","-1","-1","1","0","[]","0","0","2","","","","","","","",""
"pit-trial","46","450189","0.0-2.0-11.1-4.1","battery-v0.2","","""event"",""trial"",""time""
""fullscreenenter"",""1"",""2326""
","
","
","""event"",""trial"",""time""
""fullscreenenter"",""1"",""2326""
","
","","","-1","","","17","5130","3237","&#9761;","elianto","#3366ff99","-1","-1","1","+10","[]","0","0","2","","","","","","","",""
"pit-trial","47","455053","0.0-2.0-11.2-0.2","battery-v0.2","","""event"",""trial"",""time""
""fullscreenenter"",""1"",""2326""
","
","
","""event"",""trial"",""time""
""fullscreenenter"",""1"",""2326""
","
","","","-1","","","17","5130","3237","&#9761;","elianto","#3366ff99","-1","-1","1","+10","[]","0","0","2","","","","","","","",""
"pit-trial","48","459917","0.0-2.0-11.2-1.2","battery-v0.2","","""event"",""trial"",""time""
""fullscreenenter"",""1"",""2326""
","
","
","""event"",""trial"",""time""
""fullscreenenter"",""1"",""2326""
","
","","","-1","","","17","5130","3237","&#9761;","elianto","#3366ff99","-1","-1","1","+10","[]","0","0","2","","","","","","","",""
"pit-trial","49","464781","0.0-2.0-11.2-2.2","battery-v0.2","","""event"",""trial"",""time""
""fullscreenenter"",""1"",""2326""
","
","
","""event"",""trial"",""time""
""fullscreenenter"",""1"",""2326""
","
","","","-1","","","17","5130","3237","&#9761;","elianto","#3366ff99","-1","-1","1","+10","[]","0","0","2","","","","","","","",""
"pit-trial","50","469653","0.0-2.0-11.2-3.2","battery-v0.2","","""event"",""trial"",""time""
""fullscreenenter"",""1"",""2326""
","
","
","""event"",""trial"",""time""
""fullscreenenter"",""1"",""2326""
","
","","","-1","","","17","5130","3237","&#9761;","elianto","#3366ff99","-1","-1","1","0","[]","0","0","2","","","","","","","",""
"pit-trial","51","474518","0.0-2.0-11.2-4.2","battery-v0.2","","""event"",""trial"",""time""
""fullscreenenter"",""1"",""2326""
","
","
","""event"",""trial"",""time""
""fullscreenenter"",""1"",""2326""
","
","","","-1","","","17","5130","3237","&#9761;","elianto","#3366ff99","-1","-1","1","+10","[]","0","0","2","","","","","","","",""
"pit-trial","52","479381","0.0-2.0-11.3-0.3","battery-v0.2","","""event"",""trial"",""time""
""fullscreenenter"",""1"",""2326""
","
","
","""event"",""trial"",""time""
""fullscreenenter"",""1"",""2326""
","
","","","-1","","","17","5130","3237","&#9761;","elianto","#3366ff99","-1","-1","1","+10","[]","0","0","2","","","","","","","",""
"pit-trial","53","484246","0.0-2.0-11.3-1.3","battery-v0.2","","""event"",""trial"",""time""
""fullscreenenter"",""1"",""2326""
","
","
","""event"",""trial"",""time""
""fullscreenenter"",""1"",""2326""
","
","","","-1","","","17","5130","3237","&#9761;","elianto","#3366ff99","-1","-1","1","+10","[]","0","0","2","","","","","","","",""
"pit-trial","54","489109","0.0-2.0-11.3-2.3","battery-v0.2","","""event"",""trial"",""time""
""fullscreenenter"",""1"",""2326""
","
","
","""event"",""trial"",""time""
""fullscreenenter"",""1"",""2326""
","
","","","-1","","","17","5130","3237","&#9761;","elianto","#3366ff99","-1","-1","1","+10","[]","0","0","2","","","","","","","",""
"pit-trial","55","493973","0.0-2.0-11.3-3.3","battery-v0.2","","""event"",""trial"",""time""
""fullscreenenter"",""1"",""2326""
","
","
","""event"",""trial"",""time""
""fullscreenenter"",""1"",""2326""
","
","","","-1","","","17","5130","3237","&#9761;","elianto","#3366ff99","-1","-1","1","0","[]","0","0","2","","","","","","","",""
"pit-trial","56","498852","0.0-2.0-11.3-4.3","battery-v0.2","","""event"",""trial"",""time""
""fullscreenenter"",""1"",""2326""
","
","
","""event"",""trial"",""time""
""fullscreenenter"",""1"",""2326""
","
","","","-1","","","17","5130","3237","&#9761;","elianto","#3366ff99","-1","-1","1","+10","[]","0","0","2","","","","","","","",""
"call-function","57","498853","0.0-2.0-12.0","battery-v0.2","","""event"",""trial"",""time""
""fullscreenenter"",""1"",""2326""
","
","
","""event"",""trial"",""time""
""fullscreenenter"",""1"",""2326""
","
","","","","","","","","","","","","","","","","","","","","","","","","","","",""
"pit-instructions","58","534394","0.0-2.0-13.0","battery-v0.2","","""event"",""trial"",""time""
""fullscreenenter"",""1"",""2326""
","
","
","""event"",""trial"",""time""
""fullscreenenter"",""1"",""2326""
","
","","[{""page_index"":0,""viewing_time"":4960.199999999255},{""page_index"":1,""viewing_time"":6572.699999999255},{""page_index"":2,""viewing_time"":4448.10000000149},{""page_index"":3,""viewing_time"":12853.60000000149},{""page_index"":4,""viewing_time"":6705.5}]","35540.300000000745","","","","","","","","","","","","","","","","","","","","","","","",""
"pit-trial","59","538195","0.0-2.0-14.0-0.0","battery-v0.2","","""event"",""trial"",""time""
""fullscreenenter"",""1"",""2326""
","
","
","""event"",""trial"",""time""
""fullscreenenter"",""1"",""2326""
","
","","","939.6000000014901","","","17","5130","3237","&#9826;","elianto","#f73b6a7A","-1"," ","0","-10","[1790.3999999985099]","1","0","3","","","","","","","",""
"pit-trial","60","543071","0.0-2.0-14.0-1.0","battery-v0.2","","""event"",""trial"",""time""
""fullscreenenter"",""1"",""2326""
","
","
","""event"",""trial"",""time""
""fullscreenenter"",""1"",""2326""
","
","","","-1","","","17","5130","3237","&#9826;","elianto","#f73b6a7A","-1","-1","1","0","[]","0","0","3","","","","","","","",""
"pit-trial","61","547946","0.0-2.0-14.0-2.0","battery-v0.2","","""event"",""trial"",""time""
""fullscreenenter"",""1"",""2326""
","
","
","""event"",""trial"",""time""
""fullscreenenter"",""1"",""2326""
","
","","","-1","","","17","5130","3237","&#9826;","elianto","#f73b6a7A","-1","-1","1","0","[]","0","0","3","","","","","","","",""
"pit-trial","62","552839","0.0-2.0-14.0-3.0","battery-v0.2","","""event"",""trial"",""time""
""fullscreenenter"",""1"",""2326""
","
","
","""event"",""trial"",""time""
""fullscreenenter"",""1"",""2326""
","
","","","-1","","","17","5130","3237","&#9826;","elianto","#f73b6a7A","-1","-1","1","-10","[]","0","0","3","","","","","","","",""
"pit-trial","63","557712","0.0-2.0-14.0-4.0","battery-v0.2","","""event"",""trial"",""time""
""fullscreenenter"",""1"",""2326""
","
","
","""event"",""trial"",""time""
""fullscreenenter"",""1"",""2326""
","
","","","-1","","","17","5130","3237","&#9826;","elianto","#f73b6a7A","-1","-1","1","0","[]","0","0","3","","","","","","","",""
"pit-trial","64","562581","0.0-2.0-14.1-0.1","battery-v0.2","","""event"",""trial"",""time""
""fullscreenenter"",""1"",""2326""
","
","
","""event"",""trial"",""time""
""fullscreenenter"",""1"",""2326""
","
","","","-1","","","17","5130","3237","&#9826;","elianto","#f73b6a7A","-1","-1","1","0","[]","0","0","3","","","","","","","",""
"pit-trial","65","567445","0.0-2.0-14.1-1.1","battery-v0.2","","""event"",""trial"",""time""
""fullscreenenter"",""1"",""2326""
","
","
","""event"",""trial"",""time""
""fullscreenenter"",""1"",""2326""
","
","","","-1","","","17","5130","3237","&#9826;","elianto","#f73b6a7A","-1","-1","1","0","[]","0","0","3","","","","","","","",""
"pit-trial","66","572309","0.0-2.0-14.1-2.1","battery-v0.2","","""event"",""trial"",""time""
""fullscreenenter"",""1"",""2326""
","
","
","""event"",""trial"",""time""
""fullscreenenter"",""1"",""2326""
","
","","","-1","","","17","5130","3237","&#9826;","elianto","#f73b6a7A","-1","-1","1","0","[]","0","0","3","","","","","","","",""
"pit-trial","67","577172","0.0-2.0-14.1-3.1","battery-v0.2","","""event"",""trial"",""time""
""fullscreenenter"",""1"",""2326""
","
","
","""event"",""trial"",""time""
""fullscreenenter"",""1"",""2326""
","
","","","-1","","","17","5130","3237","&#9826;","elianto","#f73b6a7A","-1","-1","1","-10","[]","0","0","3","","","","","","","",""
"pit-trial","68","582037","0.0-2.0-14.1-4.1","battery-v0.2","","""event"",""trial"",""time""
""fullscreenenter"",""1"",""2326""
","
","
","""event"",""trial"",""time""
""fullscreenenter"",""1"",""2326""
","
","","","-1","","","17","5130","3237","&#9826;","elianto","#f73b6a7A","-1","-1","1","0","[]","0","0","3","","","","","","","",""
"pit-trial","69","586901","0.0-2.0-14.2-0.2","battery-v0.2","","""event"",""trial"",""time""
""fullscreenenter"",""1"",""2326""
","
","
","""event"",""trial"",""time""
""fullscreenenter"",""1"",""2326""
","
","","","-1","","","17","5130","3237","&#9826;","elianto","#f73b6a7A","-1","-1","1","0","[]","0","0","3","","","","","","","",""
"pit-trial","70","591765","0.0-2.0-14.2-1.2","battery-v0.2","","""event"",""trial"",""time""
""fullscreenenter"",""1"",""2326""
","
","
","""event"",""trial"",""time""
""fullscreenenter"",""1"",""2326""
","
","","","-1","","","17","5130","3237","&#9826;","elianto","#f73b6a7A","-1","-1","1","0","[]","0","0","3","","","","","","","",""
"pit-trial","71","596630","0.0-2.0-14.2-2.2","battery-v0.2","","""event"",""trial"",""time""
""fullscreenenter"",""1"",""2326""
","
","
","""event"",""trial"",""time""
""fullscreenenter"",""1"",""2326""
","
","","","-1","","","17","5130","3237","&#9826;","elianto","#f73b6a7A","-1","-1","1","0","[]","0","0","3","","","","","","","",""
"pit-trial","72","601494","0.0-2.0-14.2-3.2","battery-v0.2","","""event"",""trial"",""time""
""fullscreenenter"",""1"",""2326""
","
","
","""event"",""trial"",""time""
""fullscreenenter"",""1"",""2326""
","
","","","-1","","","17","5130","3237","&#9826;","elianto","#f73b6a7A","-1","-1","1","-10","[]","0","0","3","","","","","","","",""
"pit-trial","73","606358","0.0-2.0-14.2-4.2","battery-v0.2","","""event"",""trial"",""time""
""fullscreenenter"",""1"",""2326""
","
","
","""event"",""trial"",""time""
""fullscreenenter"",""1"",""2326""
","
","","","-1","","","17","5130","3237","&#9826;","elianto","#f73b6a7A","-1","-1","1","0","[]","0","0","3","","","","","","","",""
"pit-trial","74","611222","0.0-2.0-14.3-0.3","battery-v0.2","","""event"",""trial"",""time""
""fullscreenenter"",""1"",""2326""
","
","
","""event"",""trial"",""time""
""fullscreenenter"",""1"",""2326""
","
","","","-1","","","17","5130","3237","&#9826;","elianto","#f73b6a7A","-1","-1","1","0","[]","0","0","3","","","","","","","",""
"pit-trial","75","616086","0.0-2.0-14.3-1.3","battery-v0.2","","""event"",""trial"",""time""
""fullscreenenter"",""1"",""2326""
","
","
","""event"",""trial"",""time""
""fullscreenenter"",""1"",""2326""
","
","","","-1","","","17","5130","3237","&#9826;","elianto","#f73b6a7A","-1","-1","1","0","[]","0","0","3","","","","","","","",""
"pit-trial","76","620949","0.0-2.0-14.3-2.3","battery-v0.2","","""event"",""trial"",""time""
""fullscreenenter"",""1"",""2326""
","
","
","""event"",""trial"",""time""
""fullscreenenter"",""1"",""2326""
","
","","","-1","","","17","5130","3237","&#9826;","elianto","#f73b6a7A","-1","-1","1","0","[]","0","0","3","","","","","","","",""
"pit-trial","77","625814","0.0-2.0-14.3-3.3","battery-v0.2","","""event"",""trial"",""time""
""fullscreenenter"",""1"",""2326""
","
","
","""event"",""trial"",""time""
""fullscreenenter"",""1"",""2326""
","
","","","-1","","","17","5130","3237","&#9826;","elianto","#f73b6a7A","-1","-1","1","-10","[]","0","0","3","","","","","","","",""
"pit-trial","78","630678","0.0-2.0-14.3-4.3","battery-v0.2","","""event"",""trial"",""time""
""fullscreenenter"",""1"",""2326""
","
","
","""event"",""trial"",""time""
""fullscreenenter"",""1"",""2326""
","
","","","-1","","","17","5130","3237","&#9826;","elianto","#f73b6a7A","-1","-1","1","0","[]","0","0","3","","","","","","","",""
"call-function","79","630679","0.0-2.0-15.0","battery-v0.2","","""event"",""trial"",""time""
""fullscreenenter"",""1"",""2326""
","
","
","""event"",""trial"",""time""
""fullscreenenter"",""1"",""2326""
","
","","","","","","","","","","","","","","","","","","","","","","","","","","",""
"pit-instructions","80","656826","0.0-2.0-16.0","battery-v0.2","","""event"",""trial"",""time""
""fullscreenenter"",""1"",""2326""
","
","
","""event"",""trial"",""time""
""fullscreenenter"",""1"",""2326""
","
","","[{""page_index"":0,""viewing_time"":7882},{""page_index"":1,""viewing_time"":9648.5},{""page_index"":2,""viewing_time"":4258.699999999255},{""page_index"":3,""viewing_time"":4357}]","26146.599999997765","","","","","","","","","","","","","","","","","","","","","","","",""
"pit-trial","81","660129","0.0-2.0-17.0-0.0","battery-v0.2","","""event"",""trial"",""time""
""fullscreenenter"",""1"",""2326""
","
","
","""event"",""trial"",""time""
""fullscreenenter"",""1"",""2326""
","
","","","424.69999999925494","","","17","5130","3237","&#9789;","elianto","#f73b6a7A"," "," ","1","0","[1282.300000000745]","1","0","4","","","","","","","",""
"pit-trial","82","663229","0.0-2.0-17.0-1.0","battery-v0.2","","""event"",""trial"",""time""
""fullscreenenter"",""1"",""2326""
","
","
","""event"",""trial"",""time""
""fullscreenenter"",""1"",""2326""
","
","","","234.89999999850988","","","17","5130","3237","&#9789;","elianto","#f73b6a7A"," "," ","1","0","[1093.199999999255]","1","0","4","","","","","","","",""
"pit-trial","83","666241","0.0-2.0-17.0-2.0","battery-v0.2","","""event"",""trial"",""time""
""fullscreenenter"",""1"",""2326""
","
","
","""event"",""trial"",""time""
""fullscreenenter"",""1"",""2326""
","
","","","142","","","17","5130","3237","&#9789;","elianto","#f73b6a7A"," "," ","1","0","[995.6000000014901,2802.400000002235,2949.10000000149]","3","0","4","","","","","","","",""
"pit-trial","84","669177","0.0-2.0-17.0-3.0","battery-v0.2","","""event"",""trial"",""time""
""fullscreenenter"",""1"",""2326""
","
","
","""event"",""trial"",""time""
""fullscreenenter"",""1"",""2326""
","
","","","57.30000000074506","","","17","5130","3237","&#9789;","elianto","#f73b6a7A"," "," ","1","-10","[88,263.19999999925494,428.5,605.8000000007451,767.4000000022352,916.3000000007451,1071.5,2064,2232.199999999255,2423.400000002235,2608.699999999255,2793.5]","12","0","4","","","","","","","",""
"pit-trial","85","672087","0.0-2.0-17.0-4.0","battery-v0.2","","""event"",""trial"",""time""
""fullscreenenter"",""1"",""2326""
","
","
","""event"",""trial"",""time""
""fullscreenenter"",""1"",""2326""
","
","","","40.899999998509884","","","17","5130","3237","&#9789;","elianto","#f73b6a7A"," "," ","1","0","[35.80000000074506,233.5,375.30000000074506,509.30000000074506,699.9000000022352,896.1000000014901,1065.1000000014901,1239,1436.800000000745,1621.300000000745,2181,2524.2000000029802,2868.900000002235]","13","0","4","","","","","","","",""
"pit-trial","86","675333","0.0-2.0-17.1-0.1","battery-v0.2","","""event"",""trial"",""time""
""fullscreenenter"",""1"",""2326""
","
","
","""event"",""trial"",""time""
""fullscreenenter"",""1"",""2326""
","
","","","385.6000000014901","","","17","5130","3237","&#9789;","elianto","#f73b6a7A"," "," ","1","0","[300.0999999977648,1238.199999999255]","2","0","4","","","","","","","",""
"pit-trial","87","678383","0.0-2.0-17.1-1.1","battery-v0.2","","""event"",""trial"",""time""
""fullscreenenter"",""1"",""2326""
","
","
","""event"",""trial"",""time""
""fullscreenenter"",""1"",""2326""
","
","","","180.5","","","17","5130","3237","&#9789;","elianto","#f73b6a7A"," "," ","1","0","[1033.800000000745]","1","0","4","","","","","","","",""
"pit-trial","88","681554","0.0-2.0-17.1-2.1","battery-v0.2","","""event"",""trial"",""time""
""fullscreenenter"",""1"",""2326""
","
","
","""event"",""trial"",""time""
""fullscreenenter"",""1"",""2326""
","
","","","308.5","","","17","5130","3237","&#9789;","elianto","#f73b6a7A"," "," ","1","0","[1161.0999999977648]","1","0","4","","","","","","","",""
"pit-trial","89","684745","0.0-2.0-17.1-3.1","battery-v0.2","","""event"",""trial"",""time""
""fullscreenenter"",""1"",""2326""
","
","
","""event"",""trial"",""time""
""fullscreenenter"",""1"",""2326""
","
","","","317.3999999985099","","","17","5130","3237","&#9789;","elianto","#f73b6a7A"," "," ","1","-10","[1174.7000000029802]","1","0","4","","","","","","","",""
"pit-trial","90","687773","0.0-2.0-17.1-4.1","battery-v0.2","","""event"",""trial"",""time""
""fullscreenenter"",""1"",""2326""
","
","
","""event"",""trial"",""time""
""fullscreenenter"",""1"",""2326""
","
","","","167.69999999925494","","","17","5130","3237","&#9789;","elianto","#f73b6a7A"," "," ","1","0","[1018.4000000022352]","1","0","4","","","","","","","",""
"pit-trial","91","690732","0.0-2.0-17.2-0.2","battery-v0.2","","""event"",""trial"",""time""
""fullscreenenter"",""1"",""2326""
","
","
","""event"",""trial"",""time""
""fullscreenenter"",""1"",""2326""
","
","","","98.19999999925494","","","17","5130","3237","&#9789;","elianto","#f73b6a7A"," "," ","1","0","[950.8000000007451]","1","0","4","","","","","","","",""
"pit-trial","92","693742","0.0-2.0-17.2-1.2","battery-v0.2","","""event"",""trial"",""time""
""fullscreenenter"",""1"",""2326""
","
","
","""event"",""trial"",""time""
""fullscreenenter"",""1"",""2326""
","
","","","144","","","17","5130","3237","&#9789;","elianto","#f73b6a7A"," "," ","1","0","[999.1000000014901]","1","0","4","","","","","","","",""
"pit-trial","93","696950","0.0-2.0-17.2-2.2","battery-v0.2","","""event"",""trial"",""time""
""fullscreenenter"",""1"",""2326""
","
","
","""event"",""trial"",""time""
""fullscreenenter"",""1"",""2326""
","
","","","349.30000000074506","","","17","5130","3237","&#9789;","elianto","#f73b6a7A"," "," ","1","0","[1199.9000000022352]","1","0","4","","","","","","","",""
"pit-trial","94","700061","0.0-2.0-17.2-3.2","battery-v0.2","","""event"",""trial"",""time""
""fullscreenenter"",""1"",""2326""
","
","
","""event"",""trial"",""time""
""fullscreenenter"",""1"",""2326""
","
","","","251.90000000223517","","","17","5130","3237","&#9789;","elianto","#f73b6a7A"," "," ","1","-10","[1105.6000000014901]","1","0","4","","","","","","","",""
"pit-trial","95","703205","0.0-2.0-17.2-4.2","battery-v0.2","","""event"",""trial"",""time""
""fullscreenenter"",""1"",""2326""
","
","
","""event"",""trial"",""time""
""fullscreenenter"",""1"",""2326""
","
","","","285.80000000074506","","","17","5130","3237","&#9789;","elianto","#f73b6a7A"," "," ","1","0","[1140.2000000029802]","1","0","4","","","","","","","",""
"pit-trial","96","706437","0.0-2.0-17.3-0.3","battery-v0.2","","""event"",""trial"",""time""
""fullscreenenter"",""1"",""2326""
","
","
","""event"",""trial"",""time""
""fullscreenenter"",""1"",""2326""
","
","","","375.5","","","17","5130","3237","&#9789;","elianto","#f73b6a7A"," "," ","1","0","[1226.2999999970198]","1","0","4","","","","","","","",""
"pit-trial","97","709541","0.0-2.0-17.3-1.3","battery-v0.2","","""event"",""trial"",""time""
""fullscreenenter"",""1"",""2326""
","
","
","""event"",""trial"",""time""
""fullscreenenter"",""1"",""2326""
","
","","","244.19999999925494","","","17","5130","3237","&#9789;","elianto","#f73b6a7A"," "," ","1","0","[1097]","1","0","4","","","","","","","",""
"pit-trial","98","712717","0.0-2.0-17.3-2.3","battery-v0.2","","""event"",""trial"",""time""
""fullscreenenter"",""1"",""2326""
","
","
","""event"",""trial"",""time""
""fullscreenenter"",""1"",""2326""
","
","","","313.1000000014901","","","17","5130","3237","&#9789;","elianto","#f73b6a7A"," "," ","1","0","[1168.300000000745]","1","0","4","","","","","","","",""
"pit-trial","99","716077","0.0-2.0-17.3-3.3","battery-v0.2","","""event"",""trial"",""time""
""fullscreenenter"",""1"",""2326""
","
","
","""event"",""trial"",""time""
""fullscreenenter"",""1"",""2326""
","
","","","496.3999999985099","","","17","5130","3237","&#9789;","elianto","#f73b6a7A"," "," ","1","-10","[1349.800000000745]","1","0","4","","","","","","","",""
"pit-trial","100","719245","0.0-2.0-17.3-4.3","battery-v0.2","","""event"",""trial"",""time""
""fullscreenenter"",""1"",""2326""
","
","
","""event"",""trial"",""time""
""fullscreenenter"",""1"",""2326""
","
","","","303.70000000298023","","","17","5130","3237","&#9789;","elianto","#f73b6a7A"," "," ","1","0","[1159.300000000745]","1","0","4","","","","","","","",""
"call-function","101","719247","0.0-2.0-18.0","battery-v0.2","","""event"",""trial"",""time""
""fullscreenenter"",""1"",""2326""
","
","
","""event"",""trial"",""time""
""fullscreenenter"",""1"",""2326""
","
","","","","","","","","","","","","","","","","","","","","","","","","","","",""
"pit-instructions","102","789283","0.0-2.0-19.0","battery-v0.2","","""event"",""trial"",""time""
""fullscreenenter"",""1"",""2326""
","
","
","""event"",""trial"",""time""
""fullscreenenter"",""1"",""2326""
","
","","[{""page_index"":0,""viewing_time"":7793.099999997765},{""page_index"":1,""viewing_time"":6844.60000000149},{""page_index"":2,""viewing_time"":12508.199999999255},{""page_index"":3,""viewing_time"":7756.699999999255},{""page_index"":4,""viewing_time"":6156.199999999255},{""page_index"":5,""viewing_time"":9149.20000000298},{""page_index"":6,""viewing_time"":9279.79999999702},{""page_index"":7,""viewing_time"":6633.900000002235},{""page_index"":8,""viewing_time"":3913.300000000745}]","70035.5","","","","","","","","","","","","","","","","","","","","","","","",""
"pit-comprehension","103","794507","0.0-2.0-20.0-0.0","battery-v0.2","","""event"",""trial"",""time""
""fullscreenenter"",""1"",""2326""
","
","
","""event"",""trial"",""time""
""fullscreenenter"",""1"",""2326""
","
","","","5219.599999997765","[""SPACE""]","0","17","5130","3237","","","","","","","","","","","","","","","","","","",""
"pit-instructions","104","797164","0.0-2.0-20.0-1.0","battery-v0.2","","""event"",""trial"",""time""
""fullscreenenter"",""1"",""2326""
","
","
","""event"",""trial"",""time""
""fullscreenenter"",""1"",""2326""
","
","","[{""page_index"":0,""viewing_time"":2608.699999999255}]","2609","","","","","","","","","","","","","","","","","","","","","","","",""
"pit-comprehension","105","802335","0.0-2.0-21.0-0.0","battery-v0.2","","""event"",""trial"",""time""
""fullscreenenter"",""1"",""2326""
","
","
","""event"",""trial"",""time""
""fullscreenenter"",""1"",""2326""
","
","","","5167.900000002235","[""10""]","0","17","5130","3237","","","","","","","","","","","","","","","","","","",""
"pit-instructions","106","807032","0.0-2.0-21.0-1.0","battery-v0.2","","""event"",""trial"",""time""
""fullscreenenter"",""1"",""2326""
","
","
","""event"",""trial"",""time""
""fullscreenenter"",""1"",""2326""
","
","","[{""page_index"":0,""viewing_time"":4653.10000000149}]","4653.39999999851","","","","","","","","","","","","","","","","","","","","","","","",""
"pit-comprehension","107","816372","0.0-2.0-22.0-0.0","battery-v0.2","","""event"",""trial"",""time""
""fullscreenenter"",""1"",""2326""
","
","
","""event"",""trial"",""time""
""fullscreenenter"",""1"",""2326""
","
","","","9336.89999999851","[""0""]","0","17","5130","3237","","","","","","","","","","","","","","","","","","",""
"pit-instructions","108","823361","0.0-2.0-22.0-1.0","battery-v0.2","","""event"",""trial"",""time""
""fullscreenenter"",""1"",""2326""
","
","
","""event"",""trial"",""time""
""fullscreenenter"",""1"",""2326""
","
","","[{""page_index"":0,""viewing_time"":6940.599999997765}]","6940.800000000745","","","","","","","","","","","","","","","","","","","","","","","",""
"pit-comprehension","109","848751","0.0-2.0-23.0-0.0","battery-v0.2","","""event"",""trial"",""time""
""fullscreenenter"",""1"",""2326""
","
","
","""event"",""trial"",""time""
""fullscreenenter"",""1"",""2326""
","
","","","25387.20000000298","[""True""]","0","17","5130","3237","","","","","","","","","","","","","","","","","","",""
"pit-instructions","110","853971","0.0-2.0-23.0-1.0","battery-v0.2","","""event"",""trial"",""time""
""fullscreenenter"",""1"",""2326""
","
","
","""event"",""trial"",""time""
""fullscreenenter"",""1"",""2326""
","
","","[{""page_index"":0,""viewing_time"":5173.400000002235}]","5173.5","","","","","","","","","","","","","","","","","","","","","","","",""
"pit-comprehension","111","861396","0.0-2.0-24.0-0.0","battery-v0.2","","""event"",""trial"",""time""
""fullscreenenter"",""1"",""2326""
","
","
","""event"",""trial"",""time""
""fullscreenenter"",""1"",""2326""
","
","","","7420.699999999255","[""False""]","1","17","5130","3237","","","","","","","","","","","","","","","","","","",""
"pit-instructions","112","865031","0.0-2.0-24.0-1.0","battery-v0.2","","""event"",""trial"",""time""
""fullscreenenter"",""1"",""2326""
","
","
","""event"",""trial"",""time""
""fullscreenenter"",""1"",""2326""
","
","","[{""page_index"":0,""viewing_time"":3590.599999997765}]","3590.89999999851","","","","","","","","","","","","","","","","","","","","","","","",""
"pit-instructions","113","866109","0.0-2.0-24.0-2.0-0.0","battery-v0.2","","""event"",""trial"",""time""
""fullscreenenter"",""1"",""2326""
","
","
","""event"",""trial"",""time""
""fullscreenenter"",""1"",""2326""
","
","","[{""page_index"":0,""viewing_time"":1075.6000000014901}]","1075.800000000745","","","","","","","","","","","","","","","","","","","","","","","",""
"pit-comprehension","114","873556","0.0-2.0-24.1-0.1","battery-v0.2","","""event"",""trial"",""time""
""fullscreenenter"",""1"",""2326""
","
","
","""event"",""trial"",""time""
""fullscreenenter"",""1"",""2326""
","
","","","7445.10000000149","[""True""]","0","17","5130","3237","","","","","","","","","","","","","","","","","","",""
"pit-instructions","115","877215","0.0-2.0-24.1-1.1","battery-v0.2","","""event"",""trial"",""time""
""fullscreenenter"",""1"",""2326""
","
","
","""event"",""trial"",""time""
""fullscreenenter"",""1"",""2326""
","
","","[{""page_index"":0,""viewing_time"":3604.699999999255}]","3605.10000000149","","","","","","","","","","","","","","","","","","","","","","","",""
"pit-comprehension","116","883717","0.0-2.0-25.0-0.0","battery-v0.2","","""event"",""trial"",""time""
""fullscreenenter"",""1"",""2326""
","
","
","""event"",""trial"",""time""
""fullscreenenter"",""1"",""2326""
","
","","","6498.699999999255","[""True""]","0","17","5130","3237","","","","","","","","","","","","","","","","","","",""
"pit-instructions","117","888508","0.0-2.0-25.0-1.0","battery-v0.2","","""event"",""trial"",""time""
""fullscreenenter"",""1"",""2326""
","
","
","""event"",""trial"",""time""
""fullscreenenter"",""1"",""2326""
","
","","[{""page_index"":0,""viewing_time"":4737.5}]","4738","","","","","","","","","","","","","","","","","","","","","","","",""
"pit-comprehension","118","893819","0.0-2.0-26.0-0.0","battery-v0.2","","""event"",""trial"",""time""
""fullscreenenter"",""1"",""2326""
","
","
","""event"",""trial"",""time""
""fullscreenenter"",""1"",""2326""
","
","","","5307","[""False""]","0","17","5130","3237","","","","","","","","","","","","","","","","","","",""
"pit-instructions","119","896475","0.0-2.0-26.0-1.0","battery-v0.2","","""event"",""trial"",""time""
""fullscreenenter"",""1"",""2326""
","
","
","""event"",""trial"",""time""
""fullscreenenter"",""1"",""2326""
","
","","[{""page_index"":0,""viewing_time"":2601.89999999851}]","2602.199999999255","","","","","","","","","","","","","","","","","","","","","","","",""
"pit-instructions","120","911881","0.0-3.0","battery-v0.2","","""event"",""trial"",""time""
""fullscreenenter"",""1"",""2326""
","
","
","""event"",""trial"",""time""
""fullscreenenter"",""1"",""2326""
","
","","[{""page_index"":0,""viewing_time"":3607.800000000745},{""page_index"":1,""viewing_time"":5550.5},{""page_index"":2,""viewing_time"":6245.699999999255}]","15404.300000000745","","","","","","","","","","","","","","","","","","","","","","","",""
"pit-trial","121","915912","0.0-4.0","battery-v0.2","","""event"",""trial"",""time""
""fullscreenenter"",""1"",""2326""
","
","
","""event"",""trial"",""time""
""fullscreenenter"",""1"",""2326""
","
","","","1163.199999999255","","","17","5130","3237","&#9730;","elianto","#3366ff99"," "," ","1","+10","[2017.199999999255]","1","1","","","5130","1","1","1","win","go","0"
"pit-trial","122","919685","0.0-5.0","battery-v0.2","","""event"",""trial"",""time""
""fullscreenenter"",""1"",""2326""
","
","
","""event"",""trial"",""time""
""fullscreenenter"",""1"",""2326""
","
","","","907.7000000029802","","","17","5130","3237","&#9733;","elianto","#3366ff99","-1"," ","0","0","[1763.6000000014901]","1","1","","","5130","2","2","2","win","no-go","0"
"pit-trial","123","923539","0.0-6.0","battery-v0.2","","""event"",""trial"",""time""
""fullscreenenter"",""1"",""2326""
","
","
","""event"",""trial"",""time""
""fullscreenenter"",""1"",""2326""
","
","","","990.5999999977648","","","17","5130","3237","&#9728;","elianto","#f73b6a7A","-1"," ","0","-10","[1844.3999999985099]","1","1","","","5130","3","0","4","lose","no-go","0"
"pit-trial","124","927303","0.0-7.0","battery-v0.2","","""event"",""trial"",""time""
""fullscreenenter"",""1"",""2326""
","
","
","""event"",""trial"",""time""
""fullscreenenter"",""1"",""2326""
","
","","","891.9000000022352","","","17","5130","3237","&#9752;","elianto","#f73b6a7A"," "," ","1","0","[1749]","1","1","","","5130","4","3","3","lose","go","0"
"pit-trial","125","931525","0.0-8.0","battery-v0.2","","""event"",""trial"",""time""
""fullscreenenter"",""1"",""2326""
","
","
","""event"",""trial"",""time""
""fullscreenenter"",""1"",""2326""
","
","","","1347.199999999255","","","17","5130","3237","&#9730;","elianto","#3366ff99"," "," ","1","+10","[2199.5]","1","1","","","5130","5","1","1","win","go","0"
"pit-trial","126","936400","0.0-9.0","battery-v0.2","","""event"",""trial"",""time""
""fullscreenenter"",""1"",""2326""
","
","
","""event"",""trial"",""time""
""fullscreenenter"",""1"",""2326""
","
","","","-1","","","17","5130","3237","&#9728;","elianto","#f73b6a7A","-1","-1","1","0","[]","0","1","","","5130","6","0","4","lose","no-go","0"
"pit-trial","127","941276","0.0-10.0","battery-v0.2","","""event"",""trial"",""time""
""fullscreenenter"",""1"",""2326""
","
","
","""event"",""trial"",""time""
""fullscreenenter"",""1"",""2326""
","
","","","-1","","","17","5130","3237","&#9733;","elianto","#3366ff99","-1","-1","1","+10","[]","0","1","","","5130","7","2","2","win","no-go","0"
"pit-trial","128","945926","0.0-11.0","battery-v0.2","","""event"",""trial"",""time""
""fullscreenenter"",""1"",""2326""
","
","
","""event"",""trial"",""time""
""fullscreenenter"",""1"",""2326""
","
","","","1794.3999999985099","","","17","5130","3237","&#9752;","elianto","#f73b6a7A"," "," ","1","0","[2644.800000000745]","1","1","","","5130","8","3","3","lose","go","0"
"pit-trial","129","950790","0.0-12.0","battery-v0.2","","""event"",""trial"",""time""
""fullscreenenter"",""1"",""2326""
","
","
","""event"",""trial"",""time""
""fullscreenenter"",""1"",""2326""
","
","","","-1","","","17","5130","3237","&#9733;","elianto","#3366ff99","-1","-1","1","+10","[]","0","1","","","5130","9","2","2","win","no-go","0"
"pit-trial","130","954190","0.0-13.0","battery-v0.2","","""event"",""trial"",""time""
""fullscreenenter"",""1"",""2326""
","
","
","""event"",""trial"",""time""
""fullscreenenter"",""1"",""2326""
","
","","","542","","","17","5130","3237","&#9730;","elianto","#3366ff99"," "," ","1","+10","[1395.3999999985099]","1","1","","","5130","10","1","1","win","go","0"
"pit-trial","131","959054","0.0-14.0","battery-v0.2","","""event"",""trial"",""time""
""fullscreenenter"",""1"",""2326""
","
","
","""event"",""trial"",""time""
""fullscreenenter"",""1"",""2326""
","
","","","-1","","","17","5130","3237","&#9752;","elianto","#f73b6a7A"," ","-1","0","-10","[]","0","1","","","5130","11","3","3","lose","go","0"
"pit-trial","132","963917","0.0-15.0","battery-v0.2","","""event"",""trial"",""time""
""fullscreenenter"",""1"",""2326""
","
","
","""event"",""trial"",""time""
""fullscreenenter"",""1"",""2326""
","
","","","-1","","","17","5130","3237","&#9728;","elianto","#f73b6a7A","-1","-1","1","0","[]","0","1","","","5130","12","0","4","lose","no-go","0"
"pit-trial","133","968781","0.0-16.0","battery-v0.2","","""event"",""trial"",""time""
""fullscreenenter"",""1"",""2326""
","
","
","""event"",""trial"",""time""
""fullscreenenter"",""1"",""2326""
","
","","","-1","","","17","5130","3237","&#9733;","elianto","#3366ff99","-1","-1","1","+10","[]","0","1","","","5130","13","2","2","win","no-go","0"
"pit-trial","134","972437","0.0-17.0","battery-v0.2","","""event"",""trial"",""time""
""fullscreenenter"",""1"",""2326""
","
","
","""event"",""trial"",""time""
""fullscreenenter"",""1"",""2326""
","
","","","800.3000000007451","","","17","5130","3237","&#9752;","elianto","#f73b6a7A"," "," ","1","0","[1653.199999999255]","1","1","","","5130","14","3","3","lose","go","0"
"pit-trial","135","977302","0.0-18.0","battery-v0.2","","""event"",""trial"",""time""
""fullscreenenter"",""1"",""2326""
","
","
","""event"",""trial"",""time""
""fullscreenenter"",""1"",""2326""
","
","","","-1","","","17","5130","3237","&#9728;","elianto","#f73b6a7A","-1","-1","1","0","[]","0","1","","","5130","15","0","4","lose","no-go","0"
"pit-trial","136","980782","0.0-19.0","battery-v0.2","","""event"",""trial"",""time""
""fullscreenenter"",""1"",""2326""
","
","
","""event"",""trial"",""time""
""fullscreenenter"",""1"",""2326""
","
","","","618.7999999970198","","","17","5130","3237","&#9730;","elianto","#3366ff99"," "," ","1","+10","[1473.1000000014901]","1","1","","","5130","16","1","1","win","go","0"
"pit-trial","137","985645","0.0-20.0","battery-v0.2","","""event"",""trial"",""time""
""fullscreenenter"",""1"",""2326""
","
","
","""event"",""trial"",""time""
""fullscreenenter"",""1"",""2326""
","
","","","-1","","","17","5130","3237","&#9733;","elianto","#3366ff99","-1","-1","1","+10","[]","0","1","","","5130","17","2","2","win","no-go","0"
"pit-trial","138","989349","0.0-21.0","battery-v0.2","","""event"",""trial"",""time""
""fullscreenenter"",""1"",""2326""
","
","
","""event"",""trial"",""time""
""fullscreenenter"",""1"",""2326""
","
","","","844.1000000014901","","","17","5130","3237","&#9752;","elianto","#f73b6a7A"," "," ","1","-10","[1699.199999999255]","1","1","","","5130","18","3","3","lose","go","1"
"pit-trial","139","992910","0.0-22.0","battery-v0.2","","""event"",""trial"",""time""
""fullscreenenter"",""1"",""2326""
","
","
","""event"",""trial"",""time""
""fullscreenenter"",""1"",""2326""
","
","","","701.1000000014901","","","17","5130","3237","&#9730;","elianto","#3366ff99"," "," ","1","+10","[1554.9000000022352]","1","1","","","5130","19","1","1","win","go","0"
"pit-trial","140","997777","0.0-23.0","battery-v0.2","","""event"",""trial"",""time""
""fullscreenenter"",""1"",""2326""
","
","
","""event"",""trial"",""time""
""fullscreenenter"",""1"",""2326""
","
","","","-1","","","17","5130","3237","&#9728;","elianto","#f73b6a7A","-1","-1","1","0","[]","0","1","","","5130","20","0","4","lose","no-go","0"
"pit-instructions","141","1010531","0.0-24.0","battery-v0.2","","""event"",""trial"",""time""
""fullscreenenter"",""1"",""2326""
","
","
","""event"",""trial"",""time""
""fullscreenenter"",""1"",""2326""
","
","","[{""page_index"":0,""viewing_time"":6596.199999999255},{""page_index"":1,""viewing_time"":6155.800000000745}]","12752.39999999851","","","","","","","","","","","","","","","","","","","","","","","",""
"pit-trial","142","1014368","0.0-25.0","battery-v0.2","","""event"",""trial"",""time""
""fullscreenenter"",""1"",""2326""
","
","
","""event"",""trial"",""time""
""fullscreenenter"",""1"",""2326""
","
","","","974.5","","","17","5130","3237","h","elianto","#f73b6a7A"," "," ","1","0","[1826.2999999970198]","1","2","","","5130","21","3","3","lose","go","0"
"pit-trial","143","1018198","0.0-26.0","battery-v0.2","","""event"",""trial"",""time""
""fullscreenenter"",""1"",""2326""
","
","
","""event"",""trial"",""time""
""fullscreenenter"",""1"",""2326""
","
","","","971.1000000014901","","","17","5130","3237","m","elianto","#f73b6a7A","-1"," ","0","-10","[1821.5]","1","2","","","5130","22","0","4","lose","no-go","0"
"pit-trial","144","1022526","0.0-27.0","battery-v0.2","","""event"",""trial"",""time""
""fullscreenenter"",""1"",""2326""
","
","
","""event"",""trial"",""time""
""fullscreenenter"",""1"",""2326""
","
","","","1457.0999999977648","","","17","5130","3237","y","elianto","#f73b6a7A","-1"," ","0","-10","[2309.300000000745]","1","2","","","5130","23","2","4","lose","no-go","0"
"pit-trial","145","1026623","0.0-28.0","battery-v0.2","","""event"",""trial"",""time""
""fullscreenenter"",""1"",""2326""
","
","
","""event"",""trial"",""time""
""fullscreenenter"",""1"",""2326""
","
","","","1227.7000000029802","","","17","5130","3237","r","elianto","#3366ff99"," "," ","1","+10","[2081.60000000149]","1","2","","","5130","24","1","1","win","go","0"
"pit-trial","146","1030651","0.0-29.0","battery-v0.2","","""event"",""trial"",""time""
""fullscreenenter"",""1"",""2326""
","
","
","""event"",""trial"",""time""
""fullscreenenter"",""1"",""2326""
","
","","","1154.9000000022352","","","17","5130","3237","h","elianto","#f73b6a7A"," "," ","1","0","[2008.5]","1","2","","","5130","25","3","3","lose","go","0"
"pit-trial","147","1034995","0.0-30.0","battery-v0.2","","""event"",""trial"",""time""
""fullscreenenter"",""1"",""2326""
","
","
","""event"",""trial"",""time""
""fullscreenenter"",""1"",""2326""
","
","","","1477.699999999255","","","17","5130","3237","r","elianto","#3366ff99"," "," ","1","0","[2333.800000000745]","1","2","","","5130","26","1","1","win","go","1"
"pit-trial","148","1039870","0.0-31.0","battery-v0.2","","""event"",""trial"",""time""
""fullscreenenter"",""1"",""2326""
","
","
","""event"",""trial"",""time""
""fullscreenenter"",""1"",""2326""
","
","","","-1","","","17","5130","3237","y","elianto","#f73b6a7A","-1","-1","1","0","[]","0","2","","","5130","27","2","4","lose","no-go","0"
"pit-trial","149","1044733","0.0-32.0","battery-v0.2","","""event"",""trial"",""time""
""fullscreenenter"",""1"",""2326""
","
","
","""event"",""trial"",""time""
""fullscreenenter"",""1"",""2326""
","
","","","-1","","","17","5130","3237","m","elianto","#f73b6a7A","-1","-1","1","0","[]","0","2","","","5130","28","0","4","lose","no-go","0"
"pit-trial","150","1049043","0.0-33.0","battery-v0.2","","""event"",""trial"",""time""
""fullscreenenter"",""1"",""2326""
","
","
","""event"",""trial"",""time""
""fullscreenenter"",""1"",""2326""
","
","","","1433.300000000745","","","17","5130","3237","h","elianto","#f73b6a7A"," "," ","1","0","[2286.800000000745]","1","2","","","5130","29","3","3","lose","go","0"
"pit-trial","151","1053909","0.0-34.0","battery-v0.2","","""event"",""trial"",""time""
""fullscreenenter"",""1"",""2326""
","
","
","""event"",""trial"",""time""
""fullscreenenter"",""1"",""2326""
","
","","","-1","","","17","5130","3237","m","elianto","#f73b6a7A","-1","-1","1","0","[]","0","2","","","5130","30","0","4","lose","no-go","0"
"pit-trial","152","1057565","0.0-35.0","battery-v0.2","","""event"",""trial"",""time""
""fullscreenenter"",""1"",""2326""
","
","
","""event"",""trial"",""time""
""fullscreenenter"",""1"",""2326""
","
","","","791.4000000022352","","","17","5130","3237","r","elianto","#3366ff99"," "," ","1","+10","[1647.4000000022352]","1","2","","","5130","31","1","1","win","go","0"
"pit-trial","153","1062430","0.0-36.0","battery-v0.2","","""event"",""trial"",""time""
""fullscreenenter"",""1"",""2326""
","
","
","""event"",""trial"",""time""
""fullscreenenter"",""1"",""2326""
","
","","","-1","","","17","5130","3237","y","elianto","#f73b6a7A","-1","-1","1","0","[]","0","2","","","5130","32","2","4","lose","no-go","0"
"pit-trial","154","1067293","0.0-37.0","battery-v0.2","","""event"",""trial"",""time""
""fullscreenenter"",""1"",""2326""
","
","
","""event"",""trial"",""time""
""fullscreenenter"",""1"",""2326""
","
","","","-1","","","17","5130","3237","m","elianto","#f73b6a7A","-1","-1","1","0","[]","0","2","","","5130","33","0","4","lose","no-go","0"
"pit-trial","155","1072157","0.0-38.0","battery-v0.2","","""event"",""trial"",""time""
""fullscreenenter"",""1"",""2326""
","
","
","""event"",""trial"",""time""
""fullscreenenter"",""1"",""2326""
","
","","","-1","","","17","5130","3237","y","elianto","#f73b6a7A","-1","-1","1","0","[]","0","2","","","5130","34","2","4","lose","no-go","0"
"pit-trial","156","1075766","0.0-39.0","battery-v0.2","","""event"",""trial"",""time""
""fullscreenenter"",""1"",""2326""
","
","
","""event"",""trial"",""time""
""fullscreenenter"",""1"",""2326""
","
","","","749.6999999992549","","","17","5130","3237","h","elianto","#f73b6a7A"," "," ","1","0","[1603.5]","1","2","","","5130","35","3","3","lose","go","0"
"pit-trial","157","1079206","0.0-40.0","battery-v0.2","","""event"",""trial"",""time""
""fullscreenenter"",""1"",""2326""
","
","
","""event"",""trial"",""time""
""fullscreenenter"",""1"",""2326""
","
","","","580.6999999992549","","","17","5130","3237","r","elianto","#3366ff99"," "," ","1","0","[1435.0999999977648]","1","2","","","5130","36","1","1","win","go","1"
"pit-trial","158","1084070","0.0-41.0","battery-v0.2","","""event"",""trial"",""time""
""fullscreenenter"",""1"",""2326""
","
","
","""event"",""trial"",""time""
""fullscreenenter"",""1"",""2326""
","
","","","-1","","","17","5130","3237","y","elianto","#f73b6a7A","-1","-1","1","0","[]","0","2","","","5130","37","2","4","lose","no-go","0"
"pit-trial","159","1087645","0.0-42.0","battery-v0.2","","""event"",""trial"",""time""
""fullscreenenter"",""1"",""2326""
","
","
","""event"",""trial"",""time""
""fullscreenenter"",""1"",""2326""
","
","","","716.1000000014901","","","17","5130","3237","h","elianto","#f73b6a7A"," "," ","1","-10","[1570.1000000014901]","1","2","","","5130","38","3","3","lose","go","1"
"pit-trial","160","1091190","0.0-43.0","battery-v0.2","","""event"",""trial"",""time""
""fullscreenenter"",""1"",""2326""
","
","
","""event"",""trial"",""time""
""fullscreenenter"",""1"",""2326""
","
","","","682.0999999977648","","","17","5130","3237","r","elianto","#3366ff99"," "," ","1","+10","[1536.5999999977648]","1","2","","","5130","39","1","1","win","go","0"
"pit-trial","161","1096053","0.0-44.0","battery-v0.2","","""event"",""trial"",""time""
""fullscreenenter"",""1"",""2326""
","
","
","""event"",""trial"",""time""
""fullscreenenter"",""1"",""2326""
","
","","","-1","","","17","5130","3237","m","elianto","#f73b6a7A","-1","-1","1","-10","[]","0","2","","","5130","40","0","4","lose","no-go","1"
"pit-trial","162","1099667","0.0-45.0","battery-v0.2","","""event"",""trial"",""time""
""fullscreenenter"",""1"",""2326""
","
","
","""event"",""trial"",""time""
""fullscreenenter"",""1"",""2326""
","
","","","738.9000000022352","","","17","5130","3237","r","elianto","#3366ff99"," "," ","1","+10","[1591.1000000014901]","1","2","","","5130","41","1","1","win","go","0"
"pit-trial","163","1104534","0.0-46.0","battery-v0.2","","""event"",""trial"",""time""
""fullscreenenter"",""1"",""2326""
","
","
","""event"",""trial"",""time""
""fullscreenenter"",""1"",""2326""
","
","","","-1","","","17","5130","3237","m","elianto","#f73b6a7A","-1","-1","1","0","[]","0","2","","","5130","42","0","4","lose","no-go","0"
"pit-trial","164","1109397","0.0-47.0","battery-v0.2","","""event"",""trial"",""time""
""fullscreenenter"",""1"",""2326""
","
","
","""event"",""trial"",""time""
""fullscreenenter"",""1"",""2326""
","
","","","-1","","","17","5130","3237","y","elianto","#f73b6a7A","-1","-1","1","0","[]","0","2","","","5130","43","2","4","lose","no-go","0"
"pit-trial","165","1113301","0.0-48.0","battery-v0.2","","""event"",""trial"",""time""
""fullscreenenter"",""1"",""2326""
","
","
","""event"",""trial"",""time""
""fullscreenenter"",""1"",""2326""
","
","","","1046.0999999977648","","","17","5130","3237","h","elianto","#f73b6a7A"," "," ","1","-10","[1899.199999999255]","1","2","","","5130","44","3","3","lose","go","1"
"pit-trial","166","1118165","0.0-49.0","battery-v0.2","","""event"",""trial"",""time""
""fullscreenenter"",""1"",""2326""
","
","
","""event"",""trial"",""time""
""fullscreenenter"",""1"",""2326""
","
","","","-1","","","17","5130","3237","m","elianto","#f73b6a7A","-1","-1","1","0","[]","0","2","","","5130","45","0","4","lose","no-go","0"
"pit-trial","167","1122900","0.0-50.0","battery-v0.2","","""event"",""trial"",""time""
""fullscreenenter"",""1"",""2326""
","
","
","""event"",""trial"",""time""
""fullscreenenter"",""1"",""2326""
","
","","","1874.3999999985099","","","17","5130","3237","z","elianto","#3366ff99","-1"," ","0","+10","[2725.199999999255]","1","2","","","5130","46","4","2","win","no-go","1"
"pit-trial","168","1127765","0.0-51.0","battery-v0.2","","""event"",""trial"",""time""
""fullscreenenter"",""1"",""2326""
","
","
","""event"",""trial"",""time""
""fullscreenenter"",""1"",""2326""
","
","","","-1","","","17","5130","3237","y","elianto","#f73b6a7A","-1","-1","1","-10","[]","0","2","","","5130","47","2","4","lose","no-go","1"
"pit-trial","169","1131510","0.0-52.0","battery-v0.2","","""event"",""trial"",""time""
""fullscreenenter"",""1"",""2326""
","
","
","""event"",""trial"",""time""
""fullscreenenter"",""1"",""2326""
","
","","","879.1999999992549","","","17","5130","3237","h","elianto","#f73b6a7A"," "," ","1","0","[1734.199999999255]","1","2","","","5130","48","3","3","lose","go","0"
"pit-trial","170","1136373","0.0-53.0","battery-v0.2","","""event"",""trial"",""time""
""fullscreenenter"",""1"",""2326""
","
","
","""event"",""trial"",""time""
""fullscreenenter"",""1"",""2326""
","
","","","-1","","","17","5130","3237","m","elianto","#f73b6a7A","-1","-1","1","0","[]","0","2","","","5130","49","0","4","lose","no-go","0"
"pit-trial","171","1139789","0.0-54.0","battery-v0.2","","""event"",""trial"",""time""
""fullscreenenter"",""1"",""2326""
","
","
","""event"",""trial"",""time""
""fullscreenenter"",""1"",""2326""
","
","","","561.7999999970198","","","17","5130","3237","z","elianto","#3366ff99","-1"," ","0","0","[1412.7999999970198]","1","2","","","5130","50","4","2","win","no-go","0"
"pit-trial","172","1144366","0.0-55.0","battery-v0.2","","""event"",""trial"",""time""
""fullscreenenter"",""1"",""2326""
","
","
","""event"",""trial"",""time""
""fullscreenenter"",""1"",""2326""
","
","","","1721.1000000014901","","","17","5130","3237","h","elianto","#f73b6a7A"," "," ","1","0","[2571.699999999255]","1","2","","","5130","51","3","3","lose","go","0"
"pit-trial","173","1148094","0.0-56.0","battery-v0.2","","""event"",""trial"",""time""
""fullscreenenter"",""1"",""2326""
","
","
","""event"",""trial"",""time""
""fullscreenenter"",""1"",""2326""
","
","","","863.9000000022352","","","17","5130","3237","r","elianto","#3366ff99"," "," ","1","+10","[1717.9000000022352]","1","2","","","5130","52","1","1","win","go","0"
"pit-trial","174","1151558","0.0-57.0","battery-v0.2","","""event"",""trial"",""time""
""fullscreenenter"",""1"",""2326""
","
","
","""event"",""trial"",""time""
""fullscreenenter"",""1"",""2326""
","
","","","600.9000000022352","","","17","5130","3237","z","elianto","#3366ff99","-1"," ","0","0","[1455.199999999255]","1","2","","","5130","53","4","2","win","no-go","0"
"pit-trial","175","1155053","0.0-58.0","battery-v0.2","","""event"",""trial"",""time""
""fullscreenenter"",""1"",""2326""
","
","
","""event"",""trial"",""time""
""fullscreenenter"",""1"",""2326""
","
","","","634.6000000014901","","","17","5130","3237","r","elianto","#3366ff99"," "," ","1","0","[1488.7000000029802]","1","2","","","5130","54","1","1","win","go","1"
"pit-trial","176","1159917","0.0-59.0","battery-v0.2","","""event"",""trial"",""time""
""fullscreenenter"",""1"",""2326""
","
","
","""event"",""trial"",""time""
""fullscreenenter"",""1"",""2326""
","
","","","-1","","","17","5130","3237","y","elianto","#f73b6a7A","-1","-1","1","0","[]","0","2","","","5130","55","2","4","lose","no-go","0"
"pit-trial","177","1164781","0.0-60.0","battery-v0.2","","""event"",""trial"",""time""
""fullscreenenter"",""1"",""2326""
","
","
","""event"",""trial"",""time""
""fullscreenenter"",""1"",""2326""
","
","","","-1","","","17","5130","3237","m","elianto","#f73b6a7A","-1","-1","1","0","[]","0","2","","","5130","56","0","4","lose","no-go","0"
"pit-trial","178","1168277","0.0-61.0","battery-v0.2","","""event"",""trial"",""time""
""fullscreenenter"",""1"",""2326""
","
","
","""event"",""trial"",""time""
""fullscreenenter"",""1"",""2326""
","
","","","640","","","17","5130","3237","r","elianto","#3366ff99"," "," ","1","+10","[1493.2999999970198]","1","2","","","5130","57","1","1","win","go","0"
"pit-trial","179","1173142","0.0-62.0","battery-v0.2","","""event"",""trial"",""time""
""fullscreenenter"",""1"",""2326""
","
","
","""event"",""trial"",""time""
""fullscreenenter"",""1"",""2326""
","
","","","-1","","","17","5130","3237","m","elianto","#f73b6a7A","-1","-1","1","0","[]","0","2","","","5130","58","0","4","lose","no-go","0"
"pit-trial","180","1177998","0.0-63.0","battery-v0.2","","""event"",""trial"",""time""
""fullscreenenter"",""1"",""2326""
","
","
","""event"",""trial"",""time""
""fullscreenenter"",""1"",""2326""
","
","","","-1","","","17","5130","3237","z","elianto","#3366ff99","-1","-1","1","+10","[]","0","2","","","5130","59","4","2","win","no-go","0"
"pit-trial","181","1181582","0.0-64.0","battery-v0.2","","""event"",""trial"",""time""
""fullscreenenter"",""1"",""2326""
","
","
","""event"",""trial"",""time""
""fullscreenenter"",""1"",""2326""
","
","","","723.4000000022352","","","17","5130","3237","h","elianto","#f73b6a7A"," "," ","1","0","[1576]","1","2","","","5130","60","3","3","lose","go","0"
"pit-trial","182","1185277","0.0-65.0","battery-v0.2","","""event"",""trial"",""time""
""fullscreenenter"",""1"",""2326""
","
","
","""event"",""trial"",""time""
""fullscreenenter"",""1"",""2326""
","
","","","836","","","17","5130","3237","r","elianto","#3366ff99"," "," ","1","0","[1689.3999999985099]","1","2","","","5130","61","1","1","win","go","1"
"pit-trial","183","1189046","0.0-66.0","battery-v0.2","","""event"",""trial"",""time""
""fullscreenenter"",""1"",""2326""
","
","
","""event"",""trial"",""time""
""fullscreenenter"",""1"",""2326""
","
","","","913.3999999985099","","","17","5130","3237","h","elianto","#f73b6a7A"," "," ","1","0","[1763.5]","1","2","","","5130","62","3","3","lose","go","0"
"pit-trial","184","1193909","0.0-67.0","battery-v0.2","","""event"",""trial"",""time""
""fullscreenenter"",""1"",""2326""
","
","
","""event"",""trial"",""time""
""fullscreenenter"",""1"",""2326""
","
","","","-1","","","17","5130","3237","y","elianto","#f73b6a7A","-1","-1","1","0","[]","0","2","","","5130","63","2","4","lose","no-go","0"
"pit-trial","185","1198774","0.0-68.0","battery-v0.2","","""event"",""trial"",""time""
""fullscreenenter"",""1"",""2326""
","
","
","""event"",""trial"",""time""
""fullscreenenter"",""1"",""2326""
","
","","","-1","","","17","5130","3237","z","elianto","#3366ff99","-1","-1","1","+10","[]","0","2","","","5130","64","4","2","win","no-go","0"
"pit-trial","186","1202446","0.0-69.0","battery-v0.2","","""event"",""trial"",""time""
""fullscreenenter"",""1"",""2326""
","
","
","""event"",""trial"",""time""
""fullscreenenter"",""1"",""2326""
","
","","","809.5","","","17","5130","3237","r","elianto","#3366ff99"," "," ","1","0","[1663.1000000014901]","1","2","","","5130","65","1","1","win","go","1"
"pit-trial","187","1207309","0.0-70.0","battery-v0.2","","""event"",""trial"",""time""
""fullscreenenter"",""1"",""2326""
","
","
","""event"",""trial"",""time""
""fullscreenenter"",""1"",""2326""
","
","","","-1","","","17","5130","3237","z","elianto","#3366ff99","-1","-1","1","+10","[]","0","2","","","5130","66","4","2","win","no-go","0"
"pit-trial","188","1210861","0.0-71.0","battery-v0.2","","""event"",""trial"",""time""
""fullscreenenter"",""1"",""2326""
","
","
","""event"",""trial"",""time""
""fullscreenenter"",""1"",""2326""
","
","","","691.6000000014901","","","17","5130","3237","h","elianto","#f73b6a7A"," "," ","1","0","[1546.1000000014901]","1","2","","","5130","67","3","3","lose","go","0"
"pit-trial","189","1215726","0.0-72.0","battery-v0.2","","""event"",""trial"",""time""
""fullscreenenter"",""1"",""2326""
","
","
","""event"",""trial"",""time""
""fullscreenenter"",""1"",""2326""
","
","","","-1","","","17","5130","3237","y","elianto","#f73b6a7A","-1","-1","1","-10","[]","0","2","","","5130","68","2","4","lose","no-go","1"
"pit-trial","190","1220581","0.0-73.0","battery-v0.2","","""event"",""trial"",""time""
""fullscreenenter"",""1"",""2326""
","
","
","""event"",""trial"",""time""
""fullscreenenter"",""1"",""2326""
","
","","","1994","","","17","5130","3237","c","elianto","#3366ff99"," "," ","1","+10","[2847.400000002235]","1","2","","","5130","69","5","1","win","go","0"
"pit-trial","191","1224413","0.0-74.0","battery-v0.2","","""event"",""trial"",""time""
""fullscreenenter"",""1"",""2326""
","
","
","""event"",""trial"",""time""
""fullscreenenter"",""1"",""2326""
","
","","","978.7000000029802","","","17","5130","3237","r","elianto","#3366ff99"," "," ","1","+10","[1829.1000000014901]","1","2","","","5130","70","1","1","win","go","0"
"pit-trial","192","1229278","0.0-75.0","battery-v0.2","","""event"",""trial"",""time""
""fullscreenenter"",""1"",""2326""
","
","
","""event"",""trial"",""time""
""fullscreenenter"",""1"",""2326""
","
","","","-1","","","17","5130","3237","z","elianto","#3366ff99","-1","-1","1","0","[]","0","2","","","5130","71","4","2","win","no-go","1"
"pit-trial","193","1233447","0.0-76.0","battery-v0.2","","""event"",""trial"",""time""
""fullscreenenter"",""1"",""2326""
","
","
","""event"",""trial"",""time""
""fullscreenenter"",""1"",""2326""
","
","","","1305.9000000022352","","","17","5130","3237","h","elianto","#f73b6a7A"," "," ","1","0","[2156.300000000745]","1","2","","","5130","72","3","3","lose","go","0"
"pit-trial","194","1238310","0.0-77.0","battery-v0.2","","""event"",""trial"",""time""
""fullscreenenter"",""1"",""2326""
","
","
","""event"",""trial"",""time""
""fullscreenenter"",""1"",""2326""
","
","","","-1","","","17","5130","3237","z","elianto","#3366ff99","-1","-1","1","+10","[]","0","2","","","5130","73","4","2","win","no-go","0"
"pit-trial","195","1241990","0.0-78.0","battery-v0.2","","""event"",""trial"",""time""
""fullscreenenter"",""1"",""2326""
","
","
","""event"",""trial"",""time""
""fullscreenenter"",""1"",""2326""
","
","","","819.9000000022352","","","17","5130","3237","h","elianto","#f73b6a7A"," "," ","1","0","[1670.300000000745]","1","2","","","5130","74","3","3","lose","go","0"
"pit-trial","196","1245854","0.0-79.0","battery-v0.2","","""event"",""trial"",""time""
""fullscreenenter"",""1"",""2326""
","
","
","""event"",""trial"",""time""
""fullscreenenter"",""1"",""2326""
","
","","","1005.8000000007451","","","17","5130","3237","c","elianto","#3366ff99"," "," ","1","+10","[1856.699999999255]","1","2","","","5130","75","5","1","win","go","0"
"pit-trial","197","1249453","0.0-80.0","battery-v0.2","","""event"",""trial"",""time""
""fullscreenenter"",""1"",""2326""
","
","
","""event"",""trial"",""time""
""fullscreenenter"",""1"",""2326""
","
","","","740.9000000022352","","","17","5130","3237","r","elianto","#3366ff99"," "," ","1","0","[1591.199999999255]","1","2","","","5130","76","1","1","win","go","1"
"pit-trial","198","1254318","0.0-81.0","battery-v0.2","","""event"",""trial"",""time""
""fullscreenenter"",""1"",""2326""
","
","
","""event"",""trial"",""time""
""fullscreenenter"",""1"",""2326""
","
","","","-1","","","17","5130","3237","z","elianto","#3366ff99","-1","-1","1","+10","[]","0","2","","","5130","77","4","2","win","no-go","0"
"pit-trial","199","1258781","0.0-82.0","battery-v0.2","","""event"",""trial"",""time""
""fullscreenenter"",""1"",""2326""
","
","
","""event"",""trial"",""time""
""fullscreenenter"",""1"",""2326""
","
","","","1607","","","17","5130","3237","b","elianto","#f73b6a7A","-1"," ","0","-10","[2459.300000000745]","1","2","","","5130","78","6","4","lose","no-go","0"
"pit-trial","200","1262587","0.0-83.0","battery-v0.2","","""event"",""trial"",""time""
""fullscreenenter"",""1"",""2326""
","
","
","""event"",""trial"",""time""
""fullscreenenter"",""1"",""2326""
","
","","","930.6999999992549","","","17","5130","3237","h","elianto","#f73b6a7A"," "," ","1","0","[1785.5]","1","2","","","5130","79","3","3","lose","go","0"
"pit-trial","201","1266205","0.0-84.0","battery-v0.2","","""event"",""trial"",""time""
""fullscreenenter"",""1"",""2326""
","
","
","""event"",""trial"",""time""
""fullscreenenter"",""1"",""2326""
","
","","","754","","","17","5130","3237","c","elianto","#3366ff99"," "," ","1","0","[1610]","1","2","","","5130","80","5","1","win","go","1"
"pit-trial","202","1270069","0.0-85.0","battery-v0.2","","""event"",""trial"",""time""
""fullscreenenter"",""1"",""2326""
","
","
","""event"",""trial"",""time""
""fullscreenenter"",""1"",""2326""
","
","","","1000.8999999985099","","","17","5130","3237","c","elianto","#3366ff99"," "," ","1","0","[1855.300000000745]","1","2","","","5130","81","5","1","win","go","1"
"pit-trial","203","1274933","0.0-86.0","battery-v0.2","","""event"",""trial"",""time""
""fullscreenenter"",""1"",""2326""
","
","
","""event"",""trial"",""time""
""fullscreenenter"",""1"",""2326""
","
","","","-1","","","17","5130","3237","b","elianto","#f73b6a7A","-1","-1","1","-10","[]","0","2","","","5130","82","6","4","lose","no-go","1"
"pit-trial","204","1279798","0.0-87.0","battery-v0.2","","""event"",""trial"",""time""
""fullscreenenter"",""1"",""2326""
","
","
","""event"",""trial"",""time""
""fullscreenenter"",""1"",""2326""
","
","","","-1","","","17","5130","3237","t","elianto","#f73b6a7A"," ","-1","0","-10","[]","0","2","","","5130","83","7","3","lose","go","0"
"pit-trial","205","1284662","0.0-88.0","battery-v0.2","","""event"",""trial"",""time""
""fullscreenenter"",""1"",""2326""
","
","
","""event"",""trial"",""time""
""fullscreenenter"",""1"",""2326""
","
","","","-1","","","17","5130","3237","z","elianto","#3366ff99","-1","-1","1","0","[]","0","2","","","5130","84","4","2","win","no-go","1"
"pit-trial","206","1288717","0.0-89.0","battery-v0.2","","""event"",""trial"",""time""
""fullscreenenter"",""1"",""2326""
","
","
","""event"",""trial"",""time""
""fullscreenenter"",""1"",""2326""
","
","","","1196.699999999255","","","17","5130","3237","t","elianto","#f73b6a7A"," "," ","1","0","[2050.10000000149]","1","2","","","5130","85","7","3","lose","go","0"
"pit-trial","207","1292750","0.0-90.0","battery-v0.2","","""event"",""trial"",""time""
""fullscreenenter"",""1"",""2326""
","
","
","""event"",""trial"",""time""
""fullscreenenter"",""1"",""2326""
","
","","","1172.199999999255","","","17","5130","3237","b","elianto","#f73b6a7A","-1"," ","0","-10","[2028.5999999977648]","1","2","","","5130","86","6","4","lose","no-go","0"
"pit-trial","208","1296566","0.0-91.0","battery-v0.2","","""event"",""trial"",""time""
""fullscreenenter"",""1"",""2326""
","
","
","""event"",""trial"",""time""
""fullscreenenter"",""1"",""2326""
","
","","","953.1000000014901","","","17","5130","3237","c","elianto","#3366ff99"," "," ","1","0","[1807.5]","1","2","","","5130","87","5","1","win","go","1"
"pit-trial","209","1301430","0.0-92.0","battery-v0.2","","""event"",""trial"",""time""
""fullscreenenter"",""1"",""2326""
","
","
","""event"",""trial"",""time""
""fullscreenenter"",""1"",""2326""
","
","","","-1","","","17","5130","3237","z","elianto","#3366ff99","-1","-1","1","+10","[]","0","2","","","5130","88","4","2","win","no-go","0"
"pit-trial","210","1306293","0.0-93.0","battery-v0.2","","""event"",""trial"",""time""
""fullscreenenter"",""1"",""2326""
","
","
","""event"",""trial"",""time""
""fullscreenenter"",""1"",""2326""
","
","","","-1","","","17","5130","3237","b","elianto","#f73b6a7A","-1","-1","1","0","[]","0","2","","","5130","89","6","4","lose","no-go","0"
"pit-trial","211","1310045","0.0-94.0","battery-v0.2","","""event"",""trial"",""time""
""fullscreenenter"",""1"",""2326""
","
","
","""event"",""trial"",""time""
""fullscreenenter"",""1"",""2326""
","
","","","887.1999999992549","","","17","5130","3237","t","elianto","#f73b6a7A"," "," ","1","0","[1741.6000000014901]","1","2","","","5130","90","7","3","lose","go","0"
"pit-trial","212","1313661","0.0-95.0","battery-v0.2","","""event"",""trial"",""time""
""fullscreenenter"",""1"",""2326""
","
","
","""event"",""trial"",""time""
""fullscreenenter"",""1"",""2326""
","
","","","756.3000000007451","","","17","5130","3237","c","elianto","#3366ff99"," "," ","1","+10","[1611.1000000014901]","1","2","","","5130","91","5","1","win","go","0"
"pit-trial","213","1318526","0.0-96.0","battery-v0.2","","""event"",""trial"",""time""
""fullscreenenter"",""1"",""2326""
","
","
","""event"",""trial"",""time""
""fullscreenenter"",""1"",""2326""
","
","","","-1","","","17","5130","3237","z","elianto","#3366ff99","-1","-1","1","0","[]","0","2","","","5130","92","4","2","win","no-go","1"
"pit-trial","214","1322030","0.0-97.0","battery-v0.2","","""event"",""trial"",""time""
""fullscreenenter"",""1"",""2326""
","
","
","""event"",""trial"",""time""
""fullscreenenter"",""1"",""2326""
","
","","","639.0999999977648","","","17","5130","3237","t","elianto","#f73b6a7A"," "," ","1","0","[1492.5999999977648]","1","2","","","5130","93","7","3","lose","go","0"
"pit-trial","215","1326214","0.0-98.0","battery-v0.2","","""event"",""trial"",""time""
""fullscreenenter"",""1"",""2326""
","
","
","""event"",""trial"",""time""
""fullscreenenter"",""1"",""2326""
","
","","","1322.5","","","17","5130","3237","f","elianto","#3366ff99","-1"," ","0","0","[2172.89999999851]","1","2","","","5130","94","8","2","win","no-go","0"
"pit-trial","216","1331079","0.0-99.0","battery-v0.2","","""event"",""trial"",""time""
""fullscreenenter"",""1"",""2326""
","
","
","""event"",""trial"",""time""
""fullscreenenter"",""1"",""2326""
","
","","","-1","","","17","5130","3237","b","elianto","#f73b6a7A","-1","-1","1","0","[]","0","2","","","5130","95","6","4","lose","no-go","0"
"pit-trial","217","1334662","0.0-100.0","battery-v0.2","","""event"",""trial"",""time""
""fullscreenenter"",""1"",""2326""
","
","
","""event"",""trial"",""time""
""fullscreenenter"",""1"",""2326""
","
","","","725.6999999992549","","","17","5130","3237","c","elianto","#3366ff99"," "," ","1","+10","[1578.800000000745]","1","2","","","5130","96","5","1","win","go","0"
"pit-trial","218","1338422","0.0-101.0","battery-v0.2","","""event"",""trial"",""time""
""fullscreenenter"",""1"",""2326""
","
","
","""event"",""trial"",""time""
""fullscreenenter"",""1"",""2326""
","
","","","900.3999999985099","","","17","5130","3237","t","elianto","#f73b6a7A"," "," ","1","0","[1754.199999999255]","1","2","","","5130","97","7","3","lose","go","0"
"pit-trial","219","1343285","0.0-102.0","battery-v0.2","","""event"",""trial"",""time""
""fullscreenenter"",""1"",""2326""
","
","
","""event"",""trial"",""time""
""fullscreenenter"",""1"",""2326""
","
","","","-1","","","17","5130","3237","b","elianto","#f73b6a7A","-1","-1","1","0","[]","0","2","","","5130","98","6","4","lose","no-go","0"
"pit-trial","220","1347053","0.0-103.0","battery-v0.2","","""event"",""trial"",""time""
""fullscreenenter"",""1"",""2326""
","
","
","""event"",""trial"",""time""
""fullscreenenter"",""1"",""2326""
","
","","","908.7999999970198","","","17","5130","3237","c","elianto","#3366ff99"," "," ","1","+10","[1762.1000000014901]","1","2","","","5130","99","5","1","win","go","0"
"pit-trial","221","1351931","0.0-104.0","battery-v0.2","","""event"",""trial"",""time""
""fullscreenenter"",""1"",""2326""
","
","
","""event"",""trial"",""time""
""fullscreenenter"",""1"",""2326""
","
","","","-1","","","17","5130","3237","f","elianto","#3366ff99","-1","-1","1","+10","[]","0","2","","","5130","100","8","2","win","no-go","0"
"pit-trial","222","1356798","0.0-105.0","battery-v0.2","","""event"",""trial"",""time""
""fullscreenenter"",""1"",""2326""
","
","
","""event"",""trial"",""time""
""fullscreenenter"",""1"",""2326""
","
","","","-1","","","17","5130","3237","f","elianto","#3366ff99","-1","-1","1","+10","[]","0","2","","","5130","101","8","2","win","no-go","0"
"pit-trial","223","1360454","0.0-106.0","battery-v0.2","","""event"",""trial"",""time""
""fullscreenenter"",""1"",""2326""
","
","
","""event"",""trial"",""time""
""fullscreenenter"",""1"",""2326""
","
","","","793","","","17","5130","3237","c","elianto","#3366ff99"," "," ","1","+10","[1645.6000000014901]","1","2","","","5130","102","5","1","win","go","0"
"pit-trial","224","1364621","0.0-107.0","battery-v0.2","","""event"",""trial"",""time""
""fullscreenenter"",""1"",""2326""
","
","
","""event"",""trial"",""time""
""fullscreenenter"",""1"",""2326""
","
","","","1309","","","17","5130","3237","n","elianto","#3366ff99","-1"," ","0","0","[2163.199999999255]","1","2","","","5130","103","9","2","win","no-go","0"
"pit-trial","225","1369486","0.0-108.0","battery-v0.2","","""event"",""trial"",""time""
""fullscreenenter"",""1"",""2326""
","
","
","""event"",""trial"",""time""
""fullscreenenter"",""1"",""2326""
","
","","","-1","","","17","5130","3237","b","elianto","#f73b6a7A","-1","-1","1","0","[]","0","2","","","5130","104","6","4","lose","no-go","0"
"pit-trial","226","1373110","0.0-109.0","battery-v0.2","","""event"",""trial"",""time""
""fullscreenenter"",""1"",""2326""
","
","
","""event"",""trial"",""time""
""fullscreenenter"",""1"",""2326""
","
","","","760.0999999977648","","","17","5130","3237","c","elianto","#3366ff99"," "," ","1","+10","[1615.199999999255]","1","2","","","5130","105","5","1","win","go","0"
"pit-trial","227","1377974","0.0-110.0","battery-v0.2","","""event"",""trial"",""time""
""fullscreenenter"",""1"",""2326""
","
","
","""event"",""trial"",""time""
""fullscreenenter"",""1"",""2326""
","
","","","-1","","","17","5130","3237","b","elianto","#f73b6a7A","-1","-1","1","0","[]","0","2","","","5130","106","6","4","lose","no-go","0"
"pit-trial","228","1382837","0.0-111.0","battery-v0.2","","""event"",""trial"",""time""
""fullscreenenter"",""1"",""2326""
","
","
","""event"",""trial"",""time""
""fullscreenenter"",""1"",""2326""
","
","","","-1","","","17","5130","3237","f","elianto","#3366ff99","-1","-1","1","+10","[]","0","2","","","5130","107","8","2","win","no-go","0"
"pit-trial","229","1387701","0.0-112.0","battery-v0.2","","""event"",""trial"",""time""
""fullscreenenter"",""1"",""2326""
","
","
","""event"",""trial"",""time""
""fullscreenenter"",""1"",""2326""
","
","","","-1","","","17","5130","3237","n","elianto","#3366ff99","-1","-1","1","+10","[]","0","2","","","5130","108","9","2","win","no-go","0"
"pit-trial","230","1391494","0.0-113.0","battery-v0.2","","""event"",""trial"",""time""
""fullscreenenter"",""1"",""2326""
","
","
","""event"",""trial"",""time""
""fullscreenenter"",""1"",""2326""
","
","","","931.8000000007451","","","17","5130","3237","c","elianto","#3366ff99"," "," ","1","+10","[1786.199999999255]","1","2","","","5130","109","5","1","win","go","0"
"pit-trial","231","1396366","0.0-114.0","battery-v0.2","","""event"",""trial"",""time""
""fullscreenenter"",""1"",""2326""
","
","
","""event"",""trial"",""time""
""fullscreenenter"",""1"",""2326""
","
","","","-1","","","17","5130","3237","n","elianto","#3366ff99","-1","-1","1","0","[]","0","2","","","5130","110","9","2","win","no-go","1"
"pit-trial","232","1401229","0.0-115.0","battery-v0.2","","""event"",""trial"",""time""
""fullscreenenter"",""1"",""2326""
","
","
","""event"",""trial"",""time""
""fullscreenenter"",""1"",""2326""
","
","","","-1","","","17","5130","3237","f","elianto","#3366ff99","-1","-1","1","+10","[]","0","2","","","5130","111","8","2","win","no-go","0"
"pit-trial","233","1406093","0.0-116.0","battery-v0.2","","""event"",""trial"",""time""
""fullscreenenter"",""1"",""2326""
","
","
","""event"",""trial"",""time""
""fullscreenenter"",""1"",""2326""
","
","","","-1","","","17","5130","3237","b","elianto","#f73b6a7A","-1","-1","1","-10","[]","0","2","","","5130","112","6","4","lose","no-go","1"
"pit-trial","234","1409966","0.0-117.0","battery-v0.2","","""event"",""trial"",""time""
""fullscreenenter"",""1"",""2326""
","
","
","""event"",""trial"",""time""
""fullscreenenter"",""1"",""2326""
","
","","","1012.5999999977648","","","17","5130","3237","t","elianto","#f73b6a7A"," "," ","1","0","[1868]","1","2","","","5130","113","7","3","lose","go","0"
"pit-trial","235","1413982","0.0-118.0","battery-v0.2","","""event"",""trial"",""time""
""fullscreenenter"",""1"",""2326""
","
","
","""event"",""trial"",""time""
""fullscreenenter"",""1"",""2326""
","
","","","1157.800000000745","","","17","5130","3237","n","elianto","#3366ff99","-1"," ","0","0","[2010.3999999985099]","1","2","","","5130","114","9","2","win","no-go","0"
"pit-trial","236","1418845","0.0-119.0","battery-v0.2","","""event"",""trial"",""time""
""fullscreenenter"",""1"",""2326""
","
","
","""event"",""trial"",""time""
""fullscreenenter"",""1"",""2326""
","
","","","-1","","","17","5130","3237","f","elianto","#3366ff99","-1","-1","1","+10","[]","0","2","","","5130","115","8","2","win","no-go","0"
"pit-trial","237","1422349","0.0-120.0","battery-v0.2","","""event"",""trial"",""time""
""fullscreenenter"",""1"",""2326""
","
","
","""event"",""trial"",""time""
""fullscreenenter"",""1"",""2326""
","
","","","649","","","17","5130","3237","c","elianto","#3366ff99"," "," ","1","+10","[1499.5]","1","2","","","5130","116","5","1","win","go","0"
"pit-trial","238","1427214","0.0-121.0","battery-v0.2","","""event"",""trial"",""time""
""fullscreenenter"",""1"",""2326""
","
","
","""event"",""trial"",""time""
""fullscreenenter"",""1"",""2326""
","
","","","-1","","","17","5130","3237","b","elianto","#f73b6a7A","-1","-1","1","-10","[]","0","2","","","5130","117","6","4","lose","no-go","1"
"pit-trial","239","1432077","0.0-122.0","battery-v0.2","","""event"",""trial"",""time""
""fullscreenenter"",""1"",""2326""
","
","
","""event"",""trial"",""time""
""fullscreenenter"",""1"",""2326""
","
","","","-1","","","17","5130","3237","f","elianto","#3366ff99","-1","-1","1","+10","[]","0","2","","","5130","118","8","2","win","no-go","0"
"pit-trial","240","1436158","0.0-123.0","battery-v0.2","","""event"",""trial"",""time""
""fullscreenenter"",""1"",""2326""
","
","
","""event"",""trial"",""time""
""fullscreenenter"",""1"",""2326""
","
","","","1225","","","17","5130","3237","c","elianto","#3366ff99"," "," ","1","+10","[2075.5]","1","2","","","5130","119","5","1","win","go","0"
"pit-trial","241","1441022","0.0-124.0","battery-v0.2","","""event"",""trial"",""time""
""fullscreenenter"",""1"",""2326""
","
","
","""event"",""trial"",""time""
""fullscreenenter"",""1"",""2326""
","
","","","-1","","","17","5130","3237","n","elianto","#3366ff99","-1","-1","1","+10","[]","0","2","","","5130","120","9","2","win","no-go","0"
"pit-trial","242","1444589","0.0-125.0","battery-v0.2","","""event"",""trial"",""time""
""fullscreenenter"",""1"",""2326""
","
","
","""event"",""trial"",""time""
""fullscreenenter"",""1"",""2326""
","
","","","708.6000000014901","","","17","5130","3237","c","elianto","#3366ff99"," "," ","1","0","[1560.5]","1","2","","","5130","121","5","1","win","go","1"
"pit-trial","243","1449454","0.0-126.0","battery-v0.2","","""event"",""trial"",""time""
""fullscreenenter"",""1"",""2326""
","
","
","""event"",""trial"",""time""
""fullscreenenter"",""1"",""2326""
","
","","","-1","","","17","5130","3237","f","elianto","#3366ff99","-1","-1","1","+10","[]","0","2","","","5130","122","8","2","win","no-go","0"
"pit-trial","244","1453477","0.0-127.0","battery-v0.2","","""event"",""trial"",""time""
""fullscreenenter"",""1"",""2326""
","
","
","""event"",""trial"",""time""
""fullscreenenter"",""1"",""2326""
","
","","","1164.3999999985099","","","17","5130","3237","t","elianto","#f73b6a7A"," "," ","1","-10","[2015.0999999977648]","1","2","","","5130","123","7","3","lose","go","1"
"pit-trial","245","1458341","0.0-128.0","battery-v0.2","","""event"",""trial"",""time""
""fullscreenenter"",""1"",""2326""
","
","
","""event"",""trial"",""time""
""fullscreenenter"",""1"",""2326""
","
","","","-1","","","17","5130","3237","n","elianto","#3366ff99","-1","-1","1","+10","[]","0","2","","","5130","124","9","2","win","no-go","0"
"pit-trial","246","1463205","0.0-129.0","battery-v0.2","","""event"",""trial"",""time""
""fullscreenenter"",""1"",""2326""
","
","
","""event"",""trial"",""time""
""fullscreenenter"",""1"",""2326""
","
","","","-1","","","17","5130","3237","b","elianto","#f73b6a7A","-1","-1","1","0","[]","0","2","","","5130","125","6","4","lose","no-go","0"
"pit-trial","247","1468070","0.0-130.0","battery-v0.2","","""event"",""trial"",""time""
""fullscreenenter"",""1"",""2326""
","
","
","""event"",""trial"",""time""
""fullscreenenter"",""1"",""2326""
","
","","","-1","","","17","5130","3237","n","elianto","#3366ff99","-1","-1","1","+10","[]","0","2","","","5130","126","9","2","win","no-go","0"
"pit-trial","248","1472934","0.0-131.0","battery-v0.2","","""event"",""trial"",""time""
""fullscreenenter"",""1"",""2326""
","
","
","""event"",""trial"",""time""
""fullscreenenter"",""1"",""2326""
","
","","","-1","","","17","5130","3237","f","elianto","#3366ff99","-1","-1","1","+10","[]","0","2","","","5130","127","8","2","win","no-go","0"
"pit-trial","249","1476654","0.0-132.0","battery-v0.2","","""event"",""trial"",""time""
""fullscreenenter"",""1"",""2326""
","
","
","""event"",""trial"",""time""
""fullscreenenter"",""1"",""2326""
","
","","","856","","","17","5130","3237","t","elianto","#f73b6a7A"," "," ","1","-10","[1709.6000000014901]","1","2","","","5130","128","7","3","lose","go","1"
"pit-trial","250","1481518","0.0-133.0","battery-v0.2","","""event"",""trial"",""time""
""fullscreenenter"",""1"",""2326""
","
","
","""event"",""trial"",""time""
""fullscreenenter"",""1"",""2326""
","
","","","-1","","","17","5130","3237","f","elianto","#3366ff99","-1","-1","1","+10","[]","0","2","","","5130","129","8","2","win","no-go","0"
"pit-trial","251","1486381","0.0-134.0","battery-v0.2","","""event"",""trial"",""time""
""fullscreenenter"",""1"",""2326""
","
","
","""event"",""trial"",""time""
""fullscreenenter"",""1"",""2326""
","
","","","-1","","","17","5130","3237","n","elianto","#3366ff99","-1","-1","1","+10","[]","0","2","","","5130","130","9","2","win","no-go","0"
"pit-trial","252","1491246","0.0-135.0","battery-v0.2","","""event"",""trial"",""time""
""fullscreenenter"",""1"",""2326""
","
","
","""event"",""trial"",""time""
""fullscreenenter"",""1"",""2326""
","
","","","-1","","","17","5130","3237","b","elianto","#f73b6a7A","-1","-1","1","0","[]","0","2","","","5130","131","6","4","lose","no-go","0"
"pit-trial","253","1494933","0.0-136.0","battery-v0.2","","""event"",""trial"",""time""
""fullscreenenter"",""1"",""2326""
","
","
","""event"",""trial"",""time""
""fullscreenenter"",""1"",""2326""
","
","","","827.6000000014901","","","17","5130","3237","t","elianto","#f73b6a7A"," "," ","1","0","[1682.6000000014901]","1","2","","","5130","132","7","3","lose","go","0"
"pit-trial","254","1499797","0.0-137.0","battery-v0.2","","""event"",""trial"",""time""
""fullscreenenter"",""1"",""2326""
","
","
","""event"",""trial"",""time""
""fullscreenenter"",""1"",""2326""
","
","","","-1","","","17","5130","3237","b","elianto","#f73b6a7A","-1","-1","1","-10","[]","0","2","","","5130","133","6","4","lose","no-go","1"
"pit-trial","255","1503381","0.0-138.0","battery-v0.2","","""event"",""trial"",""time""
""fullscreenenter"",""1"",""2326""
","
","
","""event"",""trial"",""time""
""fullscreenenter"",""1"",""2326""
","
","","","726.6000000014901","","","17","5130","3237","t","elianto","#f73b6a7A"," "," ","1","0","[1580.3999999985099]","1","2","","","5130","134","7","3","lose","go","0"
"pit-trial","256","1508258","0.0-139.0","battery-v0.2","","""event"",""trial"",""time""
""fullscreenenter"",""1"",""2326""
","
","
","""event"",""trial"",""time""
""fullscreenenter"",""1"",""2326""
","
","","","-1","","","17","5130","3237","n","elianto","#3366ff99","-1","-1","1","+10","[]","0","2","","","5130","135","9","2","win","no-go","0"
"pit-trial","257","1513126","0.0-140.0","battery-v0.2","","""event"",""trial"",""time""
""fullscreenenter"",""1"",""2326""
","
","
","""event"",""trial"",""time""
""fullscreenenter"",""1"",""2326""
","
","","","-1","","","17","5130","3237","f","elianto","#3366ff99","-1","-1","1","+10","[]","0","2","","","5130","136","8","2","win","no-go","0"
"pit-trial","258","1516748","0.0-141.0","battery-v0.2","","""event"",""trial"",""time""
""fullscreenenter"",""1"",""2326""
","
","
","""event"",""trial"",""time""
""fullscreenenter"",""1"",""2326""
","
","","","758.1999999992549","","","17","5130","3237","t","elianto","#f73b6a7A"," "," ","1","0","[1611.199999999255]","1","2","","","5130","137","7","3","lose","go","0"
"pit-trial","259","1521621","0.0-142.0","battery-v0.2","","""event"",""trial"",""time""
""fullscreenenter"",""1"",""2326""
","
","
","""event"",""trial"",""time""
""fullscreenenter"",""1"",""2326""
","
","","","-1","","","17","5130","3237","n","elianto","#3366ff99","-1","-1","1","0","[]","0","2","","","5130","138","9","2","win","no-go","1"
"pit-trial","260","1526485","0.0-143.0","battery-v0.2","","""event"",""trial"",""time""
""fullscreenenter"",""1"",""2326""
","
","
","""event"",""trial"",""time""
""fullscreenenter"",""1"",""2326""
","
","","","-1","","","17","5130","3237","b","elianto","#f73b6a7A","-1","-1","1","-10","[]","0","2","","","5130","139","6","4","lose","no-go","1"
"pit-trial","261","1531349","0.0-144.0","battery-v0.2","","""event"",""trial"",""time""
""fullscreenenter"",""1"",""2326""
","
","
","""event"",""trial"",""time""
""fullscreenenter"",""1"",""2326""
","
","","","-1","","","17","5130","3237","f","elianto","#3366ff99","-1","-1","1","0","[]","0","2","","","5130","140","8","2","win","no-go","1"
"pit-instructions","262","1544995","0.0-145.0","battery-v0.2","","""event"",""trial"",""time""
""fullscreenenter"",""1"",""2326""
","
","
","""event"",""trial"",""time""
""fullscreenenter"",""1"",""2326""
","
","","[{""page_index"":0,""viewing_time"":5550.20000000298},{""page_index"":1,""viewing_time"":8093.79999999702}]","13644.400000002235","","","","","","","","","","","","","","","","","","","","","","","",""
"pit-trial","263","1549232","0.0-146.0","battery-v0.2","","""event"",""trial"",""time""
""fullscreenenter"",""1"",""2326""
","
","
","""event"",""trial"",""time""
""fullscreenenter"",""1"",""2326""
","
","","","1366","","","17","5130","3237","l","elianto","#3366ff99","-1"," ","0","+10","[2221.60000000149]","1","3","","","5130","141","1","2","win","no-go","1"
"pit-trial","264","1554092","0.0-147.0","battery-v0.2","","""event"",""trial"",""time""
""fullscreenenter"",""1"",""2326""
","
","
","""event"",""trial"",""time""
""fullscreenenter"",""1"",""2326""
","
","","","-1","","","17","5130","3237","a","elianto","#f73b6a7A"," ","-1","0","-10","[]","0","3","","","5130","142","2","3","lose","go","0"
"pit-trial","265","1558979","0.0-148.0","battery-v0.2","","""event"",""trial"",""time""
""fullscreenenter"",""1"",""2326""
","
","
","""event"",""trial"",""time""
""fullscreenenter"",""1"",""2326""
","
","","","-1","","","17","5130","3237","u","elianto","#f73b6a7A"," ","-1","0","-10","[]","0","3","","","5130","143","0","3","lose","go","0"
"pit-trial","266","1563854","0.0-149.0","battery-v0.2","","""event"",""trial"",""time""
""fullscreenenter"",""1"",""2326""
","
","
","""event"",""trial"",""time""
""fullscreenenter"",""1"",""2326""
","
","","","-1","","","17","5130","3237","g","elianto","#f73b6a7A","-1","-1","1","0","[]","0","3","","","5130","144","3","4","lose","no-go","0"
"pit-trial","267","1567977","0.0-150.0","battery-v0.2","","""event"",""trial"",""time""
""fullscreenenter"",""1"",""2326""
","
","
","""event"",""trial"",""time""
""fullscreenenter"",""1"",""2326""
","
