"trial_type","trial_index","time_elapsed","internal_node_id","task_version","subject_id","interactions","blur_events","focus_events","fullscreenenter_events","fullscreenexit_events","success","view_history","rt","responses","num_errors","age","subject","participantId","rune","rune_set","hex","correct","choice","accuracy","outcome","keys","total_keys","block","practice","value","sub","trial","stimulus","robot","valence","action","sham"
"pavlovia","0","12","0.0-0.0","battery-v0.2","","""event"",""trial"",""time""
""fullscreenenter"",""1"",""1753""
","
","
","""event"",""trial"",""time""
""fullscreenenter"",""1"",""1753""
","
","","","","","","","","","","","","","","","","","","","","","","","","","","",""
"fullscreen","1","2621","0.0-1.0","battery-v0.2","","""event"",""trial"",""time""
""fullscreenenter"",""1"",""1753""
","
","
","""event"",""trial"",""time""
""fullscreenenter"",""1"",""1753""
","
","true","","","","","","","","","","","","","","","","","","","","","","","","","",""
"pit-instructions","2","6604","0.0-2.0-0.0","battery-v0.2","","""event"",""trial"",""time""
""fullscreenenter"",""1"",""1753""
","
","
","""event"",""trial"",""time""
""fullscreenenter"",""1"",""1753""
","
","","[{""page_index"":0,""viewing_time"":3979.7999999821186}]","3980.0999999940395","","","","","","","","","","","","","","","","","","","","","","","",""
"pit-comprehension","3","15572","0.0-2.0-1.0-0.0","battery-v0.2","","""event"",""trial"",""time""
""fullscreenenter"",""1"",""1753""
","
","
","""event"",""trial"",""time""
""fullscreenenter"",""1"",""1753""
","
","","","8963.59999999404","[""turtle""]","1","18","8902","4041","","","","","","","","","","","","","","","","","","",""
"pit-instructions","4","19691","0.0-2.0-1.0-1.0","battery-v0.2","","""event"",""trial"",""time""
""fullscreenenter"",""1"",""1753""
","
","
","""event"",""trial"",""time""
""fullscreenenter"",""1"",""1753""
","
","","[{""page_index"":0,""viewing_time"":4005.199999988079}]","4005.699999988079","","","","","","","","","","","","","","","","","","","","","","","",""
"pit-instructions","5","20376","0.0-2.0-1.0-2.0-0.0","battery-v0.2","","""event"",""trial"",""time""
""fullscreenenter"",""1"",""1753""
","
","
","""event"",""trial"",""time""
""fullscreenenter"",""1"",""1753""
","
","","[{""page_index"":0,""viewing_time"":681.2999999821186}]","682","","","","","","","","","","","","","","","","","","","","","","","",""
"pit-comprehension","6","23984","0.0-2.0-1.1-0.1","battery-v0.2","","""event"",""trial"",""time""
""fullscreenenter"",""1"",""1753""
","
","
","""event"",""trial"",""time""
""fullscreenenter"",""1"",""1753""
","
","","","3604.9000000059605","[""shark""]","0","18","8902","4041","","","","","","","","","","","","","","","","","","",""
"pit-instructions","7","25059","0.0-2.0-1.1-1.1","battery-v0.2","","""event"",""trial"",""time""
""fullscreenenter"",""1"",""1753""
","
","
","""event"",""trial"",""time""
""fullscreenenter"",""1"",""1753""
","
","","[{""page_index"":0,""viewing_time"":1071.2000000178814}]","1071.6000000238419","","","","","","","","","","","","","","","","","","","","","","","",""
"pit-comprehension","8","28450","0.0-2.0-2.0-0.0","battery-v0.2","","""event"",""trial"",""time""
""fullscreenenter"",""1"",""1753""
","
","
","""event"",""trial"",""time""
""fullscreenenter"",""1"",""1753""
","
","","","3386.800000011921","[""tiger""]","0","18","8902","4041","","","","","","","","","","","","","","","","","","",""
"pit-instructions","9","29929","0.0-2.0-2.0-1.0","battery-v0.2","","""event"",""trial"",""time""
""fullscreenenter"",""1"",""1753""
","
","
","""event"",""trial"",""time""
""fullscreenenter"",""1"",""1753""
","
","","[{""page_index"":0,""viewing_time"":1474.4000000059605}]","1475.4000000059605","","","","","","","","","","","","","","","","","","","","","","","",""
"pit-instructions","10","125754","0.0-2.0-3.0","battery-v0.2","","""event"",""trial"",""time""
""fullscreenenter"",""1"",""1753""
","
","
","""event"",""trial"",""time""
""fullscreenenter"",""1"",""1753""
","
","","[{""page_index"":0,""viewing_time"":7281},{""page_index"":1,""viewing_time"":5597.4000000059605},{""page_index"":2,""viewing_time"":6712.4000000059605},{""page_index"":3,""viewing_time"":5173.699999988079},{""page_index"":4,""viewing_time"":9254.59999999404},{""page_index"":5,""viewing_time"":6280.5},{""page_index"":6,""viewing_time"":7412},{""page_index"":7,""viewing_time"":6036.5},{""page_index"":8,""viewing_time"":6311.100000023842},{""page_index"":9,""viewing_time"":8609.199999988079},{""page_index"":10,""viewing_time"":7814.9000000059605},{""page_index"":11,""viewing_time"":7360.799999982119},{""page_index"":12,""viewing_time"":6703.9000000059605},{""page_index"":13,""viewing_time"":5271.5}]","95820.09999999404","","","","","","","","","","","","","","","","","","","","","","","",""
"pit-trial","11","128797","0.0-2.0-4.0-0.0","battery-v0.2","","""event"",""trial"",""time""
""fullscreenenter"",""1"",""1753""
","
","
","""event"",""trial"",""time""
""fullscreenenter"",""1"",""1753""
","
","","","174.7000000178814","","","18","8902","4041","&#9784;","elianto","#FFFFF080"," "," ","1","&#10004","[1025.2999999821186]","1","0","0","","","","","","","",""
"pit-trial","12","131916","0.0-2.0-4.1-0.1","battery-v0.2","","""event"",""trial"",""time""
""fullscreenenter"",""1"",""1753""
","
","
","""event"",""trial"",""time""
""fullscreenenter"",""1"",""1753""
","
","","","260.5","","","18","8902","4041","&#9784;","elianto","#FFFFF080"," "," ","1","&#10004","[1111.7000000178814]","1","0","0","","","","","","","",""
"pit-trial","13","135574","0.0-2.0-4.2-0.2","battery-v0.2","","""event"",""trial"",""time""
""fullscreenenter"",""1"",""1753""
","
","
","""event"",""trial"",""time""
""fullscreenenter"",""1"",""1753""
","
","","","780.0999999940395","","","18","8902","4041","&#9784;","elianto","#FFFFF080"," "," ","1","&#10004","[1643.6000000238419]","1","0","0","","","","","","","",""
"pit-trial","14","138932","0.0-2.0-4.3-0.3","battery-v0.2","","""event"",""trial"",""time""
""fullscreenenter"",""1"",""1753""
","
","
","""event"",""trial"",""time""
""fullscreenenter"",""1"",""1753""
","
","","","494.90000000596046","","","18","8902","4041","&#9784;","elianto","#FFFFF080"," "," ","1","&#10004","[1348.300000011921]","1","0","0","","","","","","","",""
"pit-trial","15","141994","0.0-2.0-4.4-0.4","battery-v0.2","","""event"",""trial"",""time""
""fullscreenenter"",""1"",""1753""
","
","
","""event"",""trial"",""time""
""fullscreenenter"",""1"",""1753""
","
","","","202.2999999821186","","","18","8902","4041","&#9784;","elianto","#FFFFF080"," "," ","1","&#10004","[399.90000000596046,642.1999999880791,1055.199999988079,1298.4000000059605,1604.5999999940395]","5","0","0","","","","","","","",""
"pit-instructions","16","165069","0.0-2.0-5.0","battery-v0.2","","""event"",""trial"",""time""
""fullscreenenter"",""1"",""1753""
","
","
","""event"",""trial"",""time""
""fullscreenenter"",""1"",""1753""
","
","","[{""page_index"":0,""viewing_time"":5126},{""page_index"":1,""viewing_time"":6313.800000011921},{""page_index"":2,""viewing_time"":6024},{""page_index"":3,""viewing_time"":5607.4000000059605}]","23071.80000001192","","","","","","","","","","","","","","","","","","","","","","","",""
"pit-trial","17","169933","0.0-2.0-6.0-0.0","battery-v0.2","","""event"",""trial"",""time""
""fullscreenenter"",""1"",""1753""
","
","
","""event"",""trial"",""time""
""fullscreenenter"",""1"",""1753""
","
","","","-1","","","18","8902","4041","&#9854;","elianto","#FFFFF080","-1","-1","1","&#10004","[]","0","0","1","","","","","","","",""
"pit-trial","18","174800","0.0-2.0-6.1-0.1","battery-v0.2","","""event"",""trial"",""time""
""fullscreenenter"",""1"",""1753""
","
","
","""event"",""trial"",""time""
""fullscreenenter"",""1"",""1753""
","
","","","-1","","","18","8902","4041","&#9854;","elianto","#FFFFF080","-1","-1","1","&#10004","[]","0","0","1","","","","","","","",""
"pit-trial","19","179658","0.0-2.0-6.2-0.2","battery-v0.2","","""event"",""trial"",""time""
""fullscreenenter"",""1"",""1753""
","
","
","""event"",""trial"",""time""
""fullscreenenter"",""1"",""1753""
","
","","","-1","","","18","8902","4041","&#9854;","elianto","#FFFFF080","-1","-1","1","&#10004","[]","0","0","1","","","","","","","",""
"pit-trial","20","184530","0.0-2.0-6.3-0.3","battery-v0.2","","""event"",""trial"",""time""
""fullscreenenter"",""1"",""1753""
","
","
","""event"",""trial"",""time""
""fullscreenenter"",""1"",""1753""
","
","","","-1","","","18","8902","4041","&#9854;","elianto","#FFFFF080","-1","-1","1","&#10004","[]","0","0","1","","","","","","","",""
"pit-trial","21","189392","0.0-2.0-6.4-0.4","battery-v0.2","","""event"",""trial"",""time""
""fullscreenenter"",""1"",""1753""
","
","
","""event"",""trial"",""time""
""fullscreenenter"",""1"",""1753""
","
","","","-1","","","18","8902","4041","&#9854;","elianto","#FFFFF080","-1","-1","1","&#10004","[]","0","0","1","","","","","","","",""
"pit-instructions","22","329690","0.0-2.0-7.0","battery-v0.2","","""event"",""trial"",""time""
""fullscreenenter"",""1"",""1753""
","
","
","""event"",""trial"",""time""
""fullscreenenter"",""1"",""1753""
","
","","[{""page_index"":0,""viewing_time"":5187.9000000059605},{""page_index"":1,""viewing_time"":6030},{""page_index"":2,""viewing_time"":6736.200000017881},{""page_index"":3,""viewing_time"":5126.799999982119},{""page_index"":4,""viewing_time"":5316.800000011921},{""page_index"":5,""viewing_time"":5464},{""page_index"":6,""viewing_time"":6393.799999982119},{""page_index"":7,""viewing_time"":10059.300000011921},{""page_index"":8,""viewing_time"":8574.90000000596},{""page_index"":9,""viewing_time"":6674.799999982119},{""page_index"":10,""viewing_time"":24274.100000023842},{""page_index"":11,""viewing_time"":5244.0999999940395},{""page_index"":12,""viewing_time"":7828.299999982119},{""page_index"":13,""viewing_time"":6515.4000000059605},{""page_index"":14,""viewing_time"":6412.300000011921},{""page_index"":15,""viewing_time"":7855.5999999940395},{""page_index"":16,""viewing_time"":8140.9000000059605},{""page_index"":17,""viewing_time"":8460.199999988079}]","140295.80000001192","","","","","","","","","","","","","","","","","","","","","","","",""
"pit-trial","23","333488","0.0-2.0-8.0-0.0","battery-v0.2","","""event"",""trial"",""time""
""fullscreenenter"",""1"",""1753""
","
","
","""event"",""trial"",""time""
""fullscreenenter"",""1"",""1753""
","
","","","926.0999999940395","","","18","8902","4041","&#9776;","elianto","#3366ff99"," "," ","1","+10","[1780]","1","0","1","","","","","","","",""
"pit-trial","24","336960","0.0-2.0-8.0-1.0","battery-v0.2","","""event"",""trial"",""time""
""fullscreenenter"",""1"",""1753""
","
","
","""event"",""trial"",""time""
""fullscreenenter"",""1"",""1753""
","
","","","613.1999999880791","","","18","8902","4041","&#9776;","elianto","#3366ff99"," "," ","1","+10","[1468.9000000059605]","1","0","1","","","","","","","",""
"pit-trial","25","340360","0.0-2.0-8.0-2.0","battery-v0.2","","""event"",""trial"",""time""
""fullscreenenter"",""1"",""1753""
","
","
","""event"",""trial"",""time""
""fullscreenenter"",""1"",""1753""
","
","","","536.4000000059605","","","18","8902","4041","&#9776;","elianto","#3366ff99"," "," ","1","+10","[1388.2999999821186]","1","0","1","","","","","","","",""
"pit-trial","26","343594","0.0-2.0-8.0-3.0","battery-v0.2","","""event"",""trial"",""time""
""fullscreenenter"",""1"",""1753""
","
","
","""event"",""trial"",""time""
""fullscreenenter"",""1"",""1753""
","
","","","366.69999998807907","","","18","8902","4041","&#9776;","elianto","#3366ff99"," "," ","1","0","[1216.9000000059605]","1","0","1","","","","","","","",""
"pit-trial","27","346857","0.0-2.0-8.0-4.0","battery-v0.2","","""event"",""trial"",""time""
""fullscreenenter"",""1"",""1753""
","
","
","""event"",""trial"",""time""
""fullscreenenter"",""1"",""1753""
","
","","","394.09999999403954","","","18","8902","4041","&#9776;","elianto","#3366ff99"," "," ","1","+10","[1256.8999999761581]","1","0","1","","","","","","","",""
"pit-trial","28","350113","0.0-2.0-8.1-0.1","battery-v0.2","","""event"",""trial"",""time""
""fullscreenenter"",""1"",""1753""
","
","
","""event"",""trial"",""time""
""fullscreenenter"",""1"",""1753""
","
","","","389.19999998807907","","","18","8902","4041","&#9776;","elianto","#3366ff99"," "," ","1","+10","[220.7000000178814,1239.5]","2","0","1","","","","","","","",""
"pit-trial","29","353509","0.0-2.0-8.1-1.1","battery-v0.2","","""event"",""trial"",""time""
""fullscreenenter"",""1"",""1753""
","
","
","""event"",""trial"",""time""
""fullscreenenter"",""1"",""1753""
","
","","","535.1000000238419","","","18","8902","4041","&#9776;","elianto","#3366ff99"," "," ","1","+10","[1393.9000000059605]","1","0","1","","","","","","","",""
"pit-trial","30","356690","0.0-2.0-8.1-2.1","battery-v0.2","","""event"",""trial"",""time""
""fullscreenenter"",""1"",""1753""
","
","
","""event"",""trial"",""time""
""fullscreenenter"",""1"",""1753""
","
","","","307.7999999821186","","","18","8902","4041","&#9776;","elianto","#3366ff99"," "," ","1","+10","[1172.2999999821186]","1","0","1","","","","","","","",""
"pit-trial","31","359967","0.0-2.0-8.1-3.1","battery-v0.2","","""event"",""trial"",""time""
""fullscreenenter"",""1"",""1753""
","
","
","""event"",""trial"",""time""
""fullscreenenter"",""1"",""1753""
","
","","","409.90000000596046","","","18","8902","4041","&#9776;","elianto","#3366ff99"," "," ","1","0","[1273.9000000059605]","1","0","1","","","","","","","",""
"pit-trial","32","363593","0.0-2.0-8.1-4.1","battery-v0.2","","""event"",""trial"",""time""
""fullscreenenter"",""1"",""1753""
","
","
","""event"",""trial"",""time""
""fullscreenenter"",""1"",""1753""
","
","","","772.6000000238419","","","18","8902","4041","&#9776;","elianto","#3366ff99"," "," ","1","+10","[1623.7000000178814]","1","0","1","","","","","","","",""
"pit-trial","33","366809","0.0-2.0-8.2-0.2","battery-v0.2","","""event"",""trial"",""time""
""fullscreenenter"",""1"",""1753""
","
","
","""event"",""trial"",""time""
""fullscreenenter"",""1"",""1753""
","
","","","362.19999998807907","","","18","8902","4041","&#9776;","elianto","#3366ff99"," "," ","1","+10","[1212.5999999940395]","1","0","1","","","","","","","",""
"pit-trial","34","369856","0.0-2.0-8.2-1.2","battery-v0.2","","""event"",""trial"",""time""
""fullscreenenter"",""1"",""1753""
","
","
","""event"",""trial"",""time""
""fullscreenenter"",""1"",""1753""
","
","","","193.40000000596046","","","18","8902","4041","&#9776;","elianto","#3366ff99"," "," ","1","+10","[1043.4000000059605]","1","0","1","","","","","","","",""
"pit-trial","35","373035","0.0-2.0-8.2-2.2","battery-v0.2","","""event"",""trial"",""time""
""fullscreenenter"",""1"",""1753""
","
","
","""event"",""trial"",""time""
""fullscreenenter"",""1"",""1753""
","
","","","324.2999999821186","","","18","8902","4041","&#9776;","elianto","#3366ff99"," "," ","1","+10","[1176.5999999940395]","1","0","1","","","","","","","",""
"pit-trial","36","376179","0.0-2.0-8.2-3.2","battery-v0.2","","""event"",""trial"",""time""
""fullscreenenter"",""1"",""1753""
","
","
","""event"",""trial"",""time""
""fullscreenenter"",""1"",""1753""
","
","","","290.5","","","18","8902","4041","&#9776;","elianto","#3366ff99"," "," ","1","0","[1140.9000000059605]","1","0","1","","","","","","","",""
"pit-trial","37","379355","0.0-2.0-8.2-4.2","battery-v0.2","","""event"",""trial"",""time""
""fullscreenenter"",""1"",""1753""
","
","
","""event"",""trial"",""time""
""fullscreenenter"",""1"",""1753""
","
","","","322.09999999403954","","","18","8902","4041","&#9776;","elianto","#3366ff99"," "," ","1","+10","[1172.4000000059605]","1","0","1","","","","","","","",""
"call-function","38","379356","0.0-2.0-9.0","battery-v0.2","","""event"",""trial"",""time""
""fullscreenenter"",""1"",""1753""
","
","
","""event"",""trial"",""time""
""fullscreenenter"",""1"",""1753""
","
","","","","","","","","","","","","","","","","","","","","","","","","","","",""
"pit-instructions","39","417591","0.0-2.0-10.0","battery-v0.2","","""event"",""trial"",""time""
""fullscreenenter"",""1"",""1753""
","
","
","""event"",""trial"",""time""
""fullscreenenter"",""1"",""1753""
","
","","[{""page_index"":0,""viewing_time"":6522.5},{""page_index"":1,""viewing_time"":6302.0999999940395},{""page_index"":2,""viewing_time"":9149.700000017881},{""page_index"":3,""viewing_time"":9128.5},{""page_index"":4,""viewing_time"":7131.4000000059605}]","38234.5","","","","","","","","","","","","","","","","","","","","","","","",""
"pit-trial","40","421229","0.0-2.0-11.0-0.0","battery-v0.2","","""event"",""trial"",""time""
""fullscreenenter"",""1"",""1753""
","
","
","""event"",""trial"",""time""
""fullscreenenter"",""1"",""1753""
","
","","","762.6999999880791","","","18","8902","4041","&#9761;","elianto","#3366ff99","-1"," ","0","0","[1619.5999999940395]","1","0","2","","","","","","","",""
"pit-trial","41","425026","0.0-2.0-11.0-1.0","battery-v0.2","","""event"",""trial"",""time""
""fullscreenenter"",""1"",""1753""
","
","
","""event"",""trial"",""time""
""fullscreenenter"",""1"",""1753""
","
","","","938","","","18","8902","4041","&#9761;","elianto","#3366ff99","-1"," ","0","0","[1789.4000000059605]","1","0","2","","","","","","","",""
"pit-trial","42","429895","0.0-2.0-11.0-2.0","battery-v0.2","","""event"",""trial"",""time""
""fullscreenenter"",""1"",""1753""
","
","
","""event"",""trial"",""time""
""fullscreenenter"",""1"",""1753""
","
","","","-1","","","18","8902","4041","&#9761;","elianto","#3366ff99","-1","-1","1","+10","[]","0","0","2","","","","","","","",""
"pit-trial","43","434756","0.0-2.0-11.0-3.0","battery-v0.2","","""event"",""trial"",""time""
""fullscreenenter"",""1"",""1753""
","
","
","""event"",""trial"",""time""
""fullscreenenter"",""1"",""1753""
","
","","","-1","","","18","8902","4041","&#9761;","elianto","#3366ff99","-1","-1","1","0","[]","0","0","2","","","","","","","",""
"pit-trial","44","439634","0.0-2.0-11.0-4.0","battery-v0.2","","""event"",""trial"",""time""
""fullscreenenter"",""1"",""1753""
","
","
","""event"",""trial"",""time""
""fullscreenenter"",""1"",""1753""
","
","","","-1","","","18","8902","4041","&#9761;","elianto","#3366ff99","-1","-1","1","+10","[]","0","0","2","","","","","","","",""
"pit-trial","45","444503","0.0-2.0-11.1-0.1","battery-v0.2","","""event"",""trial"",""time""
""fullscreenenter"",""1"",""1753""
","
","
","""event"",""trial"",""time""
""fullscreenenter"",""1"",""1753""
","
","","","-1","","","18","8902","4041","&#9761;","elianto","#3366ff99","-1","-1","1","+10","[]","0","0","2","","","","","","","",""
"pit-trial","46","449368","0.0-2.0-11.1-1.1","battery-v0.2","","""event"",""trial"",""time""
""fullscreenenter"",""1"",""1753""
","
","
","""event"",""trial"",""time""
""fullscreenenter"",""1"",""1753""
","
","","","-1","","","18","8902","4041","&#9761;","elianto","#3366ff99","-1","-1","1","+10","[]","0","0","2","","","","","","","",""
"pit-trial","47","454222","0.0-2.0-11.1-2.1","battery-v0.2","","""event"",""trial"",""time""
""fullscreenenter"",""1"",""1753""
","
","
","""event"",""trial"",""time""
""fullscreenenter"",""1"",""1753""
","
","","","-1","","","18","8902","4041","&#9761;","elianto","#3366ff99","-1","-1","1","+10","[]","0","0","2","","","","","","","",""
"pit-trial","48","459074","0.0-2.0-11.1-3.1","battery-v0.2","","""event"",""trial"",""time""
""fullscreenenter"",""1"",""1753""
","
","
","""event"",""trial"",""time""
""fullscreenenter"",""1"",""1753""
","
","","","-1","","","18","8902","4041","&#9761;","elianto","#3366ff99","-1","-1","1","0","[]","0","0","2","","","","","","","",""
"pit-trial","49","463927","0.0-2.0-11.1-4.1","battery-v0.2","","""event"",""trial"",""time""
""fullscreenenter"",""1"",""1753""
","
","
","""event"",""trial"",""time""
""fullscreenenter"",""1"",""1753""
","
","","","-1","","","18","8902","4041","&#9761;","elianto","#3366ff99","-1","-1","1","+10","[]","0","0","2","","","","","","","",""
"pit-trial","50","468781","0.0-2.0-11.2-0.2","battery-v0.2","","""event"",""trial"",""time""
""fullscreenenter"",""1"",""1753""
","
","
","""event"",""trial"",""time""
""fullscreenenter"",""1"",""1753""
","
","","","-1","","","18","8902","4041","&#9761;","elianto","#3366ff99","-1","-1","1","+10","[]","0","0","2","","","","","","","",""
"pit-trial","51","473633","0.0-2.0-11.2-1.2","battery-v0.2","","""event"",""trial"",""time""
""fullscreenenter"",""1"",""1753""
","
","
","""event"",""trial"",""time""
""fullscreenenter"",""1"",""1753""
","
","","","-1","","","18","8902","4041","&#9761;","elianto","#3366ff99","-1","-1","1","+10","[]","0","0","2","","","","","","","",""
"pit-trial","52","478486","0.0-2.0-11.2-2.2","battery-v0.2","","""event"",""trial"",""time""
""fullscreenenter"",""1"",""1753""
","
","
","""event"",""trial"",""time""
""fullscreenenter"",""1"",""1753""
","
","","","-1","","","18","8902","4041","&#9761;","elianto","#3366ff99","-1","-1","1","+10","[]","0","0","2","","","","","","","",""
"pit-trial","53","483341","0.0-2.0-11.2-3.2","battery-v0.2","","""event"",""trial"",""time""
""fullscreenenter"",""1"",""1753""
","
","
","""event"",""trial"",""time""
""fullscreenenter"",""1"",""1753""
","
","","","-1","","","18","8902","4041","&#9761;","elianto","#3366ff99","-1","-1","1","0","[]","0","0","2","","","","","","","",""
"pit-trial","54","488195","0.0-2.0-11.2-4.2","battery-v0.2","","""event"",""trial"",""time""
""fullscreenenter"",""1"",""1753""
","
","
","""event"",""trial"",""time""
""fullscreenenter"",""1"",""1753""
","
","","","-1","","","18","8902","4041","&#9761;","elianto","#3366ff99","-1","-1","1","+10","[]","0","0","2","","","","","","","",""
"pit-trial","55","493047","0.0-2.0-11.3-0.3","battery-v0.2","","""event"",""trial"",""time""
""fullscreenenter"",""1"",""1753""
","
","
","""event"",""trial"",""time""
""fullscreenenter"",""1"",""1753""
","
","","","-1","","","18","8902","4041","&#9761;","elianto","#3366ff99","-1","-1","1","+10","[]","0","0","2","","","","","","","",""
"pit-trial","56","497901","0.0-2.0-11.3-1.3","battery-v0.2","","""event"",""trial"",""time""
""fullscreenenter"",""1"",""1753""
","
","
","""event"",""trial"",""time""
""fullscreenenter"",""1"",""1753""
","
","","","-1","","","18","8902","4041","&#9761;","elianto","#3366ff99","-1","-1","1","+10","[]","0","0","2","","","","","","","",""
"pit-trial","57","502754","0.0-2.0-11.3-2.3","battery-v0.2","","""event"",""trial"",""time""
""fullscreenenter"",""1"",""1753""
","
","
","""event"",""trial"",""time""
""fullscreenenter"",""1"",""1753""
","
","","","-1","","","18","8902","4041","&#9761;","elianto","#3366ff99","-1","-1","1","+10","[]","0","0","2","","","","","","","",""
"pit-trial","58","507607","0.0-2.0-11.3-3.3","battery-v0.2","","""event"",""trial"",""time""
""fullscreenenter"",""1"",""1753""
","
","
","""event"",""trial"",""time""
""fullscreenenter"",""1"",""1753""
","
","","","-1","","","18","8902","4041","&#9761;","elianto","#3366ff99","-1","-1","1","0","[]","0","0","2","","","","","","","",""
"pit-trial","59","512462","0.0-2.0-11.3-4.3","battery-v0.2","","""event"",""trial"",""time""
""fullscreenenter"",""1"",""1753""
","
","
","""event"",""trial"",""time""
""fullscreenenter"",""1"",""1753""
","
","","","-1","","","18","8902","4041","&#9761;","elianto","#3366ff99","-1","-1","1","+10","[]","0","0","2","","","","","","","",""
"call-function","60","512464","0.0-2.0-12.0","battery-v0.2","","""event"",""trial"",""time""
""fullscreenenter"",""1"",""1753""
","
","
","""event"",""trial"",""time""
""fullscreenenter"",""1"",""1753""
","
","","","","","","","","","","","","","","","","","","","","","","","","","","",""
"pit-instructions","61","545965","0.0-2.0-13.0","battery-v0.2","","""event"",""trial"",""time""
""fullscreenenter"",""1"",""1753""
","
","
","""event"",""trial"",""time""
""fullscreenenter"",""1"",""1753""
","
","","[{""page_index"":0,""viewing_time"":6724.700000017881},{""page_index"":1,""viewing_time"":7346.199999988079},{""page_index"":2,""viewing_time"":3787.699999988079},{""page_index"":3,""viewing_time"":10863.90000000596},{""page_index"":4,""viewing_time"":4777}]","33500.20000001788","","","","","","","","","","","","","","","","","","","","","","","",""
"pit-trial","62","550834","0.0-2.0-14.0-0.0","battery-v0.2","","""event"",""trial"",""time""
""fullscreenenter"",""1"",""1753""
","
","
","""event"",""trial"",""time""
""fullscreenenter"",""1"",""1753""
","
","","","-1","","","18","8902","4041","&#9826;","elianto","#f73b6a7A","-1","-1","1","0","[]","0","0","3","","","","","","","",""
"pit-trial","63","555702","0.0-2.0-14.0-1.0","battery-v0.2","","""event"",""trial"",""time""
""fullscreenenter"",""1"",""1753""
","
","
","""event"",""trial"",""time""
""fullscreenenter"",""1"",""1753""
","
","","","-1","","","18","8902","4041","&#9826;","elianto","#f73b6a7A","-1","-1","1","0","[]","0","0","3","","","","","","","",""
"pit-trial","64","560576","0.0-2.0-14.0-2.0","battery-v0.2","","""event"",""trial"",""time""
""fullscreenenter"",""1"",""1753""
","
","
","""event"",""trial"",""time""
""fullscreenenter"",""1"",""1753""
","
","","","-1","","","18","8902","4041","&#9826;","elianto","#f73b6a7A","-1","-1","1","0","[]","0","0","3","","","","","","","",""
"pit-trial","65","565439","0.0-2.0-14.0-3.0","battery-v0.2","","""event"",""trial"",""time""
""fullscreenenter"",""1"",""1753""
","
","
","""event"",""trial"",""time""
""fullscreenenter"",""1"",""1753""
","
","","","-1","","","18","8902","4041","&#9826;","elianto","#f73b6a7A","-1","-1","1","-10","[]","0","0","3","","","","","","","",""
"pit-trial","66","570310","0.0-2.0-14.0-4.0","battery-v0.2","","""event"",""trial"",""time""
""fullscreenenter"",""1"",""1753""
","
","
","""event"",""trial"",""time""
""fullscreenenter"",""1"",""1753""
","
","","","-1","","","18","8902","4041","&#9826;","elianto","#f73b6a7A","-1","-1","1","0","[]","0","0","3","","","","","","","",""
"pit-trial","67","575179","0.0-2.0-14.1-0.1","battery-v0.2","","""event"",""trial"",""time""
""fullscreenenter"",""1"",""1753""
","
","
","""event"",""trial"",""time""
""fullscreenenter"",""1"",""1753""
","
","","","-1","","","18","8902","4041","&#9826;","elianto","#f73b6a7A","-1","-1","1","0","[]","0","0","3","","","","","","","",""
"pit-trial","68","580032","0.0-2.0-14.1-1.1","battery-v0.2","","""event"",""trial"",""time""
""fullscreenenter"",""1"",""1753""
","
","
","""event"",""trial"",""time""
""fullscreenenter"",""1"",""1753""
","
","","","-1","","","18","8902","4041","&#9826;","elianto","#f73b6a7A","-1","-1","1","0","[]","0","0","3","","","","","","","",""
"pit-trial","69","584885","0.0-2.0-14.1-2.1","battery-v0.2","","""event"",""trial"",""time""
""fullscreenenter"",""1"",""1753""
","
","
","""event"",""trial"",""time""
""fullscreenenter"",""1"",""1753""
","
","","","-1","","","18","8902","4041","&#9826;","elianto","#f73b6a7A","-1","-1","1","0","[]","0","0","3","","","","","","","",""
"pit-trial","70","589740","0.0-2.0-14.1-3.1","battery-v0.2","","""event"",""trial"",""time""
""fullscreenenter"",""1"",""1753""
","
","
","""event"",""trial"",""time""
""fullscreenenter"",""1"",""1753""
","
","","","-1","","","18","8902","4041","&#9826;","elianto","#f73b6a7A","-1","-1","1","-10","[]","0","0","3","","","","","","","",""
"pit-trial","71","594593","0.0-2.0-14.1-4.1","battery-v0.2","","""event"",""trial"",""time""
""fullscreenenter"",""1"",""1753""
","
","
","""event"",""trial"",""time""
""fullscreenenter"",""1"",""1753""
","
","","","-1","","","18","8902","4041","&#9826;","elianto","#f73b6a7A","-1","-1","1","0","[]","0","0","3","","","","","","","",""
"pit-trial","72","599447","0.0-2.0-14.2-0.2","battery-v0.2","","""event"",""trial"",""time""
""fullscreenenter"",""1"",""1753""
","
","
","""event"",""trial"",""time""
""fullscreenenter"",""1"",""1753""
","
","","","-1","","","18","8902","4041","&#9826;","elianto","#f73b6a7A","-1","-1","1","0","[]","0","0","3","","","","","","","",""
"pit-trial","73","604300","0.0-2.0-14.2-1.2","battery-v0.2","","""event"",""trial"",""time""
""fullscreenenter"",""1"",""1753""
","
","
","""event"",""trial"",""time""
""fullscreenenter"",""1"",""1753""
","
","","","-1","","","18","8902","4041","&#9826;","elianto","#f73b6a7A","-1","-1","1","0","[]","0","0","3","","","","","","","",""
"pit-trial","74","609154","0.0-2.0-14.2-2.2","battery-v0.2","","""event"",""trial"",""time""
""fullscreenenter"",""1"",""1753""
","
","
","""event"",""trial"",""time""
""fullscreenenter"",""1"",""1753""
","
","","","-1","","","18","8902","4041","&#9826;","elianto","#f73b6a7A","-1","-1","1","0","[]","0","0","3","","","","","","","",""
"pit-trial","75","614007","0.0-2.0-14.2-3.2","battery-v0.2","","""event"",""trial"",""time""
""fullscreenenter"",""1"",""1753""
","
","
","""event"",""trial"",""time""
""fullscreenenter"",""1"",""1753""
","
","","","-1","","","18","8902","4041","&#9826;","elianto","#f73b6a7A","-1","-1","1","-10","[]","0","0","3","","","","","","","",""
"pit-trial","76","618861","0.0-2.0-14.2-4.2","battery-v0.2","","""event"",""trial"",""time""
""fullscreenenter"",""1"",""1753""
","
","
","""event"",""trial"",""time""
""fullscreenenter"",""1"",""1753""
","
","","","-1","","","18","8902","4041","&#9826;","elianto","#f73b6a7A","-1","-1","1","0","[]","0","0","3","","","","","","","",""
"pit-trial","77","623715","0.0-2.0-14.3-0.3","battery-v0.2","","""event"",""trial"",""time""
""fullscreenenter"",""1"",""1753""
","
","
","""event"",""trial"",""time""
""fullscreenenter"",""1"",""1753""
","
","","","-1","","","18","8902","4041","&#9826;","elianto","#f73b6a7A","-1","-1","1","0","[]","0","0","3","","","","","","","",""
"pit-trial","78","628567","0.0-2.0-14.3-1.3","battery-v0.2","","""event"",""trial"",""time""
""fullscreenenter"",""1"",""1753""
","
","
","""event"",""trial"",""time""
""fullscreenenter"",""1"",""1753""
","
","","","-1","","","18","8902","4041","&#9826;","elianto","#f73b6a7A","-1","-1","1","0","[]","0","0","3","","","","","","","",""
"pit-trial","79","633420","0.0-2.0-14.3-2.3","battery-v0.2","","""event"",""trial"",""time""
""fullscreenenter"",""1"",""1753""
","
","
","""event"",""trial"",""time""
""fullscreenenter"",""1"",""1753""
","
","","","-1","","","18","8902","4041","&#9826;","elianto","#f73b6a7A","-1","-1","1","0","[]","0","0","3","","","","","","","",""
"pit-trial","80","638273","0.0-2.0-14.3-3.3","battery-v0.2","","""event"",""trial"",""time""
""fullscreenenter"",""1"",""1753""
","
","
","""event"",""trial"",""time""
""fullscreenenter"",""1"",""1753""
","
","","","-1","","","18","8902","4041","&#9826;","elianto","#f73b6a7A","-1","-1","1","-10","[]","0","0","3","","","","","","","",""
"pit-trial","81","643127","0.0-2.0-14.3-4.3","battery-v0.2","","""event"",""trial"",""time""
""fullscreenenter"",""1"",""1753""
","
","
","""event"",""trial"",""time""
""fullscreenenter"",""1"",""1753""
","
","","","-1","","","18","8902","4041","&#9826;","elianto","#f73b6a7A","-1","-1","1","0","[]","0","0","3","","","","","","","",""
"call-function","82","643128","0.0-2.0-15.0","battery-v0.2","","""event"",""trial"",""time""
""fullscreenenter"",""1"",""1753""
","
","
","""event"",""trial"",""time""
""fullscreenenter"",""1"",""1753""
","
","","","","","","","","","","","","","","","","","","","","","","","","","","",""
"pit-instructions","83","687019","0.0-2.0-16.0","battery-v0.2","","""event"",""trial"",""time""
""fullscreenenter"",""1"",""1753""
","
","
","""event"",""trial"",""time""
""fullscreenenter"",""1"",""1753""
","
","","[{""page_index"":0,""viewing_time"":12749.300000011921},{""page_index"":1,""viewing_time"":8179.899999976158},{""page_index"":2,""viewing_time"":8531.700000017881},{""page_index"":3,""viewing_time"":14428.5}]","43889.90000000596","","","","","","","","","","","","","","","","","","","","","","","",""
"pit-trial","84","691885","0.0-2.0-17.0-0.0","battery-v0.2","","""event"",""trial"",""time""
""fullscreenenter"",""1"",""1753""
","
","
","""event"",""trial"",""time""
""fullscreenenter"",""1"",""1753""
","
","","","-1","","","18","8902","4041","&#9789;","elianto","#f73b6a7A"," ","-1","0","-10","[]","0","0","4","","","","","","","",""
"pit-trial","85","695844","0.0-2.0-17.0-1.0","battery-v0.2","","""event"",""trial"",""time""
""fullscreenenter"",""1"",""1753""
","
","
","""event"",""trial"",""time""
""fullscreenenter"",""1"",""1753""
","
","","","1099.2000000178814","","","18","8902","4041","&#9789;","elianto","#f73b6a7A"," "," ","1","0","[1953.300000011921]","1","0","4","","","","","","","",""
"pit-trial","86","699318","0.0-2.0-17.0-2.0","battery-v0.2","","""event"",""trial"",""time""
""fullscreenenter"",""1"",""1753""
","
","
","""event"",""trial"",""time""
""fullscreenenter"",""1"",""1753""
","
","","","597.3000000119209","","","18","8902","4041","&#9789;","elianto","#f73b6a7A"," "," ","1","0","[1458.1000000238419,2445.2000000178814]","2","0","4","","","","","","","",""
"pit-trial","87","702492","0.0-2.0-17.0-3.0","battery-v0.2","","""event"",""trial"",""time""
""fullscreenenter"",""1"",""1753""
","
","
","""event"",""trial"",""time""
""fullscreenenter"",""1"",""1753""
","
","","","306.80000001192093","","","18","8902","4041","&#9789;","elianto","#f73b6a7A"," "," ","1","-10","[1158.8999999761581]","1","0","4","","","","","","","",""
"pit-trial","88","705390","0.0-2.0-17.0-4.0","battery-v0.2","","""event"",""trial"",""time""
""fullscreenenter"",""1"",""1753""
","
","
","""event"",""trial"",""time""
""fullscreenenter"",""1"",""1753""
","
","","","20.200000017881393","","","18","8902","4041","&#9789;","elianto","#f73b6a7A"," "," ","1","0","[880.8000000119209,1234.5999999940395,2163.0999999940395,2434.2000000178814,2699.9000000059605]","5","0","4","","","","","","","",""
"pit-trial","89","708272","0.0-2.0-17.1-0.1","battery-v0.2","","""event"",""trial"",""time""
""fullscreenenter"",""1"",""1753""
","
","
","""event"",""trial"",""time""
""fullscreenenter"",""1"",""1753""
","
","","","26.900000005960464","","","18","8902","4041","&#9789;","elianto","#f73b6a7A"," "," ","1","0","[148.19999998807907,879.4000000059605,1914.5,2228.5999999940395,2471.4000000059605,2715.5]","6","0","4","","","","","","","",""
"pit-trial","90","711250","0.0-2.0-17.1-1.1","battery-v0.2","","""event"",""trial"",""time""
""fullscreenenter"",""1"",""1753""
","
","
","""event"",""trial"",""time""
""fullscreenenter"",""1"",""1753""
","
","","","125.7999999821186","","","18","8902","4041","&#9789;","elianto","#f73b6a7A"," "," ","1","0","[65.80000001192093,244.5,977,1614.5,1834,2200.7000000178814,2607,2812.5]","8","0","4","","","","","","","",""
"pit-trial","91","714792","0.0-2.0-17.1-2.1","battery-v0.2","","""event"",""trial"",""time""
""fullscreenenter"",""1"",""1753""
","
","
","""event"",""trial"",""time""
""fullscreenenter"",""1"",""1753""
","
","","","685.6999999880791","","","18","8902","4041","&#9789;","elianto","#f73b6a7A"," "," ","1","0","[7.300000011920929,287,530.1999999880791,1538.5,1934.699999988079,2231.699999988079,2463.0999999940395,2680.5999999940395,2894,3124.4000000059605]","10","0","4","","","","","","","",""
"pit-trial","92","717766","0.0-2.0-17.1-3.1","battery-v0.2","","""event"",""trial"",""time""
""fullscreenenter"",""1"",""1753""
","
","
","""event"",""trial"",""time""
""fullscreenenter"",""1"",""1753""
","
","","","120.5","","","18","8902","4041","&#9789;","elianto","#f73b6a7A"," "," ","1","-10","[10.599999994039536,276,445.59999999403954,700.6999999880791,970.9000000059605,1393.9000000059605,2083.9000000059605,2341.2999999821186,2762.7999999821186]","9","0","4","","","","","","","",""
"pit-trial","93","720664","0.0-2.0-17.1-4.1","battery-v0.2","","""event"",""trial"",""time""
""fullscreenenter"",""1"",""1753""
","
","
","""event"",""trial"",""time""
""fullscreenenter"",""1"",""1753""
","
","","","44.900000005960464","","","18","8902","4041","&#9789;","elianto","#f73b6a7A"," "," ","1","0","[22.19999998807907,896.2999999821186,1190.699999988079,1407.2999999821186,1745.5999999940395]","5","0","4","","","","","","","",""
"pit-trial","94","723618","0.0-2.0-17.2-0.2","battery-v0.2","","""event"",""trial"",""time""
""fullscreenenter"",""1"",""1753""
","
","
","""event"",""trial"",""time""
""fullscreenenter"",""1"",""1753""
","
","","","101","","","18","8902","4041","&#9789;","elianto","#f73b6a7A"," "," ","1","0","[951.3000000119209,1142.5,1387.800000011921,2066.300000011921,2248.800000011921,2481.7000000178814]","6","0","4","","","","","","","",""
"pit-trial","95","726617","0.0-2.0-17.2-1.2","battery-v0.2","","""event"",""trial"",""time""
""fullscreenenter"",""1"",""1753""
","
","
","""event"",""trial"",""time""
""fullscreenenter"",""1"",""1753""
","
","","","145","","","18","8902","4041","&#9789;","elianto","#f73b6a7A"," "," ","1","0","[164.40000000596046,764.5999999940395,995.7000000178814,1887.2000000178814,2114.0999999940395,2712.5999999940395,2961.4000000059605]","7","0","4","","","","","","","",""
"pit-trial","96","729846","0.0-2.0-17.2-2.2","battery-v0.2","","""event"",""trial"",""time""
""fullscreenenter"",""1"",""1753""
","
","
","""event"",""trial"",""time""
""fullscreenenter"",""1"",""1753""
","
","","","374.5","","","18","8902","4041","&#9789;","elianto","#f73b6a7A"," "," ","1","0","[193.2000000178814,374.2000000178814,634.2000000178814,1226.4000000059605,1519.6000000238419,1777.300000011921,3129.100000023842]","7","0","4","","","","","","","",""
"pit-trial","97","734698","0.0-2.0-17.2-3.2","battery-v0.2","","""event"",""trial"",""time""
""fullscreenenter"",""1"",""1753""
","
","
","""event"",""trial"",""time""
""fullscreenenter"",""1"",""1753""
","
","","","-1","","","18","8902","4041","&#9789;","elianto","#f73b6a7A"," ","-1","0","0","[85.5,323,536,780.9000000059605,3970.5999999940395,4203.800000011921,4411.4000000059605,4668.4000000059605]","8","0","4","","","","","","","",""
"pit-trial","98","737687","0.0-2.0-17.2-4.2","battery-v0.2","","""event"",""trial"",""time""
""fullscreenenter"",""1"",""1753""
","
","
","""event"",""trial"",""time""
""fullscreenenter"",""1"",""1753""
","
","","","135.39999997615814","","","18","8902","4041","&#9789;","elianto","#f73b6a7A"," "," ","1","0","[43.79999998211861,282.40000000596046,489.90000000596046,764.5,987.2999999821186,1247.2999999821186,1503.5,1908.7999999821186,2151.9000000059605,2528.4000000059605,2802.0999999940395,2962.699999988079]","12","0","4","","","","","","","",""
"pit-trial","99","740548","0.0-2.0-17.3-0.3","battery-v0.2","","""event"",""trial"",""time""
""fullscreenenter"",""1"",""1753""
","
","
","""event"",""trial"",""time""
""fullscreenenter"",""1"",""1753""
","
","","","6.299999982118607","","","18","8902","4041","&#9789;","elianto","#f73b6a7A"," "," ","1","0","[216.2000000178814,420.7000000178814,856.4000000059605,1418.9000000059605,1800.4000000059605,1969.0999999940395,2127.2000000178814,2402.0999999940395,2607.0999999940395]","9","0","4","","","","","","","",""
"pit-trial","100","743692","0.0-2.0-17.3-1.3","battery-v0.2","","""event"",""trial"",""time""
""fullscreenenter"",""1"",""1753""
","
","
","""event"",""trial"",""time""
""fullscreenenter"",""1"",""1753""
","
","","","289.19999998807907","","","18","8902","4041","&#9789;","elianto","#f73b6a7A"," "," ","1","0","[63.20000001788139,278.5,473.40000000596046,715.3000000119209,1141.0999999940395,2952.5999999940395]","6","0","4","","","","","","","",""
"pit-trial","101","746883","0.0-2.0-17.3-2.3","battery-v0.2","","""event"",""trial"",""time""
""fullscreenenter"",""1"",""1753""
","
","
","""event"",""trial"",""time""
""fullscreenenter"",""1"",""1753""
","
","","","337","","","18","8902","4041","&#9789;","elianto","#f73b6a7A"," "," ","1","0","[59.80000001192093,260.5,1187.300000011921,2324]","4","0","4","","","","","","","",""
"pit-trial","102","749844","0.0-2.0-17.3-3.3","battery-v0.2","","""event"",""trial"",""time""
""fullscreenenter"",""1"",""1753""
","
","
","""event"",""trial"",""time""
""fullscreenenter"",""1"",""1753""
","
","","","108.7999999821186","","","18","8902","4041","&#9789;","elianto","#f73b6a7A"," "," ","1","-10","[751.2000000178814,959.5,1159.800000011921,1358.5,1878.2000000178814,2927]","6","0","4","","","","","","","",""
"pit-trial","103","752735","0.0-2.0-17.3-4.3","battery-v0.2","","""event"",""trial"",""time""
""fullscreenenter"",""1"",""1753""
","
","
","""event"",""trial"",""time""
""fullscreenenter"",""1"",""1753""
","
","","","36.099999994039536","","","18","8902","4041","&#9789;","elianto","#f73b6a7A"," "," ","1","0","[586.5,887.4000000059605,1315.699999988079,1601,1852.9000000059605,2096.0999999940395,2649.9000000059605,2786.699999988079]","8","0","4","","","","","","","",""
"call-function","104","752737","0.0-2.0-18.0","battery-v0.2","","""event"",""trial"",""time""
""fullscreenenter"",""1"",""1753""
","
","
","""event"",""trial"",""time""
""fullscreenenter"",""1"",""1753""
","
","","","","","","","","","","","","","","","","","","","","","","","","","","",""
"pit-instructions","105","824292","0.0-2.0-19.0","battery-v0.2","","""event"",""trial"",""time""
""fullscreenenter"",""1"",""1753""
","
","
","""event"",""trial"",""time""
""fullscreenenter"",""1"",""1753""
","
","","[{""page_index"":0,""viewing_time"":10819.5},{""page_index"":1,""viewing_time"":4038.5},{""page_index"":2,""viewing_time"":13669.5},{""page_index"":3,""viewing_time"":5478.5},{""page_index"":4,""viewing_time"":6381.9000000059605},{""page_index"":5,""viewing_time"":8704.09999999404},{""page_index"":6,""viewing_time"":6706.299999982119},{""page_index"":7,""viewing_time"":12601.600000023842},{""page_index"":8,""viewing_time"":3154.2999999821186}]","71554.69999998808","","","","","","","","","","","","","","","","","","","","","","","",""
"pit-comprehension","106","836713","0.0-2.0-20.0-0.0","battery-v0.2","","""event"",""trial"",""time""
""fullscreenenter"",""1"",""1753""
","
","
","""event"",""trial"",""time""
""fullscreenenter"",""1"",""1753""
","
","","","12417.40000000596","[""SPACE""]","0","18","8902","4041","","","","","","","","","","","","","","","","","","",""
"pit-instructions","107","839659","0.0-2.0-20.0-1.0","battery-v0.2","","""event"",""trial"",""time""
""fullscreenenter"",""1"",""1753""
","
","
","""event"",""trial"",""time""
""fullscreenenter"",""1"",""1753""
","
","","[{""page_index"":0,""viewing_time"":2869.2000000178814}]","2869.600000023842","","","","","","","","","","","","","","","","","","","","","","","",""
"pit-comprehension","108","845839","0.0-2.0-21.0-0.0","battery-v0.2","","""event"",""trial"",""time""
""fullscreenenter"",""1"",""1753""
","
","
","""event"",""trial"",""time""
""fullscreenenter"",""1"",""1753""
","
","","","6175.199999988079","[""10""]","0","18","8902","4041","","","","","","","","","","","","","","","","","","",""
"pit-instructions","109","847349","0.0-2.0-21.0-1.0","battery-v0.2","","""event"",""trial"",""time""
""fullscreenenter"",""1"",""1753""
","
","
","""event"",""trial"",""time""
""fullscreenenter"",""1"",""1753""
","
","","[{""page_index"":0,""viewing_time"":1460.7000000178814}]","1461","","","","","","","","","","","","","","","","","","","","","","","",""
"pit-comprehension","110","859200","0.0-2.0-22.0-0.0","battery-v0.2","","""event"",""trial"",""time""
""fullscreenenter"",""1"",""1753""
","
","
","""event"",""trial"",""time""
""fullscreenenter"",""1"",""1753""
","
","","","11845.200000017881","[""0""]","0","18","8902","4041","","","","","","","","","","","","","","","","","","",""
"pit-instructions","111","861711","0.0-2.0-22.0-1.0","battery-v0.2","","""event"",""trial"",""time""
""fullscreenenter"",""1"",""1753""
","
","
","""event"",""trial"",""time""
""fullscreenenter"",""1"",""1753""
","
","","[{""page_index"":0,""viewing_time"":2471.399999976158}]","2472","","","","","","","","","","","","","","","","","","","","","","","",""
"pit-comprehension","112","871258","0.0-2.0-23.0-0.0","battery-v0.2","","""event"",""trial"",""time""
""fullscreenenter"",""1"",""1753""
","
","
","""event"",""trial"",""time""
""fullscreenenter"",""1"",""1753""
","
","","","9543.40000000596","[""False""]","1","18","8902","4041","","","","","","","","","","","","","","","","","","",""
"pit-instructions","113","874061","0.0-2.0-23.0-1.0","battery-v0.2","","""event"",""trial"",""time""
""fullscreenenter"",""1"",""1753""
","
","
","""event"",""trial"",""time""
""fullscreenenter"",""1"",""1753""
","
","","[{""page_index"":0,""viewing_time"":2754.199999988079}]","2754.5999999940395","","","","","","","","","","","","","","","","","","","","","","","",""
"pit-instructions","114","874920","0.0-2.0-23.0-2.0-0.0","battery-v0.2","","""event"",""trial"",""time""
""fullscreenenter"",""1"",""1753""
","
","
","""event"",""trial"",""time""
""fullscreenenter"",""1"",""1753""
","
","","[{""page_index"":0,""viewing_time"":856.3000000119209}]","856.8000000119209","","","","","","","","","","","","","","","","","","","","","","","",""
"pit-comprehension","115","884889","0.0-2.0-23.1-0.1","battery-v0.2","","""event"",""trial"",""time""
""fullscreenenter"",""1"",""1753""
","
","
","""event"",""trial"",""time""
""fullscreenenter"",""1"",""1753""
","
","","","9965.09999999404","[""True""]","0","18","8902","4041","","","","","","","","","","","","","","","","","","",""
"pit-instructions","116","887365","0.0-2.0-23.1-1.1","battery-v0.2","","""event"",""trial"",""time""
""fullscreenenter"",""1"",""1753""
","
","
","""event"",""trial"",""time""
""fullscreenenter"",""1"",""1753""
","
","","[{""page_index"":0,""viewing_time"":2434.5999999940395}]","2434.9000000059605","","","","","","","","","","","","","","","","","","","","","","","",""
"pit-comprehension","117","896549","0.0-2.0-24.0-0.0","battery-v0.2","","""event"",""trial"",""time""
""fullscreenenter"",""1"",""1753""
","
","
","""event"",""trial"",""time""
""fullscreenenter"",""1"",""1753""
","
","","","9180.90000000596","[""True""]","0","18","8902","4041","","","","","","","","","","","","","","","","","","",""
"pit-instructions","118","898515","0.0-2.0-24.0-1.0","battery-v0.2","","""event"",""trial"",""time""
""fullscreenenter"",""1"",""1753""
","
","
","""event"",""trial"",""time""
""fullscreenenter"",""1"",""1753""
","
","","[{""page_index"":0,""viewing_time"":1927}]","1927.5999999940395","","","","","","","","","","","","","","","","","","","","","","","",""
"pit-comprehension","119","905529","0.0-2.0-25.0-0.0","battery-v0.2","","""event"",""trial"",""time""
""fullscreenenter"",""1"",""1753""
","
","
","""event"",""trial"",""time""
""fullscreenenter"",""1"",""1753""
","
","","","7010.5999999940395","[""True""]","0","18","8902","4041","","","","","","","","","","","","","","","","","","",""
"pit-instructions","120","910608","0.0-2.0-25.0-1.0","battery-v0.2","","""event"",""trial"",""time""
""fullscreenenter"",""1"",""1753""
","
","
","""event"",""trial"",""time""
""fullscreenenter"",""1"",""1753""
","
","","[{""page_index"":0,""viewing_time"":5036.199999988079}]","5036.699999988079","","","","","","","","","","","","","","","","","","","","","","","",""
"pit-comprehension","121","916759","0.0-2.0-26.0-0.0","battery-v0.2","","""event"",""trial"",""time""
""fullscreenenter"",""1"",""1753""
","
","
","""event"",""trial"",""time""
""fullscreenenter"",""1"",""1753""
","
","","","6147.0999999940395","[""False""]","0","18","8902","4041","","","","","","","","","","","","","","","","","","",""
"pit-instructions","122","919079","0.0-2.0-26.0-1.0","battery-v0.2","","""event"",""trial"",""time""
""fullscreenenter"",""1"",""1753""
","
","
","""event"",""trial"",""time""
""fullscreenenter"",""1"",""1753""
","
","","[{""page_index"":0,""viewing_time"":2276.699999988079}]","2277.199999988079","","","","","","","","","","","","","","","","","","","","","","","",""
"pit-instructions","123","936184","0.0-3.0","battery-v0.2","","""event"",""trial"",""time""
""fullscreenenter"",""1"",""1753""
","
","
","""event"",""trial"",""time""
""fullscreenenter"",""1"",""1753""
","
","","[{""page_index"":0,""viewing_time"":3459.9000000059605},{""page_index"":1,""viewing_time"":7075.299999982119},{""page_index"":2,""viewing_time"":6566.300000011921}]","17102","","","","","","","","","","","","","","","","","","","","","","","",""
"pit-trial","124","941057","0.0-4.0","battery-v0.2","","""event"",""trial"",""time""
""fullscreenenter"",""1"",""1753""
","
","
","""event"",""trial"",""time""
""fullscreenenter"",""1"",""1753""
","
","","","-1","","","18","8902","4041","&#9752;","elianto","#f73b6a7A"," ","-1","0","0","[]","0","1","","","8902","1","3","3","lose","go","1"
"pit-trial","125","945004","0.0-5.0","battery-v0.2","","""event"",""trial"",""time""
""fullscreenenter"",""1"",""1753""
","
","
","""event"",""trial"",""time""
""fullscreenenter"",""1"",""1753""
","
","","","1093.0999999940395","","","18","8902","4041","&#9733;","elianto","#3366ff99","-1"," ","0","0","[1944]","1","1","","","8902","2","2","2","win","no-go","0"
"pit-trial","126","949882","0.0-6.0","battery-v0.2","","""event"",""trial"",""time""
""fullscreenenter"",""1"",""1753""
","
","
","""event"",""trial"",""time""
""fullscreenenter"",""1"",""1753""
","
","","","-1","","","18","8902","4041","&#9728;","elianto","#f73b6a7A","-1","-1","1","0","[]","0","1","","","8902","3","0","4","lose","no-go","0"
"pit-trial","127","953370","0.0-7.0","battery-v0.2","","""event"",""trial"",""time""
""fullscreenenter"",""1"",""1753""
","
","
","""event"",""trial"",""time""
""fullscreenenter"",""1"",""1753""
","
","","","619.8999999761581","","","18","8902","4041","&#9730;","elianto","#3366ff99"," "," ","1","+10","[1473.5999999940395]","1","1","","","8902","4","1","1","win","go","0"
"pit-trial","128","958240","0.0-8.0","battery-v0.2","","""event"",""trial"",""time""
""fullscreenenter"",""1"",""1753""
","
","
","""event"",""trial"",""time""
""fullscreenenter"",""1"",""1753""
","
","","","-1","","","18","8902","4041","&#9752;","elianto","#f73b6a7A"," ","-1","0","-10","[]","0","1","","","8902","5","3","3","lose","go","0"
"pit-trial","129","961933","0.0-9.0","battery-v0.2","","""event"",""trial"",""time""
""fullscreenenter"",""1"",""1753""
","
","
","""event"",""trial"",""time""
""fullscreenenter"",""1"",""1753""
","
","","","823","","","18","8902","4041","&#9733;","elianto","#3366ff99","-1"," ","0","0","[1682.7000000178814]","1","1","","","8902","6","2","2","win","no-go","0"
"pit-trial","130","966800","0.0-10.0","battery-v0.2","","""event"",""trial"",""time""
""fullscreenenter"",""1"",""1753""
","
","
","""event"",""trial"",""time""
""fullscreenenter"",""1"",""1753""
","
","","","-1","","","18","8902","4041","&#9728;","elianto","#f73b6a7A","-1","-1","1","-10","[]","0","1","","","8902","7","0","4","lose","no-go","1"
"pit-trial","131","970117","0.0-11.0","battery-v0.2","","""event"",""trial"",""time""
""fullscreenenter"",""1"",""1753""
","
","
","""event"",""trial"",""time""
""fullscreenenter"",""1"",""1753""
","
","","","465","","","18","8902","4041","&#9730;","elianto","#3366ff99"," "," ","1","+10","[1315.199999988079]","1","1","","","8902","8","1","1","win","go","0"
"pit-trial","132","973261","0.0-12.0","battery-v0.2","","""event"",""trial"",""time""
""fullscreenenter"",""1"",""1753""
","
","
","""event"",""trial"",""time""
""fullscreenenter"",""1"",""1753""
","
","","","289.90000000596046","","","18","8902","4041","&#9728;","elianto","#f73b6a7A","-1"," ","0","-10","[278.09999999403954,1141.0999999940395,1514.7999999821186]","3","1","","","8902","9","0","4","lose","no-go","0"
"pit-trial","133","976676","0.0-13.0","battery-v0.2","","""event"",""trial"",""time""
""fullscreenenter"",""1"",""1753""
","
","
","""event"",""trial"",""time""
""fullscreenenter"",""1"",""1753""
","
","","","559.4000000059605","","","18","8902","4041","&#9733;","elianto","#3366ff99","-1"," ","0","0","[820.6000000238419,1412.1000000238419]","2","1","","","8902","10","2","2","win","no-go","0"
"pit-trial","134","980227","0.0-14.0","battery-v0.2","","""event"",""trial"",""time""
""fullscreenenter"",""1"",""1753""
","
","
","""event"",""trial"",""time""
""fullscreenenter"",""1"",""1753""
","
","","","698.3000000119209","","","18","8902","4041","&#9730;","elianto","#3366ff99"," "," ","1","+10","[1549.2000000178814]","1","1","","","8902","11","1","1","win","go","0"
"pit-trial","135","985081","0.0-15.0","battery-v0.2","","""event"",""trial"",""time""
""fullscreenenter"",""1"",""1753""
","
","
","""event"",""trial"",""time""
""fullscreenenter"",""1"",""1753""
","
","","","-1","","","18","8902","4041","&#9752;","elianto","#f73b6a7A"," ","-1","0","-10","[]","0","1","","","8902","12","3","3","lose","go","0"
"pit-trial","136","989944","0.0-16.0","battery-v0.2","","""event"",""trial"",""time""
""fullscreenenter"",""1"",""1753""
","
","
","""event"",""trial"",""time""
""fullscreenenter"",""1"",""1753""
","
","","","-1","","","18","8902","4041","&#9752;","elianto","#f73b6a7A"," ","-1","0","-10","[]","0","1","","","8902","13","3","3","lose","go","0"
"pit-trial","137","993240","0.0-17.0","battery-v0.2","","""event"",""trial"",""time""
""fullscreenenter"",""1"",""1753""
","
","
","""event"",""trial"",""time""
""fullscreenenter"",""1"",""1753""
","
","","","443.19999998807907","","","18","8902","4041","&#9733;","elianto","#3366ff99","-1"," ","0","0","[1293.7999999821186]","1","1","","","8902","14","2","2","win","no-go","0"
"pit-trial","138","998093","0.0-18.0","battery-v0.2","","""event"",""trial"",""time""
""fullscreenenter"",""1"",""1753""
","
","
","""event"",""trial"",""time""
""fullscreenenter"",""1"",""1753""
","
","","","-1","","","18","8902","4041","&#9728;","elianto","#f73b6a7A","-1","-1","1","0","[]","0","1","","","8902","15","0","4","lose","no-go","0"
"pit-trial","139","1001503","0.0-19.0","battery-v0.2","","""event"",""trial"",""time""
""fullscreenenter"",""1"",""1753""
","
","
","""event"",""trial"",""time""
""fullscreenenter"",""1"",""1753""
","
","","","556.5","","","18","8902","4041","&#9730;","elianto","#3366ff99"," "," ","1","+10","[1407.0999999940395]","1","1","","","8902","16","1","1","win","go","0"
"pit-trial","140","1006356","0.0-20.0","battery-v0.2","","""event"",""trial"",""time""
""fullscreenenter"",""1"",""1753""
","
","
","""event"",""trial"",""time""
""fullscreenenter"",""1"",""1753""
","
","","","-1","","","18","8902","4041","&#9728;","elianto","#f73b6a7A","-1","-1","1","0","[]","0","1","","","8902","17","0","4","lose","no-go","0"
"pit-trial","141","1009823","0.0-21.0","battery-v0.2","","""event"",""trial"",""time""
""fullscreenenter"",""1"",""1753""
","
","
","""event"",""trial"",""time""
""fullscreenenter"",""1"",""1753""
","
","","","612.9000000059605","","","18","8902","4041","&#9730;","elianto","#3366ff99"," "," ","1","+10","[1463.7000000178814]","1","1","","","8902","18","1","1","win","go","0"
"pit-trial","142","1014677","0.0-22.0","battery-v0.2","","""event"",""trial"",""time""
""fullscreenenter"",""1"",""1753""
","
","
","""event"",""trial"",""time""
""fullscreenenter"",""1"",""1753""
","
","","","-1","","","18","8902","4041","&#9752;","elianto","#f73b6a7A"," ","-1","0","-10","[]","0","1","","","8902","19","3","3","lose","go","0"
"pit-trial","143","1018100","0.0-23.0","battery-v0.2","","""event"",""trial"",""time""
""fullscreenenter"",""1"",""1753""
","
","
","""event"",""trial"",""time""
""fullscreenenter"",""1"",""1753""
","
","","","571.1999999880791","","","18","8902","4041","&#9733;","elianto","#3366ff99","-1"," ","0","0","[1421.699999988079]","1","1","","","8902","20","2","2","win","no-go","0"
"pit-instructions","144","1031527","0.0-24.0","battery-v0.2","","""event"",""trial"",""time""
""fullscreenenter"",""1"",""1753""
","
","
","""event"",""trial"",""time""
""fullscreenenter"",""1"",""1753""
","
","","[{""page_index"":0,""viewing_time"":6083.5999999940395},{""page_index"":1,""viewing_time"":7341.4000000059605}]","13425.5","","","","","","","","","","","","","","","","","","","","","","","",""
"pit-trial","145","1035379","0.0-25.0","battery-v0.2","","""event"",""trial"",""time""
""fullscreenenter"",""1"",""1753""
","
","
","""event"",""trial"",""time""
""fullscreenenter"",""1"",""1753""
","
","","","983.1999999880791","","","18","8902","4041","f","elianto","#3366ff99"," "," ","1","0","[1847.4000000059605]","1","2","","","8902","21","1","1","win","go","1"
"pit-trial","146","1040240","0.0-26.0","battery-v0.2","","""event"",""trial"",""time""
""fullscreenenter"",""1"",""1753""
","
","
","""event"",""trial"",""time""
""fullscreenenter"",""1"",""1753""
","
","","","-1","","","18","8902","4041","b","elianto","#f73b6a7A"," ","-1","0","-10","[]","0","2","","","8902","22","3","3","lose","go","0"
"pit-trial","147","1045118","0.0-27.0","battery-v0.2","","""event"",""trial"",""time""
""fullscreenenter"",""1"",""1753""
","
","
","""event"",""trial"",""time""
""fullscreenenter"",""1"",""1753""
","
","","","-1","","","18","8902","4041","n","elianto","#f73b6a7A","-1","-1","1","0","[]","0","2","","","8902","23","0","4","lose","no-go","0"
"pit-trial","148","1049983","0.0-28.0","battery-v0.2","","""event"",""trial"",""time""
""fullscreenenter"",""1"",""1753""
","
","
","""event"",""trial"",""time""
""fullscreenenter"",""1"",""1753""
","
","","","-1","","","18","8902","4041","t","elianto","#f73b6a7A","-1","-1","1","0","[]","0","2","","","8902","24","2","4","lose","no-go","0"
"pit-trial","149","1053819","0.0-29.0","battery-v0.2","","""event"",""trial"",""time""
""fullscreenenter"",""1"",""1753""
","
","
","""event"",""trial"",""time""
""fullscreenenter"",""1"",""1753""
","
","","","971.4000000059605","","","18","8902","4041","f","elianto","#3366ff99"," "," ","1","+10","[1823.699999988079]","1","2","","","8902","25","1","1","win","go","0"
"pit-trial","150","1058681","0.0-30.0","battery-v0.2","","""event"",""trial"",""time""
""fullscreenenter"",""1"",""1753""
","
","
","""event"",""trial"",""time""
""fullscreenenter"",""1"",""1753""
","
","","","-1","","","18","8902","4041","n","elianto","#f73b6a7A","-1","-1","1","0","[]","0","2","","","8902","26","0","4","lose","no-go","0"
"pit-trial","151","1063535","0.0-31.0","battery-v0.2","","""event"",""trial"",""time""
""fullscreenenter"",""1"",""1753""
","
","
","""event"",""trial"",""time""
""fullscreenenter"",""1"",""1753""
","
","","","-1","","","18","8902","4041","b","elianto","#f73b6a7A"," ","-1","0","-10","[]","0","2","","","8902","27","3","3","lose","go","0"
"pit-trial","152","1068388","0.0-32.0","battery-v0.2","","""event"",""trial"",""time""
""fullscreenenter"",""1"",""1753""
","
","
","""event"",""trial"",""time""
""fullscreenenter"",""1"",""1753""
","
","","","-1","","","18","8902","4041","t","elianto","#f73b6a7A","-1","-1","1","-10","[]","0","2","","","8902","28","2","4","lose","no-go","1"
"pit-trial","153","1071969","0.0-33.0","battery-v0.2","","""event"",""trial"",""time""
""fullscreenenter"",""1"",""1753""
","
","
","""event"",""trial"",""time""
""fullscreenenter"",""1"",""1753""
","
","","","725.1999999880791","","","18","8902","4041","f","elianto","#3366ff99"," "," ","1","+10","[1577.199999988079]","1","2","","","8902","29","1","1","win","go","0"
"pit-trial","154","1076823","0.0-34.0","battery-v0.2","","""event"",""trial"",""time""
""fullscreenenter"",""1"",""1753""
","
","
","""event"",""trial"",""time""
""fullscreenenter"",""1"",""1753""
","
","","","-1","","","18","8902","4041","b","elianto","#f73b6a7A"," ","-1","0","-10","[]","0","2","","","8902","30","3","3","lose","go","0"
"pit-trial","155","1081677","0.0-35.0","battery-v0.2","","""event"",""trial"",""time""
""fullscreenenter"",""1"",""1753""
","
","
","""event"",""trial"",""time""
""fullscreenenter"",""1"",""1753""
","
","","","-1","","","18","8902","4041","n","elianto","#f73b6a7A","-1","-1","1","0","[]","0","2","","","8902","31","0","4","lose","no-go","0"
"pit-trial","156","1086531","0.0-36.0","battery-v0.2","","""event"",""trial"",""time""
""fullscreenenter"",""1"",""1753""
","
","
","""event"",""trial"",""time""
""fullscreenenter"",""1"",""1753""
","
","","","-1","","","18","8902","4041","t","elianto","#f73b6a7A","-1","-1","1","0","[]","0","2","","","8902","32","2","4","lose","no-go","0"
"pit-trial","157","1091385","0.0-37.0","battery-v0.2","","""event"",""trial"",""time""
""fullscreenenter"",""1"",""1753""
","
","
","""event"",""trial"",""time""
""fullscreenenter"",""1"",""1753""
","
","","","-1","","","18","8902","4041","b","elianto","#f73b6a7A"," ","-1","0","-10","[]","0","2","","","8902","33","3","3","lose","go","0"
"pit-trial","158","1096238","0.0-38.0","battery-v0.2","","""event"",""trial"",""time""
""fullscreenenter"",""1"",""1753""
","
","
","""event"",""trial"",""time""
""fullscreenenter"",""1"",""1753""
","
","","","-1","","","18","8902","4041","n","elianto","#f73b6a7A","-1","-1","1","0","[]","0","2","","","8902","34","0","4","lose","no-go","0"
"pit-trial","159","1101105","0.0-39.0","battery-v0.2","","""event"",""trial"",""time""
""fullscreenenter"",""1"",""1753""
","
","
","""event"",""trial"",""time""
""fullscreenenter"",""1"",""1753""
","
","","","-1","","","18","8902","4041","t","elianto","#f73b6a7A","-1","-1","1","0","[]","0","2","","","8902","35","2","4","lose","no-go","0"
"pit-trial","160","1104663","0.0-40.0","battery-v0.2","","""event"",""trial"",""time""
""fullscreenenter"",""1"",""1753""
","
","
","""event"",""trial"",""time""
""fullscreenenter"",""1"",""1753""
","
","","","705.0999999940395","","","18","8902","4041","f","elianto","#3366ff99"," "," ","1","0","[1556.300000011921]","1","2","","","8902","36","1","1","win","go","1"
"pit-trial","161","1108334","0.0-41.0","battery-v0.2","","""event"",""trial"",""time""
""fullscreenenter"",""1"",""1753""
","
","
","""event"",""trial"",""time""
""fullscreenenter"",""1"",""1753""
","
","","","817.9000000059605","","","18","8902","4041","f","elianto","#3366ff99"," "," ","1","+10","[1668.5]","1","2","","","8902","37","1","1","win","go","0"
"pit-trial","162","1113188","0.0-42.0","battery-v0.2","","""event"",""trial"",""time""
""fullscreenenter"",""1"",""1753""
","
","
","""event"",""trial"",""time""
""fullscreenenter"",""1"",""1753""
","
","","","-1","","","18","8902","4041","n","elianto","#f73b6a7A","-1","-1","1","0","[]","0","2","","","8902","38","0","4","lose","no-go","0"
"pit-trial","163","1118041","0.0-43.0","battery-v0.2","","""event"",""trial"",""time""
""fullscreenenter"",""1"",""1753""
","
","
","""event"",""trial"",""time""
""fullscreenenter"",""1"",""1753""
","
","","","-1","","","18","8902","4041","b","elianto","#f73b6a7A"," ","-1","0","-10","[]","0","2","","","8902","39","3","3","lose","go","0"
"pit-trial","164","1122895","0.0-44.0","battery-v0.2","","""event"",""trial"",""time""
""fullscreenenter"",""1"",""1753""
","
","
","""event"",""trial"",""time""
""fullscreenenter"",""1"",""1753""
","
","","","-1","","","18","8902","4041","t","elianto","#f73b6a7A","-1","-1","1","0","[]","0","2","","","8902","40","2","4","lose","no-go","0"
"pit-trial","165","1127749","0.0-45.0","battery-v0.2","","""event"",""trial"",""time""
""fullscreenenter"",""1"",""1753""
","
","
","""event"",""trial"",""time""
""fullscreenenter"",""1"",""1753""
","
","","","-1","","","18","8902","4041","t","elianto","#f73b6a7A","-1","-1","1","0","[]","0","2","","","8902","41","2","4","lose","no-go","0"
"pit-trial","166","1132602","0.0-46.0","battery-v0.2","","""event"",""trial"",""time""
""fullscreenenter"",""1"",""1753""
","
","
","""event"",""trial"",""time""
""fullscreenenter"",""1"",""1753""
","
","","","-1","","","18","8902","4041","b","elianto","#f73b6a7A"," ","-1","0","-10","[]","0","2","","","8902","42","3","3","lose","go","0"
"pit-trial","167","1137455","0.0-47.0","battery-v0.2","","""event"",""trial"",""time""
""fullscreenenter"",""1"",""1753""
","
","
","""event"",""trial"",""time""
""fullscreenenter"",""1"",""1753""
","
","","","-1","","","18","8902","4041","n","elianto","#f73b6a7A","-1","-1","1","-10","[]","0","2","","","8902","43","0","4","lose","no-go","1"
"pit-trial","168","1140909","0.0-48.0","battery-v0.2","","""event"",""trial"",""time""
""fullscreenenter"",""1"",""1753""
","
","
","""event"",""trial"",""time""
""fullscreenenter"",""1"",""1753""
","
","","","601","","","18","8902","4041","f","elianto","#3366ff99"," "," ","1","+10","[1451.699999988079]","1","2","","","8902","44","1","1","win","go","0"
"pit-trial","169","1145762","0.0-49.0","battery-v0.2","","""event"",""trial"",""time""
""fullscreenenter"",""1"",""1753""
","
","
","""event"",""trial"",""time""
""fullscreenenter"",""1"",""1753""
","
","","","-1","","","18","8902","4041","c","elianto","#3366ff99","-1","-1","1","0","[3111.300000011921]","1","2","","","8902","45","4","2","win","no-go","1"
"pit-trial","170","1150617","0.0-50.0","battery-v0.2","","""event"",""trial"",""time""
""fullscreenenter"",""1"",""1753""
","
","
","""event"",""trial"",""time""
""fullscreenenter"",""1"",""1753""
","
","","","-1","","","18","8902","4041","b","elianto","#f73b6a7A"," ","-1","0","0","[]","0","2","","","8902","46","3","3","lose","go","1"
"pit-trial","171","1155469","0.0-51.0","battery-v0.2","","""event"",""trial"",""time""
""fullscreenenter"",""1"",""1753""
","
","
","""event"",""trial"",""time""
""fullscreenenter"",""1"",""1753""
","
","","","-1","","","18","8902","4041","t","elianto","#f73b6a7A","-1","-1","1","0","[]","0","2","","","8902","47","2","4","lose","no-go","0"
"pit-trial","172","1160324","0.0-52.0","battery-v0.2","","""event"",""trial"",""time""
""fullscreenenter"",""1"",""1753""
","
","
","""event"",""trial"",""time""
""fullscreenenter"",""1"",""1753""
","
","","","-1","","","18","8902","4041","n","elianto","#f73b6a7A","-1","-1","1","0","[]","0","2","","","8902","48","0","4","lose","no-go","0"
"pit-trial","173","1165177","0.0-53.0","battery-v0.2","","""event"",""trial"",""time""
""fullscreenenter"",""1"",""1753""
","
","
","""event"",""trial"",""time""
""fullscreenenter"",""1"",""1753""
","
","","","-1","","","18","8902","4041","b","elianto","#f73b6a7A"," ","-1","0","-10","[]","0","2","","","8902","49","3","3","lose","go","0"
"pit-trial","174","1170031","0.0-54.0","battery-v0.2","","""event"",""trial"",""time""
""fullscreenenter"",""1"",""1753""
","
","
","""event"",""trial"",""time""
""fullscreenenter"",""1"",""1753""
","
","","","-1","","","18","8902","4041","n","elianto","#f73b6a7A","-1","-1","1","0","[]","0","2","","","8902","50","0","4","lose","no-go","0"
"pit-trial","175","1173427","0.0-55.0","battery-v0.2","","""event"",""trial"",""time""
""fullscreenenter"",""1"",""1753""
","
","
","""event"",""trial"",""time""
""fullscreenenter"",""1"",""1753""
","
","","","543.5999999940395","","","18","8902","4041","f","elianto","#3366ff99"," "," ","1","+10","[1393.8999999761581]","1","2","","","8902","51","1","1","win","go","0"
"pit-trial","176","1176893","0.0-56.0","battery-v0.2","","""event"",""trial"",""time""
""fullscreenenter"",""1"",""1753""
","
","
","""event"",""trial"",""time""
""fullscreenenter"",""1"",""1753""
","
","","","611.2999999821186","","","18","8902","4041","c","elianto","#3366ff99","-1"," ","0","0","[1462.7999999821186]","1","2","","","8902","52","4","2","win","no-go","0"
"pit-trial","177","1180600","0.0-57.0","battery-v0.2","","""event"",""trial"",""time""
""fullscreenenter"",""1"",""1753""
","
","
","""event"",""trial"",""time""
""fullscreenenter"",""1"",""1753""
","
","","","852","","","18","8902","4041","t","elianto","#f73b6a7A","-1"," ","0","-10","[1704.2000000178814]","1","2","","","8902","53","2","4","lose","no-go","0"
"pit-trial","178","1185453","0.0-58.0","battery-v0.2","","""event"",""trial"",""time""
""fullscreenenter"",""1"",""1753""
","
","
","""event"",""trial"",""time""
""fullscreenenter"",""1"",""1753""
","
","","","-1","","","18","8902","4041","n","elianto","#f73b6a7A","-1","-1","1","0","[]","0","2","","","8902","54","0","4","lose","no-go","0"
"pit-trial","179","1188792","0.0-59.0","battery-v0.2","","""event"",""trial"",""time""
""fullscreenenter"",""1"",""1753""
","
","
","""event"",""trial"",""time""
""fullscreenenter"",""1"",""1753""
","
","","","484.80000001192093","","","18","8902","4041","c","elianto","#3366ff99","-1"," ","0","0","[1336.199999988079]","1","2","","","8902","55","4","2","win","no-go","0"
"pit-trial","180","1192894","0.0-60.0","battery-v0.2","","""event"",""trial"",""time""
""fullscreenenter"",""1"",""1753""
","
","
","""event"",""trial"",""time""
""fullscreenenter"",""1"",""1753""
","
","","","1249","","","18","8902","4041","f","elianto","#3366ff99"," "," ","1","+10","[2099.100000023842]","1","2","","","8902","56","1","1","win","go","0"
"pit-trial","181","1196264","0.0-61.0","battery-v0.2","","""event"",""trial"",""time""
""fullscreenenter"",""1"",""1753""
","
","
","""event"",""trial"",""time""
""fullscreenenter"",""1"",""1753""
","
","","","515.9000000059605","","","18","8902","4041","f","elianto","#3366ff99"," "," ","1","+10","[1366.699999988079]","1","2","","","8902","57","1","1","win","go","0"
"pit-trial","182","1201117","0.0-62.0","battery-v0.2","","""event"",""trial"",""time""
""fullscreenenter"",""1"",""1753""
","
","
","""event"",""trial"",""time""
""fullscreenenter"",""1"",""1753""
","
","","","-1","","","18","8902","4041","n","elianto","#f73b6a7A","-1","-1","1","0","[]","0","2","","","8902","58","0","4","lose","no-go","0"
"pit-trial","183","1205546","0.0-63.0","battery-v0.2","","""event"",""trial"",""time""
""fullscreenenter"",""1"",""1753""
","
","
","""event"",""trial"",""time""
""fullscreenenter"",""1"",""1753""
","
","","","1576.5999999940395","","","18","8902","4041","c","elianto","#3366ff99","-1"," ","0","0","[2427]","1","2","","","8902","59","4","2","win","no-go","0"
"pit-trial","184","1210400","0.0-64.0","battery-v0.2","","""event"",""trial"",""time""
""fullscreenenter"",""1"",""1753""
","
","
","""event"",""trial"",""time""
""fullscreenenter"",""1"",""1753""
","
","","","-1","","","18","8902","4041","b","elianto","#f73b6a7A"," ","-1","0","-10","[]","0","2","","","8902","60","3","3","lose","go","0"
"pit-trial","185","1215253","0.0-65.0","battery-v0.2","","""event"",""trial"",""time""
""fullscreenenter"",""1"",""1753""
","
","
","""event"",""trial"",""time""
""fullscreenenter"",""1"",""1753""
","
","","","-1","","","18","8902","4041","t","elianto","#f73b6a7A","-1","-1","1","-10","[]","0","2","","","8902","61","2","4","lose","no-go","1"
"pit-trial","186","1218870","0.0-66.0","battery-v0.2","","""event"",""trial"",""time""
""fullscreenenter"",""1"",""1753""
","
","
","""event"",""trial"",""time""
""fullscreenenter"",""1"",""1753""
","
","","","762.8000000119209","","","18","8902","4041","f","elianto","#3366ff99"," "," ","1","+10","[1613.4000000059605]","1","2","","","8902","62","1","1","win","go","0"
"pit-trial","187","1223014","0.0-67.0","battery-v0.2","","""event"",""trial"",""time""
""fullscreenenter"",""1"",""1753""
","
","
","""event"",""trial"",""time""
""fullscreenenter"",""1"",""1753""
","
","","","1289.4000000059605","","","18","8902","4041","c","elianto","#3366ff99","-1"," ","0","0","[2141.300000011921]","1","2","","","8902","63","4","2","win","no-go","0"
"pit-trial","188","1227868","0.0-68.0","battery-v0.2","","""event"",""trial"",""time""
""fullscreenenter"",""1"",""1753""
","
","
","""event"",""trial"",""time""
""fullscreenenter"",""1"",""1753""
","
","","","-1","","","18","8902","4041","b","elianto","#f73b6a7A"," ","-1","0","-10","[]","0","2","","","8902","64","3","3","lose","go","0"
"pit-trial","189","1232721","0.0-69.0","battery-v0.2","","""event"",""trial"",""time""
""fullscreenenter"",""1"",""1753""
","
","
","""event"",""trial"",""time""
""fullscreenenter"",""1"",""1753""
","
","","","-1","","","18","8902","4041","b","elianto","#f73b6a7A"," ","-1","0","-10","[]","0","2","","","8902","65","3","3","lose","go","0"
"pit-trial","190","1236288","0.0-70.0","battery-v0.2","","""event"",""trial"",""time""
""fullscreenenter"",""1"",""1753""
","
","
","""event"",""trial"",""time""
""fullscreenenter"",""1"",""1753""
","
","","","712.2999999821186","","","18","8902","4041","f","elianto","#3366ff99"," "," ","1","+10","[1562.8999999761581]","1","2","","","8902","66","1","1","win","go","0"
"pit-trial","191","1239721","0.0-71.0","battery-v0.2","","""event"",""trial"",""time""
""fullscreenenter"",""1"",""1753""
","
","
","""event"",""trial"",""time""
""fullscreenenter"",""1"",""1753""
","
","","","579.9000000059605","","","18","8902","4041","c","elianto","#3366ff99","-1"," ","0","0","[1429.8999999761581]","1","2","","","8902","67","4","2","win","no-go","0"
"pit-trial","192","1244575","0.0-72.0","battery-v0.2","","""event"",""trial"",""time""
""fullscreenenter"",""1"",""1753""
","
","
","""event"",""trial"",""time""
""fullscreenenter"",""1"",""1753""
","
","","","-1","","","18","8902","4041","t","elianto","#f73b6a7A","-1","-1","1","0","[]","0","2","","","8902","68","2","4","lose","no-go","0"
"pit-trial","193","1249428","0.0-73.0","battery-v0.2","","""event"",""trial"",""time""
""fullscreenenter"",""1"",""1753""
","
","
","""event"",""trial"",""time""
""fullscreenenter"",""1"",""1753""
","
","","","-1","","","18","8902","4041","b","elianto","#f73b6a7A"," ","-1","0","-10","[]","0","2","","","8902","69","3","3","lose","go","0"
"pit-trial","194","1253059","0.0-74.0","battery-v0.2","","""event"",""trial"",""time""
""fullscreenenter"",""1"",""1753""
","
","
","""event"",""trial"",""time""
""fullscreenenter"",""1"",""1753""
","
","","","777","","","18","8902","4041","z","elianto","#3366ff99"," "," ","1","+10","[1627.2999999821186]","1","2","","","8902","70","5","1","win","go","0"
"pit-trial","195","1256555","0.0-75.0","battery-v0.2","","""event"",""trial"",""time""
""fullscreenenter"",""1"",""1753""
","
","
","""event"",""trial"",""time""
""fullscreenenter"",""1"",""1753""
","
","","","643.5","","","18","8902","4041","c","elianto","#3366ff99","-1"," ","0","+10","[1494.7000000178814]","1","2","","","8902","71","4","2","win","no-go","1"
"pit-trial","196","1259928","0.0-76.0","battery-v0.2","","""event"",""trial"",""time""
""fullscreenenter"",""1"",""1753""
","
","
","""event"",""trial"",""time""
""fullscreenenter"",""1"",""1753""
","
","","","518.9000000059605","","","18","8902","4041","f","elianto","#3366ff99"," "," ","1","+10","[1369.699999988079]","1","2","","","8902","72","1","1","win","go","0"
"pit-trial","197","1263981","0.0-77.0","battery-v0.2","","""event"",""trial"",""time""
""fullscreenenter"",""1"",""1753""
","
","
","""event"",""trial"",""time""
""fullscreenenter"",""1"",""1753""
","
","","","1199.2000000178814","","","18","8902","4041","f","elianto","#3366ff99"," "," ","1","+10","[2050.100000023842]","1","2","","","8902","73","1","1","win","go","0"
"pit-trial","198","1268834","0.0-78.0","battery-v0.2","","""event"",""trial"",""time""
""fullscreenenter"",""1"",""1753""
","
","
","""event"",""trial"",""time""
""fullscreenenter"",""1"",""1753""
","
","","","-1","","","18","8902","4041","b","elianto","#f73b6a7A"," ","-1","0","-10","[]","0","2","","","8902","74","3","3","lose","go","0"
"pit-trial","199","1272206","0.0-79.0","battery-v0.2","","""event"",""trial"",""time""
""fullscreenenter"",""1"",""1753""
","
","
","""event"",""trial"",""time""
""fullscreenenter"",""1"",""1753""
","
","","","519.2999999821186","","","18","8902","4041","c","elianto","#3366ff99","-1"," ","0","0","[1369.9000000059605]","1","2","","","8902","75","4","2","win","no-go","0"
"pit-trial","200","1275602","0.0-80.0","battery-v0.2","","""event"",""trial"",""time""
""fullscreenenter"",""1"",""1753""
","
","
","""event"",""trial"",""time""
""fullscreenenter"",""1"",""1753""
","
","","","536.2000000178814","","","18","8902","4041","z","elianto","#3366ff99"," "," ","1","0","[1386.8999999761581]","1","2","","","8902","76","5","1","win","go","1"
"pit-trial","201","1278965","0.0-81.0","battery-v0.2","","""event"",""trial"",""time""
""fullscreenenter"",""1"",""1753""
","
","
","""event"",""trial"",""time""
""fullscreenenter"",""1"",""1753""
","
","","","509","","","18","8902","4041","z","elianto","#3366ff99"," "," ","1","0","[1360.199999988079]","1","2","","","8902","77","5","1","win","go","1"
"pit-trial","202","1283819","0.0-82.0","battery-v0.2","","""event"",""trial"",""time""
""fullscreenenter"",""1"",""1753""
","
","
","""event"",""trial"",""time""
""fullscreenenter"",""1"",""1753""
","
","","","-1","","","18","8902","4041","b","elianto","#f73b6a7A"," ","-1","0","-10","[]","0","2","","","8902","78","3","3","lose","go","0"
"pit-trial","203","1288676","0.0-83.0","battery-v0.2","","""event"",""trial"",""time""
""fullscreenenter"",""1"",""1753""
","
","
","""event"",""trial"",""time""
""fullscreenenter"",""1"",""1753""
","
","","","-1","","","18","8902","4041","h","elianto","#f73b6a7A","-1","-1","1","0","[]","0","2","","","8902","79","6","4","lose","no-go","0"
"pit-trial","204","1292705","0.0-84.0","battery-v0.2","","""event"",""trial"",""time""
""fullscreenenter"",""1"",""1753""
","
","
","""event"",""trial"",""time""
""fullscreenenter"",""1"",""1753""
","
","","","1154.5","","","18","8902","4041","c","elianto","#3366ff99","-1"," ","0","0","[2011.2000000178814]","1","2","","","8902","80","4","2","win","no-go","0"
"pit-trial","205","1297568","0.0-85.0","battery-v0.2","","""event"",""trial"",""time""
""fullscreenenter"",""1"",""1753""
","
","
","""event"",""trial"",""time""
""fullscreenenter"",""1"",""1753""
","
","","","-1","","","18","8902","4041","y","elianto","#f73b6a7A"," ","-1","0","-10","[]","0","2","","","8902","81","7","3","lose","go","0"
"pit-trial","206","1300994","0.0-86.0","battery-v0.2","","""event"",""trial"",""time""
""fullscreenenter"",""1"",""1753""
","
","
","""event"",""trial"",""time""
""fullscreenenter"",""1"",""1753""
","
","","","571.2999999821186","","","18","8902","4041","c","elianto","#3366ff99","-1"," ","0","0","[1421.5]","1","2","","","8902","82","4","2","win","no-go","0"
"pit-trial","207","1304884","0.0-87.0","battery-v0.2","","""event"",""trial"",""time""
""fullscreenenter"",""1"",""1753""
","
","
","""event"",""trial"",""time""
""fullscreenenter"",""1"",""1753""
","
","","","1029","","","18","8902","4041","z","elianto","#3366ff99"," "," ","1","+10","[1885]","1","2","","","8902","83","5","1","win","go","0"
"pit-trial","208","1309742","0.0-88.0","battery-v0.2","","""event"",""trial"",""time""
""fullscreenenter"",""1"",""1753""
","
","
","""event"",""trial"",""time""
""fullscreenenter"",""1"",""1753""
","
","","","-1","","","18","8902","4041","h","elianto","#f73b6a7A","-1","-1","1","0","[]","0","2","","","8902","84","6","4","lose","no-go","0"
"pit-trial","209","1314620","0.0-89.0","battery-v0.2","","""event"",""trial"",""time""
""fullscreenenter"",""1"",""1753""
","
","
","""event"",""trial"",""time""
""fullscreenenter"",""1"",""1753""
","
","","","-1","","","18","8902","4041","y","elianto","#f73b6a7A"," ","-1","0","-10","[]","0","2","","","8902","85","7","3","lose","go","0"
"pit-trial","210","1319479","0.0-90.0","battery-v0.2","","""event"",""trial"",""time""
""fullscreenenter"",""1"",""1753""
","
","
","""event"",""trial"",""time""
""fullscreenenter"",""1"",""1753""
","
","","","-1","","","18","8902","4041","h","elianto","#f73b6a7A","-1","-1","1","0","[]","0","2","","","8902","86","6","4","lose","no-go","0"
"pit-trial","211","1322840","0.0-91.0","battery-v0.2","","""event"",""trial"",""time""
""fullscreenenter"",""1"",""1753""
","
","
","""event"",""trial"",""time""
""fullscreenenter"",""1"",""1753""
","
","","","500","","","18","8902","4041","z","elianto","#3366ff99"," "," ","1","+10","[1350.9000000059605]","1","2","","","8902","87","5","1","win","go","0"
"pit-trial","212","1326927","0.0-92.0","battery-v0.2","","""event"",""trial"",""time""
""fullscreenenter"",""1"",""1753""
","
","
","""event"",""trial"",""time""
""fullscreenenter"",""1"",""1753""
","
","","","1225","","","18","8902","4041","c","elianto","#3366ff99","-1"," ","0","0","[2078.2999999821186]","1","2","","","8902","88","4","2","win","no-go","0"
"pit-trial","213","1330354","0.0-93.0","battery-v0.2","","""event"",""trial"",""time""
""fullscreenenter"",""1"",""1753""
","
","
","""event"",""trial"",""time""
""fullscreenenter"",""1"",""1753""
","
","","","566","","","18","8902","4041","c","elianto","#3366ff99","-1"," ","0","0","[1416.5999999940395]","1","2","","","8902","89","4","2","win","no-go","0"
"pit-trial","214","1335219","0.0-94.0","battery-v0.2","","""event"",""trial"",""time""
""fullscreenenter"",""1"",""1753""
","
","
","""event"",""trial"",""time""
""fullscreenenter"",""1"",""1753""
","
","","","-1","","","18","8902","4041","h","elianto","#f73b6a7A","-1","-1","1","0","[3491]","1","2","","","8902","90","6","4","lose","no-go","0"
"pit-trial","215","1339219","0.0-95.0","battery-v0.2","","""event"",""trial"",""time""
""fullscreenenter"",""1"",""1753""
","
","
","""event"",""trial"",""time""
""fullscreenenter"",""1"",""1753""
","
","","","1130.5999999940395","","","18","8902","4041","z","elianto","#3366ff99"," "," ","1","+10","[1983.2999999821186]","1","2","","","8902","91","5","1","win","go","0"
"pit-trial","216","1344080","0.0-96.0","battery-v0.2","","""event"",""trial"",""time""
""fullscreenenter"",""1"",""1753""
","
","
","""event"",""trial"",""time""
""fullscreenenter"",""1"",""1753""
","
","","","-1","","","18","8902","4041","y","elianto","#f73b6a7A"," ","-1","0","-10","[]","0","2","","","8902","92","7","3","lose","go","0"
"pit-trial","217","1348940","0.0-97.0","battery-v0.2","","""event"",""trial"",""time""
""fullscreenenter"",""1"",""1753""
","
","
","""event"",""trial"",""time""
""fullscreenenter"",""1"",""1753""
","
","","","-1","","","18","8902","4041","y","elianto","#f73b6a7A"," ","-1","0","-10","[]","0","2","","","8902","93","7","3","lose","go","0"
"pit-trial","218","1352302","0.0-98.0","battery-v0.2","","""event"",""trial"",""time""
""fullscreenenter"",""1"",""1753""
","
","
","""event"",""trial"",""time""
""fullscreenenter"",""1"",""1753""
","
","","","504.19999998807907","","","18","8902","4041","r","elianto","#3366ff99","-1"," ","0","0","[1358.199999988079]","1","2","","","8902","94","8","2","win","no-go","0"
"pit-trial","219","1357155","0.0-99.0","battery-v0.2","","""event"",""trial"",""time""
""fullscreenenter"",""1"",""1753""
","
","
","""event"",""trial"",""time""
""fullscreenenter"",""1"",""1753""
","
","","","-1","","","18","8902","4041","h","elianto","#f73b6a7A","-1","-1","1","0","[]","0","2","","","8902","95","6","4","lose","no-go","0"
"pit-trial","220","1360519","0.0-100.0","battery-v0.2","","""event"",""trial"",""time""
""fullscreenenter"",""1"",""1753""
","
","
","""event"",""trial"",""time""
""fullscreenenter"",""1"",""1753""
","
","","","509.40000000596046","","","18","8902","4041","z","elianto","#3366ff99"," "," ","1","+10","[1360.2999999821186]","1","2","","","8902","96","5","1","win","go","0"
"pit-trial","221","1364801","0.0-101.0","battery-v0.2","","""event"",""trial"",""time""
""fullscreenenter"",""1"",""1753""
","
","
","""event"",""trial"",""time""
""fullscreenenter"",""1"",""1753""
","
","","","1427.4000000059605","","","18","8902","4041","z","elianto","#3366ff99"," "," ","1","+10","[2278.9000000059605]","1","2","","","8902","97","5","1","win","go","0"
"pit-trial","222","1368141","0.0-102.0","battery-v0.2","","""event"",""trial"",""time""
""fullscreenenter"",""1"",""1753""
","
","
","""event"",""trial"",""time""
""fullscreenenter"",""1"",""1753""
","
","","","486.2999999821186","","","18","8902","4041","r","elianto","#3366ff99","-1"," ","0","0","[1336.699999988079]","1","2","","","8902","98","8","2","win","no-go","0"
"pit-trial","223","1372995","0.0-103.0","battery-v0.2","","""event"",""trial"",""time""
""fullscreenenter"",""1"",""1753""
","
","
","""event"",""trial"",""time""
""fullscreenenter"",""1"",""1753""
","
","","","-1","","","18","8902","4041","h","elianto","#f73b6a7A","-1","-1","1","0","[]","0","2","","","8902","99","6","4","lose","no-go","0"
"pit-trial","224","1377152","0.0-104.0","battery-v0.2","","""event"",""trial"",""time""
""fullscreenenter"",""1"",""1753""
","
","
","""event"",""trial"",""time""
""fullscreenenter"",""1"",""1753""
","
","","","1304.300000011921","","","18","8902","4041","y","elianto","#f73b6a7A"," "," ","1","0","[2154.800000011921]","1","2","","","8902","100","7","3","lose","go","0"
"pit-trial","225","1380499","0.0-105.0","battery-v0.2","","""event"",""trial"",""time""
""fullscreenenter"",""1"",""1753""
","
","
","""event"",""trial"",""time""
""fullscreenenter"",""1"",""1753""
","
","","","492.59999999403954","","","18","8902","4041","r","elianto","#3366ff99","-1"," ","0","0","[1343.0999999940395]","1","2","","","8902","101","8","2","win","no-go","0"
"pit-trial","226","1383863","0.0-106.0","battery-v0.2","","""event"",""trial"",""time""
""fullscreenenter"",""1"",""1753""
","
","
","""event"",""trial"",""time""
""fullscreenenter"",""1"",""1753""
","
","","","510.90000000596046","","","18","8902","4041","m","elianto","#3366ff99","-1"," ","0","0","[1361.0999999940395]","1","2","","","8902","102","9","2","win","no-go","0"
"pit-trial","227","1388717","0.0-107.0","battery-v0.2","","""event"",""trial"",""time""
""fullscreenenter"",""1"",""1753""
","
","
","""event"",""trial"",""time""
""fullscreenenter"",""1"",""1753""
","
","","","-1","","","18","8902","4041","h","elianto","#f73b6a7A","-1","-1","1","0","[]","0","2","","","8902","103","6","4","lose","no-go","0"
"pit-trial","228","1392053","0.0-108.0","battery-v0.2","","""event"",""trial"",""time""
""fullscreenenter"",""1"",""1753""
","
","
","""event"",""trial"",""time""
""fullscreenenter"",""1"",""1753""
","
","","","482.19999998807907","","","18","8902","4041","z","elianto","#3366ff99"," "," ","1","0","[1332.699999988079]","1","2","","","8902","104","5","1","win","go","1"
"pit-trial","229","1396283","0.0-109.0","battery-v0.2","","""event"",""trial"",""time""
""fullscreenenter"",""1"",""1753""
","
","
","""event"",""trial"",""time""
""fullscreenenter"",""1"",""1753""
","
","","","1374.300000011921","","","18","8902","4041","z","elianto","#3366ff99"," "," ","1","+10","[2226.9000000059605]","1","2","","","8902","105","5","1","win","go","0"
"pit-trial","230","1399638","0.0-110.0","battery-v0.2","","""event"",""trial"",""time""
""fullscreenenter"",""1"",""1753""
","
","
","""event"",""trial"",""time""
""fullscreenenter"",""1"",""1753""
","
","","","500.90000000596046","","","18","8902","4041","r","elianto","#3366ff99","-1"," ","0","+10","[1351.4000000059605]","1","2","","","8902","106","8","2","win","no-go","1"
"pit-trial","231","1404494","0.0-111.0","battery-v0.2","","""event"",""trial"",""time""
""fullscreenenter"",""1"",""1753""
","
","
","""event"",""trial"",""time""
""fullscreenenter"",""1"",""1753""
","
","","","-1","","","18","8902","4041","m","elianto","#3366ff99","-1","-1","1","+10","[3706.2000000178814]","1","2","","","8902","107","9","2","win","no-go","0"
"pit-trial","232","1409348","0.0-112.0","battery-v0.2","","""event"",""trial"",""time""
""fullscreenenter"",""1"",""1753""
","
","
","""event"",""trial"",""time""
""fullscreenenter"",""1"",""1753""
","
","","","-1","","","18","8902","4041","h","elianto","#f73b6a7A","-1","-1","1","0","[]","0","2","","","8902","108","6","4","lose","no-go","0"
"pit-trial","233","1414210","0.0-113.0","battery-v0.2","","""event"",""trial"",""time""
""fullscreenenter"",""1"",""1753""
","
","
","""event"",""trial"",""time""
""fullscreenenter"",""1"",""1753""
","
","","","-1","","","18","8902","4041","h","elianto","#f73b6a7A","-1","-1","1","0","[]","0","2","","","8902","109","6","4","lose","no-go","0"
"pit-trial","234","1418655","0.0-114.0","battery-v0.2","","""event"",""trial"",""time""
""fullscreenenter"",""1"",""1753""
","
","
","""event"",""trial"",""time""
""fullscreenenter"",""1"",""1753""
","
","","","1590.6000000238419","","","18","8902","4041","r","elianto","#3366ff99","-1"," ","0","0","[2442]","1","2","","","8902","110","8","2","win","no-go","0"
"pit-trial","235","1422079","0.0-115.0","battery-v0.2","","""event"",""trial"",""time""
""fullscreenenter"",""1"",""1753""
","
","
","""event"",""trial"",""time""
""fullscreenenter"",""1"",""1753""
","
","","","568.5999999940395","","","18","8902","4041","m","elianto","#3366ff99","-1"," ","0","0","[1420.4000000059605]","1","2","","","8902","111","9","2","win","no-go","0"
"pit-trial","236","1425756","0.0-116.0","battery-v0.2","","""event"",""trial"",""time""
""fullscreenenter"",""1"",""1753""
","
","
","""event"",""trial"",""time""
""fullscreenenter"",""1"",""1753""
","
","","","824.5999999940395","","","18","8902","4041","z","elianto","#3366ff99"," "," ","1","+10","[108.09999999403954,1674.7000000178814]","2","2","","","8902","112","5","1","win","go","0"
"pit-trial","237","1429935","0.0-117.0","battery-v0.2","","""event"",""trial"",""time""
""fullscreenenter"",""1"",""1753""
","
","
","""event"",""trial"",""time""
""fullscreenenter"",""1"",""1753""
","
","","","1322.7000000178814","","","18","8902","4041","z","elianto","#3366ff99"," "," ","1","+10","[2174.600000023842]","1","2","","","8902","113","5","1","win","go","0"
"pit-trial","238","1433253","0.0-118.0","battery-v0.2","","""event"",""trial"",""time""
""fullscreenenter"",""1"",""1753""
","
","
","""event"",""trial"",""time""
""fullscreenenter"",""1"",""1753""
","
","","","462.10000002384186","","","18","8902","4041","r","elianto","#3366ff99","-1"," ","0","0","[1313.6000000238419]","1","2","","","8902","114","8","2","win","no-go","0"
"pit-trial","239","1436437","0.0-119.0","battery-v0.2","","""event"",""trial"",""time""
""fullscreenenter"",""1"",""1753""
","
","
","""event"",""trial"",""time""
""fullscreenenter"",""1"",""1753""
","
","","","328","","","18","8902","4041","y","elianto","#f73b6a7A"," "," ","1","0","[1178.5]","1","2","","","8902","115","7","3","lose","go","0"
"pit-trial","240","1440922","0.0-120.0","battery-v0.2","","""event"",""trial"",""time""
""fullscreenenter"",""1"",""1753""
","
","
","""event"",""trial"",""time""
""fullscreenenter"",""1"",""1753""
","
","","","1632.9000000059605","","","18","8902","4041","m","elianto","#3366ff99","-1"," ","0","0","[2483.9000000059605]","1","2","","","8902","116","9","2","win","no-go","0"
"pit-trial","241","1444665","0.0-121.0","battery-v0.2","","""event"",""trial"",""time""
""fullscreenenter"",""1"",""1753""
","
","
","""event"",""trial"",""time""
""fullscreenenter"",""1"",""1753""
","
","","","889.3000000119209","","","18","8902","4041","m","elianto","#3366ff99","-1"," ","0","+10","[1739.9000000059605]","1","2","","","8902","117","9","2","win","no-go","1"
"pit-trial","242","1449521","0.0-122.0","battery-v0.2","","""event"",""trial"",""time""
""fullscreenenter"",""1"",""1753""
","
","
","""event"",""trial"",""time""
""fullscreenenter"",""1"",""1753""
","
","","","-1","","","18","8902","4041","h","elianto","#f73b6a7A","-1","-1","1","-10","[]","0","2","","","8902","118","6","4","lose","no-go","1"
"pit-trial","243","1452455","0.0-123.0","battery-v0.2","","""event"",""trial"",""time""
""fullscreenenter"",""1"",""1753""
","
","
","""event"",""trial"",""time""
""fullscreenenter"",""1"",""1753""
","
","","","79.19999998807907","","","18","8902","4041","z","elianto","#3366ff99"," "," ","1","0","[930,2772.7000000178814]","2","2","","","8902","119","5","1","win","go","1"
"pit-trial","244","1456330","0.0-124.0","battery-v0.2","","""event"",""trial"",""time""
""fullscreenenter"",""1"",""1753""
","
","
","""event"",""trial"",""time""
""fullscreenenter"",""1"",""1753""
","
","","","1021.8000000119209","","","18","8902","4041","r","elianto","#3366ff99","-1"," ","0","0","[1872.4000000059605,3789.7999999821186]","2","2","","","8902","120","8","2","win","no-go","0"
"pit-trial","245","1461184","0.0-125.0","battery-v0.2","","""event"",""trial"",""time""
""fullscreenenter"",""1"",""1753""
","
","
","""event"",""trial"",""time""
""fullscreenenter"",""1"",""1753""
","
","","","-1","","","18","8902","4041","y","elianto","#f73b6a7A"," ","-1","0","-10","[]","0","2","","","8902","121","7","3","lose","go","0"
"pit-trial","246","1464521","0.0-126.0","battery-v0.2","","""event"",""trial"",""time""
""fullscreenenter"",""1"",""1753""
","
","
","""event"",""trial"",""time""
""fullscreenenter"",""1"",""1753""
","
","","","484.2000000178814","","","18","8902","4041","r","elianto","#3366ff99","-1"," ","0","0","[1334.300000011921]","1","2","","","8902","122","8","2","win","no-go","0"
"pit-trial","247","1468571","0.0-127.0","battery-v0.2","","""event"",""trial"",""time""
""fullscreenenter"",""1"",""1753""
","
","
","""event"",""trial"",""time""
""fullscreenenter"",""1"",""1753""
","
","","","1197.199999988079","","","18","8902","4041","z","elianto","#3366ff99"," "," ","1","0","[2047.800000011921]","1","2","","","8902","123","5","1","win","go","1"
"pit-trial","248","1471955","0.0-128.0","battery-v0.2","","""event"",""trial"",""time""
""fullscreenenter"",""1"",""1753""
","
","
","""event"",""trial"",""time""
""fullscreenenter"",""1"",""1753""
","
","","","530.6000000238419","","","18","8902","4041","m","elianto","#3366ff99","-1"," ","0","0","[1382.2000000178814]","1","2","","","8902","124","9","2","win","no-go","0"
"pit-trial","249","1476810","0.0-129.0","battery-v0.2","","""event"",""trial"",""time""
""fullscreenenter"",""1"",""1753""
","
","
","""event"",""trial"",""time""
""fullscreenenter"",""1"",""1753""
","
","","","-1","","","18","8902","4041","h","elianto","#f73b6a7A","-1","-1","1","0","[]","0","2","","","8902","125","6","4","lose","no-go","0"
"pit-trial","250","1481663","0.0-130.0","battery-v0.2","","""event"",""trial"",""time""
""fullscreenenter"",""1"",""1753""
","
","
","""event"",""trial"",""time""
""fullscreenenter"",""1"",""1753""
","
","","","-1","","","18","8902","4041","y","elianto","#f73b6a7A"," ","-1","0","-10","[]","0","2","","","8902","126","7","3","lose","go","0"
"pit-trial","251","1485709","0.0-131.0","battery-v0.2","","""event"",""trial"",""time""
""fullscreenenter"",""1"",""1753""
","
","
","""event"",""trial"",""time""
""fullscreenenter"",""1"",""1753""
","
","","","1192.5","","","18","8902","4041","m","elianto","#3366ff99","-1"," ","0","0","[2043]","1","2","","","8902","127","9","2","win","no-go","0"
"pit-trial","252","1490067","0.0-132.0","battery-v0.2","","""event"",""trial"",""time""
""fullscreenenter"",""1"",""1753""
","
","
","""event"",""trial"",""time""
""fullscreenenter"",""1"",""1753""
","
","","","1502.699999988079","","","18","8902","4041","r","elianto","#3366ff99","-1"," ","0","0","[2355]","1","2","","","8902","128","8","2","win","no-go","0"
"pit-trial","253","1493849","0.0-133.0","battery-v0.2","","""event"",""trial"",""time""
""fullscreenenter"",""1"",""1753""
","
","
","""event"",""trial"",""time""
""fullscreenenter"",""1"",""1753""
","
","","","929.4000000059605","","","18","8902","4041","y","elianto","#f73b6a7A"," "," ","1","0","[1780]","1","2","","","8902","129","7","3","lose","go","0"
"pit-trial","254","1498137","0.0-134.0","battery-v0.2","","""event"",""trial"",""time""
""fullscreenenter"",""1"",""1753""
","
","
","""event"",""trial"",""time""
""fullscreenenter"",""1"",""1753""
","
","","","1433.9000000059605","","","18","8902","4041","r","elianto","#3366ff99","-1"," ","0","0","[2284.800000011921]","1","2","","","8902","130","8","2","win","no-go","0"
"pit-trial","255","1501509","0.0-135.0","battery-v0.2","","""event"",""trial"",""time""
""fullscreenenter"",""1"",""1753""
","
","
","""event"",""trial"",""time""
""fullscreenenter"",""1"",""1753""
","
","","","519.5999999940395","","","18","8902","4041","m","elianto","#3366ff99","-1"," ","0","0","[1370.699999988079]","1","2","","","8902","131","9","2","win","no-go","0"
"pit-trial","256","1506363","0.0-136.0","battery-v0.2","","""event"",""trial"",""time""
""fullscreenenter"",""1"",""1753""
","
","
","""event"",""trial"",""time""
""fullscreenenter"",""1"",""1753""
","
","","","-1","","","18","8902","4041","h","elianto","#f73b6a7A","-1","-1","1","0","[]","0","2","","","8902","132","6","4","lose","no-go","0"
"pit-trial","257","1511216","0.0-137.0","battery-v0.2","","""event"",""trial"",""time""
""fullscreenenter"",""1"",""1753""
","
","
","""event"",""trial"",""time""
""fullscreenenter"",""1"",""1753""
","
","","","-1","","","18","8902","4041","h","elianto","#f73b6a7A","-1","-1","1","0","[]","0","2","","","8902","133","6","4","lose","no-go","0"
"pit-trial","258","1514522","0.0-138.0","battery-v0.2","","""event"",""trial"",""time""
""fullscreenenter"",""1"",""1753""
","
","
","""event"",""trial"",""time""
""fullscreenenter"",""1"",""1753""
","
","","","453","","","18","8902","4041","m","elianto","#3366ff99","-1"," ","0","0","[1303.699999988079]","1","2","","","8902","134","9","2","win","no-go","0"
"pit-trial","259","1519377","0.0-139.0","battery-v0.2","","""event"",""trial"",""time""
""fullscreenenter"",""1"",""1753""
","
","
","""event"",""trial"",""time""
""fullscreenenter"",""1"",""1753""
","
","","","-1","","","18","8902","4041","y","elianto","#f73b6a7A"," ","-1","0","-10","[]","0","2","","","8902","135","7","3","lose","go","0"
"pit-trial","260","1524231","0.0-140.0","battery-v0.2","","""event"",""trial"",""time""
""fullscreenenter"",""1"",""1753""
","
","
","""event"",""trial"",""time""
""fullscreenenter"",""1"",""1753""
","
","","","-1","","","18","8902","4041","r","elianto","#3366ff99","-1","-1","1","+10","[2920.2999999821186]","1","2","","","8902","136","8","2","win","no-go","0"
"pit-trial","261","1528142","0.0-141.0","battery-v0.2","","""event"",""trial"",""time""
""fullscreenenter"",""1"",""1753""
","
","
","""event"",""trial"",""time""
""fullscreenenter"",""1"",""1753""
","
","","","1057.800000011921","","","18","8902","4041","m","elianto","#3366ff99","-1"," ","0","0","[1908.2000000178814]","1","2","","","8902","137","9","2","win","no-go","0"
"pit-trial","262","1532995","0.0-142.0","battery-v0.2","","""event"",""trial"",""time""
""fullscreenenter"",""1"",""1753""
","
","
","""event"",""trial"",""time""
""fullscreenenter"",""1"",""1753""
","
","","","-1","","","18","8902","4041","y","elianto","#f73b6a7A"," ","-1","0","-10","[]","0","2","","","8902","138","7","3","lose","go","0"
"pit-trial","263","1537850","0.0-143.0","battery-v0.2","","""event"",""trial"",""time""
""fullscreenenter"",""1"",""1753""
","
","
","""event"",""trial"",""time""
""fullscreenenter"",""1"",""1753""
","
