"trial_type","trial_index","time_elapsed","internal_node_id","task_version","subject_id","interactions","blur_events","focus_events","fullscreenenter_events","fullscreenexit_events","success","view_history","rt","responses","num_errors","age","subject","participantId","rune","rune_set","hex","correct","choice","accuracy","outcome","keys","total_keys","block","practice","value","sub","trial","stimulus","robot","valence","action","sham"
"pavlovia","0","10","0.0-0.0","battery-v0.2","","""event"",""trial"",""time""
""fullscreenenter"",""1"",""1877""
","
","
","""event"",""trial"",""time""
""fullscreenenter"",""1"",""1877""
","
","","","","","","","","","","","","","","","","","","","","","","","","","","",""
"fullscreen","1","2868","0.0-1.0","battery-v0.2","","""event"",""trial"",""time""
""fullscreenenter"",""1"",""1877""
","
","
","""event"",""trial"",""time""
""fullscreenenter"",""1"",""1877""
","
","true","","","","","","","","","","","","","","","","","","","","","","","","","",""
"pit-instructions","2","7891","0.0-2.0-0.0","battery-v0.2","","""event"",""trial"",""time""
""fullscreenenter"",""1"",""1877""
","
","
","""event"",""trial"",""time""
""fullscreenenter"",""1"",""1877""
","
","","[{""page_index"":0,""viewing_time"":5017.700000047684}]","5018.800000190735","","","","","","","","","","","","","","","","","","","","","","","",""
"pit-comprehension","3","11555","0.0-2.0-1.0-0.0","battery-v0.2","","""event"",""trial"",""time""
""fullscreenenter"",""1"",""1877""
","
","
","""event"",""trial"",""time""
""fullscreenenter"",""1"",""1877""
","
","","","3657.5","[""shark""]","0","16","3961","2565","","","","","","","","","","","","","","","","","","",""
"pit-instructions","4","12602","0.0-2.0-1.0-1.0","battery-v0.2","","""event"",""trial"",""time""
""fullscreenenter"",""1"",""1877""
","
","
","""event"",""trial"",""time""
""fullscreenenter"",""1"",""1877""
","
","","[{""page_index"":0,""viewing_time"":1030.2999999523163}]","1030.5999999046326","","","","","","","","","","","","","","","","","","","","","","","",""
"pit-comprehension","5","15679","0.0-2.0-2.0-0.0","battery-v0.2","","""event"",""trial"",""time""
""fullscreenenter"",""1"",""1877""
","
","
","""event"",""trial"",""time""
""fullscreenenter"",""1"",""1877""
","
","","","3073.4000000953674","[""tiger""]","0","16","3961","2565","","","","","","","","","","","","","","","","","","",""
"pit-instructions","6","17345","0.0-2.0-2.0-1.0","battery-v0.2","","""event"",""trial"",""time""
""fullscreenenter"",""1"",""1877""
","
","
","""event"",""trial"",""time""
""fullscreenenter"",""1"",""1877""
","
","","[{""page_index"":0,""viewing_time"":1660.6999998092651}]","1661.1999998092651","","","","","","","","","","","","","","","","","","","","","","","",""
"pit-instructions","7","114040","0.0-2.0-3.0","battery-v0.2","","""event"",""trial"",""time""
""fullscreenenter"",""1"",""1877""
","
","
","""event"",""trial"",""time""
""fullscreenenter"",""1"",""1877""
","
","","[{""page_index"":0,""viewing_time"":8100.700000047684},{""page_index"":1,""viewing_time"":5248.899999856949},{""page_index"":2,""viewing_time"":6786.700000047684},{""page_index"":3,""viewing_time"":6674.099999904633},{""page_index"":4,""viewing_time"":7118.400000095367},{""page_index"":5,""viewing_time"":5332.900000095367},{""page_index"":6,""viewing_time"":6913.699999809265},{""page_index"":7,""viewing_time"":8860.900000095367},{""page_index"":8,""viewing_time"":6272},{""page_index"":9,""viewing_time"":9185.099999904633},{""page_index"":10,""viewing_time"":7367.100000143051},{""page_index"":11,""viewing_time"":7752.799999952316},{""page_index"":12,""viewing_time"":6066.400000095367},{""page_index"":13,""viewing_time"":5010.199999809265}]","96690.39999985695","","","","","","","","","","","","","","","","","","","","","","","",""
"pit-trial","8","117216","0.0-2.0-4.0-0.0","battery-v0.2","","""event"",""trial"",""time""
""fullscreenenter"",""1"",""1877""
","
","
","""event"",""trial"",""time""
""fullscreenenter"",""1"",""1877""
","
","","","304.5","","","16","3961","2565","&#9784;","elianto","#FFFFF080"," "," ","1","&#10004","[1156.9000000953674]","1","0","0","","","","","","","",""
"pit-trial","9","120417","0.0-2.0-4.1-0.1","battery-v0.2","","""event"",""trial"",""time""
""fullscreenenter"",""1"",""1877""
","
","
","""event"",""trial"",""time""
""fullscreenenter"",""1"",""1877""
","
","","","323.40000009536743","","","16","3961","2565","&#9784;","elianto","#FFFFF080"," "," ","1","&#10004","[1178.2999999523163]","1","0","0","","","","","","","",""
"pit-trial","10","123449","0.0-2.0-4.2-0.2","battery-v0.2","","""event"",""trial"",""time""
""fullscreenenter"",""1"",""1877""
","
","
","""event"",""trial"",""time""
""fullscreenenter"",""1"",""1877""
","
","","","158.70000004768372","","","16","3961","2565","&#9784;","elianto","#FFFFF080"," "," ","1","&#10004","[1013.9000000953674]","1","0","0","","","","","","","",""
"pit-trial","11","126420","0.0-2.0-4.3-0.3","battery-v0.2","","""event"",""trial"",""time""
""fullscreenenter"",""1"",""1877""
","
","
","""event"",""trial"",""time""
""fullscreenenter"",""1"",""1877""
","
","","","106.40000009536743","","","16","3961","2565","&#9784;","elianto","#FFFFF080"," "," ","1","&#10004","[960.5999999046326]","1","0","0","","","","","","","",""
"pit-trial","12","129526","0.0-2.0-4.4-0.4","battery-v0.2","","""event"",""trial"",""time""
""fullscreenenter"",""1"",""1877""
","
","
","""event"",""trial"",""time""
""fullscreenenter"",""1"",""1877""
","
","","","239.90000009536743","","","16","3961","2565","&#9784;","elianto","#FFFFF080"," "," ","1","&#10004","[1090.6000001430511]","1","0","0","","","","","","","",""
"pit-instructions","13","152320","0.0-2.0-5.0","battery-v0.2","","""event"",""trial"",""time""
""fullscreenenter"",""1"",""1877""
","
","
","""event"",""trial"",""time""
""fullscreenenter"",""1"",""1877""
","
","","[{""page_index"":0,""viewing_time"":4829},{""page_index"":1,""viewing_time"":5375.200000047684},{""page_index"":2,""viewing_time"":7134.400000095367},{""page_index"":3,""viewing_time"":5450.099999904633}]","22789.60000014305","","","","","","","","","","","","","","","","","","","","","","","",""
"pit-trial","14","157213","0.0-2.0-6.0-0.0","battery-v0.2","","""event"",""trial"",""time""
""fullscreenenter"",""1"",""1877""
","
","
","""event"",""trial"",""time""
""fullscreenenter"",""1"",""1877""
","
","","","-1","","","16","3961","2565","&#9854;","elianto","#FFFFF080","-1","-1","1","&#10004","[]","0","0","1","","","","","","","",""
"pit-trial","15","162092","0.0-2.0-6.1-0.1","battery-v0.2","","""event"",""trial"",""time""
""fullscreenenter"",""1"",""1877""
","
","
","""event"",""trial"",""time""
""fullscreenenter"",""1"",""1877""
","
","","","-1","","","16","3961","2565","&#9854;","elianto","#FFFFF080","-1","-1","1","&#10004","[]","0","0","1","","","","","","","",""
"pit-trial","16","166978","0.0-2.0-6.2-0.2","battery-v0.2","","""event"",""trial"",""time""
""fullscreenenter"",""1"",""1877""
","
","
","""event"",""trial"",""time""
""fullscreenenter"",""1"",""1877""
","
","","","-1","","","16","3961","2565","&#9854;","elianto","#FFFFF080","-1","-1","1","&#10004","[]","0","0","1","","","","","","","",""
"pit-trial","17","171858","0.0-2.0-6.3-0.3","battery-v0.2","","""event"",""trial"",""time""
""fullscreenenter"",""1"",""1877""
","
","
","""event"",""trial"",""time""
""fullscreenenter"",""1"",""1877""
","
","","","-1","","","16","3961","2565","&#9854;","elianto","#FFFFF080","-1","-1","1","&#10004","[]","0","0","1","","","","","","","",""
"pit-trial","18","176748","0.0-2.0-6.4-0.4","battery-v0.2","","""event"",""trial"",""time""
""fullscreenenter"",""1"",""1877""
","
","
","""event"",""trial"",""time""
""fullscreenenter"",""1"",""1877""
","
","","","-1","","","16","3961","2565","&#9854;","elianto","#FFFFF080","-1","-1","1","&#10004","[]","0","0","1","","","","","","","",""
"pit-instructions","19","304362","0.0-2.0-7.0","battery-v0.2","","""event"",""trial"",""time""
""fullscreenenter"",""1"",""1877""
","
","
","""event"",""trial"",""time""
""fullscreenenter"",""1"",""1877""
","
","","[{""page_index"":0,""viewing_time"":6766.099999904633},{""page_index"":1,""viewing_time"":6820.600000143051},{""page_index"":2,""viewing_time"":5939.299999952316},{""page_index"":3,""viewing_time"":6370.700000047684},{""page_index"":4,""viewing_time"":5939.899999856949},{""page_index"":5,""viewing_time"":5580.400000095367},{""page_index"":6,""viewing_time"":5490.799999952316},{""page_index"":7,""viewing_time"":8048.600000143051},{""page_index"":8,""viewing_time"":8587.799999952316},{""page_index"":9,""viewing_time"":7512.099999904633},{""page_index"":10,""viewing_time"":7218.900000095367},{""page_index"":11,""viewing_time"":6052.5},{""page_index"":12,""viewing_time"":8297.899999856949},{""page_index"":13,""viewing_time"":9312.400000095367},{""page_index"":14,""viewing_time"":6666.599999904633},{""page_index"":15,""viewing_time"":8128},{""page_index"":16,""viewing_time"":6818.600000143051},{""page_index"":17,""viewing_time"":8056.5}]","127608.29999995232","","","","","","","","","","","","","","","","","","","","","","","",""
"pit-trial","20","307863","0.0-2.0-8.0-0.0","battery-v0.2","","""event"",""trial"",""time""
""fullscreenenter"",""1"",""1877""
","
","
","""event"",""trial"",""time""
""fullscreenenter"",""1"",""1877""
","
","","","636.7999999523163","","","16","3961","2565","&#9776;","elianto","#3366ff99"," "," ","1","+10","[1490.5999999046326]","1","0","1","","","","","","","",""
"pit-trial","21","311145","0.0-2.0-8.0-1.0","battery-v0.2","","""event"",""trial"",""time""
""fullscreenenter"",""1"",""1877""
","
","
","""event"",""trial"",""time""
""fullscreenenter"",""1"",""1877""
","
","","","411.60000014305115","","","16","3961","2565","&#9776;","elianto","#3366ff99"," "," ","1","+10","[1264.9000000953674]","1","0","1","","","","","","","",""
"pit-trial","22","314268","0.0-2.0-8.0-2.0","battery-v0.2","","""event"",""trial"",""time""
""fullscreenenter"",""1"",""1877""
","
","
","""event"",""trial"",""time""
""fullscreenenter"",""1"",""1877""
","
","","","263.40000009536743","","","16","3961","2565","&#9776;","elianto","#3366ff99"," "," ","1","+10","[1115.8999998569489]","1","0","1","","","","","","","",""
"pit-trial","23","317323","0.0-2.0-8.0-3.0","battery-v0.2","","""event"",""trial"",""time""
""fullscreenenter"",""1"",""1877""
","
","
","""event"",""trial"",""time""
""fullscreenenter"",""1"",""1877""
","
","","","191.5","","","16","3961","2565","&#9776;","elianto","#3366ff99"," "," ","1","0","[1041.7000000476837]","1","0","1","","","","","","","",""
"pit-trial","24","320303","0.0-2.0-8.0-4.0","battery-v0.2","","""event"",""trial"",""time""
""fullscreenenter"",""1"",""1877""
","
","
","""event"",""trial"",""time""
""fullscreenenter"",""1"",""1877""
","
","","","113.79999995231628","","","16","3961","2565","&#9776;","elianto","#3366ff99"," "," ","1","+10","[966.7999999523163]","1","0","1","","","","","","","",""
"pit-trial","25","323247","0.0-2.0-8.1-0.1","battery-v0.2","","""event"",""trial"",""time""
""fullscreenenter"",""1"",""1877""
","
","
","""event"",""trial"",""time""
""fullscreenenter"",""1"",""1877""
","
","","","63.89999985694885","","","16","3961","2565","&#9776;","elianto","#3366ff99"," "," ","1","+10","[919]","1","0","1","","","","","","","",""
"pit-trial","26","326490","0.0-2.0-8.1-1.1","battery-v0.2","","""event"",""trial"",""time""
""fullscreenenter"",""1"",""1877""
","
","
","""event"",""trial"",""time""
""fullscreenenter"",""1"",""1877""
","
","","","370.10000014305115","","","16","3961","2565","&#9776;","elianto","#3366ff99"," "," ","1","+10","[1221.9000000953674]","1","0","1","","","","","","","",""
"pit-trial","27","329475","0.0-2.0-8.1-2.1","battery-v0.2","","""event"",""trial"",""time""
""fullscreenenter"",""1"",""1877""
","
","
","""event"",""trial"",""time""
""fullscreenenter"",""1"",""1877""
","
","","","111.79999995231628","","","16","3961","2565","&#9776;","elianto","#3366ff99"," "," ","1","+10","[967.2000000476837]","1","0","1","","","","","","","",""
"pit-trial","28","332499","0.0-2.0-8.1-3.1","battery-v0.2","","""event"",""trial"",""time""
""fullscreenenter"",""1"",""1877""
","
","
","""event"",""trial"",""time""
""fullscreenenter"",""1"",""1877""
","
","","","147.20000004768372","","","16","3961","2565","&#9776;","elianto","#3366ff99"," "," ","1","0","[1001.6000001430511]","1","0","1","","","","","","","",""
"pit-trial","29","335507","0.0-2.0-8.1-4.1","battery-v0.2","","""event"",""trial"",""time""
""fullscreenenter"",""1"",""1877""
","
","
","""event"",""trial"",""time""
""fullscreenenter"",""1"",""1877""
","
","","","148.90000009536743","","","16","3961","2565","&#9776;","elianto","#3366ff99"," "," ","1","+10","[1000]","1","0","1","","","","","","","",""
"pit-trial","30","338482","0.0-2.0-8.2-0.2","battery-v0.2","","""event"",""trial"",""time""
""fullscreenenter"",""1"",""1877""
","
","
","""event"",""trial"",""time""
""fullscreenenter"",""1"",""1877""
","
","","","105.70000004768372","","","16","3961","2565","&#9776;","elianto","#3366ff99"," "," ","1","+10","[956.8999998569489]","1","0","1","","","","","","","",""
"pit-trial","31","341459","0.0-2.0-8.2-1.2","battery-v0.2","","""event"",""trial"",""time""
""fullscreenenter"",""1"",""1877""
","
","
","""event"",""trial"",""time""
""fullscreenenter"",""1"",""1877""
","
","","","114.70000004768372","","","16","3961","2565","&#9776;","elianto","#3366ff99"," "," ","1","+10","[967.5]","1","0","1","","","","","","","",""
"pit-trial","32","344476","0.0-2.0-8.2-2.2","battery-v0.2","","""event"",""trial"",""time""
""fullscreenenter"",""1"",""1877""
","
","
","""event"",""trial"",""time""
""fullscreenenter"",""1"",""1877""
","
","","","155.30000019073486","","","16","3961","2565","&#9776;","elianto","#3366ff99"," "," ","1","+10","[1007.5]","1","0","1","","","","","","","",""
"pit-trial","33","347427","0.0-2.0-8.2-3.2","battery-v0.2","","""event"",""trial"",""time""
""fullscreenenter"",""1"",""1877""
","
","
","""event"",""trial"",""time""
""fullscreenenter"",""1"",""1877""
","
","","","92.79999995231628","","","16","3961","2565","&#9776;","elianto","#3366ff99"," "," ","1","0","[943.8999998569489]","1","0","1","","","","","","","",""
"pit-trial","34","351659","0.0-2.0-8.2-4.2","battery-v0.2","","""event"",""trial"",""time""
""fullscreenenter"",""1"",""1877""
","
","
","""event"",""trial"",""time""
""fullscreenenter"",""1"",""1877""
","
","","","1369","","","16","3961","2565","&#9776;","elianto","#3366ff99"," "," ","1","+10","[842.5999999046326,2220.899999856949]","2","0","1","","","","","","","",""
"call-function","35","351662","0.0-2.0-9.0","battery-v0.2","","""event"",""trial"",""time""
""fullscreenenter"",""1"",""1877""
","
","
","""event"",""trial"",""time""
""fullscreenenter"",""1"",""1877""
","
","","","","","","","","","","","","","","","","","","","","","","","","","","",""
"pit-instructions","36","391378","0.0-2.0-10.0","battery-v0.2","","""event"",""trial"",""time""
""fullscreenenter"",""1"",""1877""
","
","
","""event"",""trial"",""time""
""fullscreenenter"",""1"",""1877""
","
","","[{""page_index"":0,""viewing_time"":6829.900000095367},{""page_index"":1,""viewing_time"":6588.399999856949},{""page_index"":2,""viewing_time"":9433.300000190735},{""page_index"":3,""viewing_time"":8842.699999809265},{""page_index"":4,""viewing_time"":8019.900000095367}]","39714.799999952316","","","","","","","","","","","","","","","","","","","","","","","",""
"pit-trial","37","394974","0.0-2.0-11.0-0.0","battery-v0.2","","""event"",""trial"",""time""
""fullscreenenter"",""1"",""1877""
","
","
","""event"",""trial"",""time""
""fullscreenenter"",""1"",""1877""
","
","","","731.2000000476837","","","16","3961","2565","&#9761;","elianto","#3366ff99","-1"," ","0","0","[1585.5999999046326]","1","0","2","","","","","","","",""
"pit-trial","38","398056","0.0-2.0-11.0-1.0","battery-v0.2","","""event"",""trial"",""time""
""fullscreenenter"",""1"",""1877""
","
","
","""event"",""trial"",""time""
""fullscreenenter"",""1"",""1877""
","
","","","199.20000004768372","","","16","3961","2565","&#9761;","elianto","#3366ff99","-1"," ","0","0","[1056.4000000953674]","1","0","2","","","","","","","",""
"pit-trial","39","401246","0.0-2.0-11.0-2.0","battery-v0.2","","""event"",""trial"",""time""
""fullscreenenter"",""1"",""1877""
","
","
","""event"",""trial"",""time""
""fullscreenenter"",""1"",""1877""
","
","","","310.7000000476837","","","16","3961","2565","&#9761;","elianto","#3366ff99","-1"," ","0","0","[1166.7000000476837]","1","0","2","","","","","","","",""
"pit-trial","40","406129","0.0-2.0-11.0-3.0","battery-v0.2","","""event"",""trial"",""time""
""fullscreenenter"",""1"",""1877""
","
","
","""event"",""trial"",""time""
""fullscreenenter"",""1"",""1877""
","
","","","-1","","","16","3961","2565","&#9761;","elianto","#3366ff99","-1","-1","1","0","[]","0","0","2","","","","","","","",""
"pit-trial","41","411022","0.0-2.0-11.0-4.0","battery-v0.2","","""event"",""trial"",""time""
""fullscreenenter"",""1"",""1877""
","
","
","""event"",""trial"",""time""
""fullscreenenter"",""1"",""1877""
","
","","","-1","","","16","3961","2565","&#9761;","elianto","#3366ff99","-1","-1","1","+10","[3962.5]","1","0","2","","","","","","","",""
"pit-trial","42","414383","0.0-2.0-11.1-0.1","battery-v0.2","","""event"",""trial"",""time""
""fullscreenenter"",""1"",""1877""
","
","
","""event"",""trial"",""time""
""fullscreenenter"",""1"",""1877""
","
","","","479.80000019073486","","","16","3961","2565","&#9761;","elianto","#3366ff99","-1"," ","0","0","[1337.2999999523163]","1","0","2","","","","","","","",""
"pit-trial","43","417555","0.0-2.0-11.1-1.1","battery-v0.2","","""event"",""trial"",""time""
""fullscreenenter"",""1"",""1877""
","
","
","""event"",""trial"",""time""
""fullscreenenter"",""1"",""1877""
","
","","","309.89999985694885","","","16","3961","2565","&#9761;","elianto","#3366ff99","-1"," ","0","0","[1161.3999998569489]","1","0","2","","","","","","","",""
"pit-trial","44","420596","0.0-2.0-11.1-2.1","battery-v0.2","","""event"",""trial"",""time""
""fullscreenenter"",""1"",""1877""
","
","
","""event"",""trial"",""time""
""fullscreenenter"",""1"",""1877""
","
","","","183.40000009536743","","","16","3961","2565","&#9761;","elianto","#3366ff99","-1"," ","0","0","[1033.5]","1","0","2","","","","","","","",""
"pit-trial","45","424266","0.0-2.0-11.1-3.1","battery-v0.2","","""event"",""trial"",""time""
""fullscreenenter"",""1"",""1877""
","
","
","""event"",""trial"",""time""
""fullscreenenter"",""1"",""1877""
","
","","","808.0999999046326","","","16","3961","2565","&#9761;","elianto","#3366ff99","-1"," ","0","+10","[1659.2000000476837]","1","0","2","","","","","","","",""
"pit-trial","46","429131","0.0-2.0-11.1-4.1","battery-v0.2","","""event"",""trial"",""time""
""fullscreenenter"",""1"",""1877""
","
","
","""event"",""trial"",""time""
""fullscreenenter"",""1"",""1877""
","
","","","-1","","","16","3961","2565","&#9761;","elianto","#3366ff99","-1","-1","1","+10","[]","0","0","2","","","","","","","",""
"pit-trial","47","432435","0.0-2.0-11.2-0.2","battery-v0.2","","""event"",""trial"",""time""
""fullscreenenter"",""1"",""1877""
","
","
","""event"",""trial"",""time""
""fullscreenenter"",""1"",""1877""
","
","","","442.09999990463257","","","16","3961","2565","&#9761;","elianto","#3366ff99","-1"," ","0","0","[1293.2000000476837]","1","0","2","","","","","","","",""
"pit-trial","48","435755","0.0-2.0-11.2-1.2","battery-v0.2","","""event"",""trial"",""time""
""fullscreenenter"",""1"",""1877""
","
","
","""event"",""trial"",""time""
""fullscreenenter"",""1"",""1877""
","
","","","460.69999980926514","","","16","3961","2565","&#9761;","elianto","#3366ff99","-1"," ","0","0","[1310.8999998569489]","1","0","2","","","","","","","",""
"pit-trial","49","438850","0.0-2.0-11.2-2.2","battery-v0.2","","""event"",""trial"",""time""
""fullscreenenter"",""1"",""1877""
","
","
","""event"",""trial"",""time""
""fullscreenenter"",""1"",""1877""
","
","","","235.20000004768372","","","16","3961","2565","&#9761;","elianto","#3366ff99","-1"," ","0","0","[1087.5999999046326]","1","0","2","","","","","","","",""
"pit-trial","50","442972","0.0-2.0-11.2-3.2","battery-v0.2","","""event"",""trial"",""time""
""fullscreenenter"",""1"",""1877""
","
","
","""event"",""trial"",""time""
""fullscreenenter"",""1"",""1877""
","
","","","1259","","","16","3961","2565","&#9761;","elianto","#3366ff99","-1"," ","0","+10","[2109.5999999046326]","1","0","2","","","","","","","",""
"pit-trial","51","447846","0.0-2.0-11.2-4.2","battery-v0.2","","""event"",""trial"",""time""
""fullscreenenter"",""1"",""1877""
","
","
","""event"",""trial"",""time""
""fullscreenenter"",""1"",""1877""
","
","","","-1","","","16","3961","2565","&#9761;","elianto","#3366ff99","-1","-1","1","+10","[3443.300000190735]","1","0","2","","","","","","","",""
"pit-trial","52","451483","0.0-2.0-11.3-0.3","battery-v0.2","","""event"",""trial"",""time""
""fullscreenenter"",""1"",""1877""
","
","
","""event"",""trial"",""time""
""fullscreenenter"",""1"",""1877""
","
","","","780.0999999046326","","","16","3961","2565","&#9761;","elianto","#3366ff99","-1"," ","0","0","[1630.7000000476837]","1","0","2","","","","","","","",""
"pit-trial","53","454762","0.0-2.0-11.3-1.3","battery-v0.2","","""event"",""trial"",""time""
""fullscreenenter"",""1"",""1877""
","
","
","""event"",""trial"",""time""
""fullscreenenter"",""1"",""1877""
","
","","","416.40000009536743","","","16","3961","2565","&#9761;","elianto","#3366ff99","-1"," ","0","0","[1269.5]","1","0","2","","","","","","","",""
"pit-trial","54","458020","0.0-2.0-11.3-2.3","battery-v0.2","","""event"",""trial"",""time""
""fullscreenenter"",""1"",""1877""
","
","
","""event"",""trial"",""time""
""fullscreenenter"",""1"",""1877""
","
","","","396.5","","","16","3961","2565","&#9761;","elianto","#3366ff99","-1"," ","0","0","[1247]","1","0","2","","","","","","","",""
"pit-trial","55","461259","0.0-2.0-11.3-3.3","battery-v0.2","","""event"",""trial"",""time""
""fullscreenenter"",""1"",""1877""
","
","
","""event"",""trial"",""time""
""fullscreenenter"",""1"",""1877""
","
","","","381.5","","","16","3961","2565","&#9761;","elianto","#3366ff99","-1"," ","0","+10","[1233.6999998092651]","1","0","2","","","","","","","",""
"pit-trial","56","466131","0.0-2.0-11.3-4.3","battery-v0.2","","""event"",""trial"",""time""
""fullscreenenter"",""1"",""1877""
","
","
","""event"",""trial"",""time""
""fullscreenenter"",""1"",""1877""
","
","","","-1","","","16","3961","2565","&#9761;","elianto","#3366ff99","-1","-1","1","+10","[]","0","0","2","","","","","","","",""
"call-function","57","466134","0.0-2.0-12.0","battery-v0.2","","""event"",""trial"",""time""
""fullscreenenter"",""1"",""1877""
","
","
","""event"",""trial"",""time""
""fullscreenenter"",""1"",""1877""
","
","","","","","","","","","","","","","","","","","","","","","","","","","","",""
"pit-instructions","58","506022","0.0-2.0-13.0","battery-v0.2","","""event"",""trial"",""time""
""fullscreenenter"",""1"",""1877""
","
","
","""event"",""trial"",""time""
""fullscreenenter"",""1"",""1877""
","
","","[{""page_index"":0,""viewing_time"":5826.299999952316},{""page_index"":1,""viewing_time"":7090},{""page_index"":2,""viewing_time"":5098.400000095367},{""page_index"":3,""viewing_time"":13974.200000047684},{""page_index"":4,""viewing_time"":7897.599999904633}]","39886.90000009537","","","","","","","","","","","","","","","","","","","","","","","",""
"pit-trial","59","510896","0.0-2.0-14.0-0.0","battery-v0.2","","""event"",""trial"",""time""
""fullscreenenter"",""1"",""1877""
","
","
","""event"",""trial"",""time""
""fullscreenenter"",""1"",""1877""
","
","","","-1","","","16","3961","2565","&#9826;","elianto","#f73b6a7A","-1","-1","1","0","[]","0","0","3","","","","","","","",""
"pit-trial","60","514846","0.0-2.0-14.0-1.0","battery-v0.2","","""event"",""trial"",""time""
""fullscreenenter"",""1"",""1877""
","
","
","""event"",""trial"",""time""
""fullscreenenter"",""1"",""1877""
","
","","","1085.7999999523163","","","16","3961","2565","&#9826;","elianto","#f73b6a7A","-1"," ","0","-10","[1941.0999999046326]","1","0","3","","","","","","","",""
"pit-trial","61","519720","0.0-2.0-14.0-2.0","battery-v0.2","","""event"",""trial"",""time""
""fullscreenenter"",""1"",""1877""
","
","
","""event"",""trial"",""time""
""fullscreenenter"",""1"",""1877""
","
","","","-1","","","16","3961","2565","&#9826;","elianto","#f73b6a7A","-1","-1","1","0","[3440.2000000476837]","1","0","3","","","","","","","",""
"pit-trial","62","523392","0.0-2.0-14.0-3.0","battery-v0.2","","""event"",""trial"",""time""
""fullscreenenter"",""1"",""1877""
","
","
","""event"",""trial"",""time""
""fullscreenenter"",""1"",""1877""
","
","","","808.7000000476837","","","16","3961","2565","&#9826;","elianto","#f73b6a7A","-1"," ","0","0","[1659.5]","1","0","3","","","","","","","",""
"pit-trial","63","527883","0.0-2.0-14.0-4.0","battery-v0.2","","""event"",""trial"",""time""
""fullscreenenter"",""1"",""1877""
","
","
","""event"",""trial"",""time""
""fullscreenenter"",""1"",""1877""
","
","","","1625.7000000476837","","","16","3961","2565","&#9826;","elianto","#f73b6a7A","-1"," ","0","-10","[2480.7999999523163]","1","0","3","","","","","","","",""
"pit-trial","64","532749","0.0-2.0-14.1-0.1","battery-v0.2","","""event"",""trial"",""time""
""fullscreenenter"",""1"",""1877""
","
","
","""event"",""trial"",""time""
""fullscreenenter"",""1"",""1877""
","
","","","-1","","","16","3961","2565","&#9826;","elianto","#f73b6a7A","-1","-1","1","0","[3041.100000143051]","1","0","3","","","","","","","",""
"pit-trial","65","537618","0.0-2.0-14.1-1.1","battery-v0.2","","""event"",""trial"",""time""
""fullscreenenter"",""1"",""1877""
","
","
","""event"",""trial"",""time""
""fullscreenenter"",""1"",""1877""
","
","","","-1","","","16","3961","2565","&#9826;","elianto","#f73b6a7A","-1","-1","1","0","[]","0","0","3","","","","","","","",""
"pit-trial","66","542483","0.0-2.0-14.1-2.1","battery-v0.2","","""event"",""trial"",""time""
""fullscreenenter"",""1"",""1877""
","
","
","""event"",""trial"",""time""
""fullscreenenter"",""1"",""1877""
","
","","","-1","","","16","3961","2565","&#9826;","elianto","#f73b6a7A","-1","-1","1","0","[]","0","0","3","","","","","","","",""
"pit-trial","67","547346","0.0-2.0-14.1-3.1","battery-v0.2","","""event"",""trial"",""time""
""fullscreenenter"",""1"",""1877""
","
","
","""event"",""trial"",""time""
""fullscreenenter"",""1"",""1877""
","
","","","-1","","","16","3961","2565","&#9826;","elianto","#f73b6a7A","-1","-1","1","-10","[]","0","0","3","","","","","","","",""
"pit-trial","68","552210","0.0-2.0-14.1-4.1","battery-v0.2","","""event"",""trial"",""time""
""fullscreenenter"",""1"",""1877""
","
","
","""event"",""trial"",""time""
""fullscreenenter"",""1"",""1877""
","
","","","-1","","","16","3961","2565","&#9826;","elianto","#f73b6a7A","-1","-1","1","0","[]","0","0","3","","","","","","","",""
"pit-trial","69","557083","0.0-2.0-14.2-0.2","battery-v0.2","","""event"",""trial"",""time""
""fullscreenenter"",""1"",""1877""
","
","
","""event"",""trial"",""time""
""fullscreenenter"",""1"",""1877""
","
","","","-1","","","16","3961","2565","&#9826;","elianto","#f73b6a7A","-1","-1","1","0","[]","0","0","3","","","","","","","",""
"pit-trial","70","561948","0.0-2.0-14.2-1.2","battery-v0.2","","""event"",""trial"",""time""
""fullscreenenter"",""1"",""1877""
","
","
","""event"",""trial"",""time""
""fullscreenenter"",""1"",""1877""
","
","","","-1","","","16","3961","2565","&#9826;","elianto","#f73b6a7A","-1","-1","1","0","[]","0","0","3","","","","","","","",""
"pit-trial","71","566811","0.0-2.0-14.2-2.2","battery-v0.2","","""event"",""trial"",""time""
""fullscreenenter"",""1"",""1877""
","
","
","""event"",""trial"",""time""
""fullscreenenter"",""1"",""1877""
","
","","","-1","","","16","3961","2565","&#9826;","elianto","#f73b6a7A","-1","-1","1","0","[]","0","0","3","","","","","","","",""
"pit-trial","72","571676","0.0-2.0-14.2-3.2","battery-v0.2","","""event"",""trial"",""time""
""fullscreenenter"",""1"",""1877""
","
","
","""event"",""trial"",""time""
""fullscreenenter"",""1"",""1877""
","
","","","-1","","","16","3961","2565","&#9826;","elianto","#f73b6a7A","-1","-1","1","-10","[]","0","0","3","","","","","","","",""
"pit-trial","73","576539","0.0-2.0-14.2-4.2","battery-v0.2","","""event"",""trial"",""time""
""fullscreenenter"",""1"",""1877""
","
","
","""event"",""trial"",""time""
""fullscreenenter"",""1"",""1877""
","
","","","-1","","","16","3961","2565","&#9826;","elianto","#f73b6a7A","-1","-1","1","0","[]","0","0","3","","","","","","","",""
"pit-trial","74","581404","0.0-2.0-14.3-0.3","battery-v0.2","","""event"",""trial"",""time""
""fullscreenenter"",""1"",""1877""
","
","
","""event"",""trial"",""time""
""fullscreenenter"",""1"",""1877""
","
","","","-1","","","16","3961","2565","&#9826;","elianto","#f73b6a7A","-1","-1","1","0","[]","0","0","3","","","","","","","",""
"pit-trial","75","586268","0.0-2.0-14.3-1.3","battery-v0.2","","""event"",""trial"",""time""
""fullscreenenter"",""1"",""1877""
","
","
","""event"",""trial"",""time""
""fullscreenenter"",""1"",""1877""
","
","","","-1","","","16","3961","2565","&#9826;","elianto","#f73b6a7A","-1","-1","1","0","[]","0","0","3","","","","","","","",""
"pit-trial","76","591144","0.0-2.0-14.3-2.3","battery-v0.2","","""event"",""trial"",""time""
""fullscreenenter"",""1"",""1877""
","
","
","""event"",""trial"",""time""
""fullscreenenter"",""1"",""1877""
","
","","","-1","","","16","3961","2565","&#9826;","elianto","#f73b6a7A","-1","-1","1","0","[]","0","0","3","","","","","","","",""
"pit-trial","77","596011","0.0-2.0-14.3-3.3","battery-v0.2","","""event"",""trial"",""time""
""fullscreenenter"",""1"",""1877""
","
","
","""event"",""trial"",""time""
""fullscreenenter"",""1"",""1877""
","
","","","-1","","","16","3961","2565","&#9826;","elianto","#f73b6a7A","-1","-1","1","-10","[]","0","0","3","","","","","","","",""
"pit-trial","78","600043","0.0-2.0-14.3-4.3","battery-v0.2","","""event"",""trial"",""time""
""fullscreenenter"",""1"",""1877""
","
","
","""event"",""trial"",""time""
""fullscreenenter"",""1"",""1877""
","
","","","1170.7000000476837","","","16","3961","2565","&#9826;","elianto","#f73b6a7A","-1"," ","0","-10","[2023]","1","0","3","","","","","","","",""
"call-function","79","600047","0.0-2.0-15.0","battery-v0.2","","""event"",""trial"",""time""
""fullscreenenter"",""1"",""1877""
","
","
","""event"",""trial"",""time""
""fullscreenenter"",""1"",""1877""
","
","","","","","","","","","","","","","","","","","","","","","","","","","","",""
"pit-instructions","80","627083","0.0-2.0-16.0","battery-v0.2","","""event"",""trial"",""time""
""fullscreenenter"",""1"",""1877""
","
","
","""event"",""trial"",""time""
""fullscreenenter"",""1"",""1877""
","
","","[{""page_index"":0,""viewing_time"":8279.200000047684},{""page_index"":1,""viewing_time"":8451.5},{""page_index"":2,""viewing_time"":4927.5},{""page_index"":3,""viewing_time"":5377}]","27035.700000047684","","","","","","","","","","","","","","","","","","","","","","","",""
"pit-trial","81","630479","0.0-2.0-17.0-0.0","battery-v0.2","","""event"",""trial"",""time""
""fullscreenenter"",""1"",""1877""
","
","
","""event"",""trial"",""time""
""fullscreenenter"",""1"",""1877""
","
","","","531.7999999523163","","","16","3961","2565","&#9789;","elianto","#f73b6a7A"," "," ","1","0","[1384.7000000476837]","1","0","4","","","","","","","",""
"pit-trial","82","633589","0.0-2.0-17.0-1.0","battery-v0.2","","""event"",""trial"",""time""
""fullscreenenter"",""1"",""1877""
","
","
","""event"",""trial"",""time""
""fullscreenenter"",""1"",""1877""
","
","","","227.5","","","16","3961","2565","&#9789;","elianto","#f73b6a7A"," "," ","1","0","[1084.8999998569489]","1","0","4","","","","","","","",""
"pit-trial","83","636658","0.0-2.0-17.0-2.0","battery-v0.2","","""event"",""trial"",""time""
""fullscreenenter"",""1"",""1877""
","
","
","""event"",""trial"",""time""
""fullscreenenter"",""1"",""1877""
","
","","","199.59999990463257","","","16","3961","2565","&#9789;","elianto","#f73b6a7A"," "," ","1","0","[1051]","1","0","4","","","","","","","",""
"pit-trial","84","639699","0.0-2.0-17.0-3.0","battery-v0.2","","""event"",""trial"",""time""
""fullscreenenter"",""1"",""1877""
","
","
","""event"",""trial"",""time""
""fullscreenenter"",""1"",""1877""
","
","","","174.40000009536743","","","16","3961","2565","&#9789;","elianto","#f73b6a7A"," "," ","1","-10","[1024.2999999523163]","1","0","4","","","","","","","",""
"pit-trial","85","642658","0.0-2.0-17.0-4.0","battery-v0.2","","""event"",""trial"",""time""
""fullscreenenter"",""1"",""1877""
","
","
","""event"",""trial"",""time""
""fullscreenenter"",""1"",""1877""
","
","","","80.59999990463257","","","16","3961","2565","&#9789;","elianto","#f73b6a7A"," "," ","1","0","[931.9000000953674]","1","0","4","","","","","","","",""
"pit-trial","86","645559","0.0-2.0-17.1-0.1","battery-v0.2","","""event"",""trial"",""time""
""fullscreenenter"",""1"",""1877""
","
","
","""event"",""trial"",""time""
""fullscreenenter"",""1"",""1877""
","
","","","33","","","16","3961","2565","&#9789;","elianto","#f73b6a7A"," "," ","1","0","[884.5]","1","0","4","","","","","","","",""
"pit-trial","87","648539","0.0-2.0-17.1-1.1","battery-v0.2","","""event"",""trial"",""time""
""fullscreenenter"",""1"",""1877""
","
","
","""event"",""trial"",""time""
""fullscreenenter"",""1"",""1877""
","
","","","106.20000004768372","","","16","3961","2565","&#9789;","elianto","#f73b6a7A"," "," ","1","0","[961.7000000476837]","1","0","4","","","","","","","",""
"pit-trial","88","651518","0.0-2.0-17.1-2.1","battery-v0.2","","""event"",""trial"",""time""
""fullscreenenter"",""1"",""1877""
","
","
","""event"",""trial"",""time""
""fullscreenenter"",""1"",""1877""
","
","","","94.5","","","16","3961","2565","&#9789;","elianto","#f73b6a7A"," "," ","1","0","[959.2999999523163]","1","0","4","","","","","","","",""
"pit-trial","89","654580","0.0-2.0-17.1-3.1","battery-v0.2","","""event"",""trial"",""time""
""fullscreenenter"",""1"",""1877""
","
","
","""event"",""trial"",""time""
""fullscreenenter"",""1"",""1877""
","
","","","192.5","","","16","3961","2565","&#9789;","elianto","#f73b6a7A"," "," ","1","-10","[1044.7999999523163]","1","0","4","","","","","","","",""
"pit-trial","90","657619","0.0-2.0-17.1-4.1","battery-v0.2","","""event"",""trial"",""time""
""fullscreenenter"",""1"",""1877""
","
","
","""event"",""trial"",""time""
""fullscreenenter"",""1"",""1877""
","
","","","175.79999995231628","","","16","3961","2565","&#9789;","elianto","#f73b6a7A"," "," ","1","0","[1028.7000000476837]","1","0","4","","","","","","","",""
"pit-trial","91","661042","0.0-2.0-17.2-0.2","battery-v0.2","","""event"",""trial"",""time""
""fullscreenenter"",""1"",""1877""
","
","
","""event"",""trial"",""time""
""fullscreenenter"",""1"",""1877""
","
","","","562.4000000953674","","","16","3961","2565","&#9789;","elianto","#f73b6a7A"," "," ","1","0","[1413.1000001430511]","1","0","4","","","","","","","",""
"pit-trial","92","664018","0.0-2.0-17.2-1.2","battery-v0.2","","""event"",""trial"",""time""
""fullscreenenter"",""1"",""1877""
","
","
","""event"",""trial"",""time""
""fullscreenenter"",""1"",""1877""
","
","","","110.60000014305115","","","16","3961","2565","&#9789;","elianto","#f73b6a7A"," "," ","1","0","[963]","1","0","4","","","","","","","",""
"pit-trial","93","666996","0.0-2.0-17.2-2.2","battery-v0.2","","""event"",""trial"",""time""
""fullscreenenter"",""1"",""1877""
","
","
","""event"",""trial"",""time""
""fullscreenenter"",""1"",""1877""
","
","","","120.09999990463257","","","16","3961","2565","&#9789;","elianto","#f73b6a7A"," "," ","1","0","[972.7999999523163]","1","0","4","","","","","","","",""
"pit-trial","94","669954","0.0-2.0-17.2-3.2","battery-v0.2","","""event"",""trial"",""time""
""fullscreenenter"",""1"",""1877""
","
","
","""event"",""trial"",""time""
""fullscreenenter"",""1"",""1877""
","
","","","98.60000014305115","","","16","3961","2565","&#9789;","elianto","#f73b6a7A"," "," ","1","-10","[950.2000000476837]","1","0","4","","","","","","","",""
"pit-trial","95","673171","0.0-2.0-17.2-4.2","battery-v0.2","","""event"",""trial"",""time""
""fullscreenenter"",""1"",""1877""
","
","
","""event"",""trial"",""time""
""fullscreenenter"",""1"",""1877""
","
","","","356.2999999523163","","","16","3961","2565","&#9789;","elianto","#f73b6a7A"," "," ","1","0","[235.20000004768372,785.4000000953674,1207.2999999523163]","3","0","4","","","","","","","",""
"pit-trial","96","676084","0.0-2.0-17.3-0.3","battery-v0.2","","""event"",""trial"",""time""
""fullscreenenter"",""1"",""1877""
","
","
","""event"",""trial"",""time""
""fullscreenenter"",""1"",""1877""
","
","","","50.299999952316284","","","16","3961","2565","&#9789;","elianto","#f73b6a7A"," "," ","1","0","[556.4000000953674,901.2000000476837,1923.8000001907349,2466.2000000476837]","4","0","4","","","","","","","",""
"pit-trial","97","679882","0.0-2.0-17.3-1.3","battery-v0.2","","""event"",""trial"",""time""
""fullscreenenter"",""1"",""1877""
","
","
","""event"",""trial"",""time""
""fullscreenenter"",""1"",""1877""
","
","","","941.2999999523163","","","16","3961","2565","&#9789;","elianto","#f73b6a7A"," "," ","1","0","[1792]","1","0","4","","","","","","","",""
"pit-trial","98","684594","0.0-2.0-17.3-2.3","battery-v0.2","","""event"",""trial"",""time""
""fullscreenenter"",""1"",""1877""
","
","
","""event"",""trial"",""time""
""fullscreenenter"",""1"",""1877""
","
","","","1855.2000000476837","","","16","3961","2565","&#9789;","elianto","#f73b6a7A"," "," ","1","0","[2708.199999809265]","1","0","4","","","","","","","",""
"pit-trial","99","688370","0.0-2.0-17.3-3.3","battery-v0.2","","""event"",""trial"",""time""
""fullscreenenter"",""1"",""1877""
","
","
","""event"",""trial"",""time""
""fullscreenenter"",""1"",""1877""
","
","","","913.7999999523163","","","16","3961","2565","&#9789;","elianto","#f73b6a7A"," "," ","1","-10","[1768.2000000476837]","1","0","4","","","","","","","",""
"pit-trial","100","692067","0.0-2.0-17.3-4.3","battery-v0.2","","""event"",""trial"",""time""
""fullscreenenter"",""1"",""1877""
","
","
","""event"",""trial"",""time""
""fullscreenenter"",""1"",""1877""
","
","","","834.5","","","16","3961","2565","&#9789;","elianto","#f73b6a7A"," "," ","1","0","[1687.7000000476837]","1","0","4","","","","","","","",""
"call-function","101","692071","0.0-2.0-18.0","battery-v0.2","","""event"",""trial"",""time""
""fullscreenenter"",""1"",""1877""
","
","
","""event"",""trial"",""time""
""fullscreenenter"",""1"",""1877""
","
","","","","","","","","","","","","","","","","","","","","","","","","","","",""
"pit-instructions","102","771430","0.0-2.0-19.0","battery-v0.2","","""event"",""trial"",""time""
""fullscreenenter"",""1"",""1877""
","
","
","""event"",""trial"",""time""
""fullscreenenter"",""1"",""1877""
","
","","[{""page_index"":0,""viewing_time"":12487.200000047684},{""page_index"":1,""viewing_time"":7053.400000095367},{""page_index"":2,""viewing_time"":13637.599999904633},{""page_index"":3,""viewing_time"":7295.299999952316},{""page_index"":4,""viewing_time"":8285.400000095367},{""page_index"":5,""viewing_time"":8309.799999952316},{""page_index"":6,""viewing_time"":10614.5},{""page_index"":7,""viewing_time"":7248.799999952316},{""page_index"":8,""viewing_time"":4425.299999952316}]","79358","","","","","","","","","","","","","","","","","","","","","","","",""
"pit-comprehension","103","775981","0.0-2.0-20.0-0.0","battery-v0.2","","""event"",""trial"",""time""
""fullscreenenter"",""1"",""1877""
","
","
","""event"",""trial"",""time""
""fullscreenenter"",""1"",""1877""
","
","","","4546.299999952316","[""SPACE""]","0","16","3961","2565","","","","","","","","","","","","","","","","","","",""
"pit-instructions","104","778718","0.0-2.0-20.0-1.0","battery-v0.2","","""event"",""trial"",""time""
""fullscreenenter"",""1"",""1877""
","
","
","""event"",""trial"",""time""
""fullscreenenter"",""1"",""1877""
","
","","[{""page_index"":0,""viewing_time"":2707.5}]","2707.899999856949","","","","","","","","","","","","","","","","","","","","","","","",""
"pit-comprehension","105","784480","0.0-2.0-21.0-0.0","battery-v0.2","","""event"",""trial"",""time""
""fullscreenenter"",""1"",""1877""
","
","
","""event"",""trial"",""time""
""fullscreenenter"",""1"",""1877""
","
","","","5757.5","[""10""]","0","16","3961","2565","","","","","","","","","","","","","","","","","","",""
"pit-instructions","106","787295","0.0-2.0-21.0-1.0","battery-v0.2","","""event"",""trial"",""time""
""fullscreenenter"",""1"",""1877""
","
","
","""event"",""trial"",""time""
""fullscreenenter"",""1"",""1877""
","
","","[{""page_index"":0,""viewing_time"":2784.899999856949}]","2785.399999856949","","","","","","","","","","","","","","","","","","","","","","","",""
"pit-comprehension","107","793720","0.0-2.0-22.0-0.0","battery-v0.2","","""event"",""trial"",""time""
""fullscreenenter"",""1"",""1877""
","
","
","""event"",""trial"",""time""
""fullscreenenter"",""1"",""1877""
","
","","","6420.899999856949","[""0""]","0","16","3961","2565","","","","","","","","","","","","","","","","","","",""
"pit-instructions","108","795893","0.0-2.0-22.0-1.0","battery-v0.2","","""event"",""trial"",""time""
""fullscreenenter"",""1"",""1877""
","
","
","""event"",""trial"",""time""
""fullscreenenter"",""1"",""1877""
","
","","[{""page_index"":0,""viewing_time"":2142.7999999523163}]","2143.100000143051","","","","","","","","","","","","","","","","","","","","","","","",""
"pit-comprehension","109","805813","0.0-2.0-23.0-0.0","battery-v0.2","","""event"",""trial"",""time""
""fullscreenenter"",""1"",""1877""
","
","
","""event"",""trial"",""time""
""fullscreenenter"",""1"",""1877""
","
","","","9915.700000047684","[""True""]","0","16","3961","2565","","","","","","","","","","","","","","","","","","",""
"pit-instructions","110","809544","0.0-2.0-23.0-1.0","battery-v0.2","","""event"",""trial"",""time""
""fullscreenenter"",""1"",""1877""
","
","
","""event"",""trial"",""time""
""fullscreenenter"",""1"",""1877""
","
","","[{""page_index"":0,""viewing_time"":3698.5999999046326}]","3699","","","","","","","","","","","","","","","","","","","","","","","",""
"pit-comprehension","111","816951","0.0-2.0-24.0-0.0","battery-v0.2","","""event"",""trial"",""time""
""fullscreenenter"",""1"",""1877""
","
","
","""event"",""trial"",""time""
""fullscreenenter"",""1"",""1877""
","
","","","7401.200000047684","[""True""]","0","16","3961","2565","","","","","","","","","","","","","","","","","","",""
"pit-instructions","112","819053","0.0-2.0-24.0-1.0","battery-v0.2","","""event"",""trial"",""time""
""fullscreenenter"",""1"",""1877""
","
","
","""event"",""trial"",""time""
""fullscreenenter"",""1"",""1877""
","
","","[{""page_index"":0,""viewing_time"":2070.2999999523163}]","2071.0999999046326","","","","","","","","","","","","","","","","","","","","","","","",""
"pit-comprehension","113","825452","0.0-2.0-25.0-0.0","battery-v0.2","","""event"",""trial"",""time""
""fullscreenenter"",""1"",""1877""
","
","
","""event"",""trial"",""time""
""fullscreenenter"",""1"",""1877""
","
","","","6394.700000047684","[""True""]","0","16","3961","2565","","","","","","","","","","","","","","","","","","",""
"pit-instructions","114","827342","0.0-2.0-25.0-1.0","battery-v0.2","","""event"",""trial"",""time""
""fullscreenenter"",""1"",""1877""
","
","
","""event"",""trial"",""time""
""fullscreenenter"",""1"",""1877""
","
","","[{""page_index"":0,""viewing_time"":1853.7000000476837}]","1854","","","","","","","","","","","","","","","","","","","","","","","",""
"pit-comprehension","115","832936","0.0-2.0-26.0-0.0","battery-v0.2","","""event"",""trial"",""time""
""fullscreenenter"",""1"",""1877""
","
","
","""event"",""trial"",""time""
""fullscreenenter"",""1"",""1877""
","
","","","5589.299999952316","[""False""]","0","16","3961","2565","","","","","","","","","","","","","","","","","","",""
"pit-instructions","116","835157","0.0-2.0-26.0-1.0","battery-v0.2","","""event"",""trial"",""time""
""fullscreenenter"",""1"",""1877""
","
","
","""event"",""trial"",""time""
""fullscreenenter"",""1"",""1877""
","
","","[{""page_index"":0,""viewing_time"":2188.7999999523163}]","2189.199999809265","","","","","","","","","","","","","","","","","","","","","","","",""
"pit-instructions","117","861687","0.0-3.0","battery-v0.2","","""event"",""trial"",""time""
""fullscreenenter"",""1"",""1877""
","
","
","""event"",""trial"",""time""
""fullscreenenter"",""1"",""1877""
","
","","[{""page_index"":0,""viewing_time"":4454.400000095367},{""page_index"":1,""viewing_time"":5748.099999904633},{""page_index"":2,""viewing_time"":16322.900000095367}]","26525.900000095367","","","","","","","","","","","","","","","","","","","","","","","",""
"pit-trial","118","866275","0.0-4.0","battery-v0.2","","""event"",""trial"",""time""
""fullscreenenter"",""1"",""1877""
","
","
","""event"",""trial"",""time""
""fullscreenenter"",""1"",""1877""
","
","","","1718.0999999046326","","","16","3961","2565","&#9728;","elianto","#f73b6a7A","-1"," ","0","-10","[2570.7999999523163]","1","1","","","3961","1","0","4","lose","no-go","0"
"pit-trial","119","869862","0.0-5.0","battery-v0.2","","""event"",""trial"",""time""
""fullscreenenter"",""1"",""1877""
","
","
","""event"",""trial"",""time""
""fullscreenenter"",""1"",""1877""
","
","","","723.2000000476837","","","16","3961","2565","&#9730;","elianto","#3366ff99"," "," ","1","0","[1574.7999999523163]","1","1","","","3961","2","1","1","win","go","1"
"pit-trial","120","873388","0.0-6.0","battery-v0.2","","""event"",""trial"",""time""
""fullscreenenter"",""1"",""1877""
","
","
","""event"",""trial"",""time""
""fullscreenenter"",""1"",""1877""
","
","","","655.0999999046326","","","16","3961","2565","&#9733;","elianto","#3366ff99","-1"," ","0","0","[1505.3000001907349]","1","1","","","3961","3","2","2","win","no-go","0"
"pit-trial","121","876458","0.0-7.0","battery-v0.2","","""event"",""trial"",""time""
""fullscreenenter"",""1"",""1877""
","
","
","""event"",""trial"",""time""
""fullscreenenter"",""1"",""1877""
","
","","","198.09999990463257","","","16","3961","2565","&#9752;","elianto","#f73b6a7A"," "," ","1","0","[1051.8999998569489]","1","1","","","3961","4","3","3","lose","go","0"
"pit-trial","122","881338","0.0-8.0","battery-v0.2","","""event"",""trial"",""time""
""fullscreenenter"",""1"",""1877""
","
","
","""event"",""trial"",""time""
""fullscreenenter"",""1"",""1877""
","
","","","-1","","","16","3961","2565","&#9728;","elianto","#f73b6a7A","-1","-1","1","-10","[]","0","1","","","3961","5","0","4","lose","no-go","1"
"pit-trial","123","884951","0.0-9.0","battery-v0.2","","""event"",""trial"",""time""
""fullscreenenter"",""1"",""1877""
","
","
","""event"",""trial"",""time""
""fullscreenenter"",""1"",""1877""
","
","","","754.2999999523163","","","16","3961","2565","&#9752;","elianto","#f73b6a7A"," "," ","1","-10","[1606]","1","1","","","3961","6","3","3","lose","go","1"
"pit-trial","124","888836","0.0-10.0","battery-v0.2","","""event"",""trial"",""time""
""fullscreenenter"",""1"",""1877""
","
","
","""event"",""trial"",""time""
""fullscreenenter"",""1"",""1877""
","
","","","1022","","","16","3961","2565","&#9733;","elianto","#3366ff99","-1"," ","0","0","[1878]","1","1","","","3961","7","2","2","win","no-go","0"
"pit-trial","125","892523","0.0-11.0","battery-v0.2","","""event"",""trial"",""time""
""fullscreenenter"",""1"",""1877""
","
","
","""event"",""trial"",""time""
""fullscreenenter"",""1"",""1877""
","
","","","808.5999999046326","","","16","3961","2565","&#9730;","elianto","#3366ff99"," "," ","1","+10","[1660.2000000476837]","1","1","","","3961","8","1","1","win","go","0"
"pit-trial","126","896468","0.0-12.0","battery-v0.2","","""event"",""trial"",""time""
""fullscreenenter"",""1"",""1877""
","
","
","""event"",""trial"",""time""
""fullscreenenter"",""1"",""1877""
","
","","","1084.5999999046326","","","16","3961","2565","&#9728;","elianto","#f73b6a7A","-1"," ","0","-10","[1935.1999998092651]","1","1","","","3961","9","0","4","lose","no-go","0"
"pit-trial","127","900076","0.0-13.0","battery-v0.2","","""event"",""trial"",""time""
""fullscreenenter"",""1"",""1877""
","
","
","""event"",""trial"",""time""
""fullscreenenter"",""1"",""1877""
","
","","","744.2999999523163","","","16","3961","2565","&#9752;","elianto","#f73b6a7A"," "," ","1","-10","[1596.5]","1","1","","","3961","10","3","3","lose","go","1"
"pit-trial","128","903516","0.0-14.0","battery-v0.2","","""event"",""trial"",""time""
""fullscreenenter"",""1"",""1877""
","
","
","""event"",""trial"",""time""
""fullscreenenter"",""1"",""1877""
","
","","","579.5999999046326","","","16","3961","2565","&#9730;","elianto","#3366ff99"," "," ","1","0","[1430]","1","1","","","3961","11","1","1","win","go","1"
"pit-trial","129","906914","0.0-15.0","battery-v0.2","","""event"",""trial"",""time""
""fullscreenenter"",""1"",""1877""
","
","
","""event"",""trial"",""time""
""fullscreenenter"",""1"",""1877""
","
","","","527.4000000953674","","","16","3961","2565","&#9733;","elianto","#3366ff99","-1"," ","0","+10","[1378.7000000476837]","1","1","","","3961","12","2","2","win","no-go","1"
"pit-trial","130","911773","0.0-16.0","battery-v0.2","","""event"",""trial"",""time""
""fullscreenenter"",""1"",""1877""
","
","
","""event"",""trial"",""time""
""fullscreenenter"",""1"",""1877""
","
","","","-1","","","16","3961","2565","&#9728;","elianto","#f73b6a7A","-1","-1","1","0","[]","0","1","","","3961","13","0","4","lose","no-go","0"
"pit-trial","131","916643","0.0-17.0","battery-v0.2","","""event"",""trial"",""time""
""fullscreenenter"",""1"",""1877""
","
","
","""event"",""trial"",""time""
""fullscreenenter"",""1"",""1877""
","
","","","-1","","","16","3961","2565","&#9752;","elianto","#f73b6a7A"," ","-1","0","0","[]","0","1","","","3961","14","3","3","lose","go","1"
"pit-trial","132","919987","0.0-18.0","battery-v0.2","","""event"",""trial"",""time""
""fullscreenenter"",""1"",""1877""
","
","
","""event"",""trial"",""time""
""fullscreenenter"",""1"",""1877""
","
","","","486.5","","","16","3961","2565","&#9733;","elianto","#3366ff99","-1"," ","0","0","[1339.5999999046326]","1","1","","","3961","15","2","2","win","no-go","0"
"pit-trial","133","923323","0.0-19.0","battery-v0.2","","""event"",""trial"",""time""
""fullscreenenter"",""1"",""1877""
","
","
","""event"",""trial"",""time""
""fullscreenenter"",""1"",""1877""
","
","","","481","","","16","3961","2565","&#9730;","elianto","#3366ff99"," "," ","1","+10","[1331]","1","1","","","3961","16","1","1","win","go","0"
"pit-trial","134","926868","0.0-20.0","battery-v0.2","","""event"",""trial"",""time""
""fullscreenenter"",""1"",""1877""
","
","
","""event"",""trial"",""time""
""fullscreenenter"",""1"",""1877""
","
","","","684.7000000476837","","","16","3961","2565","&#9733;","elianto","#3366ff99","-1"," ","0","0","[1535.2000000476837]","1","1","","","3961","17","2","2","win","no-go","0"
"pit-trial","135","930274","0.0-21.0","battery-v0.2","","""event"",""trial"",""time""
""fullscreenenter"",""1"",""1877""
","
","
","""event"",""trial"",""time""
""fullscreenenter"",""1"",""1877""
","
","","","546.3999998569489","","","16","3961","2565","&#9730;","elianto","#3366ff99"," "," ","1","+10","[1397.2000000476837]","1","1","","","3961","18","1","1","win","go","0"
"pit-trial","136","935139","0.0-22.0","battery-v0.2","","""event"",""trial"",""time""
""fullscreenenter"",""1"",""1877""
","
","
","""event"",""trial"",""time""
""fullscreenenter"",""1"",""1877""
","
","","","-1","","","16","3961","2565","&#9752;","elianto","#f73b6a7A"," ","-1","0","-10","[]","0","1","","","3961","19","3","3","lose","go","0"
"pit-trial","137","939997","0.0-23.0","battery-v0.2","","""event"",""trial"",""time""
""fullscreenenter"",""1"",""1877""
","
","
","""event"",""trial"",""time""
""fullscreenenter"",""1"",""1877""
","
","","","-1","","","16","3961","2565","&#9728;","elianto","#f73b6a7A","-1","-1","1","0","[]","0","1","","","3961","20","0","4","lose","no-go","0"
"pit-instructions","138","953233","0.0-24.0","battery-v0.2","","""event"",""trial"",""time""
""fullscreenenter"",""1"",""1877""
","
","
","""event"",""trial"",""time""
""fullscreenenter"",""1"",""1877""
","
","","[{""page_index"":0,""viewing_time"":6356.400000095367},{""page_index"":1,""viewing_time"":6876}]","13232.700000047684","","","","","","","","","","","","","","","","","","","","","","","",""
"pit-trial","139","957437","0.0-25.0","battery-v0.2","","""event"",""trial"",""time""
""fullscreenenter"",""1"",""1877""
","
","
","""event"",""trial"",""time""
""fullscreenenter"",""1"",""1877""
","
","","","1338.9000000953674","","","16","3961","2565","g","elianto","#f73b6a7A","-1"," ","0","-10","[2189.100000143051]","1","2","","","3961","21","3","4","lose","no-go","0"
"pit-trial","140","962290","0.0-26.0","battery-v0.2","","""event"",""trial"",""time""
""fullscreenenter"",""1"",""1877""
","
","
","""event"",""trial"",""time""
""fullscreenenter"",""1"",""1877""
","
","","","1993.7000000476837","","","16","3961","2565","u","elianto","#f73b6a7A"," "," ","1","-10","[2845.2000000476837]","1","2","","","3961","22","0","3","lose","go","1"
"pit-trial","141","965674","0.0-27.0","battery-v0.2","","""event"",""trial"",""time""
""fullscreenenter"",""1"",""1877""
","
","
","""event"",""trial"",""time""
""fullscreenenter"",""1"",""1877""
","
","","","507.09999990463257","","","16","3961","2565","l","elianto","#3366ff99","-1"," ","0","0","[1366.2999999523163]","1","2","","","3961","23","1","2","win","no-go","0"
"pit-trial","142","970548","0.0-28.0","battery-v0.2","","""event"",""trial"",""time""
""fullscreenenter"",""1"",""1877""
","
","
","""event"",""trial"",""time""
""fullscreenenter"",""1"",""1877""
","
","","","-1","","","16","3961","2565","a","elianto","#f73b6a7A"," ","-1","0","-10","[]","0","2","","","3961","24","2","3","lose","go","0"
"pit-trial","143","975417","0.0-29.0","battery-v0.2","","""event"",""trial"",""time""
""fullscreenenter"",""1"",""1877""
","
","
","""event"",""trial"",""time""
""fullscreenenter"",""1"",""1877""
","
","","","-1","","","16","3961","2565","u","elianto","#f73b6a7A"," ","-1","0","-10","[]","0","2","","","3961","25","0","3","lose","go","0"
"pit-trial","144","979431","0.0-30.0","battery-v0.2","","""event"",""trial"",""time""
""fullscreenenter"",""1"",""1877""
","
","
","""event"",""trial"",""time""
""fullscreenenter"",""1"",""1877""
","
","","","1154.1999998092651","","","16","3961","2565","g","elianto","#f73b6a7A","-1"," ","0","0","[2004.2999999523163]","1","2","","","3961","26","3","4","lose","no-go","1"
"pit-trial","145","983025","0.0-31.0","battery-v0.2","","""event"",""trial"",""time""
""fullscreenenter"",""1"",""1877""
","
","
","""event"",""trial"",""time""
""fullscreenenter"",""1"",""1877""
","
","","","721.0999999046326","","","16","3961","2565","l","elianto","#3366ff99","-1"," ","0","0","[1571.6000001430511]","1","2","","","3961","27","1","2","win","no-go","0"
"pit-trial","146","987019","0.0-32.0","battery-v0.2","","""event"",""trial"",""time""
""fullscreenenter"",""1"",""1877""
","
","
","""event"",""trial"",""time""
""fullscreenenter"",""1"",""1877""
","
","","","1132","","","16","3961","2565","a","elianto","#f73b6a7A"," "," ","1","0","[1987.0999999046326]","1","2","","","3961","28","2","3","lose","go","0"
"pit-trial","147","990683","0.0-33.0","battery-v0.2","","""event"",""trial"",""time""
""fullscreenenter"",""1"",""1877""
","
","
","""event"",""trial"",""time""
""fullscreenenter"",""1"",""1877""
","
","","","801.7000000476837","","","16","3961","2565","a","elianto","#f73b6a7A"," "," ","1","0","[1653.7000000476837]","1","2","","","3961","29","2","3","lose","go","0"
"pit-trial","148","994436","0.0-34.0","battery-v0.2","","""event"",""trial"",""time""
""fullscreenenter"",""1"",""1877""
","
","
","""event"",""trial"",""time""
""fullscreenenter"",""1"",""1877""
","
","","","893.7000000476837","","","16","3961","2565","g","elianto","#f73b6a7A","-1"," ","0","-10","[1748.8000001907349]","1","2","","","3961","30","3","4","lose","no-go","0"
"pit-trial","149","999299","0.0-35.0","battery-v0.2","","""event"",""trial"",""time""
""fullscreenenter"",""1"",""1877""
","
","
","""event"",""trial"",""time""
""fullscreenenter"",""1"",""1877""
","
","","","-1","","","16","3961","2565","u","elianto","#f73b6a7A"," ","-1","0","-10","[]","0","2","","","3961","31","0","3","lose","go","0"
"pit-trial","150","1002684","0.0-36.0","battery-v0.2","","""event"",""trial"",""time""
""fullscreenenter"",""1"",""1877""
","
","
","""event"",""trial"",""time""
""fullscreenenter"",""1"",""1877""
","
","","","524.2999999523163","","","16","3961","2565","l","elianto","#3366ff99","-1"," ","0","0","[1376.5999999046326]","1","2","","","3961","32","1","2","win","no-go","0"
"pit-trial","151","1006651","0.0-37.0","battery-v0.2","","""event"",""trial"",""time""
""fullscreenenter"",""1"",""1877""
","
","
","""event"",""trial"",""time""
""fullscreenenter"",""1"",""1877""
","
","","","1105.5999999046326","","","16","3961","2565","a","elianto","#f73b6a7A"," "," ","1","0","[1957]","1","2","","","3961","33","2","3","lose","go","0"
"pit-trial","152","1010075","0.0-38.0","battery-v0.2","","""event"",""trial"",""time""
""fullscreenenter"",""1"",""1877""
","
","
","""event"",""trial"",""time""
""fullscreenenter"",""1"",""1877""
","
","","","560.7000000476837","","","16","3961","2565","u","elianto","#f73b6a7A"," "," ","1","0","[1412]","1","2","","","3961","34","0","3","lose","go","0"
"pit-trial","153","1013675","0.0-39.0","battery-v0.2","","""event"",""trial"",""time""
""fullscreenenter"",""1"",""1877""
","
","
","""event"",""trial"",""time""
""fullscreenenter"",""1"",""1877""
","
","","","743","","","16","3961","2565","g","elianto","#f73b6a7A","-1"," ","0","-10","[1593]","1","2","","","3961","35","3","4","lose","no-go","0"
"pit-trial","154","1017075","0.0-40.0","battery-v0.2","","""event"",""trial"",""time""
""fullscreenenter"",""1"",""1877""
","
","
","""event"",""trial"",""time""
""fullscreenenter"",""1"",""1877""
","
","","","536.3999998569489","","","16","3961","2565","l","elianto","#3366ff99","-1"," ","0","0","[1388.7999999523163]","1","2","","","3961","36","1","2","win","no-go","0"
"pit-trial","155","1021116","0.0-41.0","battery-v0.2","","""event"",""trial"",""time""
""fullscreenenter"",""1"",""1877""
","
","
","""event"",""trial"",""time""
""fullscreenenter"",""1"",""1877""
","
","","","1177","","","16","3961","2565","a","elianto","#f73b6a7A"," "," ","1","0","[2029.5]","1","2","","","3961","37","2","3","lose","go","0"
"pit-trial","156","1025978","0.0-42.0","battery-v0.2","","""event"",""trial"",""time""
""fullscreenenter"",""1"",""1877""
","
","
","""event"",""trial"",""time""
""fullscreenenter"",""1"",""1877""
","
","","","-1","","","16","3961","2565","l","elianto","#3366ff99","-1","-1","1","0","[]","0","2","","","3961","38","1","2","win","no-go","1"
"pit-trial","157","1029666","0.0-43.0","battery-v0.2","","""event"",""trial"",""time""
""fullscreenenter"",""1"",""1877""
","
","
","""event"",""trial"",""time""
""fullscreenenter"",""1"",""1877""
","
","","","827.9000000953674","","","16","3961","2565","g","elianto","#f73b6a7A","-1"," ","0","-10","[1679.5]","1","2","","","3961","39","3","4","lose","no-go","0"
"pit-trial","158","1033339","0.0-44.0","battery-v0.2","","""event"",""trial"",""time""
""fullscreenenter"",""1"",""1877""
","
","
","""event"",""trial"",""time""
""fullscreenenter"",""1"",""1877""
","
","","","810.5","","","16","3961","2565","u","elianto","#f73b6a7A"," "," ","1","0","[1663.5]","1","2","","","3961","40","0","3","lose","go","0"
"pit-trial","159","1037259","0.0-45.0","battery-v0.2","","""event"",""trial"",""time""
""fullscreenenter"",""1"",""1877""
","
","
","""event"",""trial"",""time""
""fullscreenenter"",""1"",""1877""
","
","","","1057.8999998569489","","","16","3961","2565","u","elianto","#f73b6a7A"," "," ","1","0","[1908.5999999046326]","1","2","","","3961","41","0","3","lose","go","0"
"pit-trial","160","1042123","0.0-46.0","battery-v0.2","","""event"",""trial"",""time""
""fullscreenenter"",""1"",""1877""
","
","
","""event"",""trial"",""time""
""fullscreenenter"",""1"",""1877""
","
","","","-1","","","16","3961","2565","g","elianto","#f73b6a7A","-1","-1","1","0","[]","0","2","","","3961","42","3","4","lose","no-go","0"
"pit-trial","161","1045987","0.0-47.0","battery-v0.2","","""event"",""trial"",""time""
""fullscreenenter"",""1"",""1877""
","
","
","""event"",""trial"",""time""
""fullscreenenter"",""1"",""1877""
","
","","","1004.6000001430511","","","16","3961","2565","a","elianto","#f73b6a7A"," "," ","1","0","[1854.7999999523163]","1","2","","","3961","43","2","3","lose","go","0"
"pit-trial","162","1049899","0.0-48.0","battery-v0.2","","""event"",""trial"",""time""
""fullscreenenter"",""1"",""1877""
","
","
","""event"",""trial"",""time""
""fullscreenenter"",""1"",""1877""
","
","","","1049.7000000476837","","","16","3961","2565","l","elianto","#3366ff99","-1"," ","0","0","[1902.2999999523163]","1","2","","","3961","44","1","2","win","no-go","0"
"pit-trial","163","1054764","0.0-49.0","battery-v0.2","","""event"",""trial"",""time""
""fullscreenenter"",""1"",""1877""
","
","
","""event"",""trial"",""time""
""fullscreenenter"",""1"",""1877""
","
","","","-1","","","16","3961","2565","a","elianto","#f73b6a7A"," ","-1","0","-10","[4181.099999904633]","1","2","","","3961","45","2","3","lose","go","0"
"pit-trial","164","1058915","0.0-50.0","battery-v0.2","","""event"",""trial"",""time""
""fullscreenenter"",""1"",""1877""
","
","
","""event"",""trial"",""time""
""fullscreenenter"",""1"",""1877""
","
","","","1289.1000001430511","","","16","3961","2565","u","elianto","#f73b6a7A"," "," ","1","-10","[2140.2000000476837]","1","2","","","3961","46","0","3","lose","go","1"
"pit-trial","165","1062859","0.0-51.0","battery-v0.2","","""event"",""trial"",""time""
""fullscreenenter"",""1"",""1877""
","
","
","""event"",""trial"",""time""
""fullscreenenter"",""1"",""1877""
","
","","","1081.7000000476837","","","16","3961","2565","g","elianto","#f73b6a7A","-1"," ","0","-10","[1935.5]","1","2","","","3961","47","3","4","lose","no-go","0"
"pit-trial","166","1067723","0.0-52.0","battery-v0.2","","""event"",""trial"",""time""
""fullscreenenter"",""1"",""1877""
","
","
","""event"",""trial"",""time""
""fullscreenenter"",""1"",""1877""
","
","","","-1","","","16","3961","2565","l","elianto","#3366ff99","-1","-1","1","+10","[]","0","2","","","3961","48","1","2","win","no-go","0"
"pit-trial","167","1072587","0.0-53.0","battery-v0.2","","""event"",""trial"",""time""
""fullscreenenter"",""1"",""1877""
","
","
","""event"",""trial"",""time""
""fullscreenenter"",""1"",""1877""
","
","","","-1","","","16","3961","2565","l","elianto","#3366ff99","-1","-1","1","0","[]","0","2","","","3961","49","1","2","win","no-go","1"
"pit-trial","168","1077107","0.0-54.0","battery-v0.2","","""event"",""trial"",""time""
""fullscreenenter"",""1"",""1877""
","
","
","""event"",""trial"",""time""
""fullscreenenter"",""1"",""1877""
","
","","","1658.7999999523163","","","16","3961","2565","g","elianto","#f73b6a7A","-1"," ","0","-10","[2509.9000000953674]","1","2","","","3961","50","3","4","lose","no-go","0"
"pit-trial","169","1081204","0.0-55.0","battery-v0.2","","""event"",""trial"",""time""
""fullscreenenter"",""1"",""1877""
","
","
","""event"",""trial"",""time""
""fullscreenenter"",""1"",""1877""
","
","","","1232.3999998569489","","","16","3961","2565","u","elianto","#f73b6a7A"," "," ","1","-10","[2084.899999856949]","1","2","","","3961","51","0","3","lose","go","1"
"pit-trial","170","1085847","0.0-56.0","battery-v0.2","","""event"",""trial"",""time""
""fullscreenenter"",""1"",""1877""
","
","
","""event"",""trial"",""time""
""fullscreenenter"",""1"",""1877""
","
","","","1781.7000000476837","","","16","3961","2565","a","elianto","#f73b6a7A"," "," ","1","0","[2635.2000000476837]","1","2","","","3961","52","2","3","lose","go","0"
"pit-trial","171","1090717","0.0-57.0","battery-v0.2","","""event"",""trial"",""time""
""fullscreenenter"",""1"",""1877""
","
","
","""event"",""trial"",""time""
""fullscreenenter"",""1"",""1877""
","
","","","-1","","","16","3961","2565","l","elianto","#3366ff99","-1","-1","1","+10","[]","0","2","","","3961","53","1","2","win","no-go","0"
"pit-trial","172","1094698","0.0-58.0","battery-v0.2","","""event"",""trial"",""time""
""fullscreenenter"",""1"",""1877""
","
","
","""event"",""trial"",""time""
""fullscreenenter"",""1"",""1877""
","
","","","1117.7999999523163","","","16","3961","2565","g","elianto","#f73b6a7A","-1"," ","0","-10","[1976.0999999046326]","1","2","","","3961","54","3","4","lose","no-go","0"
"pit-trial","173","1098691","0.0-59.0","battery-v0.2","","""event"",""trial"",""time""
""fullscreenenter"",""1"",""1877""
","
","
","""event"",""trial"",""time""
""fullscreenenter"",""1"",""1877""
","
","","","1137.3999998569489","","","16","3961","2565","u","elianto","#f73b6a7A"," "," ","1","0","[1988]","1","2","","","3961","55","0","3","lose","go","0"
"pit-trial","174","1102074","0.0-60.0","battery-v0.2","","""event"",""trial"",""time""
""fullscreenenter"",""1"",""1877""
","
","
","""event"",""trial"",""time""
""fullscreenenter"",""1"",""1877""
","
","","","504.09999990463257","","","16","3961","2565","a","elianto","#f73b6a7A"," "," ","1","0","[1356.3999998569489]","1","2","","","3961","56","2","3","lose","go","0"
"pit-trial","175","1106035","0.0-61.0","battery-v0.2","","""event"",""trial"",""time""
""fullscreenenter"",""1"",""1877""
","
","
","""event"",""trial"",""time""
""fullscreenenter"",""1"",""1877""
","
","","","1100.5","","","16","3961","2565","p","elianto","#3366ff99"," "," ","1","+10","[1953.5]","1","2","","","3961","57","4","1","win","go","0"
"pit-trial","176","1110197","0.0-62.0","battery-v0.2","","""event"",""trial"",""time""
""fullscreenenter"",""1"",""1877""
","
","
","""event"",""trial"",""time""
""fullscreenenter"",""1"",""1877""
","
","","","1303.0999999046326","","","16","3961","2565","u","elianto","#f73b6a7A"," "," ","1","0","[2154.7000000476837]","1","2","","","3961","58","0","3","lose","go","0"
"pit-trial","177","1115059","0.0-63.0","battery-v0.2","","""event"",""trial"",""time""
""fullscreenenter"",""1"",""1877""
","
","
","""event"",""trial"",""time""
""fullscreenenter"",""1"",""1877""
","
","","","-1","","","16","3961","2565","g","elianto","#f73b6a7A","-1","-1","1","-10","[]","0","2","","","3961","59","3","4","lose","no-go","1"
"pit-trial","178","1118491","0.0-64.0","battery-v0.2","","""event"",""trial"",""time""
""fullscreenenter"",""1"",""1877""
","
","
","""event"",""trial"",""time""
""fullscreenenter"",""1"",""1877""
","
","","","573.9000000953674","","","16","3961","2565","a","elianto","#f73b6a7A"," "," ","1","-10","[1425.7000000476837]","1","2","","","3961","60","2","3","lose","go","1"
"pit-trial","179","1123355","0.0-65.0","battery-v0.2","","""event"",""trial"",""time""
""fullscreenenter"",""1"",""1877""
","
","
","""event"",""trial"",""time""
""fullscreenenter"",""1"",""1877""
","
","","","-1","","","16","3961","2565","l","elianto","#3366ff99","-1","-1","1","0","[]","0","2","","","3961","61","1","2","win","no-go","1"
"pit-trial","180","1127059","0.0-66.0","battery-v0.2","","""event"",""trial"",""time""
""fullscreenenter"",""1"",""1877""
","
","
","""event"",""trial"",""time""
""fullscreenenter"",""1"",""1877""
","
","","","843.6000001430511","","","16","3961","2565","p","elianto","#3366ff99"," "," ","1","+10","[1695.5]","1","2","","","3961","62","4","1","win","go","0"
"pit-trial","181","1131923","0.0-67.0","battery-v0.2","","""event"",""trial"",""time""
""fullscreenenter"",""1"",""1877""
","
","
","""event"",""trial"",""time""
""fullscreenenter"",""1"",""1877""
","
","","","-1","","","16","3961","2565","g","elianto","#f73b6a7A","-1","-1","1","0","[]","0","2","","","3961","63","3","4","lose","no-go","0"
"pit-trial","182","1135595","0.0-68.0","battery-v0.2","","""event"",""trial"",""time""
""fullscreenenter"",""1"",""1877""
","
","
","""event"",""trial"",""time""
""fullscreenenter"",""1"",""1877""
","
","","","815.3999998569489","","","16","3961","2565","a","elianto","#f73b6a7A"," "," ","1","-10","[1667]","1","2","","","3961","64","2","3","lose","go","1"
"pit-trial","183","1139115","0.0-69.0","battery-v0.2","","""event"",""trial"",""time""
""fullscreenenter"",""1"",""1877""
","
","
","""event"",""trial"",""time""
""fullscreenenter"",""1"",""1877""
","
","","","662.2999999523163","","","16","3961","2565","g","elianto","#f73b6a7A","-1"," ","0","0","[1512.2999999523163]","1","2","","","3961","65","3","4","lose","no-go","1"
"pit-trial","184","1142732","0.0-70.0","battery-v0.2","","""event"",""trial"",""time""
""fullscreenenter"",""1"",""1877""
","
","
","""event"",""trial"",""time""
""fullscreenenter"",""1"",""1877""
","
","","","756.3000001907349","","","16","3961","2565","s","elianto","#3366ff99","-1"," ","0","0","[1608.5]","1","2","","","3961","66","5","2","win","no-go","0"
"pit-trial","185","1146468","0.0-71.0","battery-v0.2","","""event"",""trial"",""time""
""fullscreenenter"",""1"",""1877""
","
","
","""event"",""trial"",""time""
""fullscreenenter"",""1"",""1877""
","
","","","874.3999998569489","","","16","3961","2565","p","elianto","#3366ff99"," "," ","1","+10","[1726.2000000476837]","1","2","","","3961","67","4","1","win","go","0"
"pit-trial","186","1150571","0.0-72.0","battery-v0.2","","""event"",""trial"",""time""
""fullscreenenter"",""1"",""1877""
","
","
","""event"",""trial"",""time""
""fullscreenenter"",""1"",""1877""
","
","","","1238.8999998569489","","","16","3961","2565","l","elianto","#3366ff99","-1"," ","0","0","[2091]","1","2","","","3961","68","1","2","win","no-go","0"
"pit-trial","187","1154243","0.0-73.0","battery-v0.2","","""event"",""trial"",""time""
""fullscreenenter"",""1"",""1877""
","
","
","""event"",""trial"",""time""
""fullscreenenter"",""1"",""1877""
","
","","","813.5","","","16","3961","2565","p","elianto","#3366ff99"," "," ","1","0","[1665.8999998569489]","1","2","","","3961","69","4","1","win","go","1"
"pit-trial","188","1157763","0.0-74.0","battery-v0.2","","""event"",""trial"",""time""
""fullscreenenter"",""1"",""1877""
","
","
","""event"",""trial"",""time""
""fullscreenenter"",""1"",""1877""
","
","","","654.5","","","16","3961","2565","l","elianto","#3366ff99","-1"," ","0","+10","[1507.7999999523163]","1","2","","","3961","70","1","2","win","no-go","1"
"pit-trial","189","1161723","0.0-75.0","battery-v0.2","","""event"",""trial"",""time""
""fullscreenenter"",""1"",""1877""
","
","
","""event"",""trial"",""time""
""fullscreenenter"",""1"",""1877""
","
","","","1100.5","","","16","3961","2565","a","elianto","#f73b6a7A"," "," ","1","-10","[1953.2999999523163]","1","2","","","3961","71","2","3","lose","go","1"
"pit-trial","190","1165539","0.0-76.0","battery-v0.2","","""event"",""trial"",""time""
""fullscreenenter"",""1"",""1877""
","
","
","""event"",""trial"",""time""
""fullscreenenter"",""1"",""1877""
","
","","","960.0999999046326","","","16","3961","2565","s","elianto","#3366ff99","-1"," ","0","0","[1810.7000000476837]","1","2","","","3961","72","5","2","win","no-go","0"
"pit-trial","191","1170405","0.0-77.0","battery-v0.2","","""event"",""trial"",""time""
""fullscreenenter"",""1"",""1877""
","
","
","""event"",""trial"",""time""
""fullscreenenter"",""1"",""1877""
","
","","","-1","","","16","3961","2565","g","elianto","#f73b6a7A","-1","-1","1","0","[]","0","2","","","3961","73","3","4","lose","no-go","0"
"pit-trial","192","1175275","0.0-78.0","battery-v0.2","","""event"",""trial"",""time""
""fullscreenenter"",""1"",""1877""
","
","
","""event"",""trial"",""time""
""fullscreenenter"",""1"",""1877""
","
","","","-1","","","16","3961","2565","s","elianto","#3366ff99","-1","-1","1","+10","[]","0","2","","","3961","74","5","2","win","no-go","0"
"pit-trial","193","1178859","0.0-79.0","battery-v0.2","","""event"",""trial"",""time""
""fullscreenenter"",""1"",""1877""
","
","
","""event"",""trial"",""time""
""fullscreenenter"",""1"",""1877""
","
","","","726.2999999523163","","","16","3961","2565","p","elianto","#3366ff99"," "," ","1","+10","[1578.7000000476837]","1","2","","","3961","75","4","1","win","go","0"
"pit-trial","194","1183723","0.0-80.0","battery-v0.2","","""event"",""trial"",""time""
""fullscreenenter"",""1"",""1877""
","
","
","""event"",""trial"",""time""
""fullscreenenter"",""1"",""1877""
","
","","","-1","","","16","3961","2565","l","elianto","#3366ff99","-1","-1","1","0","[]","0","2","","","3961","76","1","2","win","no-go","1"
"pit-trial","195","1188587","0.0-81.0","battery-v0.2","","""event"",""trial"",""time""
""fullscreenenter"",""1"",""1877""
","
","
","""event"",""trial"",""time""
""fullscreenenter"",""1"",""1877""
","
","","","-1","","","16","3961","2565","g","elianto","#f73b6a7A","-1","-1","1","0","[]","0","2","","","3961","77","3","4","lose","no-go","0"
"pit-trial","196","1193100","0.0-82.0","battery-v0.2","","""event"",""trial"",""time""
""fullscreenenter"",""1"",""1877""
","
","
","""event"",""trial"",""time""
""fullscreenenter"",""1"",""1877""
","
","","","1649","","","16","3961","2565","s","elianto","#3366ff99","-1"," ","0","0","[2500.7000000476837]","1","2","","","3961","78","5","2","win","no-go","0"
"pit-trial","197","1196452","0.0-83.0","battery-v0.2","","""event"",""trial"",""time""
""fullscreenenter"",""1"",""1877""
","
","
","""event"",""trial"",""time""
""fullscreenenter"",""1"",""1877""
","
","","","493.7000000476837","","","16","3961","2565","p","elianto","#3366ff99"," "," ","1","0","[1344.1000001430511]","1","2","","","3961","79","4","1","win","go","1"
"pit-trial","198","1200099","0.0-84.0","battery-v0.2","","""event"",""trial"",""time""
""fullscreenenter"",""1"",""1877""
","
","
","""event"",""trial"",""time""
""fullscreenenter"",""1"",""1877""
","
","","","786.4000000953674","","","16","3961","2565","p","elianto","#3366ff99"," "," ","1","+10","[1637.3000001907349]","1","2","","","3961","80","4","1","win","go","0"
"pit-trial","199","1204963","0.0-85.0","battery-v0.2","","""event"",""trial"",""time""
""fullscreenenter"",""1"",""1877""
","
","
","""event"",""trial"",""time""
""fullscreenenter"",""1"",""1877""
","
","","","-1","","","16","3961","2565","e","elianto","#f73b6a7A","-1","-1","1","0","[]","0","2","","","3961","81","7","4","lose","no-go","0"
"pit-trial","200","1209827","0.0-86.0","battery-v0.2","","""event"",""trial"",""time""
""fullscreenenter"",""1"",""1877""
","
","
","""event"",""trial"",""time""
""fullscreenenter"",""1"",""1877""
","
","","","-1","","","16","3961","2565","s","elianto","#3366ff99","-1","-1","1","+10","[]","0","2","","","3961","82","5","2","win","no-go","0"
"pit-trial","201","1214036","0.0-87.0","battery-v0.2","","""event"",""trial"",""time""
""fullscreenenter"",""1"",""1877""
","
","
","""event"",""trial"",""time""
""fullscreenenter"",""1"",""1877""
","
","","","1349.6999998092651","","","16","3961","2565","g","elianto","#f73b6a7A","-1"," ","0","-10","[2201.9000000953674]","1","2","","","3961","83","3","4","lose","no-go","0"
"pit-trial","202","1217451","0.0-88.0","battery-v0.2","","""event"",""trial"",""time""
""fullscreenenter"",""1"",""1877""
","
","
","""event"",""trial"",""time""
""fullscreenenter"",""1"",""1877""
","
","","","553","","","16","3961","2565","p","elianto","#3366ff99"," "," ","1","+10","[1403.5999999046326]","1","2","","","3961","84","4","1","win","go","0"
"pit-trial","203","1222315","0.0-89.0","battery-v0.2","","""event"",""trial"",""time""
""fullscreenenter"",""1"",""1877""
","
","
","""event"",""trial"",""time""
""fullscreenenter"",""1"",""1877""
","
","","","-1","","","16","3961","2565","s","elianto","#3366ff99","-1","-1","1","+10","[]","0","2","","","3961","85","5","2","win","no-go","0"
"pit-trial","204","1225723","0.0-90.0","battery-v0.2","","""event"",""trial"",""time""
""fullscreenenter"",""1"",""1877""
","
","
","""event"",""trial"",""time""
""fullscreenenter"",""1"",""1877""
","
","","","545","","","16","3961","2565","p","elianto","#3366ff99"," "," ","1","+10","[1396.8999998569489]","1","2","","","3961","86","4","1","win","go","0"
"pit-trial","205","1230593","0.0-91.0","battery-v0.2","","""event"",""trial"",""time""
""fullscreenenter"",""1"",""1877""
","
","
","""event"",""trial"",""time""
""fullscreenenter"",""1"",""1877""
","
","","","-1","","","16","3961","2565","w","elianto","#f73b6a7A"," ","-1","0","-10","[]","0","2","","","3961","87","6","3","lose","go","0"
"pit-trial","206","1235459","0.0-92.0","battery-v0.2","","""event"",""trial"",""time""
""fullscreenenter"",""1"",""1877""
","
","
","""event"",""trial"",""time""
""fullscreenenter"",""1"",""1877""
","
","","","-1","","","16","3961","2565","e","elianto","#f73b6a7A","-1","-1","1","0","[]","0","2","","","3961","88","7","4","lose","no-go","0"
"pit-trial","207","1238987","0.0-93.0","battery-v0.2","","""event"",""trial"",""time""
""fullscreenenter"",""1"",""1877""
","
","
","""event"",""trial"",""time""
""fullscreenenter"",""1"",""1877""
","
","","","666.5999999046326","","","16","3961","2565","w","elianto","#f73b6a7A"," "," ","1","0","[1519.0999999046326]","1","2","","","3961","89","6","3","lose","go","0"
"pit-trial","208","1242354","0.0-94.0","battery-v0.2","","""event"",""trial"",""time""
""fullscreenenter"",""1"",""1877""
","
","
","""event"",""trial"",""time""
""fullscreenenter"",""1"",""1877""
","
","","","509.5","","","16","3961","2565","p","elianto","#3366ff99"," "," ","1","+10","[1363]","1","2","","","3961","90","4","1","win","go","0"
"pit-trial","209","1247220","0.0-95.0","battery-v0.2","","""event"",""trial"",""time""
""fullscreenenter"",""1"",""1877""
","
","
","""event"",""trial"",""time""
""fullscreenenter"",""1"",""1877""
","
","","","-1","","","16","3961","2565","s","elianto","#3366ff99","-1","-1","1","0","[]","0","2","","","3961","91","5","2","win","no-go","1"
"pit-trial","210","1252083","0.0-96.0","battery-v0.2","","""event"",""trial"",""time""
""fullscreenenter"",""1"",""1877""
","
","
","""event"",""trial"",""time""
""fullscreenenter"",""1"",""1877""
","
","","","-1","","","16","3961","2565","e","elianto","#f73b6a7A","-1","-1","1","0","[]","0","2","","","3961","92","7","4","lose","no-go","0"
"pit-trial","211","1256948","0.0-97.0","battery-v0.2","","""event"",""trial"",""time""
""fullscreenenter"",""1"",""1877""
","
","
","""event"",""trial"",""time""
""fullscreenenter"",""1"",""1877""
","
","","","-1","","","16","3961","2565","s","elianto","#3366ff99","-1","-1","1","0","[]","0","2","","","3961","93","5","2","win","no-go","1"
"pit-trial","212","1261811","0.0-98.0","battery-v0.2","","""event"",""trial"",""time""
""fullscreenenter"",""1"",""1877""
","
","
","""event"",""trial"",""time""
""fullscreenenter"",""1"",""1877""
","
","","","-1","","","16","3961","2565","e","elianto","#f73b6a7A","-1","-1","1","-10","[]","0","2","","","3961","94","7","4","lose","no-go","1"
"pit-trial","213","1265323","0.0-99.0","battery-v0.2","","""event"",""trial"",""time""
""fullscreenenter"",""1"",""1877""
","
","
","""event"",""trial"",""time""
""fullscreenenter"",""1"",""1877""
","
","","","653.2000000476837","","","16","3961","2565","w","elianto","#f73b6a7A"," "," ","1","0","[1505.5]","1","2","","","3961","95","6","3","lose","go","0"
"pit-trial","214","1269387","0.0-100.0","battery-v0.2","","""event"",""trial"",""time""
""fullscreenenter"",""1"",""1877""
","
","
","""event"",""trial"",""time""
""fullscreenenter"",""1"",""1877""
","
","","","1200","","","16","3961","2565","d","elianto","#3366ff99"," "," ","1","+10","[2052.5]","1","2","","","3961","96","8","1","win","go","0"
"pit-trial","215","1273810","0.0-101.0","battery-v0.2","","""event"",""trial"",""time""
""fullscreenenter"",""1"",""1877""
","
","
","""event"",""trial"",""time""
""fullscreenenter"",""1"",""1877""
","
","","","1566","","","16","3961","2565","w","elianto","#f73b6a7A"," "," ","1","0","[2418.2999999523163]","1","2","","","3961","97","6","3","lose","go","0"
"pit-trial","216","1278675","0.0-102.0","battery-v0.2","","""event"",""trial"",""time""
""fullscreenenter"",""1"",""1877""
","
","
","""event"",""trial"",""time""
""fullscreenenter"",""1"",""1877""
","
","","","-1","","","16","3961","2565","s","elianto","#3366ff99","-1","-1","1","+10","[]","0","2","","","3961","98","5","2","win","no-go","0"
"pit-trial","217","1283538","0.0-103.0","battery-v0.2","","""event"",""trial"",""time""
""fullscreenenter"",""1"",""1877""
","
","
","""event"",""trial"",""time""
""fullscreenenter"",""1"",""1877""
","
","","","-1","","","16","3961","2565","d","elianto","#3366ff99"," ","-1","0","0","[]","0","2","","","3961","99","8","1","win","go","0"
"pit-trial","218","1288403","0.0-104.0","battery-v0.2","","""event"",""trial"",""time""
""fullscreenenter"",""1"",""1877""
","
","
","""event"",""trial"",""time""
""fullscreenenter"",""1"",""1877""
","
","","","-1","","","16","3961","2565","e","elianto","#f73b6a7A","-1","-1","1","0","[]","0","2","","","3961","100","7","4","lose","no-go","0"
"pit-trial","219","1293266","0.0-105.0","battery-v0.2","","""event"",""trial"",""time""
""fullscreenenter"",""1"",""1877""
","
","
","""event"",""trial"",""time""
""fullscreenenter"",""1"",""1877""
","
","","","-1","","","16","3961","2565","s","elianto","#3366ff99","-1","-1","1","0","[]","0","2","","","3961","101","5","2","win","no-go","1"
"pit-trial","220","1297419","0.0-106.0","battery-v0.2","","""event"",""trial"",""time""
""fullscreenenter"",""1"",""1877""
","
","
","""event"",""trial"",""time""
""fullscreenenter"",""1"",""1877""
","
","","","1287.5999999046326","","","16","3961","2565","j","elianto","#3366ff99"," "," ","1","+10","[2140.600000143051]","1","2","","","3961","102","9","1","win","go","0"
"pit-trial","221","1302283","0.0-107.0","battery-v0.2","","""event"",""trial"",""time""
""fullscreenenter"",""1"",""1877""
","
","
","""event"",""trial"",""time""
""fullscreenenter"",""1"",""1877""
","
","","","-1","","","16","3961","2565","e","elianto","#f73b6a7A","-1","-1","1","0","[]","0","2","","","3961","103","7","4","lose","no-go","0"
"pit-trial","222","1307146","0.0-108.0","battery-v0.2","","""event"",""trial"",""time""
""fullscreenenter"",""1"",""1877""
","
","
","""event"",""trial"",""time""
""fullscreenenter"",""1"",""1877""
","
","","","-1","","","16","3961","2565","d","elianto","#3366ff99"," ","-1","0","+10","[]","0","2","","","3961","104","8","1","win","go","1"
"pit-trial","223","1312011","0.0-109.0","battery-v0.2","","""event"",""trial"",""time""
""fullscreenenter"",""1"",""1877""
","
","
","""event"",""trial"",""time""
""fullscreenenter"",""1"",""1877""
","
","","","-1","","","16","3961","2565","d","elianto","#3366ff99"," ","-1","0","0","[]","0","2","","","3961","105","8","1","win","go","0"
"pit-trial","224","1316426","0.0-110.0","battery-v0.2","","""event"",""trial"",""time""
""fullscreenenter"",""1"",""1877""
","
","
","""event"",""trial"",""time""
""fullscreenenter"",""1"",""1877""
","
","","","1558.6000001430511","","","16","3961","2565","j","elianto","#3366ff99"," "," ","1","+10","[2411]","1","2","","","3961","106","9","1","win","go","0"
"pit-trial","225","1319978","0.0-111.0","battery-v0.2","","""event"",""trial"",""time""
""fullscreenenter"",""1"",""1877""
","
","
","""event"",""trial"",""time""
""fullscreenenter"",""1"",""1877""
","
","","","688.1000001430511","","","16","3961","2565","p","elianto","#3366ff99"," "," ","1","+10","[1540.9000000953674]","1","2","","","3961","107","4","1","win","go","0"
"pit-trial","226","1323823","0.0-112.0","battery-v0.2","","""event"",""trial"",""time""
""fullscreenenter"",""1"",""1877""
","
","
","""event"",""trial"",""time""
""fullscreenenter"",""1"",""1877""
","
","","","976","","","16","3961","2565","w","elianto","#f73b6a7A"," "," ","1","-10","[1830]","1","2","","","3961","108","6","3","lose","go","1"
"pit-trial","227","1327803","0.0-113.0","battery-v0.2","","""event"",""trial"",""time""
""fullscreenenter"",""1"",""1877""
","
","
","""event"",""trial"",""time""
""fullscreenenter"",""1"",""1877""
","
","","","1113.6999998092651","","","16","3961","2565","w","elianto","#f73b6a7A"," "," ","1","0","[1969.5]","1","2","","","3961","109","6","3","lose","go","0"
"pit-trial","228","1332666","0.0-114.0","battery-v0.2","","""event"",""trial"",""time""
""fullscreenenter"",""1"",""1877""
","
","
","""event"",""trial"",""time""
""fullscreenenter"",""1"",""1877""
","
","","","-1","","","16","3961","2565","d","elianto","#3366ff99"," ","-1","0","0","[]","0","2","","","3961","110","8","1","win","go","0"
"pit-trial","229","1336450","0.0-115.0","battery-v0.2","","""event"",""trial"",""time""
""fullscreenenter"",""1"",""1877""
","
","
","""event"",""trial"",""time""
""fullscreenenter"",""1"",""1877""
","
","","","923.9000000953674","","","16","3961","2565","j","elianto","#3366ff99"," "," ","1","+10","[1774.5]","1","2","","","3961","111","9","1","win","go","0"
"pit-trial","230","1341315","0.0-116.0","battery-v0.2","","""event"",""trial"",""time""
""fullscreenenter"",""1"",""1877""
","
","
","""event"",""trial"",""time""
""fullscreenenter"",""1"",""1877""
","
","","","-1","","","16","3961","2565","s","elianto","#3366ff99","-1","-1","1","+10","[]","0","2","","","3961","112","5","2","win","no-go","0"
"pit-trial","231","1345212","0.0-117.0","battery-v0.2","","""event"",""trial"",""time""
""fullscreenenter"",""1"",""1877""
","
","
","""event"",""trial"",""time""
""fullscreenenter"",""1"",""1877""
","
","","","1036.7000000476837","","","16","3961","2565","w","elianto","#f73b6a7A"," "," ","1","0","[1888.5]","1","2","","","3961","113","6","3","lose","go","0"
"pit-trial","232","1349011","0.0-118.0","battery-v0.2","","""event"",""trial"",""time""
""fullscreenenter"",""1"",""1877""
","
","
","""event"",""trial"",""time""
""fullscreenenter"",""1"",""1877""
","
","","","937.2999999523163","","","16","3961","2565","j","elianto","#3366ff99"," "," ","1","0","[1790.5]","1","2","","","3961","114","9","1","win","go","1"
"pit-trial","233","1353875","0.0-119.0","battery-v0.2","","""event"",""trial"",""time""
""fullscreenenter"",""1"",""1877""
","
","
","""event"",""trial"",""time""
""fullscreenenter"",""1"",""1877""
","
","","","-1","","","16","3961","2565","d","elianto","#3366ff99"," ","-1","0","0","[]","0","2","","","3961","115","8","1","win","go","0"
"pit-trial","234","1358739","0.0-120.0","battery-v0.2","","""event"",""trial"",""time""
""fullscreenenter"",""1"",""1877""
","
","
","""event"",""trial"",""time""
""fullscreenenter"",""1"",""1877""
","
","","","-1","","","16","3961","2565","s","elianto","#3366ff99","-1","-1","1","+10","[]","0","2","","","3961","116","5","2","win","no-go","0"
"pit-trial","235","1362407","0.0-121.0","battery-v0.2","","""event"",""trial"",""time""
""fullscreenenter"",""1"",""1877""
","
","
","""event"",""trial"",""time""
""fullscreenenter"",""1"",""1877""
","
","","","799.0999999046326","","","16","3961","2565","w","elianto","#f73b6a7A"," "," ","1","0","[1650.5]","1","2","","","3961","117","6","3","lose","go","0"
"pit-trial","236","1367275","0.0-122.0","battery-v0.2","","""event"",""trial"",""time""
""fullscreenenter"",""1"",""1877""
","
","
","""event"",""trial"",""time""
""fullscreenenter"",""1"",""1877""
","
","","","-1","","","16","3961","2565","s","elianto","#3366ff99","-1","-1","1","+10","[]","0","2","","","3961","118","5","2","win","no-go","0"
"pit-trial","237","1371323","0.0-123.0","battery-v0.2","","""event"",""trial"",""time""
""fullscreenenter"",""1"",""1877""
","
","
","""event"",""trial"",""time""
""fullscreenenter"",""1"",""1877""
","
","","","1186.7000000476837","","","16","3961","2565","d","elianto","#3366ff99"," "," ","1","+10","[2038.9000000953674]","1","2","","","3961","119","8","1","win","go","0"
"pit-trial","238","1375251","0.0-124.0","battery-v0.2","","""event"",""trial"",""time""
""fullscreenenter"",""1"",""1877""
","
","
","""event"",""trial"",""time""
""fullscreenenter"",""1"",""1877""
","
","","","1064.4000000953674","","","16","3961","2565","j","elianto","#3366ff99"," "," ","1","0","[1916]","1","2","","","3961","120","9","1","win","go","1"
"pit-trial","239","1378858","0.0-125.0","battery-v0.2","","""event"",""trial"",""time""
""fullscreenenter"",""1"",""1877""
","
","
","""event"",""trial"",""time""
""fullscreenenter"",""1"",""1877""
","
","","","748.3999998569489","","","16","3961","2565","w","elianto","#f73b6a7A"," "," ","1","-10","[1602.5999999046326]","1","2","","","3961","121","6","3","lose","go","1"
"pit-trial","240","1383723","0.0-126.0","battery-v0.2","","""event"",""trial"",""time""
""fullscreenenter"",""1"",""1877""
","
","
","""event"",""trial"",""time""
""fullscreenenter"",""1"",""1877""
","
","","","-1","","","16","3961","2565","e","elianto","#f73b6a7A","-1","-1","1","0","[]","0","2","","","3961","122","7","4","lose","no-go","0"
"pit-trial","241","1388586","0.0-127.0","battery-v0.2","","""event"",""trial"",""time""
""fullscreenenter"",""1"",""1877""
","
","
","""event"",""trial"",""time""
""fullscreenenter"",""1"",""1877""
","
","","","-1","","","16","3961","2565","j","elianto","#3366ff99"," ","-1","0","0","[3395.7000000476837]","1","2","","","3961","123","9","1","win","go","0"
"pit-trial","242","1392259","0.0-128.0","battery-v0.2","","""event"",""trial"",""time""
""fullscreenenter"",""1"",""1877""
","
","
","""event"",""trial"",""time""
""fullscreenenter"",""1"",""1877""
","
","","","812.2999999523163","","","16","3961","2565","d","elianto","#3366ff99"," "," ","1","+10","[1665.3000001907349]","1","2","","","3961","124","8","1","win","go","0"
"pit-trial","243","1397122","0.0-129.0","battery-v0.2","","""event"",""trial"",""time""
""fullscreenenter"",""1"",""1877""
","
","
","""event"",""trial"",""time""
""fullscreenenter"",""1"",""1877""
","
","","","-1","","","16","3961","2565","e","elianto","#f73b6a7A","-1","-1","1","0","[]","0","2","","","3961","125","7","4","lose","no-go","0"
"pit-trial","244","1401986","0.0-130.0","battery-v0.2","","""event"",""trial"",""time""
""fullscreenenter"",""1"",""1877""
","
","
","""event"",""trial"",""time""
""fullscreenenter"",""1"",""1877""
","
","","","-1","","","16","3961","2565","j","elianto","#3366ff99"," ","-1","0","0","[]","0","2","","","3961","126","9","1","win","go","0"
"pit-trial","245","1405684","0.0-131.0","battery-v0.2","","""event"",""trial"",""time""
""fullscreenenter"",""1"",""1877""
","
","
","""event"",""trial"",""time""
""fullscreenenter"",""1"",""1877""
","
","","","837.5999999046326","","","16","3961","2565","w","elianto","#f73b6a7A"," "," ","1","0","[1691.9000000953674]","1","2","","","3961","127","6","3","lose","go","0"
"pit-trial","246","1409410","0.0-132.0","battery-v0.2","","""event"",""trial"",""time""
""fullscreenenter"",""1"",""1877""
","
","
","""event"",""trial"",""time""
""fullscreenenter"",""1"",""1877""
","
","","","868.6000001430511","","","16","3961","2565","d","elianto","#3366ff99"," "," ","1","+10","[1721.5]","1","2","","","3961","128","8","1","win","go","0"
"pit-trial","247","1412771","0.0-133.0","battery-v0.2","","""event"",""trial"",""time""
""fullscreenenter"",""1"",""1877""
","
","
","""event"",""trial"",""time""
""fullscreenenter"",""1"",""1877""
","
","","","503.09999990463257","","","16","3961","2565","j","elianto","#3366ff99"," "," ","1","+10","[1353.0999999046326]","1","2","","","3961","129","9","1","win","go","0"
"pit-trial","248","1416452","0.0-134.0","battery-v0.2","","""event"",""trial"",""time""
""fullscreenenter"",""1"",""1877""
","
","
","""event"",""trial"",""time""
""fullscreenenter"",""1"",""1877""
","
","","","821.2000000476837","","","16","3961","2565","w","elianto","#f73b6a7A"," "," ","1","0","[1673.2999999523163]","1","2","","","3961","130","6","3","lose","go","0"
"pit-trial","249","1421315","0.0-135.0","battery-v0.2","","""event"",""trial"",""time""
""fullscreenenter"",""1"",""1877""
","
","
","""event"",""trial"",""time""
""fullscreenenter"",""1"",""1877""
","
","","","-1","","","16","3961","2565","e","elianto","#f73b6a7A","-1","-1","1","0","[]","0","2","","","3961","131","7","4","lose","no-go","0"
"pit-trial","250","1424994","0.0-136.0","battery-v0.2","","""event"",""trial"",""time""
""fullscreenenter"",""1"",""1877""
","
","
","""event"",""trial"",""time""
""fullscreenenter"",""1"",""1877""
","
","","","820.5","","","16","3961","2565","d","elianto","#3366ff99"," "," ","1","+10","[1673.3000001907349]","1","2","","","3961","132","8","1","win","go","0"
"pit-trial","251","1429859","0.0-137.0","battery-v0.2","","""event"",""trial"",""time""
""fullscreenenter"",""1"",""1877""
","
","
","""event"",""trial"",""time""
""fullscreenenter"",""1"",""1877""
","
","","","-1","","","16","3961","2565","e","elianto","#f73b6a7A","-1","-1","1","-10","[]","0","2","","","3961","133","7","4","lose","no-go","1"
"pit-trial","252","1433226","0.0-138.0","battery-v0.2","","""event"",""trial"",""time""
""fullscreenenter"",""1"",""1877""
","
","
","""event"",""trial"",""time""
""fullscreenenter"",""1"",""1877""
","
","","","503.59999990463257","","","16","3961","2565","w","elianto","#f73b6a7A"," "," ","1","0","[1355.5999999046326]","1","2","","","3961","134","6","3","lose","go","0"
"pit-trial","253","1436802","0.0-139.0","battery-v0.2","","""event"",""trial"",""time""
""fullscreenenter"",""1"",""1877""
","
","
","""event"",""trial"",""time""
""fullscreenenter"",""1"",""1877""
","
","","","705.2000000476837","","","16","3961","2565","j","elianto","#3366ff99"," "," ","1","+10","[1557.7000000476837]","1","2","","","3961","135","9","1","win","go","0"
"pit-trial","254","1440234","0.0-140.0","battery-v0.2","","""event"",""trial"",""time""
""fullscreenenter"",""1"",""1877""
","
","
","""event"",""trial"",""time""
""fullscreenenter"",""1"",""1877""
","
","","","569.0999999046326","","","16","3961","2565","d","elianto","#3366ff99"," "," ","1","0","[1422.2000000476837]","1","2","","","3961","136","8","1","win","go","1"
"pit-trial","255","1443855","0.0-141.0","battery-v0.2","","""event"",""trial"",""time""
""fullscreenenter"",""1"",""1877""
","
","
","""event"",""trial"",""time""
""fullscreenenter"",""1"",""1877""
","
","","","744.4000000953674","","","16","3961","2565","w","elianto","#f73b6a7A"," "," ","1","-10","[1596.8000001907349]","1","2","","","3961","137","6","3","lose","go","1"
"pit-trial","256","1447338","0.0-142.0","battery-v0.2","","""event"",""trial"",""time""
""fullscreenenter"",""1"",""1877""
","
","
","""event"",""trial"",""time""
""fullscreenenter"",""1"",""1877""
","
","","","623","","","16","3961","2565","d","elianto","#3366ff99"," "," ","1","+10","[1473.5]","1","2","","","3961","138","8","1","win","go","0"
"pit-trial","257","1450902","0.0-143.0","battery-v0.2","","""event"",""trial"",""time""
""fullscreenenter"",""1"",""1877""
","
","
","""event"",""trial"",""time""
""fullscreenenter"",""1"",""1877""
","
","","","694.5999999046326","","","16","3961","2565","j","elianto","#3366ff99"," "," ","1","+10","[1544.7999999523163]","1","2","","","3961","139","9","1","win","go","0"
"pit-trial","258","1455770","0.0-144.0","battery-v0.2","","""event"",""trial"",""time""
""fullscreenenter"",""1"",""1877""
","
","
","""event"",""trial"",""time""
""fullscreenenter"",""1"",""1877""
","
","","","-1","","","16","3961","2565","e","elianto","#f73b6a7A","-1","-1","1","0","[]","0","2","","","3961","140","7","4","lose","no-go","0"
"pit-instructions","259","1478011","0.0-145.0","battery-v0.2","","""event"",""trial"",""time""
""fullscreenenter"",""1"",""1877""
","
","
","""event"",""trial"",""time""
""fullscreenenter"",""1"",""1877""
","
","","[{""page_index"":0,""viewing_time"":13982.400000095367},{""page_index"":1,""viewing_time"":8253.599999904633}]","22236.400000095367","","","","","","","","","","","","","","","","","","","","","","","",""
"pit-trial","260","1481920","0.0-146.0","battery-v0.2","","""event"",""trial"",""time""
""fullscreenenter"",""1"",""1877""
","
","
","""event"",""trial"",""time""
""fullscreenenter"",""1"",""1877""
","
","","","1038.5","","","16","3961","2565","n","elianto","#f73b6a7A","-1"," ","0","-10","[1890.0999999046326]","1","3","","","3961","141","0","4","lose","no-go","0"
"pit-trial","261","1485990","0.0-147.0","battery-v0.2","","""event"",""trial"",""time""
""fullscreenenter"",""1"",""1877""
","
","
","""event"",""trial"",""time""
""fullscreenenter"",""1"",""1877""
","
","","","1192","","","16","3961","2565","t","elianto","#f73b6a7A","-1"," ","0","-10","[2047.7999999523163]","1","3","","","3961","142","2","4","lose","no-go","0"
"pit-trial","262","1489475","0.0-148.0","battery-v0.2","","""event"",""trial"",""time""
""fullscreenenter"",""1"",""1877""
","
","
","""event"",""trial"",""time""
""fullscreenenter"",""1"",""1877""
","
","","","619.0999999046326","","","16","3961","2565","f","elianto","#3366ff99"," "," ","1","+10","[1477.7000000476837]","1","3","","","3961","143","1","1","win","go","0"
"pit-trial","263","1493582","0.0-149.0","battery-v0.2","","""event"",""trial"",""time""
""fullscreenenter"",""1"",""1877""
","
","
","""event"",""trial"",""time""
""fullscreenenter"",""1"",""1877""
","
","","","1242.7000000476837","","","16","3961","2565","b","elianto","#f73b6a7A"," "," ","1","-10","[2094.2999999523163]","1","3","","","3961","144","3","3","lose","go","1"
"pit-trial","264","1497095","0.0-150.0","battery-v0.2","","""event"",""trial"",""time""
""fullscreenenter"",""1"",""1877""
","
","
","""event"",""trial"",""time""
""fullscreenenter"",""1"",""1877""
","
","","","652.5","","","16","3961","2565","f","elianto","#3366ff99"," "," ","1","+10","[1504.5]","1","3","","","3961","145","1","1","win","go","0"
"pit-trial","265","1501971","0.0-151.0","battery-v0.2","","""event"",""trial"",""time""
""fullscreenenter"",""1"",""1877""
","
","
","""event"",""trial"",""time""
""fullscreenenter"",""1"",""1877""
","
