"trial_type","trial_index","time_elapsed","internal_node_id","task_version","subject_id","interactions","blur_events","focus_events","fullscreenenter_events","fullscreenexit_events","success","view_history","rt","responses","num_errors","age","subject","participantId","rune","rune_set","hex","correct","choice","accuracy","outcome","keys","total_keys","block","practice","value","sub","trial","stimulus","robot","valence","action","sham"
"pavlovia","0","18","0.0-0.0","battery-v0.2","","""event"",""trial"",""time""
""fullscreenenter"",""1"",""2255""
","
","
","""event"",""trial"",""time""
""fullscreenenter"",""1"",""2255""
","
","","","","","","","","","","","","","","","","","","","","","","","","","","",""
"fullscreen","1","3258","0.0-1.0","battery-v0.2","","""event"",""trial"",""time""
""fullscreenenter"",""1"",""2255""
","
","
","""event"",""trial"",""time""
""fullscreenenter"",""1"",""2255""
","
","true","","","","","","","","","","","","","","","","","","","","","","","","","",""
"pit-instructions","2","9899","0.0-2.0-0.0","battery-v0.2","","""event"",""trial"",""time""
""fullscreenenter"",""1"",""2255""
","
","
","""event"",""trial"",""time""
""fullscreenenter"",""1"",""2255""
","
","","[{""page_index"":0,""viewing_time"":6636}]","6637.100000023842","","","","","","","","","","","","","","","","","","","","","","","",""
"pit-comprehension","3","15270","0.0-2.0-1.0-0.0","battery-v0.2","","""event"",""trial"",""time""
""fullscreenenter"",""1"",""2255""
","
","
","""event"",""trial"",""time""
""fullscreenenter"",""1"",""2255""
","
","","","5367.199999988079","[""shark""]","0","11","3960","229","","","","","","","","","","","","","","","","","","",""
"pit-instructions","4","18239","0.0-2.0-1.0-1.0","battery-v0.2","","""event"",""trial"",""time""
""fullscreenenter"",""1"",""2255""
","
","
","""event"",""trial"",""time""
""fullscreenenter"",""1"",""2255""
","
","","[{""page_index"":0,""viewing_time"":2929.399999976158}]","2929.699999988079","","","","","","","","","","","","","","","","","","","","","","","",""
"pit-comprehension","5","20904","0.0-2.0-2.0-0.0","battery-v0.2","","""event"",""trial"",""time""
""fullscreenenter"",""1"",""2255""
","
","
","""event"",""trial"",""time""
""fullscreenenter"",""1"",""2255""
","
","","","2660.600000023842","[""tiger""]","0","11","3960","229","","","","","","","","","","","","","","","","","","",""
"pit-instructions","6","21695","0.0-2.0-2.0-1.0","battery-v0.2","","""event"",""trial"",""time""
""fullscreenenter"",""1"",""2255""
","
","
","""event"",""trial"",""time""
""fullscreenenter"",""1"",""2255""
","
","","[{""page_index"":0,""viewing_time"":787.3000000119209}]","787.6000000238419","","","","","","","","","","","","","","","","","","","","","","","",""
"pit-instructions","7","119761","0.0-2.0-3.0","battery-v0.2","","""event"",""trial"",""time""
""fullscreenenter"",""1"",""2255""
","
","
","""event"",""trial"",""time""
""fullscreenenter"",""1"",""2255""
","
","","[{""page_index"":0,""viewing_time"":8322.800000011921},{""page_index"":1,""viewing_time"":8008},{""page_index"":2,""viewing_time"":6524},{""page_index"":3,""viewing_time"":5070},{""page_index"":4,""viewing_time"":5967.899999976158},{""page_index"":5,""viewing_time"":5638.100000023842},{""page_index"":6,""viewing_time"":6798.399999976158},{""page_index"":7,""viewing_time"":7535.100000023842},{""page_index"":8,""viewing_time"":6556.199999988079},{""page_index"":9,""viewing_time"":10196.399999976158},{""page_index"":10,""viewing_time"":7953.900000035763},{""page_index"":11,""viewing_time"":7267.800000011921},{""page_index"":12,""viewing_time"":7370.099999964237},{""page_index"":13,""viewing_time"":4855.800000011921}]","98065.10000002384","","","","","","","","","","","","","","","","","","","","","","","",""
"pit-trial","8","123335","0.0-2.0-4.0-0.0","battery-v0.2","","""event"",""trial"",""time""
""fullscreenenter"",""1"",""2255""
","
","
","""event"",""trial"",""time""
""fullscreenenter"",""1"",""2255""
","
","","","708.1999999880791","","","11","3960","229","&#9784;","elianto","#FFFFF080"," "," ","1","&#10004","[1568.8999999761581]","1","0","0","","","","","","","",""
"pit-trial","9","127759","0.0-2.0-4.1-0.1","battery-v0.2","","""event"",""trial"",""time""
""fullscreenenter"",""1"",""2255""
","
","
","""event"",""trial"",""time""
""fullscreenenter"",""1"",""2255""
","
","","","1564.6000000238419","","","11","3960","229","&#9784;","elianto","#FFFFF080"," "," ","1","&#10004","[2417.100000023842]","1","0","0","","","","","","","",""
"pit-trial","10","131410","0.0-2.0-4.2-0.2","battery-v0.2","","""event"",""trial"",""time""
""fullscreenenter"",""1"",""2255""
","
","
","""event"",""trial"",""time""
""fullscreenenter"",""1"",""2255""
","
","","","786.5","","","11","3960","229","&#9784;","elianto","#FFFFF080"," "," ","1","&#10004","[1640.5]","1","0","0","","","","","","","",""
"pit-trial","11","135050","0.0-2.0-4.3-0.3","battery-v0.2","","""event"",""trial"",""time""
""fullscreenenter"",""1"",""2255""
","
","
","""event"",""trial"",""time""
""fullscreenenter"",""1"",""2255""
","
","","","778.6000000238419","","","11","3960","229","&#9784;","elianto","#FFFFF080"," "," ","1","&#10004","[1630.5]","1","0","0","","","","","","","",""
"pit-trial","12","138591","0.0-2.0-4.4-0.4","battery-v0.2","","""event"",""trial"",""time""
""fullscreenenter"",""1"",""2255""
","
","
","""event"",""trial"",""time""
""fullscreenenter"",""1"",""2255""
","
","","","676","","","11","3960","229","&#9784;","elianto","#FFFFF080"," "," ","1","&#10004","[1534.8999999761581]","1","0","0","","","","","","","",""
"pit-instructions","13","180555","0.0-2.0-5.0","battery-v0.2","","""event"",""trial"",""time""
""fullscreenenter"",""1"",""2255""
","
","
","""event"",""trial"",""time""
""fullscreenenter"",""1"",""2255""
","
","","[{""page_index"":0,""viewing_time"":19875.80000001192},{""page_index"":1,""viewing_time"":5884.300000011921},{""page_index"":2,""viewing_time"":10099.899999976158},{""page_index"":3,""viewing_time"":6101.700000047684}]","41962.10000002384","","","","","","","","","","","","","","","","","","","","","","","",""
"pit-trial","14","185424","0.0-2.0-6.0-0.0","battery-v0.2","","""event"",""trial"",""time""
""fullscreenenter"",""1"",""2255""
","
","
","""event"",""trial"",""time""
""fullscreenenter"",""1"",""2255""
","
","","","-1","","","11","3960","229","&#9854;","elianto","#FFFFF080","-1","-1","1","&#10004","[]","0","0","1","","","","","","","",""
"pit-trial","15","190294","0.0-2.0-6.1-0.1","battery-v0.2","","""event"",""trial"",""time""
""fullscreenenter"",""1"",""2255""
","
","
","""event"",""trial"",""time""
""fullscreenenter"",""1"",""2255""
","
","","","-1","","","11","3960","229","&#9854;","elianto","#FFFFF080","-1","-1","1","&#10004","[]","0","0","1","","","","","","","",""
"pit-trial","16","195159","0.0-2.0-6.2-0.2","battery-v0.2","","""event"",""trial"",""time""
""fullscreenenter"",""1"",""2255""
","
","
","""event"",""trial"",""time""
""fullscreenenter"",""1"",""2255""
","
","","","-1","","","11","3960","229","&#9854;","elianto","#FFFFF080","-1","-1","1","&#10004","[]","0","0","1","","","","","","","",""
"pit-trial","17","200024","0.0-2.0-6.3-0.3","battery-v0.2","","""event"",""trial"",""time""
""fullscreenenter"",""1"",""2255""
","
","
","""event"",""trial"",""time""
""fullscreenenter"",""1"",""2255""
","
","","","-1","","","11","3960","229","&#9854;","elianto","#FFFFF080","-1","-1","1","&#10004","[]","0","0","1","","","","","","","",""
"pit-trial","18","204888","0.0-2.0-6.4-0.4","battery-v0.2","","""event"",""trial"",""time""
""fullscreenenter"",""1"",""2255""
","
","
","""event"",""trial"",""time""
""fullscreenenter"",""1"",""2255""
","
","","","-1","","","11","3960","229","&#9854;","elianto","#FFFFF080","-1","-1","1","&#10004","[]","0","0","1","","","","","","","",""
"pit-instructions","19","330467","0.0-2.0-7.0","battery-v0.2","","""event"",""trial"",""time""
""fullscreenenter"",""1"",""2255""
","
","
","""event"",""trial"",""time""
""fullscreenenter"",""1"",""2255""
","
","","[{""page_index"":0,""viewing_time"":5523.400000035763},{""page_index"":1,""viewing_time"":7844.899999976158},{""page_index"":2,""viewing_time"":9526.199999988079},{""page_index"":3,""viewing_time"":6809.199999988079},{""page_index"":4,""viewing_time"":5765.600000023842},{""page_index"":5,""viewing_time"":5604.399999976158},{""page_index"":6,""viewing_time"":4699.700000047684},{""page_index"":7,""viewing_time"":9748.399999976158},{""page_index"":8,""viewing_time"":7753.600000023842},{""page_index"":9,""viewing_time"":6024.099999964237},{""page_index"":10,""viewing_time"":6720},{""page_index"":11,""viewing_time"":5044.100000023842},{""page_index"":12,""viewing_time"":8279.800000011921},{""page_index"":13,""viewing_time"":7151.799999952316},{""page_index"":14,""viewing_time"":8392.5},{""page_index"":15,""viewing_time"":7181.800000011921},{""page_index"":16,""viewing_time"":6073.900000035763},{""page_index"":17,""viewing_time"":7434.199999988079}]","125578.19999998808","","","","","","","","","","","","","","","","","","","","","","","",""
"pit-trial","20","333931","0.0-2.0-8.0-0.0","battery-v0.2","","""event"",""trial"",""time""
""fullscreenenter"",""1"",""2255""
","
","
","""event"",""trial"",""time""
""fullscreenenter"",""1"",""2255""
","
","","","604.2999999523163","","","11","3960","229","&#9776;","elianto","#3366ff99"," "," ","1","+10","[1456.300000011921]","1","0","1","","","","","","","",""
"pit-trial","21","337501","0.0-2.0-8.0-1.0","battery-v0.2","","""event"",""trial"",""time""
""fullscreenenter"",""1"",""2255""
","
","
","""event"",""trial"",""time""
""fullscreenenter"",""1"",""2255""
","
","","","705.8000000119209","","","11","3960","229","&#9776;","elianto","#3366ff99"," "," ","1","+10","[1560]","1","0","1","","","","","","","",""
"pit-trial","22","341286","0.0-2.0-8.0-2.0","battery-v0.2","","""event"",""trial"",""time""
""fullscreenenter"",""1"",""2255""
","
","
","""event"",""trial"",""time""
""fullscreenenter"",""1"",""2255""
","
","","","922.5","","","11","3960","229","&#9776;","elianto","#3366ff99"," "," ","1","+10","[1773.8999999761581]","1","0","1","","","","","","","",""
"pit-trial","23","344827","0.0-2.0-8.0-3.0","battery-v0.2","","""event"",""trial"",""time""
""fullscreenenter"",""1"",""2255""
","
","
","""event"",""trial"",""time""
""fullscreenenter"",""1"",""2255""
","
","","","680.1000000238419","","","11","3960","229","&#9776;","elianto","#3366ff99"," "," ","1","0","[1533.4000000357628]","1","0","1","","","","","","","",""
"pit-trial","24","348286","0.0-2.0-8.0-4.0","battery-v0.2","","""event"",""trial"",""time""
""fullscreenenter"",""1"",""2255""
","
","
","""event"",""trial"",""time""
""fullscreenenter"",""1"",""2255""
","
","","","594.3000000119209","","","11","3960","229","&#9776;","elianto","#3366ff99"," "," ","1","+10","[1447.6000000238419]","1","0","1","","","","","","","",""
"pit-trial","25","351868","0.0-2.0-8.1-0.1","battery-v0.2","","""event"",""trial"",""time""
""fullscreenenter"",""1"",""2255""
","
","
","""event"",""trial"",""time""
""fullscreenenter"",""1"",""2255""
","
","","","720.6000000238419","","","11","3960","229","&#9776;","elianto","#3366ff99"," "," ","1","+10","[1571.9000000357628]","1","0","1","","","","","","","",""
"pit-trial","26","355595","0.0-2.0-8.1-1.1","battery-v0.2","","""event"",""trial"",""time""
""fullscreenenter"",""1"",""2255""
","
","
","""event"",""trial"",""time""
""fullscreenenter"",""1"",""2255""
","
","","","865.8999999761581","","","11","3960","229","&#9776;","elianto","#3366ff99"," "," ","1","+10","[1718.800000011921]","1","0","1","","","","","","","",""
"pit-trial","27","359419","0.0-2.0-8.1-2.1","battery-v0.2","","""event"",""trial"",""time""
""fullscreenenter"",""1"",""2255""
","
","
","""event"",""trial"",""time""
""fullscreenenter"",""1"",""2255""
","
","","","962.1999999880791","","","11","3960","229","&#9776;","elianto","#3366ff99"," "," ","1","+10","[1816.199999988079]","1","0","1","","","","","","","",""
"pit-trial","28","363443","0.0-2.0-8.1-3.1","battery-v0.2","","""event"",""trial"",""time""
""fullscreenenter"",""1"",""2255""
","
","
","""event"",""trial"",""time""
""fullscreenenter"",""1"",""2255""
","
","","","1161.199999988079","","","11","3960","229","&#9776;","elianto","#3366ff99"," "," ","1","0","[2015.199999988079]","1","0","1","","","","","","","",""
"pit-trial","29","366794","0.0-2.0-8.1-4.1","battery-v0.2","","""event"",""trial"",""time""
""fullscreenenter"",""1"",""2255""
","
","
","""event"",""trial"",""time""
""fullscreenenter"",""1"",""2255""
","
","","","489.5","","","11","3960","229","&#9776;","elianto","#3366ff99"," "," ","1","+10","[1343.3999999761581]","1","0","1","","","","","","","",""
"pit-trial","30","370650","0.0-2.0-8.2-0.2","battery-v0.2","","""event"",""trial"",""time""
""fullscreenenter"",""1"",""2255""
","
","
","""event"",""trial"",""time""
""fullscreenenter"",""1"",""2255""
","
","","","993.5999999642372","","","11","3960","229","&#9776;","elianto","#3366ff99"," "," ","1","+10","[1846.9000000357628]","1","0","1","","","","","","","",""
"pit-trial","31","374346","0.0-2.0-8.2-1.2","battery-v0.2","","""event"",""trial"",""time""
""fullscreenenter"",""1"",""2255""
","
","
","""event"",""trial"",""time""
""fullscreenenter"",""1"",""2255""
","
","","","837.1000000238419","","","11","3960","229","&#9776;","elianto","#3366ff99"," "," ","1","+10","[1691.699999988079]","1","0","1","","","","","","","",""
"pit-trial","32","378098","0.0-2.0-8.2-2.2","battery-v0.2","","""event"",""trial"",""time""
""fullscreenenter"",""1"",""2255""
","
","
","""event"",""trial"",""time""
""fullscreenenter"",""1"",""2255""
","
","","","887.1999999880791","","","11","3960","229","&#9776;","elianto","#3366ff99"," "," ","1","+10","[1741.6000000238419]","1","0","1","","","","","","","",""
"pit-trial","33","381634","0.0-2.0-8.2-3.2","battery-v0.2","","""event"",""trial"",""time""
""fullscreenenter"",""1"",""2255""
","
","
","""event"",""trial"",""time""
""fullscreenenter"",""1"",""2255""
","
","","","667.5","","","11","3960","229","&#9776;","elianto","#3366ff99"," "," ","1","0","[1525.5]","1","0","1","","","","","","","",""
"pit-trial","34","384986","0.0-2.0-8.2-4.2","battery-v0.2","","""event"",""trial"",""time""
""fullscreenenter"",""1"",""2255""
","
","
","""event"",""trial"",""time""
""fullscreenenter"",""1"",""2255""
","
","","","489.19999998807907","","","11","3960","229","&#9776;","elianto","#3366ff99"," "," ","1","+10","[1341.2999999523163]","1","0","1","","","","","","","",""
"call-function","35","384988","0.0-2.0-9.0","battery-v0.2","","""event"",""trial"",""time""
""fullscreenenter"",""1"",""2255""
","
","
","""event"",""trial"",""time""
""fullscreenenter"",""1"",""2255""
","
","","","","","","","","","","","","","","","","","","","","","","","","","","",""
"pit-instructions","36","465132","0.0-2.0-10.0","battery-v0.2","","""event"",""trial"",""time""
""fullscreenenter"",""1"",""2255""
","
","
","""event"",""trial"",""time""
""fullscreenenter"",""1"",""2255""
","
","","[{""page_index"":0,""viewing_time"":9717.899999976158},{""page_index"":1,""viewing_time"":11951.800000011921},{""page_index"":2,""viewing_time"":12601.600000023842},{""page_index"":3,""viewing_time"":38094.799999952316},{""page_index"":4,""viewing_time"":7778.300000011921}]","80144.89999997616","","","","","","","","","","","","","","","","","","","","","","","",""
"pit-trial","37","470002","0.0-2.0-11.0-0.0","battery-v0.2","","""event"",""trial"",""time""
""fullscreenenter"",""1"",""2255""
","
","
","""event"",""trial"",""time""
""fullscreenenter"",""1"",""2255""
","
","","","-1","","","11","3960","229","&#9761;","elianto","#3366ff99","-1","-1","1","+10","[]","0","0","2","","","","","","","",""
"pit-trial","38","474865","0.0-2.0-11.0-1.0","battery-v0.2","","""event"",""trial"",""time""
""fullscreenenter"",""1"",""2255""
","
","
","""event"",""trial"",""time""
""fullscreenenter"",""1"",""2255""
","
","","","-1","","","11","3960","229","&#9761;","elianto","#3366ff99","-1","-1","1","+10","[]","0","0","2","","","","","","","",""
"pit-trial","39","479731","0.0-2.0-11.0-2.0","battery-v0.2","","""event"",""trial"",""time""
""fullscreenenter"",""1"",""2255""
","
","
","""event"",""trial"",""time""
""fullscreenenter"",""1"",""2255""
","
","","","-1","","","11","3960","229","&#9761;","elianto","#3366ff99","-1","-1","1","+10","[]","0","0","2","","","","","","","",""
"pit-trial","40","484596","0.0-2.0-11.0-3.0","battery-v0.2","","""event"",""trial"",""time""
""fullscreenenter"",""1"",""2255""
","
","
","""event"",""trial"",""time""
""fullscreenenter"",""1"",""2255""
","
","","","-1","","","11","3960","229","&#9761;","elianto","#3366ff99","-1","-1","1","0","[]","0","0","2","","","","","","","",""
"pit-trial","41","488554","0.0-2.0-11.0-4.0","battery-v0.2","","""event"",""trial"",""time""
""fullscreenenter"",""1"",""2255""
","
","
","""event"",""trial"",""time""
""fullscreenenter"",""1"",""2255""
","
","","","1098.5","","","11","3960","229","&#9761;","elianto","#3366ff99","-1"," ","0","0","[1949.0999999642372]","1","0","2","","","","","","","",""
"pit-trial","42","493419","0.0-2.0-11.1-0.1","battery-v0.2","","""event"",""trial"",""time""
""fullscreenenter"",""1"",""2255""
","
","
","""event"",""trial"",""time""
""fullscreenenter"",""1"",""2255""
","
","","","-1","","","11","3960","229","&#9761;","elianto","#3366ff99","-1","-1","1","+10","[]","0","0","2","","","","","","","",""
"pit-trial","43","498280","0.0-2.0-11.1-1.1","battery-v0.2","","""event"",""trial"",""time""
""fullscreenenter"",""1"",""2255""
","
","
","""event"",""trial"",""time""
""fullscreenenter"",""1"",""2255""
","
","","","-1","","","11","3960","229","&#9761;","elianto","#3366ff99","-1","-1","1","+10","[]","0","0","2","","","","","","","",""
"pit-trial","44","503144","0.0-2.0-11.1-2.1","battery-v0.2","","""event"",""trial"",""time""
""fullscreenenter"",""1"",""2255""
","
","
","""event"",""trial"",""time""
""fullscreenenter"",""1"",""2255""
","
","","","-1","","","11","3960","229","&#9761;","elianto","#3366ff99","-1","-1","1","+10","[]","0","0","2","","","","","","","",""
"pit-trial","45","508008","0.0-2.0-11.1-3.1","battery-v0.2","","""event"",""trial"",""time""
""fullscreenenter"",""1"",""2255""
","
","
","""event"",""trial"",""time""
""fullscreenenter"",""1"",""2255""
","
","","","-1","","","11","3960","229","&#9761;","elianto","#3366ff99","-1","-1","1","0","[]","0","0","2","","","","","","","",""
"pit-trial","46","512872","0.0-2.0-11.1-4.1","battery-v0.2","","""event"",""trial"",""time""
""fullscreenenter"",""1"",""2255""
","
","
","""event"",""trial"",""time""
""fullscreenenter"",""1"",""2255""
","
","","","-1","","","11","3960","229","&#9761;","elianto","#3366ff99","-1","-1","1","+10","[]","0","0","2","","","","","","","",""
"pit-trial","47","517736","0.0-2.0-11.2-0.2","battery-v0.2","","""event"",""trial"",""time""
""fullscreenenter"",""1"",""2255""
","
","
","""event"",""trial"",""time""
""fullscreenenter"",""1"",""2255""
","
","","","-1","","","11","3960","229","&#9761;","elianto","#3366ff99","-1","-1","1","+10","[]","0","0","2","","","","","","","",""
"pit-trial","48","522600","0.0-2.0-11.2-1.2","battery-v0.2","","""event"",""trial"",""time""
""fullscreenenter"",""1"",""2255""
","
","
","""event"",""trial"",""time""
""fullscreenenter"",""1"",""2255""
","
","","","-1","","","11","3960","229","&#9761;","elianto","#3366ff99","-1","-1","1","+10","[]","0","0","2","","","","","","","",""
"pit-trial","49","527464","0.0-2.0-11.2-2.2","battery-v0.2","","""event"",""trial"",""time""
""fullscreenenter"",""1"",""2255""
","
","
","""event"",""trial"",""time""
""fullscreenenter"",""1"",""2255""
","
","","","-1","","","11","3960","229","&#9761;","elianto","#3366ff99","-1","-1","1","+10","[]","0","0","2","","","","","","","",""
"pit-trial","50","532328","0.0-2.0-11.2-3.2","battery-v0.2","","""event"",""trial"",""time""
""fullscreenenter"",""1"",""2255""
","
","
","""event"",""trial"",""time""
""fullscreenenter"",""1"",""2255""
","
","","","-1","","","11","3960","229","&#9761;","elianto","#3366ff99","-1","-1","1","0","[]","0","0","2","","","","","","","",""
"pit-trial","51","537192","0.0-2.0-11.2-4.2","battery-v0.2","","""event"",""trial"",""time""
""fullscreenenter"",""1"",""2255""
","
","
","""event"",""trial"",""time""
""fullscreenenter"",""1"",""2255""
","
","","","-1","","","11","3960","229","&#9761;","elianto","#3366ff99","-1","-1","1","+10","[]","0","0","2","","","","","","","",""
"pit-trial","52","542055","0.0-2.0-11.3-0.3","battery-v0.2","","""event"",""trial"",""time""
""fullscreenenter"",""1"",""2255""
","
","
","""event"",""trial"",""time""
""fullscreenenter"",""1"",""2255""
","
","","","-1","","","11","3960","229","&#9761;","elianto","#3366ff99","-1","-1","1","+10","[]","0","0","2","","","","","","","",""
"pit-trial","53","546919","0.0-2.0-11.3-1.3","battery-v0.2","","""event"",""trial"",""time""
""fullscreenenter"",""1"",""2255""
","
","
","""event"",""trial"",""time""
""fullscreenenter"",""1"",""2255""
","
","","","-1","","","11","3960","229","&#9761;","elianto","#3366ff99","-1","-1","1","+10","[]","0","0","2","","","","","","","",""
"pit-trial","54","551783","0.0-2.0-11.3-2.3","battery-v0.2","","""event"",""trial"",""time""
""fullscreenenter"",""1"",""2255""
","
","
","""event"",""trial"",""time""
""fullscreenenter"",""1"",""2255""
","
","","","-1","","","11","3960","229","&#9761;","elianto","#3366ff99","-1","-1","1","+10","[]","0","0","2","","","","","","","",""
"pit-trial","55","556647","0.0-2.0-11.3-3.3","battery-v0.2","","""event"",""trial"",""time""
""fullscreenenter"",""1"",""2255""
","
","
","""event"",""trial"",""time""
""fullscreenenter"",""1"",""2255""
","
","","","-1","","","11","3960","229","&#9761;","elianto","#3366ff99","-1","-1","1","0","[]","0","0","2","","","","","","","",""
"pit-trial","56","561511","0.0-2.0-11.3-4.3","battery-v0.2","","""event"",""trial"",""time""
""fullscreenenter"",""1"",""2255""
","
","
","""event"",""trial"",""time""
""fullscreenenter"",""1"",""2255""
","
","","","-1","","","11","3960","229","&#9761;","elianto","#3366ff99","-1","-1","1","+10","[]","0","0","2","","","","","","","",""
"call-function","57","561513","0.0-2.0-12.0","battery-v0.2","","""event"",""trial"",""time""
""fullscreenenter"",""1"",""2255""
","
","
","""event"",""trial"",""time""
""fullscreenenter"",""1"",""2255""
","
","","","","","","","","","","","","","","","","","","","","","","","","","","",""
"pit-instructions","58","592691","0.0-2.0-13.0","battery-v0.2","","""event"",""trial"",""time""
""fullscreenenter"",""1"",""2255""
","
","
","""event"",""trial"",""time""
""fullscreenenter"",""1"",""2255""
","
","","[{""page_index"":0,""viewing_time"":4816.099999964237},{""page_index"":1,""viewing_time"":8070.100000023842},{""page_index"":2,""viewing_time"":3293.899999976158},{""page_index"":3,""viewing_time"":10180.699999988079},{""page_index"":4,""viewing_time"":4816.400000035763}]","31178","","","","","","","","","","","","","","","","","","","","","","","",""
"pit-trial","59","596391","0.0-2.0-14.0-0.0","battery-v0.2","","""event"",""trial"",""time""
""fullscreenenter"",""1"",""2255""
","
","
","""event"",""trial"",""time""
""fullscreenenter"",""1"",""2255""
","
","","","838.5","","","11","3960","229","&#9826;","elianto","#f73b6a7A","-1"," ","0","-10","[1691.3999999761581]","1","0","3","","","","","","","",""
"pit-trial","60","601255","0.0-2.0-14.0-1.0","battery-v0.2","","""event"",""trial"",""time""
""fullscreenenter"",""1"",""2255""
","
","
","""event"",""trial"",""time""
""fullscreenenter"",""1"",""2255""
","
","","","-1","","","11","3960","229","&#9826;","elianto","#f73b6a7A","-1","-1","1","0","[]","0","0","3","","","","","","","",""
"pit-trial","61","606120","0.0-2.0-14.0-2.0","battery-v0.2","","""event"",""trial"",""time""
""fullscreenenter"",""1"",""2255""
","
","
","""event"",""trial"",""time""
""fullscreenenter"",""1"",""2255""
","
","","","-1","","","11","3960","229","&#9826;","elianto","#f73b6a7A","-1","-1","1","0","[]","0","0","3","","","","","","","",""
"pit-trial","62","610984","0.0-2.0-14.0-3.0","battery-v0.2","","""event"",""trial"",""time""
""fullscreenenter"",""1"",""2255""
","
","
","""event"",""trial"",""time""
""fullscreenenter"",""1"",""2255""
","
","","","-1","","","11","3960","229","&#9826;","elianto","#f73b6a7A","-1","-1","1","-10","[]","0","0","3","","","","","","","",""
"pit-trial","63","615849","0.0-2.0-14.0-4.0","battery-v0.2","","""event"",""trial"",""time""
""fullscreenenter"",""1"",""2255""
","
","
","""event"",""trial"",""time""
""fullscreenenter"",""1"",""2255""
","
","","","-1","","","11","3960","229","&#9826;","elianto","#f73b6a7A","-1","-1","1","0","[]","0","0","3","","","","","","","",""
"pit-trial","64","620713","0.0-2.0-14.1-0.1","battery-v0.2","","""event"",""trial"",""time""
""fullscreenenter"",""1"",""2255""
","
","
","""event"",""trial"",""time""
""fullscreenenter"",""1"",""2255""
","
","","","-1","","","11","3960","229","&#9826;","elianto","#f73b6a7A","-1","-1","1","0","[]","0","0","3","","","","","","","",""
"pit-trial","65","625574","0.0-2.0-14.1-1.1","battery-v0.2","","""event"",""trial"",""time""
""fullscreenenter"",""1"",""2255""
","
","
","""event"",""trial"",""time""
""fullscreenenter"",""1"",""2255""
","
","","","-1","","","11","3960","229","&#9826;","elianto","#f73b6a7A","-1","-1","1","0","[]","0","0","3","","","","","","","",""
"pit-trial","66","630437","0.0-2.0-14.1-2.1","battery-v0.2","","""event"",""trial"",""time""
""fullscreenenter"",""1"",""2255""
","
","
","""event"",""trial"",""time""
""fullscreenenter"",""1"",""2255""
","
","","","-1","","","11","3960","229","&#9826;","elianto","#f73b6a7A","-1","-1","1","0","[]","0","0","3","","","","","","","",""
"pit-trial","67","635302","0.0-2.0-14.1-3.1","battery-v0.2","","""event"",""trial"",""time""
""fullscreenenter"",""1"",""2255""
","
","
","""event"",""trial"",""time""
""fullscreenenter"",""1"",""2255""
","
","","","-1","","","11","3960","229","&#9826;","elianto","#f73b6a7A","-1","-1","1","-10","[]","0","0","3","","","","","","","",""
"pit-trial","68","640166","0.0-2.0-14.1-4.1","battery-v0.2","","""event"",""trial"",""time""
""fullscreenenter"",""1"",""2255""
","
","
","""event"",""trial"",""time""
""fullscreenenter"",""1"",""2255""
","
","","","-1","","","11","3960","229","&#9826;","elianto","#f73b6a7A","-1","-1","1","0","[]","0","0","3","","","","","","","",""
"pit-trial","69","645030","0.0-2.0-14.2-0.2","battery-v0.2","","""event"",""trial"",""time""
""fullscreenenter"",""1"",""2255""
","
","
","""event"",""trial"",""time""
""fullscreenenter"",""1"",""2255""
","
","","","-1","","","11","3960","229","&#9826;","elianto","#f73b6a7A","-1","-1","1","0","[]","0","0","3","","","","","","","",""
"pit-trial","70","649894","0.0-2.0-14.2-1.2","battery-v0.2","","""event"",""trial"",""time""
""fullscreenenter"",""1"",""2255""
","
","
","""event"",""trial"",""time""
""fullscreenenter"",""1"",""2255""
","
","","","-1","","","11","3960","229","&#9826;","elianto","#f73b6a7A","-1","-1","1","0","[]","0","0","3","","","","","","","",""
"pit-trial","71","654758","0.0-2.0-14.2-2.2","battery-v0.2","","""event"",""trial"",""time""
""fullscreenenter"",""1"",""2255""
","
","
","""event"",""trial"",""time""
""fullscreenenter"",""1"",""2255""
","
","","","-1","","","11","3960","229","&#9826;","elianto","#f73b6a7A","-1","-1","1","0","[]","0","0","3","","","","","","","",""
"pit-trial","72","659621","0.0-2.0-14.2-3.2","battery-v0.2","","""event"",""trial"",""time""
""fullscreenenter"",""1"",""2255""
","
","
","""event"",""trial"",""time""
""fullscreenenter"",""1"",""2255""
","
","","","-1","","","11","3960","229","&#9826;","elianto","#f73b6a7A","-1","-1","1","-10","[]","0","0","3","","","","","","","",""
"pit-trial","73","664485","0.0-2.0-14.2-4.2","battery-v0.2","","""event"",""trial"",""time""
""fullscreenenter"",""1"",""2255""
","
","
","""event"",""trial"",""time""
""fullscreenenter"",""1"",""2255""
","
","","","-1","","","11","3960","229","&#9826;","elianto","#f73b6a7A","-1","-1","1","0","[]","0","0","3","","","","","","","",""
"pit-trial","74","669349","0.0-2.0-14.3-0.3","battery-v0.2","","""event"",""trial"",""time""
""fullscreenenter"",""1"",""2255""
","
","
","""event"",""trial"",""time""
""fullscreenenter"",""1"",""2255""
","
","","","-1","","","11","3960","229","&#9826;","elianto","#f73b6a7A","-1","-1","1","0","[]","0","0","3","","","","","","","",""
"pit-trial","75","674213","0.0-2.0-14.3-1.3","battery-v0.2","","""event"",""trial"",""time""
""fullscreenenter"",""1"",""2255""
","
","
","""event"",""trial"",""time""
""fullscreenenter"",""1"",""2255""
","
","","","-1","","","11","3960","229","&#9826;","elianto","#f73b6a7A","-1","-1","1","0","[]","0","0","3","","","","","","","",""
"pit-trial","76","679077","0.0-2.0-14.3-2.3","battery-v0.2","","""event"",""trial"",""time""
""fullscreenenter"",""1"",""2255""
","
","
","""event"",""trial"",""time""
""fullscreenenter"",""1"",""2255""
","
","","","-1","","","11","3960","229","&#9826;","elianto","#f73b6a7A","-1","-1","1","0","[]","0","0","3","","","","","","","",""
"pit-trial","77","683941","0.0-2.0-14.3-3.3","battery-v0.2","","""event"",""trial"",""time""
""fullscreenenter"",""1"",""2255""
","
","
","""event"",""trial"",""time""
""fullscreenenter"",""1"",""2255""
","
","","","-1","","","11","3960","229","&#9826;","elianto","#f73b6a7A","-1","-1","1","-10","[]","0","0","3","","","","","","","",""
"pit-trial","78","688805","0.0-2.0-14.3-4.3","battery-v0.2","","""event"",""trial"",""time""
""fullscreenenter"",""1"",""2255""
","
","
","""event"",""trial"",""time""
""fullscreenenter"",""1"",""2255""
","
","","","-1","","","11","3960","229","&#9826;","elianto","#f73b6a7A","-1","-1","1","0","[]","0","0","3","","","","","","","",""
"call-function","79","688807","0.0-2.0-15.0","battery-v0.2","","""event"",""trial"",""time""
""fullscreenenter"",""1"",""2255""
","
","
","""event"",""trial"",""time""
""fullscreenenter"",""1"",""2255""
","
","","","","","","","","","","","","","","","","","","","","","","","","","","",""
"pit-instructions","80","716822","0.0-2.0-16.0","battery-v0.2","","""event"",""trial"",""time""
""fullscreenenter"",""1"",""2255""
","
","
","""event"",""trial"",""time""
""fullscreenenter"",""1"",""2255""
","
","","[{""page_index"":0,""viewing_time"":6511.099999964237},{""page_index"":1,""viewing_time"":8687.900000035763},{""page_index"":2,""viewing_time"":6045.599999964237},{""page_index"":3,""viewing_time"":6770}]","28015","","","","","","","","","","","","","","","","","","","","","","","",""
"pit-trial","81","720606","0.0-2.0-17.0-0.0","battery-v0.2","","""event"",""trial"",""time""
""fullscreenenter"",""1"",""2255""
","
","
","""event"",""trial"",""time""
""fullscreenenter"",""1"",""2255""
","
","","","923.5","","","11","3960","229","&#9789;","elianto","#f73b6a7A"," "," ","1","0","[1776.5]","1","0","4","","","","","","","",""
"pit-trial","82","724164","0.0-2.0-17.0-1.0","battery-v0.2","","""event"",""trial"",""time""
""fullscreenenter"",""1"",""2255""
","
","
","""event"",""trial"",""time""
""fullscreenenter"",""1"",""2255""
","
","","","700.6999999880791","","","11","3960","229","&#9789;","elianto","#f73b6a7A"," "," ","1","0","[1552.8999999761581]","1","0","4","","","","","","","",""
"pit-trial","83","727764","0.0-2.0-17.0-2.0","battery-v0.2","","""event"",""trial"",""time""
""fullscreenenter"",""1"",""2255""
","
","
","""event"",""trial"",""time""
""fullscreenenter"",""1"",""2255""
","
","","","739.4000000357628","","","11","3960","229","&#9789;","elianto","#f73b6a7A"," "," ","1","0","[1593.3999999761581]","1","0","4","","","","","","","",""
"pit-trial","84","731920","0.0-2.0-17.0-3.0","battery-v0.2","","""event"",""trial"",""time""
""fullscreenenter"",""1"",""2255""
","
","
","""event"",""trial"",""time""
""fullscreenenter"",""1"",""2255""
","
","","","1290.3999999761581","","","11","3960","229","&#9789;","elianto","#f73b6a7A"," "," ","1","-10","[2145.5]","1","0","4","","","","","","","",""
"pit-trial","85","735525","0.0-2.0-17.0-4.0","battery-v0.2","","""event"",""trial"",""time""
""fullscreenenter"",""1"",""2255""
","
","
","""event"",""trial"",""time""
""fullscreenenter"",""1"",""2255""
","
","","","747.1000000238419","","","11","3960","229","&#9789;","elianto","#f73b6a7A"," "," ","1","0","[1598.2000000476837]","1","0","4","","","","","","","",""
"pit-trial","86","739455","0.0-2.0-17.1-0.1","battery-v0.2","","""event"",""trial"",""time""
""fullscreenenter"",""1"",""2255""
","
","
","""event"",""trial"",""time""
""fullscreenenter"",""1"",""2255""
","
","","","1068.199999988079","","","11","3960","229","&#9789;","elianto","#f73b6a7A"," "," ","1","0","[1921.5]","1","0","4","","","","","","","",""
"pit-trial","87","742957","0.0-2.0-17.1-1.1","battery-v0.2","","""event"",""trial"",""time""
""fullscreenenter"",""1"",""2255""
","
","
","""event"",""trial"",""time""
""fullscreenenter"",""1"",""2255""
","
","","","644.4000000357628","","","11","3960","229","&#9789;","elianto","#f73b6a7A"," "," ","1","0","[1495.800000011921]","1","0","4","","","","","","","",""
"pit-trial","88","746628","0.0-2.0-17.1-2.1","battery-v0.2","","""event"",""trial"",""time""
""fullscreenenter"",""1"",""2255""
","
","
","""event"",""trial"",""time""
""fullscreenenter"",""1"",""2255""
","
","","","812.6000000238419","","","11","3960","229","&#9789;","elianto","#f73b6a7A"," "," ","1","0","[1665.800000011921]","1","0","4","","","","","","","",""
"pit-trial","89","750068","0.0-2.0-17.1-3.1","battery-v0.2","","""event"",""trial"",""time""
""fullscreenenter"",""1"",""2255""
","
","
","""event"",""trial"",""time""
""fullscreenenter"",""1"",""2255""
","
","","","582.3999999761581","","","11","3960","229","&#9789;","elianto","#f73b6a7A"," "," ","1","-10","[1434.0999999642372]","1","0","4","","","","","","","",""
"pit-trial","90","753308","0.0-2.0-17.1-4.1","battery-v0.2","","""event"",""trial"",""time""
""fullscreenenter"",""1"",""2255""
","
","
","""event"",""trial"",""time""
""fullscreenenter"",""1"",""2255""
","
","","","381.0999999642372","","","11","3960","229","&#9789;","elianto","#f73b6a7A"," "," ","1","0","[1234.7999999523163]","1","0","4","","","","","","","",""
"pit-trial","91","757092","0.0-2.0-17.2-0.2","battery-v0.2","","""event"",""trial"",""time""
""fullscreenenter"",""1"",""2255""
","
","
","""event"",""trial"",""time""
""fullscreenenter"",""1"",""2255""
","
","","","922.1000000238419","","","11","3960","229","&#9789;","elianto","#f73b6a7A"," "," ","1","0","[1777.199999988079]","1","0","4","","","","","","","",""
"pit-trial","92","761364","0.0-2.0-17.2-1.2","battery-v0.2","","""event"",""trial"",""time""
""fullscreenenter"",""1"",""2255""
","
","
","""event"",""trial"",""time""
""fullscreenenter"",""1"",""2255""
","
","","","1411.800000011921","","","11","3960","229","&#9789;","elianto","#f73b6a7A"," "," ","1","0","[2266.099999964237]","1","0","4","","","","","","","",""
"pit-trial","93","764988","0.0-2.0-17.2-2.2","battery-v0.2","","""event"",""trial"",""time""
""fullscreenenter"",""1"",""2255""
","
","
","""event"",""trial"",""time""
""fullscreenenter"",""1"",""2255""
","
","","","766.4000000357628","","","11","3960","229","&#9789;","elianto","#f73b6a7A"," "," ","1","0","[1617.6000000238419]","1","0","4","","","","","","","",""
"pit-trial","94","768524","0.0-2.0-17.2-3.2","battery-v0.2","","""event"",""trial"",""time""
""fullscreenenter"",""1"",""2255""
","
","
","""event"",""trial"",""time""
""fullscreenenter"",""1"",""2255""
","
","","","675.5999999642372","","","11","3960","229","&#9789;","elianto","#f73b6a7A"," "," ","1","-10","[1529.9000000357628]","1","0","4","","","","","","","",""
"pit-trial","95","772260","0.0-2.0-17.2-4.2","battery-v0.2","","""event"",""trial"",""time""
""fullscreenenter"",""1"",""2255""
","
","
","""event"",""trial"",""time""
""fullscreenenter"",""1"",""2255""
","
","","","868.8999999761581","","","11","3960","229","&#9789;","elianto","#f73b6a7A"," "," ","1","0","[1726.4000000357628]","1","0","4","","","","","","","",""
"pit-trial","96","776812","0.0-2.0-17.3-0.3","battery-v0.2","","""event"",""trial"",""time""
""fullscreenenter"",""1"",""2255""
","
","
","""event"",""trial"",""time""
""fullscreenenter"",""1"",""2255""
","
","","","1691.3999999761581","","","11","3960","229","&#9789;","elianto","#f73b6a7A"," "," ","1","0","[2543.899999976158]","1","0","4","","","","","","","",""
"pit-trial","97","780468","0.0-2.0-17.3-1.3","battery-v0.2","","""event"",""trial"",""time""
""fullscreenenter"",""1"",""2255""
","
","
","""event"",""trial"",""time""
""fullscreenenter"",""1"",""2255""
","
","","","793.1000000238419","","","11","3960","229","&#9789;","elianto","#f73b6a7A"," "," ","1","0","[1648]","1","0","4","","","","","","","",""
"pit-trial","98","784124","0.0-2.0-17.3-2.3","battery-v0.2","","""event"",""trial"",""time""
""fullscreenenter"",""1"",""2255""
","
","
","""event"",""trial"",""time""
""fullscreenenter"",""1"",""2255""
","
","","","795.7999999523163","","","11","3960","229","&#9789;","elianto","#f73b6a7A"," "," ","1","0","[1648.0999999642372]","1","0","4","","","","","","","",""
"pit-trial","99","787950","0.0-2.0-17.3-3.3","battery-v0.2","","""event"",""trial"",""time""
""fullscreenenter"",""1"",""2255""
","
","
","""event"",""trial"",""time""
""fullscreenenter"",""1"",""2255""
","
","","","965.2000000476837","","","11","3960","229","&#9789;","elianto","#f73b6a7A"," "," ","1","-10","[1820.300000011921]","1","0","4","","","","","","","",""
"pit-trial","100","791748","0.0-2.0-17.3-4.3","battery-v0.2","","""event"",""trial"",""time""
""fullscreenenter"",""1"",""2255""
","
","
","""event"",""trial"",""time""
""fullscreenenter"",""1"",""2255""
","
","","","938.1000000238419","","","11","3960","229","&#9789;","elianto","#f73b6a7A"," "," ","1","0","[1790.300000011921]","1","0","4","","","","","","","",""
"call-function","101","791749","0.0-2.0-18.0","battery-v0.2","","""event"",""trial"",""time""
""fullscreenenter"",""1"",""2255""
","
","
","""event"",""trial"",""time""
""fullscreenenter"",""1"",""2255""
","
","","","","","","","","","","","","","","","","","","","","","","","","","","",""
"pit-instructions","102","923650","0.0-2.0-19.0","battery-v0.2","","""event"",""trial"",""time""
""fullscreenenter"",""1"",""2255""
","
","
","""event"",""trial"",""time""
""fullscreenenter"",""1"",""2255""
","
","","[{""page_index"":0,""viewing_time"":7076.300000011921},{""page_index"":1,""viewing_time"":6865.199999988079},{""page_index"":2,""viewing_time"":14590.699999988079},{""page_index"":3,""viewing_time"":28512.600000023842},{""page_index"":4,""viewing_time"":48341.19999998808},{""page_index"":5,""viewing_time"":8038.399999976158},{""page_index"":6,""viewing_time"":8259.700000047684},{""page_index"":7,""viewing_time"":6092.099999964237},{""page_index"":8,""viewing_time"":4125.900000035763}]","131902.5","","","","","","","","","","","","","","","","","","","","","","","",""
"pit-comprehension","103","929199","0.0-2.0-20.0-0.0","battery-v0.2","","""event"",""trial"",""time""
""fullscreenenter"",""1"",""2255""
","
","
","""event"",""trial"",""time""
""fullscreenenter"",""1"",""2255""
","
","","","5545.399999976158","[""SPACE""]","0","11","3960","229","","","","","","","","","","","","","","","","","","",""
"pit-instructions","104","931752","0.0-2.0-20.0-1.0","battery-v0.2","","""event"",""trial"",""time""
""fullscreenenter"",""1"",""2255""
","
","
","""event"",""trial"",""time""
""fullscreenenter"",""1"",""2255""
","
","","[{""page_index"":0,""viewing_time"":2518.900000035763}]","2519.2000000476837","","","","","","","","","","","","","","","","","","","","","","","",""
"pit-comprehension","105","939157","0.0-2.0-21.0-0.0","battery-v0.2","","""event"",""trial"",""time""
""fullscreenenter"",""1"",""2255""
","
","
","""event"",""trial"",""time""
""fullscreenenter"",""1"",""2255""
","
","","","7400.899999976158","[""10""]","0","11","3960","229","","","","","","","","","","","","","","","","","","",""
"pit-instructions","106","943932","0.0-2.0-21.0-1.0","battery-v0.2","","""event"",""trial"",""time""
""fullscreenenter"",""1"",""2255""
","
","
","""event"",""trial"",""time""
""fullscreenenter"",""1"",""2255""
","
","","[{""page_index"":0,""viewing_time"":4741.300000011921}]","4741.700000047684","","","","","","","","","","","","","","","","","","","","","","","",""
"pit-comprehension","107","950972","0.0-2.0-22.0-0.0","battery-v0.2","","""event"",""trial"",""time""
""fullscreenenter"",""1"",""2255""
","
","
","""event"",""trial"",""time""
""fullscreenenter"",""1"",""2255""
","
","","","7037","[""0""]","0","11","3960","229","","","","","","","","","","","","","","","","","","",""
"pit-instructions","108","956400","0.0-2.0-22.0-1.0","battery-v0.2","","""event"",""trial"",""time""
""fullscreenenter"",""1"",""2255""
","
","
","""event"",""trial"",""time""
""fullscreenenter"",""1"",""2255""
","
","","[{""page_index"":0,""viewing_time"":5392}]","5392.400000035763","","","","","","","","","","","","","","","","","","","","","","","",""
"pit-comprehension","109","965326","0.0-2.0-23.0-0.0","battery-v0.2","","""event"",""trial"",""time""
""fullscreenenter"",""1"",""2255""
","
","
","""event"",""trial"",""time""
""fullscreenenter"",""1"",""2255""
","
","","","8923.400000035763","[""True""]","0","11","3960","229","","","","","","","","","","","","","","","","","","",""
"pit-instructions","110","966975","0.0-2.0-23.0-1.0","battery-v0.2","","""event"",""trial"",""time""
""fullscreenenter"",""1"",""2255""
","
","
","""event"",""trial"",""time""
""fullscreenenter"",""1"",""2255""
","
","","[{""page_index"":0,""viewing_time"":1612.5}]","1612.800000011921","","","","","","","","","","","","","","","","","","","","","","","",""
"pit-comprehension","111","974552","0.0-2.0-24.0-0.0","battery-v0.2","","""event"",""trial"",""time""
""fullscreenenter"",""1"",""2255""
","
","
","""event"",""trial"",""time""
""fullscreenenter"",""1"",""2255""
","
","","","7573.600000023842","[""True""]","0","11","3960","229","","","","","","","","","","","","","","","","","","",""
"pit-instructions","112","979887","0.0-2.0-24.0-1.0","battery-v0.2","","""event"",""trial"",""time""
""fullscreenenter"",""1"",""2255""
","
","
","""event"",""trial"",""time""
""fullscreenenter"",""1"",""2255""
","
","","[{""page_index"":0,""viewing_time"":5299.599999964237}]","5299.899999976158","","","","","","","","","","","","","","","","","","","","","","","",""
"pit-comprehension","113","986640","0.0-2.0-25.0-0.0","battery-v0.2","","""event"",""trial"",""time""
""fullscreenenter"",""1"",""2255""
","
","
","""event"",""trial"",""time""
""fullscreenenter"",""1"",""2255""
","
","","","6749.200000047684","[""True""]","0","11","3960","229","","","","","","","","","","","","","","","","","","",""
"pit-instructions","114","990089","0.0-2.0-25.0-1.0","battery-v0.2","","""event"",""trial"",""time""
""fullscreenenter"",""1"",""2255""
","
","
","""event"",""trial"",""time""
""fullscreenenter"",""1"",""2255""
","
","","[{""page_index"":0,""viewing_time"":3413.100000023842}]","3413.5","","","","","","","","","","","","","","","","","","","","","","","",""
"pit-comprehension","115","998722","0.0-2.0-26.0-0.0","battery-v0.2","","""event"",""trial"",""time""
""fullscreenenter"",""1"",""2255""
","
","
","""event"",""trial"",""time""
""fullscreenenter"",""1"",""2255""
","
","","","8629.300000011921","[""False""]","0","11","3960","229","","","","","","","","","","","","","","","","","","",""
"pit-instructions","116","1000441","0.0-2.0-26.0-1.0","battery-v0.2","","""event"",""trial"",""time""
""fullscreenenter"",""1"",""2255""
","
","
","""event"",""trial"",""time""
""fullscreenenter"",""1"",""2255""
","
","","[{""page_index"":0,""viewing_time"":1682.199999988079}]","1682.5999999642372","","","","","","","","","","","","","","","","","","","","","","","",""
"pit-instructions","117","1018781","0.0-3.0","battery-v0.2","","""event"",""trial"",""time""
""fullscreenenter"",""1"",""2255""
","
","
","""event"",""trial"",""time""
""fullscreenenter"",""1"",""2255""
","
","","[{""page_index"":0,""viewing_time"":4509.5},{""page_index"":1,""viewing_time"":5854.099999964237},{""page_index"":2,""viewing_time"":7974.699999988079}]","18338.799999952316","","","","","","","","","","","","","","","","","","","","","","","",""
"pit-trial","118","1022424","0.0-4.0","battery-v0.2","","""event"",""trial"",""time""
""fullscreenenter"",""1"",""2255""
","
","
","""event"",""trial"",""time""
""fullscreenenter"",""1"",""2255""
","
","","","782.3000000119209","","","11","3960","229","&#9733;","elianto","#3366ff99","-1"," ","0","0","[1634.1000000238419]","1","1","","","3960","1","2","2","win","no-go","0"
"pit-trial","119","1026503","0.0-5.0","battery-v0.2","","""event"",""trial"",""time""
""fullscreenenter"",""1"",""2255""
","
","
","""event"",""trial"",""time""
""fullscreenenter"",""1"",""2255""
","
","","","1219.2999999523163","","","11","3960","229","&#9752;","elianto","#f73b6a7A"," "," ","1","0","[2075.800000011921]","1","1","","","3960","2","3","3","lose","go","0"
"pit-trial","120","1030827","0.0-6.0","battery-v0.2","","""event"",""trial"",""time""
""fullscreenenter"",""1"",""2255""
","
","
","""event"",""trial"",""time""
""fullscreenenter"",""1"",""2255""
","
","","","1458.5","","","11","3960","229","&#9730;","elianto","#3366ff99"," "," ","1","+10","[2310.2000000476837]","1","1","","","3960","3","1","1","win","go","0"
"pit-trial","121","1034867","0.0-7.0","battery-v0.2","","""event"",""trial"",""time""
""fullscreenenter"",""1"",""2255""
","
","
","""event"",""trial"",""time""
""fullscreenenter"",""1"",""2255""
","
","","","1180.699999988079","","","11","3960","229","&#9728;","elianto","#f73b6a7A","-1"," ","0","-10","[2031.0999999642372]","1","1","","","3960","4","0","4","lose","no-go","0"
"pit-trial","122","1039738","0.0-8.0","battery-v0.2","","""event"",""trial"",""time""
""fullscreenenter"",""1"",""2255""
","
","
","""event"",""trial"",""time""
""fullscreenenter"",""1"",""2255""
","
","","","-1","","","11","3960","229","&#9752;","elianto","#f73b6a7A"," ","-1","0","-10","[]","0","1","","","3960","5","3","3","lose","go","0"
"pit-trial","123","1044207","0.0-9.0","battery-v0.2","","""event"",""trial"",""time""
""fullscreenenter"",""1"",""2255""
","
","
","""event"",""trial"",""time""
""fullscreenenter"",""1"",""2255""
","
","","","1613.5","","","11","3960","229","&#9733;","elianto","#3366ff99","-1"," ","0","0","[2465.199999988079]","1","1","","","3960","6","2","2","win","no-go","0"
"pit-trial","124","1049071","0.0-10.0","battery-v0.2","","""event"",""trial"",""time""
""fullscreenenter"",""1"",""2255""
","
","
","""event"",""trial"",""time""
""fullscreenenter"",""1"",""2255""
","
","","","-1","","","11","3960","229","&#9728;","elianto","#f73b6a7A","-1","-1","1","-10","[]","0","1","","","3960","7","0","4","lose","no-go","1"
"pit-trial","125","1053415","0.0-11.0","battery-v0.2","","""event"",""trial"",""time""
""fullscreenenter"",""1"",""2255""
","
","
","""event"",""trial"",""time""
""fullscreenenter"",""1"",""2255""
","
","","","1485","","","11","3960","229","&#9730;","elianto","#3366ff99"," "," ","1","+10","[2337.900000035763]","1","1","","","3960","8","1","1","win","go","0"
"pit-trial","126","1057967","0.0-12.0","battery-v0.2","","""event"",""trial"",""time""
""fullscreenenter"",""1"",""2255""
","
","
","""event"",""trial"",""time""
""fullscreenenter"",""1"",""2255""
","
","","","1691.4000000357628","","","11","3960","229","&#9752;","elianto","#f73b6a7A"," "," ","1","0","[2545.699999988079]","1","1","","","3960","9","3","3","lose","go","0"
"pit-trial","127","1062831","0.0-13.0","battery-v0.2","","""event"",""trial"",""time""
""fullscreenenter"",""1"",""2255""
","
","
","""event"",""trial"",""time""
""fullscreenenter"",""1"",""2255""
","
","","","-1","","","11","3960","229","&#9733;","elianto","#3366ff99","-1","-1","1","+10","[]","0","1","","","3960","10","2","2","win","no-go","0"
"pit-trial","128","1067695","0.0-14.0","battery-v0.2","","""event"",""trial"",""time""
""fullscreenenter"",""1"",""2255""
","
","
","""event"",""trial"",""time""
""fullscreenenter"",""1"",""2255""
","
","","","-1","","","11","3960","229","&#9730;","elianto","#3366ff99"," ","-1","0","0","[2922.800000011921]","1","1","","","3960","11","1","1","win","go","0"
"pit-trial","129","1072559","0.0-15.0","battery-v0.2","","""event"",""trial"",""time""
""fullscreenenter"",""1"",""2255""
","
","
","""event"",""trial"",""time""
""fullscreenenter"",""1"",""2255""
","
","","","-1","","","11","3960","229","&#9728;","elianto","#f73b6a7A","-1","-1","1","0","[]","0","1","","","3960","12","0","4","lose","no-go","0"
"pit-trial","130","1077423","0.0-16.0","battery-v0.2","","""event"",""trial"",""time""
""fullscreenenter"",""1"",""2255""
","
","
","""event"",""trial"",""time""
""fullscreenenter"",""1"",""2255""
","
","","","-1","","","11","3960","229","&#9752;","elianto","#f73b6a7A"," ","-1","0","-10","[2930.800000011921]","1","1","","","3960","13","3","3","lose","go","0"
"pit-trial","131","1082287","0.0-17.0","battery-v0.2","","""event"",""trial"",""time""
""fullscreenenter"",""1"",""2255""
","
","
","""event"",""trial"",""time""
""fullscreenenter"",""1"",""2255""
","
","","","-1","","","11","3960","229","&#9733;","elianto","#3366ff99","-1","-1","1","+10","[]","0","1","","","3960","14","2","2","win","no-go","0"
"pit-trial","132","1086495","0.0-18.0","battery-v0.2","","""event"",""trial"",""time""
""fullscreenenter"",""1"",""2255""
","
","
","""event"",""trial"",""time""
""fullscreenenter"",""1"",""2255""
","
","","","1345.2000000476837","","","11","3960","229","&#9730;","elianto","#3366ff99"," "," ","1","+10","[2199.199999988079]","1","1","","","3960","15","1","1","win","go","0"
"pit-trial","133","1091359","0.0-19.0","battery-v0.2","","""event"",""trial"",""time""
""fullscreenenter"",""1"",""2255""
","
","
","""event"",""trial"",""time""
""fullscreenenter"",""1"",""2255""
","
","","","-1","","","11","3960","229","&#9728;","elianto","#f73b6a7A","-1","-1","1","0","[]","0","1","","","3960","16","0","4","lose","no-go","0"
"pit-trial","134","1095471","0.0-20.0","battery-v0.2","","""event"",""trial"",""time""
""fullscreenenter"",""1"",""2255""
","
","
","""event"",""trial"",""time""
""fullscreenenter"",""1"",""2255""
","
","","","1251.8999999761581","","","11","3960","229","&#9752;","elianto","#f73b6a7A"," "," ","1","0","[2106.400000035763]","1","1","","","3960","17","3","3","lose","go","0"
"pit-trial","135","1100335","0.0-21.0","battery-v0.2","","""event"",""trial"",""time""
""fullscreenenter"",""1"",""2255""
","
","
","""event"",""trial"",""time""
""fullscreenenter"",""1"",""2255""
","
","","","-1","","","11","3960","229","&#9728;","elianto","#f73b6a7A","-1","-1","1","0","[]","0","1","","","3960","18","0","4","lose","no-go","0"
"pit-trial","136","1105199","0.0-22.0","battery-v0.2","","""event"",""trial"",""time""
""fullscreenenter"",""1"",""2255""
","
","
","""event"",""trial"",""time""
""fullscreenenter"",""1"",""2255""
","
","","","-1","","","11","3960","229","&#9733;","elianto","#3366ff99","-1","-1","1","+10","[]","0","1","","","3960","19","2","2","win","no-go","0"
"pit-trial","137","1110063","0.0-23.0","battery-v0.2","","""event"",""trial"",""time""
""fullscreenenter"",""1"",""2255""
","
","
","""event"",""trial"",""time""
""fullscreenenter"",""1"",""2255""
","
","","","-1","","","11","3960","229","&#9730;","elianto","#3366ff99"," ","-1","0","0","[]","0","1","","","3960","20","1","1","win","go","0"
"pit-instructions","138","1128080","0.0-24.0","battery-v0.2","","""event"",""trial"",""time""
""fullscreenenter"",""1"",""2255""
","
","
","""event"",""trial"",""time""
""fullscreenenter"",""1"",""2255""
","
","","[{""page_index"":0,""viewing_time"":6333.199999988079},{""page_index"":1,""viewing_time"":11683}]","18016.69999998808","","","","","","","","","","","","","","","","","","","","","","","",""
"pit-trial","139","1131776","0.0-25.0","battery-v0.2","","""event"",""trial"",""time""
""fullscreenenter"",""1"",""2255""
","
","
","""event"",""trial"",""time""
""fullscreenenter"",""1"",""2255""
","
","","","833.1000000238419","","","11","3960","229","l","elianto","#3366ff99","-1"," ","0","0","[1687.2000000476837]","1","2","","","3960","21","1","2","win","no-go","0"
"pit-trial","140","1135602","0.0-26.0","battery-v0.2","","""event"",""trial"",""time""
""fullscreenenter"",""1"",""2255""
","
","
","""event"",""trial"",""time""
""fullscreenenter"",""1"",""2255""
","
","","","964.4000000357628","","","11","3960","229","a","elianto","#f73b6a7A"," "," ","1","0","[1816]","1","2","","","3960","22","2","3","lose","go","0"
"pit-trial","141","1139549","0.0-27.0","battery-v0.2","","""event"",""trial"",""time""
""fullscreenenter"",""1"",""2255""
","
","
","""event"",""trial"",""time""
""fullscreenenter"",""1"",""2255""
","
","","","1090.800000011921","","","11","3960","229","u","elianto","#f73b6a7A"," "," ","1","-10","[1942.199999988079]","1","2","","","3960","23","0","3","lose","go","1"
"pit-trial","142","1144141","0.0-28.0","battery-v0.2","","""event"",""trial"",""time""
""fullscreenenter"",""1"",""2255""
","
","
","""event"",""trial"",""time""
""fullscreenenter"",""1"",""2255""
","
","","","1731.1000000238419","","","11","3960","229","g","elianto","#f73b6a7A","-1"," ","0","-10","[2587.100000023842]","1","2","","","3960","24","3","4","lose","no-go","0"
"pit-trial","143","1149006","0.0-29.0","battery-v0.2","","""event"",""trial"",""time""
""fullscreenenter"",""1"",""2255""
","
","
","""event"",""trial"",""time""
""fullscreenenter"",""1"",""2255""
","
","","","-1","","","11","3960","229","a","elianto","#f73b6a7A"," ","-1","0","-10","[3179.2999999523163]","1","2","","","3960","25","2","3","lose","go","0"
"pit-trial","144","1153870","0.0-30.0","battery-v0.2","","""event"",""trial"",""time""
""fullscreenenter"",""1"",""2255""
","
","
","""event"",""trial"",""time""
""fullscreenenter"",""1"",""2255""
","
","","","-1","","","11","3960","229","l","elianto","#3366ff99","-1","-1","1","+10","[]","0","2","","","3960","26","1","2","win","no-go","0"
"pit-trial","145","1158734","0.0-31.0","battery-v0.2","","""event"",""trial"",""time""
""fullscreenenter"",""1"",""2255""
","
","
","""event"",""trial"",""time""
""fullscreenenter"",""1"",""2255""
","
","","","-1","","","11","3960","229","u","elianto","#f73b6a7A"," ","-1","0","-10","[]","0","2","","","3960","27","0","3","lose","go","0"
"pit-trial","146","1163598","0.0-32.0","battery-v0.2","","""event"",""trial"",""time""
""fullscreenenter"",""1"",""2255""
","
","
","""event"",""trial"",""time""
""fullscreenenter"",""1"",""2255""
","
","","","-1","","","11","3960","229","g","elianto","#f73b6a7A","-1","-1","1","0","[]","0","2","","","3960","28","3","4","lose","no-go","0"
"pit-trial","147","1168461","0.0-33.0","battery-v0.2","","""event"",""trial"",""time""
""fullscreenenter"",""1"",""2255""
","
","
","""event"",""trial"",""time""
""fullscreenenter"",""1"",""2255""
","
","","","-1","","","11","3960","229","g","elianto","#f73b6a7A","-1","-1","1","-10","[]","0","2","","","3960","29","3","4","lose","no-go","1"
"pit-trial","148","1172237","0.0-34.0","battery-v0.2","","""event"",""trial"",""time""
""fullscreenenter"",""1"",""2255""
","
","
","""event"",""trial"",""time""
""fullscreenenter"",""1"",""2255""
","
","","","915.8999999761581","","","11","3960","229","a","elianto","#f73b6a7A"," "," ","1","0","[1769.800000011921]","1","2","","","3960","30","2","3","lose","go","0"
"pit-trial","149","1176461","0.0-35.0","battery-v0.2","","""event"",""trial"",""time""
""fullscreenenter"",""1"",""2255""
","
","
","""event"",""trial"",""time""
""fullscreenenter"",""1"",""2255""
","
","","","1366","","","11","3960","229","u","elianto","#f73b6a7A"," "," ","1","0","[2220.199999988079]","1","2","","","3960","31","0","3","lose","go","0"
"pit-trial","150","1181053","0.0-36.0","battery-v0.2","","""event"",""trial"",""time""
""fullscreenenter"",""1"",""2255""
","
","
","""event"",""trial"",""time""
""fullscreenenter"",""1"",""2255""
","
","","","1734.699999988079","","","11","3960","229","l","elianto","#3366ff99","-1"," ","0","0","[2587.899999976158]","1","2","","","3960","32","1","2","win","no-go","0"
"pit-trial","151","1185917","0.0-37.0","battery-v0.2","","""event"",""trial"",""time""
""fullscreenenter"",""1"",""2255""
","
","
","""event"",""trial"",""time""
""fullscreenenter"",""1"",""2255""
","
","","","-1","","","11","3960","229","l","elianto","#3366ff99","-1","-1","1","+10","[]","0","2","","","3960","33","1","2","win","no-go","0"
"pit-trial","152","1189885","0.0-38.0","battery-v0.2","","""event"",""trial"",""time""
""fullscreenenter"",""1"",""2255""
","
","
","""event"",""trial"",""time""
""fullscreenenter"",""1"",""2255""
","
","","","1105.4000000357628","","","11","3960","229","u","elianto","#f73b6a7A"," "," ","1","0","[1960.800000011921]","1","2","","","3960","34","0","3","lose","go","0"
"pit-trial","153","1193669","0.0-39.0","battery-v0.2","","""event"",""trial"",""time""
""fullscreenenter"",""1"",""2255""
","
","
","""event"",""trial"",""time""
""fullscreenenter"",""1"",""2255""
","
","","","922.5999999642372","","","11","3960","229","a","elianto","#f73b6a7A"," "," ","1","-10","[1776.2000000476837]","1","2","","","3960","35","2","3","lose","go","1"
"pit-trial","154","1198533","0.0-40.0","battery-v0.2","","""event"",""trial"",""time""
""fullscreenenter"",""1"",""2255""
","
","
","""event"",""trial"",""time""
""fullscreenenter"",""1"",""2255""
","
","","","-1","","","11","3960","229","g","elianto","#f73b6a7A","-1","-1","1","0","[]","0","2","","","3960","36","3","4","lose","no-go","0"
"pit-trial","155","1202389","0.0-41.0","battery-v0.2","","""event"",""trial"",""time""
""fullscreenenter"",""1"",""2255""
","
","
","""event"",""trial"",""time""
""fullscreenenter"",""1"",""2255""
","
","","","996.6000000238419","","","11","3960","229","u","elianto","#f73b6a7A"," "," ","1","-10","[1850.9000000357628]","1","2","","","3960","37","0","3","lose","go","1"
"pit-trial","156","1206781","0.0-42.0","battery-v0.2","","""event"",""trial"",""time""
""fullscreenenter"",""1"",""2255""
","
","
","""event"",""trial"",""time""
""fullscreenenter"",""1"",""2255""
","
","","","1530.300000011921","","","11","3960","229","a","elianto","#f73b6a7A"," "," ","1","0","[2383.800000011921]","1","2","","","3960","38","2","3","lose","go","0"
"pit-trial","157","1211645","0.0-43.0","battery-v0.2","","""event"",""trial"",""time""
""fullscreenenter"",""1"",""2255""
","
","
","""event"",""trial"",""time""
""fullscreenenter"",""1"",""2255""
","
","","","-1","","","11","3960","229","g","elianto","#f73b6a7A","-1","-1","1","0","[]","0","2","","","3960","39","3","4","lose","no-go","0"
"pit-trial","158","1216085","0.0-44.0","battery-v0.2","","""event"",""trial"",""time""
""fullscreenenter"",""1"",""2255""
","
","
","""event"",""trial"",""time""
""fullscreenenter"",""1"",""2255""
","
","","","1577.699999988079","","","11","3960","229","l","elianto","#3366ff99","-1"," ","0","0","[2432.400000035763]","1","2","","","3960","40","1","2","win","no-go","0"
"pit-trial","159","1220853","0.0-45.0","battery-v0.2","","""event"",""trial"",""time""
""fullscreenenter"",""1"",""2255""
","
","
","""event"",""trial"",""time""
""fullscreenenter"",""1"",""2255""
","
","","","1906","","","11","3960","229","a","elianto","#f73b6a7A"," "," ","1","0","[2760]","1","2","","","3960","41","2","3","lose","go","0"
"pit-trial","160","1224861","0.0-46.0","battery-v0.2","","""event"",""trial"",""time""
""fullscreenenter"",""1"",""2255""
","
","
","""event"",""trial"",""time""
""fullscreenenter"",""1"",""2255""
","
","","","1149","","","11","3960","229","l","elianto","#3366ff99","-1"," ","0","0","[1999.7999999523163]","1","2","","","3960","42","1","2","win","no-go","0"
"pit-trial","161","1228812","0.0-47.0","battery-v0.2","","""event"",""trial"",""time""
""fullscreenenter"",""1"",""2255""
","
","
","""event"",""trial"",""time""
""fullscreenenter"",""1"",""2255""
","
","","","1086.5","","","11","3960","229","u","elianto","#f73b6a7A"," "," ","1","-10","[1944.1000000238419]","1","2","","","3960","43","0","3","lose","go","1"
"pit-trial","162","1233676","0.0-48.0","battery-v0.2","","""event"",""trial"",""time""
""fullscreenenter"",""1"",""2255""
","
","
","""event"",""trial"",""time""
""fullscreenenter"",""1"",""2255""
","
","","","-1","","","11","3960","229","g","elianto","#f73b6a7A","-1","-1","1","0","[]","0","2","","","3960","44","3","4","lose","no-go","0"
"pit-trial","163","1238540","0.0-49.0","battery-v0.2","","""event"",""trial"",""time""
""fullscreenenter"",""1"",""2255""
","
","
","""event"",""trial"",""time""
""fullscreenenter"",""1"",""2255""
","
","","","-1","","","11","3960","229","g","elianto","#f73b6a7A","-1","-1","1","0","[]","0","2","","","3960","45","3","4","lose","no-go","0"
"pit-trial","164","1242308","0.0-50.0","battery-v0.2","","""event"",""trial"",""time""
""fullscreenenter"",""1"",""2255""
","
","
","""event"",""trial"",""time""
""fullscreenenter"",""1"",""2255""
","
","","","910.7000000476837","","","11","3960","229","a","elianto","#f73b6a7A"," "," ","1","0","[1764.4000000357628]","1","2","","","3960","46","2","3","lose","go","0"
"pit-trial","165","1247172","0.0-51.0","battery-v0.2","","""event"",""trial"",""time""
""fullscreenenter"",""1"",""2255""
","
","
","""event"",""trial"",""time""
""fullscreenenter"",""1"",""2255""
","
","","","-1","","","11","3960","229","u","elianto","#f73b6a7A"," ","-1","0","-10","[]","0","2","","","3960","47","0","3","lose","go","0"
"pit-trial","166","1252036","0.0-52.0","battery-v0.2","","""event"",""trial"",""time""
""fullscreenenter"",""1"",""2255""
","
","
","""event"",""trial"",""time""
""fullscreenenter"",""1"",""2255""
","
","","","-1","","","11","3960","229","l","elianto","#3366ff99","-1","-1","1","+10","[]","0","2","","","3960","48","1","2","win","no-go","0"
"pit-trial","167","1255636","0.0-53.0","battery-v0.2","","""event"",""trial"",""time""
""fullscreenenter"",""1"",""2255""
","
","
","""event"",""trial"",""time""
""fullscreenenter"",""1"",""2255""
","
","","","739.8000000119209","","","11","3960","229","a","elianto","#f73b6a7A"," "," ","1","0","[1590.300000011921]","1","2","","","3960","49","2","3","lose","go","0"
"pit-trial","168","1260500","0.0-54.0","battery-v0.2","","""event"",""trial"",""time""
""fullscreenenter"",""1"",""2255""
","
","
","""event"",""trial"",""time""
""fullscreenenter"",""1"",""2255""
","
","","","-1","","","11","3960","229","u","elianto","#f73b6a7A"," ","-1","0","0","[]","0","2","","","3960","50","0","3","lose","go","1"
"pit-trial","169","1265364","0.0-55.0","battery-v0.2","","""event"",""trial"",""time""
""fullscreenenter"",""1"",""2255""
","
","
","""event"",""trial"",""time""
""fullscreenenter"",""1"",""2255""
","
","","","-1","","","11","3960","229","g","elianto","#f73b6a7A","-1","-1","1","0","[]","0","2","","","3960","51","3","4","lose","no-go","0"
"pit-trial","170","1270228","0.0-56.0","battery-v0.2","","""event"",""trial"",""time""
""fullscreenenter"",""1"",""2255""
","
","
","""event"",""trial"",""time""
""fullscreenenter"",""1"",""2255""
","
","","","-1","","","11","3960","229","l","elianto","#3366ff99","-1","-1","1","0","[]","0","2","","","3960","52","1","2","win","no-go","1"
"pit-trial","171","1275092","0.0-57.0","battery-v0.2","","""event"",""trial"",""time""
""fullscreenenter"",""1"",""2255""
","
","
","""event"",""trial"",""time""
""fullscreenenter"",""1"",""2255""
","
","","","-1","","","11","3960","229","g","elianto","#f73b6a7A","-1","-1","1","0","[]","0","2","","","3960","53","3","4","lose","no-go","0"
"pit-trial","172","1279956","0.0-58.0","battery-v0.2","","""event"",""trial"",""time""
""fullscreenenter"",""1"",""2255""
","
","
","""event"",""trial"",""time""
""fullscreenenter"",""1"",""2255""
","
","","","-1","","","11","3960","229","u","elianto","#f73b6a7A"," ","-1","0","0","[]","0","2","","","3960","54","0","3","lose","go","1"
"pit-trial","173","1284820","0.0-59.0","battery-v0.2","","""event"",""trial"",""time""
""fullscreenenter"",""1"",""2255""
","
","
","""event"",""trial"",""time""
""fullscreenenter"",""1"",""2255""
","
","","","-1","","","11","3960","229","l","elianto","#3366ff99","-1","-1","1","0","[]","0","2","","","3960","55","1","2","win","no-go","1"
"pit-trial","174","1288403","0.0-60.0","battery-v0.2","","""event"",""trial"",""time""
""fullscreenenter"",""1"",""2255""
","
","
","""event"",""trial"",""time""
""fullscreenenter"",""1"",""2255""
","
","","","719.1999999880791","","","11","3960","229","a","elianto","#f73b6a7A"," "," ","1","0","[1574.300000011921]","1","2","","","3960","56","2","3","lose","go","0"
"pit-trial","175","1293267","0.0-61.0","battery-v0.2","","""event"",""trial"",""time""
""fullscreenenter"",""1"",""2255""
","
","
","""event"",""trial"",""time""
""fullscreenenter"",""1"",""2255""
","
","","","-1","","","11","3960","229","u","elianto","#f73b6a7A"," ","-1","0","-10","[]","0","2","","","3960","57","0","3","lose","go","0"
"pit-trial","176","1297195","0.0-62.0","battery-v0.2","","""event"",""trial"",""time""
""fullscreenenter"",""1"",""2255""
","
","
","""event"",""trial"",""time""
""fullscreenenter"",""1"",""2255""
","
","","","1065.5999999642372","","","11","3960","229","a","elianto","#f73b6a7A"," "," ","1","0","[1918.199999988079]","1","2","","","3960","58","2","3","lose","go","0"
"pit-trial","177","1302059","0.0-63.0","battery-v0.2","","""event"",""trial"",""time""
""fullscreenenter"",""1"",""2255""
","
","
","""event"",""trial"",""time""
""fullscreenenter"",""1"",""2255""
","
","","","-1","","","11","3960","229","p","elianto","#3366ff99"," ","-1","0","0","[]","0","2","","","3960","59","4","1","win","go","0"
"pit-trial","178","1306923","0.0-64.0","battery-v0.2","","""event"",""trial"",""time""
""fullscreenenter"",""1"",""2255""
","
","
","""event"",""trial"",""time""
""fullscreenenter"",""1"",""2255""
","
","","","-1","","","11","3960","229","g","elianto","#f73b6a7A","-1","-1","1","0","[]","0","2","","","3960","60","3","4","lose","no-go","0"
"pit-trial","179","1311787","0.0-65.0","battery-v0.2","","""event"",""trial"",""time""
""fullscreenenter"",""1"",""2255""
","
","
","""event"",""trial"",""time""
""fullscreenenter"",""1"",""2255""
","
","","","-1","","","11","3960","229","l","elianto","#3366ff99","-1","-1","1","+10","[]","0","2","","","3960","61","1","2","win","no-go","0"
"pit-trial","180","1316648","0.0-66.0","battery-v0.2","","""event"",""trial"",""time""
""fullscreenenter"",""1"",""2255""
","
","
","""event"",""trial"",""time""
""fullscreenenter"",""1"",""2255""
","
","","","-1","","","11","3960","229","g","elianto","#f73b6a7A","-1","-1","1","-10","[]","0","2","","","3960","62","3","4","lose","no-go","1"
"pit-trial","181","1320731","0.0-67.0","battery-v0.2","","""event"",""trial"",""time""
""fullscreenenter"",""1"",""2255""
","
","
","""event"",""trial"",""time""
""fullscreenenter"",""1"",""2255""
","
","","","1217.5","","","11","3960","229","a","elianto","#f73b6a7A"," "," ","1","0","[2074]","1","2","","","3960","63","2","3","lose","go","0"
"pit-trial","182","1324467","0.0-68.0","battery-v0.2","","""event"",""trial"",""time""
""fullscreenenter"",""1"",""2255""
","
","
","""event"",""trial"",""time""
""fullscreenenter"",""1"",""2255""
","
","","","872.5","","","11","3960","229","p","elianto","#3366ff99"," "," ","1","0","[1725.9000000357628]","1","2","","","3960","64","4","1","win","go","1"
"pit-trial","183","1329331","0.0-69.0","battery-v0.2","","""event"",""trial"",""time""
""fullscreenenter"",""1"",""2255""
","
","
","""event"",""trial"",""time""
""fullscreenenter"",""1"",""2255""
","
","","","-1","","","11","3960","229","g","elianto","#f73b6a7A","-1","-1","1","0","[]","0","2","","","3960","65","3","4","lose","no-go","0"
"pit-trial","184","1334195","0.0-70.0","battery-v0.2","","""event"",""trial"",""time""
""fullscreenenter"",""1"",""2255""
","
","
","""event"",""trial"",""time""
""fullscreenenter"",""1"",""2255""
","
","","","-1","","","11","3960","229","p","elianto","#3366ff99"," ","-1","0","+10","[]","0","2","","","3960","66","4","1","win","go","1"
"pit-trial","185","1339059","0.0-71.0","battery-v0.2","","""event"",""trial"",""time""
""fullscreenenter"",""1"",""2255""
","
","
","""event"",""trial"",""time""
""fullscreenenter"",""1"",""2255""
","
","","","-1","","","11","3960","229","l","elianto","#3366ff99","-1","-1","1","+10","[]","0","2","","","3960","67","1","2","win","no-go","0"
"pit-trial","186","1343810","0.0-72.0","battery-v0.2","","""event"",""trial"",""time""
""fullscreenenter"",""1"",""2255""
","
","
","""event"",""trial"",""time""
""fullscreenenter"",""1"",""2255""
","
","","","1889.0999999642372","","","11","3960","229","s","elianto","#3366ff99","-1"," ","0","0","[2742.699999988079]","1","2","","","3960","68","5","2","win","no-go","0"
"pit-trial","187","1347682","0.0-73.0","battery-v0.2","","""event"",""trial"",""time""
""fullscreenenter"",""1"",""2255""
","
","
","""event"",""trial"",""time""
""fullscreenenter"",""1"",""2255""
","
","","","1006.0999999642372","","","11","3960","229","s","elianto","#3366ff99","-1"," ","0","+10","[1862.3999999761581]","1","2","","","3960","69","5","2","win","no-go","1"
"pit-trial","188","1352546","0.0-74.0","battery-v0.2","","""event"",""trial"",""time""
""fullscreenenter"",""1"",""2255""
","
","
","""event"",""trial"",""time""
""fullscreenenter"",""1"",""2255""
","
","","","-1","","","11","3960","229","l","elianto","#3366ff99","-1","-1","1","+10","[]","0","2","","","3960","70","1","2","win","no-go","0"
"pit-trial","189","1357409","0.0-75.0","battery-v0.2","","""event"",""trial"",""time""
""fullscreenenter"",""1"",""2255""
","
","
","""event"",""trial"",""time""
""fullscreenenter"",""1"",""2255""
","
","","","-1","","","11","3960","229","p","elianto","#3366ff99"," ","-1","0","0","[]","0","2","","","3960","71","4","1","win","go","0"
"pit-trial","190","1361506","0.0-76.0","battery-v0.2","","""event"",""trial"",""time""
""fullscreenenter"",""1"",""2255""
","
","
","""event"",""trial"",""time""
""fullscreenenter"",""1"",""2255""
","
","","","1233.0999999642372","","","11","3960","229","a","elianto","#f73b6a7A"," "," ","1","0","[2087]","1","2","","","3960","72","2","3","lose","go","0"
"pit-trial","191","1366370","0.0-77.0","battery-v0.2","","""event"",""trial"",""time""
""fullscreenenter"",""1"",""2255""
","
","
","""event"",""trial"",""time""
""fullscreenenter"",""1"",""2255""
","
","","","-1","","","11","3960","229","g","elianto","#f73b6a7A","-1","-1","1","0","[]","0","2","","","3960","73","3","4","lose","no-go","0"
"pit-trial","192","1371234","0.0-78.0","battery-v0.2","","""event"",""trial"",""time""
""fullscreenenter"",""1"",""2255""
","
","
","""event"",""trial"",""time""
""fullscreenenter"",""1"",""2255""
","
","","","-1","","","11","3960","229","l","elianto","#3366ff99","-1","-1","1","+10","[]","0","2","","","3960","74","1","2","win","no-go","0"
"pit-trial","193","1375330","0.0-79.0","battery-v0.2","","""event"",""trial"",""time""
""fullscreenenter"",""1"",""2255""
","
","
","""event"",""trial"",""time""
""fullscreenenter"",""1"",""2255""
","
","","","1237.5","","","11","3960","229","s","elianto","#3366ff99","-1"," ","0","+10","[2091.2000000476837]","1","2","","","3960","75","5","2","win","no-go","1"
"pit-trial","194","1379090","0.0-80.0","battery-v0.2","","""event"",""trial"",""time""
""fullscreenenter"",""1"",""2255""
","
","
","""event"",""trial"",""time""
""fullscreenenter"",""1"",""2255""
","
","","","897.1000000238419","","","11","3960","229","p","elianto","#3366ff99"," "," ","1","+10","[1754.9000000357628]","1","2","","","3960","76","4","1","win","go","0"
"pit-trial","195","1382858","0.0-81.0","battery-v0.2","","""event"",""trial"",""time""
""fullscreenenter"",""1"",""2255""
","
","
","""event"",""trial"",""time""
""fullscreenenter"",""1"",""2255""
","
","","","904.8000000119209","","","11","3960","229","p","elianto","#3366ff99"," "," ","1","+10","[1758.1000000238419]","1","2","","","3960","77","4","1","win","go","0"
"pit-trial","196","1387721","0.0-82.0","battery-v0.2","","""event"",""trial"",""time""
""fullscreenenter"",""1"",""2255""
","
","
","""event"",""trial"",""time""
""fullscreenenter"",""1"",""2255""
","
","","","-1","","","11","3960","229","g","elianto","#f73b6a7A","-1","-1","1","0","[]","0","2","","","3960","78","3","4","lose","no-go","0"
"pit-trial","197","1392409","0.0-83.0","battery-v0.2","","""event"",""trial"",""time""
""fullscreenenter"",""1"",""2255""
","
","
","""event"",""trial"",""time""
""fullscreenenter"",""1"",""2255""
","
","","","1825.5999999642372","","","11","3960","229","p","elianto","#3366ff99"," "," ","1","+10","[2680.399999976158]","1","2","","","3960","79","4","1","win","go","0"
"pit-trial","198","1396833","0.0-84.0","battery-v0.2","","""event"",""trial"",""time""
""fullscreenenter"",""1"",""2255""
","
","
","""event"",""trial"",""time""
""fullscreenenter"",""1"",""2255""
","
","","","1566.300000011921","","","11","3960","229","s","elianto","#3366ff99","-1"," ","0","0","[2420.300000011921]","1","2","","","3960","80","5","2","win","no-go","0"
"pit-trial","199","1401697","0.0-85.0","battery-v0.2","","""event"",""trial"",""time""
""fullscreenenter"",""1"",""2255""
","
","
","""event"",""trial"",""time""
""fullscreenenter"",""1"",""2255""
","
","","","-1","","","11","3960","229","e","elianto","#f73b6a7A","-1","-1","1","0","[]","0","2","","","3960","81","7","4","lose","no-go","0"
"pit-trial","200","1406562","0.0-86.0","battery-v0.2","","""event"",""trial"",""time""
""fullscreenenter"",""1"",""2255""
","
","
","""event"",""trial"",""time""
""fullscreenenter"",""1"",""2255""
","
","","","-1","","","11","3960","229","g","elianto","#f73b6a7A","-1","-1","1","0","[]","0","2","","","3960","82","3","4","lose","no-go","0"
"pit-trial","201","1410489","0.0-87.0","battery-v0.2","","""event"",""trial"",""time""
""fullscreenenter"",""1"",""2255""
","
","
","""event"",""trial"",""time""
""fullscreenenter"",""1"",""2255""
","
","","","1069.0999999642372","","","11","3960","229","p","elianto","#3366ff99"," "," ","1","+10","[1923.300000011921]","1","2","","","3960","83","4","1","win","go","0"
"pit-trial","202","1414433","0.0-88.0","battery-v0.2","","""event"",""trial"",""time""
""fullscreenenter"",""1"",""2255""
","
","
","""event"",""trial"",""time""
""fullscreenenter"",""1"",""2255""
","
","","","1085.4000000357628","","","11","3960","229","s","elianto","#3366ff99","-1"," ","0","0","[1938.800000011921]","1","2","","","3960","84","5","2","win","no-go","0"
"pit-trial","203","1418793","0.0-89.0","battery-v0.2","","""event"",""trial"",""time""
""fullscreenenter"",""1"",""2255""
","
","
","""event"",""trial"",""time""
""fullscreenenter"",""1"",""2255""
","
","","","1505.199999988079","","","11","3960","229","p","elianto","#3366ff99"," "," ","1","+10","[2355.199999988079]","1","2","","","3960","85","4","1","win","go","0"
"pit-trial","204","1423657","0.0-90.0","battery-v0.2","","""event"",""trial"",""time""
""fullscreenenter"",""1"",""2255""
","
","
","""event"",""trial"",""time""
""fullscreenenter"",""1"",""2255""
","
","","","-1","","","11","3960","229","e","elianto","#f73b6a7A","-1","-1","1","0","[]","0","2","","","3960","86","7","4","lose","no-go","0"
"pit-trial","205","1427576","0.0-91.0","battery-v0.2","","""event"",""trial"",""time""
""fullscreenenter"",""1"",""2255""
","
","
","""event"",""trial"",""time""
""fullscreenenter"",""1"",""2255""
","
","","","1061.300000011921","","","11","3960","229","s","elianto","#3366ff99","-1"," ","0","0","[1915.5]","1","2","","","3960","87","5","2","win","no-go","0"
"pit-trial","206","1432441","0.0-92.0","battery-v0.2","","""event"",""trial"",""time""
""fullscreenenter"",""1"",""2255""
","
","
","""event"",""trial"",""time""
""fullscreenenter"",""1"",""2255""
","
","","","-1","","","11","3960","229","w","elianto","#f73b6a7A"," ","-1","0","-10","[]","0","2","","","3960","88","6","3","lose","go","0"
"pit-trial","207","1437299","0.0-93.0","battery-v0.2","","""event"",""trial"",""time""
""fullscreenenter"",""1"",""2255""
","
","
","""event"",""trial"",""time""
""fullscreenenter"",""1"",""2255""
","
","","","-1","","","11","3960","229","s","elianto","#3366ff99","-1","-1","1","+10","[]","0","2","","","3960","89","5","2","win","no-go","0"
"pit-trial","208","1441233","0.0-94.0","battery-v0.2","","""event"",""trial"",""time""
""fullscreenenter"",""1"",""2255""
","
","
","""event"",""trial"",""time""
""fullscreenenter"",""1"",""2255""
","
","","","1078.0999999642372","","","11","3960","229","p","elianto","#3366ff99"," "," ","1","0","[1930.0999999642372]","1","2","","","3960","90","4","1","win","go","1"
"pit-trial","209","1446097","0.0-95.0","battery-v0.2","","""event"",""trial"",""time""
""fullscreenenter"",""1"",""2255""
","
","
","""event"",""trial"",""time""
""fullscreenenter"",""1"",""2255""
","
","","","-1","","","11","3960","229","e","elianto","#f73b6a7A","-1","-1","1","-10","[]","0","2","","","3960","91","7","4","lose","no-go","1"
"pit-trial","210","1449825","0.0-96.0","battery-v0.2","","""event"",""trial"",""time""
""fullscreenenter"",""1"",""2255""
","
","
","""event"",""trial"",""time""
""fullscreenenter"",""1"",""2255""
","
","","","870.1999999880791","","","11","3960","229","w","elianto","#f73b6a7A"," "," ","1","0","[1723.5]","1","2","","","3960","92","6","3","lose","go","0"
"pit-trial","211","1454600","0.0-97.0","battery-v0.2","","""event"",""trial"",""time""
""fullscreenenter"",""1"",""2255""
","
","
","""event"",""trial"",""time""
""fullscreenenter"",""1"",""2255""
","
","","","1917.2999999523163","","","11","3960","229","s","elianto","#3366ff99","-1"," ","0","0","[2771.599999964237]","1","2","","","3960","93","5","2","win","no-go","0"
"pit-trial","212","1459465","0.0-98.0","battery-v0.2","","""event"",""trial"",""time""
""fullscreenenter"",""1"",""2255""
","
","
","""event"",""trial"",""time""
""fullscreenenter"",""1"",""2255""
","
","","","-1","","","11","3960","229","d","elianto","#3366ff99"," ","-1","0","+10","[]","0","2","","","3960","94","8","1","win","go","1"
"pit-trial","213","1463120","0.0-99.0","battery-v0.2","","""event"",""trial"",""time""
""fullscreenenter"",""1"",""2255""
","
","
","""event"",""trial"",""time""
""fullscreenenter"",""1"",""2255""
","
","","","797.9000000357628","","","11","3960","229","e","elianto","#f73b6a7A","-1"," ","0","0","[1651.300000011921]","1","2","","","3960","95","7","4","lose","no-go","1"
"pit-trial","214","1466784","0.0-100.0","battery-v0.2","","""event"",""trial"",""time""
""fullscreenenter"",""1"",""2255""
","
","
","""event"",""trial"",""time""
""fullscreenenter"",""1"",""2255""
","
","","","805.3999999761581","","","11","3960","229","w","elianto","#f73b6a7A"," "," ","1","0","[1659.6000000238419]","1","2","","","3960","96","6","3","lose","go","0"
"pit-trial","215","1471224","0.0-101.0","battery-v0.2","","""event"",""trial"",""time""
""fullscreenenter"",""1"",""2255""
","
","
","""event"",""trial"",""time""
""fullscreenenter"",""1"",""2255""
","
","","","1585","","","11","3960","229","e","elianto","#f73b6a7A","-1"," ","0","-10","[2436]","1","2","","","3960","97","7","4","lose","no-go","0"
"pit-trial","216","1476088","0.0-102.0","battery-v0.2","","""event"",""trial"",""time""
""fullscreenenter"",""1"",""2255""
","
","
","""event"",""trial"",""time""
""fullscreenenter"",""1"",""2255""
","
","","","-1","","","11","3960","229","s","elianto","#3366ff99","-1","-1","1","0","[]","0","2","","","3960","98","5","2","win","no-go","1"
"pit-trial","217","1480544","0.0-103.0","battery-v0.2","","""event"",""trial"",""time""
""fullscreenenter"",""1"",""2255""
","
","
","""event"",""trial"",""time""
""fullscreenenter"",""1"",""2255""
","
","","","1600.1000000238419","","","11","3960","229","d","elianto","#3366ff99"," "," ","1","+10","[2451.699999988079]","1","2","","","3960","99","8","1","win","go","0"
"pit-trial","218","1484976","0.0-104.0","battery-v0.2","","""event"",""trial"",""time""
""fullscreenenter"",""1"",""2255""
","
","
","""event"",""trial"",""time""
""fullscreenenter"",""1"",""2255""
","
","","","1573.1000000238419","","","11","3960","229","w","elianto","#f73b6a7A"," "," ","1","0","[2427.400000035763]","1","2","","","3960","100","6","3","lose","go","0"
"pit-trial","219","1489840","0.0-105.0","battery-v0.2","","""event"",""trial"",""time""
""fullscreenenter"",""1"",""2255""
","
","
","""event"",""trial"",""time""
""fullscreenenter"",""1"",""2255""
","
","","","-1","","","11","3960","229","j","elianto","#3366ff99"," ","-1","0","0","[]","0","2","","","3960","101","9","1","win","go","0"
"pit-trial","220","1494112","0.0-106.0","battery-v0.2","","""event"",""trial"",""time""
""fullscreenenter"",""1"",""2255""
","
","
","""event"",""trial"",""time""
""fullscreenenter"",""1"",""2255""
","
","","","1413.8999999761581","","","11","3960","229","e","elianto","#f73b6a7A","-1"," ","0","0","[2267.699999988079]","1","2","","","3960","102","7","4","lose","no-go","1"
"pit-trial","221","1497943","0.0-107.0","battery-v0.2","","""event"",""trial"",""time""
""fullscreenenter"",""1"",""2255""
","
","
","""event"",""trial"",""time""
""fullscreenenter"",""1"",""2255""
","
","","","973.0999999642372","","","11","3960","229","d","elianto","#3366ff99"," "," ","1","+10","[1827.199999988079]","1","2","","","3960","103","8","1","win","go","0"
"pit-trial","222","1502808","0.0-108.0","battery-v0.2","","""event"",""trial"",""time""
""fullscreenenter"",""1"",""2255""
","
","
","""event"",""trial"",""time""
""fullscreenenter"",""1"",""2255""
","
","","","-1","","","11","3960","229","s","elianto","#3366ff99","-1","-1","1","+10","[]","0","2","","","3960","104","5","2","win","no-go","0"
"pit-trial","223","1506712","0.0-109.0","battery-v0.2","","""event"",""trial"",""time""
""fullscreenenter"",""1"",""2255""
","
","
","""event"",""trial"",""time""
""fullscreenenter"",""1"",""2255""
","
","","","1045.8999999761581","","","11","3960","229","w","elianto","#f73b6a7A"," "," ","1","0","[1899.5999999642372]","1","2","","","3960","105","6","3","lose","go","0"
"pit-trial","224","1510728","0.0-110.0","battery-v0.2","","""event"",""trial"",""time""
""fullscreenenter"",""1"",""2255""
","
","
","""event"",""trial"",""time""
""fullscreenenter"",""1"",""2255""
","
","","","1157.4000000357628","","","11","3960","229","d","elianto","#3366ff99"," "," ","1","+10","[2011.199999988079]","1","2","","","3960","106","8","1","win","go","0"
"pit-trial","225","1515592","0.0-111.0","battery-v0.2","","""event"",""trial"",""time""
""fullscreenenter"",""1"",""2255""
","
","
","""event"",""trial"",""time""
""fullscreenenter"",""1"",""2255""
","
","","","-1","","","11","3960","229","p","elianto","#3366ff99"," ","-1","0","0","[]","0","2","","","3960","107","4","1","win","go","0"
"pit-trial","226","1519575","0.0-112.0","battery-v0.2","","""event"",""trial"",""time""
""fullscreenenter"",""1"",""2255""
","
","
","""event"",""trial"",""time""
""fullscreenenter"",""1"",""2255""
","
","","","1125.5","","","11","3960","229","j","elianto","#3366ff99"," "," ","1","+10","[1979.5]","1","2","","","3960","108","9","1","win","go","0"
"pit-trial","227","1523479","0.0-113.0","battery-v0.2","","""event"",""trial"",""time""
""fullscreenenter"",""1"",""2255""
","
","
","""event"",""trial"",""time""
""fullscreenenter"",""1"",""2255""
","
","","","1038.3999999761581","","","11","3960","229","j","elianto","#3366ff99"," "," ","1","0","[1894.199999988079]","1","2","","","3960","109","9","1","win","go","1"
"pit-trial","228","1528343","0.0-114.0","battery-v0.2","","""event"",""trial"",""time""
""fullscreenenter"",""1"",""2255""
","
","
","""event"",""trial"",""time""
""fullscreenenter"",""1"",""2255""
","
","","","-1","","","11","3960","229","s","elianto","#3366ff99","-1","-1","1","+10","[]","0","2","","","3960","110","5","2","win","no-go","0"
"pit-trial","229","1532303","0.0-115.0","battery-v0.2","","""event"",""trial"",""time""
""fullscreenenter"",""1"",""2255""
","
","
","""event"",""trial"",""time""
""fullscreenenter"",""1"",""2255""
","
","","","1096.6000000238419","","","11","3960","229","w","elianto","#f73b6a7A"," "," ","1","0","[1950.300000011921]","1","2","","","3960","111","6","3","lose","go","0"
"pit-trial","230","1536215","0.0-116.0","battery-v0.2","","""event"",""trial"",""time""
""fullscreenenter"",""1"",""2255""
","
","
","""event"",""trial"",""time""
""fullscreenenter"",""1"",""2255""
","
","","","1047.199999988079","","","11","3960","229","d","elianto","#3366ff99"," "," ","1","+10","[1901.8999999761581]","1","2","","","3960","112","8","1","win","go","0"
"pit-trial","231","1540119","0.0-117.0","battery-v0.2","","""event"",""trial"",""time""
""fullscreenenter"",""1"",""2255""
","
","
","""event"",""trial"",""time""
""fullscreenenter"",""1"",""2255""
","
","","","1039.300000011921","","","11","3960","229","d","elianto","#3366ff99"," "," ","1","+10","[1894]","1","2","","","3960","113","8","1","win","go","0"
"pit-trial","232","1544982","0.0-118.0","battery-v0.2","","""event"",""trial"",""time""
""fullscreenenter"",""1"",""2255""
","
","
","""event"",""trial"",""time""
""fullscreenenter"",""1"",""2255""
","
","","","-1","","","11","3960","229","s","elianto","#3366ff99","-1","-1","1","+10","[]","0","2","","","3960","114","5","2","win","no-go","0"
"pit-trial","233","1548959","0.0-119.0","battery-v0.2","","""event"",""trial"",""time""
""fullscreenenter"",""1"",""2255""
","
","
","""event"",""trial"",""time""
""fullscreenenter"",""1"",""2255""
","
","","","1111.6000000238419","","","11","3960","229","j","elianto","#3366ff99"," "," ","1","+10","[1967.300000011921]","1","2","","","3960","115","9","1","win","go","0"
"pit-trial","234","1552767","0.0-120.0","battery-v0.2","","""event"",""trial"",""time""
""fullscreenenter"",""1"",""2255""
","
","
","""event"",""trial"",""time""
""fullscreenenter"",""1"",""2255""
","
","","","943.8000000119209","","","11","3960","229","w","elianto","#f73b6a7A"," "," ","1","0","[1797.6000000238419]","1","2","","","3960","116","6","3","lose","go","0"
"pit-trial","235","1556791","0.0-121.0","battery-v0.2","","""event"",""trial"",""time""
""fullscreenenter"",""1"",""2255""
","
","
","""event"",""trial"",""time""
""fullscreenenter"",""1"",""2255""
","
","","","1161.800000011921","","","11","3960","229","d","elianto","#3366ff99"," "," ","1","+10","[2013.800000011921]","1","2","","","3960","117","8","1","win","go","0"
"pit-trial","236","1560623","0.0-122.0","battery-v0.2","","""event"",""trial"",""time""
""fullscreenenter"",""1"",""2255""
","
","
","""event"",""trial"",""time""
""fullscreenenter"",""1"",""2255""
","
","","","967.6000000238419","","","11","3960","229","w","elianto","#f73b6a7A"," "," ","1","-10","[1822.1000000238419]","1","2","","","3960","118","6","3","lose","go","1"
"pit-trial","237","1564655","0.0-123.0","battery-v0.2","","""event"",""trial"",""time""
""fullscreenenter"",""1"",""2255""
","
","
","""event"",""trial"",""time""
""fullscreenenter"",""1"",""2255""
","
","","","1167.5999999642372","","","11","3960","229","j","elianto","#3366ff99"," "," ","1","+10","[2021]","1","2","","","3960","119","9","1","win","go","0"
"pit-trial","238","1569518","0.0-124.0","battery-v0.2","","""event"",""trial"",""time""
""fullscreenenter"",""1"",""2255""
","
","
","""event"",""trial"",""time""
""fullscreenenter"",""1"",""2255""
","
","","","-1","","","11","3960","229","s","elianto","#3366ff99","-1","-1","1","0","[]","0","2","","","3960","120","5","2","win","no-go","1"
"pit-trial","239","1573615","0.0-125.0","battery-v0.2","","""event"",""trial"",""time""
""fullscreenenter"",""1"",""2255""
","
","
","""event"",""trial"",""time""
""fullscreenenter"",""1"",""2255""
","
","","","1235.1000000238419","","","11","3960","229","d","elianto","#3366ff99"," "," ","1","+10","[2086.699999988079]","1","2","","","3960","121","8","1","win","go","0"
"pit-trial","240","1578271","0.0-126.0","battery-v0.2","","""event"",""trial"",""time""
""fullscreenenter"",""1"",""2255""
","
","
","""event"",""trial"",""time""
""fullscreenenter"",""1"",""2255""
","
","","","1800.3999999761581","","","11","3960","229","e","elianto","#f73b6a7A","-1"," ","0","-10","[2652.5]","1","2","","","3960","122","7","4","lose","no-go","0"
"pit-trial","241","1582407","0.0-127.0","battery-v0.2","","""event"",""trial"",""time""
""fullscreenenter"",""1"",""2255""
","
","
","""event"",""trial"",""time""
""fullscreenenter"",""1"",""2255""
","
","","","1278.9000000357628","","","11","3960","229","w","elianto","#f73b6a7A"," "," ","1","0","[2132.600000023842]","1","2","","","3960","123","6","3","lose","go","0"
"pit-trial","242","1586455","0.0-128.0","battery-v0.2","","""event"",""trial"",""time""
""fullscreenenter"",""1"",""2255""
","
","
","""event"",""trial"",""time""
""fullscreenenter"",""1"",""2255""
","
","","","1183.699999988079","","","11","3960","229","j","elianto","#3366ff99"," "," ","1","+10","[2036.800000011921]","1","2","","","3960","124","9","1","win","go","0"
"pit-trial","243","1590398","0.0-129.0","battery-v0.2","","""event"",""trial"",""time""
""fullscreenenter"",""1"",""2255""
","
","
","""event"",""trial"",""time""
""fullscreenenter"",""1"",""2255""
","
","","","1090.0999999642372","","","11","3960","229","j","elianto","#3366ff99"," "," ","1","+10","[1940.5999999642372]","1","2","","","3960","125","9","1","win","go","0"
"pit-trial","244","1595046","0.0-130.0","battery-v0.2","","""event"",""trial"",""time""
""fullscreenenter"",""1"",""2255""
","
","
","""event"",""trial"",""time""
""fullscreenenter"",""1"",""2255""
","
","","","1790.6000000238419","","","11","3960","229","d","elianto","#3366ff99"," "," ","1","+10","[2644.7000000476837]","1","2","","","3960","126","8","1","win","go","0"
"pit-trial","245","1598902","0.0-131.0","battery-v0.2","","""event"",""trial"",""time""
""fullscreenenter"",""1"",""2255""
","
","
","""event"",""trial"",""time""
""fullscreenenter"",""1"",""2255""
","
","","","990.8000000119209","","","11","3960","229","w","elianto","#f73b6a7A"," "," ","1","0","[1845]","1","2","","","3960","127","6","3","lose","go","0"
"pit-trial","246","1603046","0.0-132.0","battery-v0.2","","""event"",""trial"",""time""
""fullscreenenter"",""1"",""2255""
","
","
","""event"",""trial"",""time""
""fullscreenenter"",""1"",""2255""
","
","","","1288","","","11","3960","229","e","elianto","#f73b6a7A","-1"," ","0","-10","[2140.300000011921]","1","2","","","3960","128","7","4","lose","no-go","0"
"pit-trial","247","1607198","0.0-133.0","battery-v0.2","","""event"",""trial"",""time""
""fullscreenenter"",""1"",""2255""
","
","
","""event"",""trial"",""time""
""fullscreenenter"",""1"",""2255""
","
","","","1294.3999999761581","","","11","3960","229","w","elianto","#f73b6a7A"," "," ","1","0","[2148.2999999523163]","1","2","","","3960","129","6","3","lose","go","0"
"pit-trial","248","1611446","0.0-134.0","battery-v0.2","","""event"",""trial"",""time""
""fullscreenenter"",""1"",""2255""
","
","
","""event"",""trial"",""time""
""fullscreenenter"",""1"",""2255""
","
","","","1390.3999999761581","","","11","3960","229","d","elianto","#3366ff99"," "," ","1","0","[2244.600000023842]","1","2","","","3960","130","8","1","win","go","1"
"pit-trial","249","1616206","0.0-135.0","battery-v0.2","","""event"",""trial"",""time""
""fullscreenenter"",""1"",""2255""
","
","
","""event"",""trial"",""time""
""fullscreenenter"",""1"",""2255""
","
","","","1902.6000000238419","","","11","3960","229","j","elianto","#3366ff99"," "," ","1","+10","[2756.899999976158]","1","2","","","3960","131","9","1","win","go","0"
"pit-trial","250","1621070","0.0-136.0","battery-v0.2","","""event"",""trial"",""time""
""fullscreenenter"",""1"",""2255""
","
","
","""event"",""trial"",""time""
""fullscreenenter"",""1"",""2255""
","
","","","-1","","","11","3960","229","e","elianto","#f73b6a7A","-1","-1","1","0","[]","0","2","","","3960","132","7","4","lose","no-go","0"
"pit-trial","251","1624813","0.0-137.0","battery-v0.2","","""event"",""trial"",""time""
""fullscreenenter"",""1"",""2255""
","
","
","""event"",""trial"",""time""
""fullscreenenter"",""1"",""2255""
","
","","","879.1999999880791","","","11","3960","229","w","elianto","#f73b6a7A"," "," ","1","0","[1733.300000011921]","1","2","","","3960","133","6","3","lose","go","0"
"pit-trial","252","1628542","0.0-138.0","battery-v0.2","","""event"",""trial"",""time""
""fullscreenenter"",""1"",""2255""
","
","
","""event"",""trial"",""time""
""fullscreenenter"",""1"",""2255""
","
","","","870.6999999880791","","","11","3960","229","d","elianto","#3366ff99"," "," ","1","+10","[1725.1000000238419]","1","2","","","3960","134","8","1","win","go","0"
"pit-trial","253","1632510","0.0-139.0","battery-v0.2","","""event"",""trial"",""time""
""fullscreenenter"",""1"",""2255""
","
","
","""event"",""trial"",""time""
""fullscreenenter"",""1"",""2255""
","
","","","1109.1000000238419","","","11","3960","229","j","elianto","#3366ff99"," "," ","1","+10","[1965]","1","2","","","3960","135","9","1","win","go","0"
"pit-trial","254","1637374","0.0-140.0","battery-v0.2","","""event"",""trial"",""time""
""fullscreenenter"",""1"",""2255""
","
","
","""event"",""trial"",""time""
""fullscreenenter"",""1"",""2255""
","
","","","-1","","","11","3960","229","e","elianto","#f73b6a7A","-1","-1","1","0","[]","0","2","","","3960","136","7","4","lose","no-go","0"
"pit-trial","255","1641213","0.0-141.0","battery-v0.2","","""event"",""trial"",""time""
""fullscreenenter"",""1"",""2255""
","
","
","""event"",""trial"",""time""
""fullscreenenter"",""1"",""2255""
","
","","","976.5","","","11","3960","229","d","elianto","#3366ff99"," "," ","1","+10","[1829.300000011921]","1","2","","","3960","137","8","1","win","go","0"
"pit-trial","256","1645109","0.0-142.0","battery-v0.2","","""event"",""trial"",""time""
""fullscreenenter"",""1"",""2255""
","
","
","""event"",""trial"",""time""
""fullscreenenter"",""1"",""2255""
","
","","","1031.1000000238419","","","11","3960","229","w","elianto","#f73b6a7A"," "," ","1","-10","[1885]","1","2","","","3960","138","6","3","lose","go","1"
"pit-trial","257","1649973","0.0-143.0","battery-v0.2","","""event"",""trial"",""time""
""fullscreenenter"",""1"",""2255""
","
","
","""event"",""trial"",""time""
""fullscreenenter"",""1"",""2255""
","
","","","-1","","","11","3960","229","e","elianto","#f73b6a7A","-1","-1","1","0","[]","0","2","","","3960","139","7","4","lose","no-go","0"
"pit-trial","258","1653925","0.0-144.0","battery-v0.2","","""event"",""trial"",""time""
""fullscreenenter"",""1"",""2255""
","
","
","""event"",""trial"",""time""
""fullscreenenter"",""1"",""2255""
","
","","","1086.9000000357628","","","11","3960","229","j","elianto","#3366ff99"," "," ","1","+10","[1942.199999988079]","1","2","","","3960","140","9","1","win","go","0"
"pit-instructions","259","1704995","0.0-145.0","battery-v0.2","","""event"",""trial"",""time""
""fullscreenenter"",""1"",""2255""
","
","
","""event"",""trial"",""time""
""fullscreenenter"",""1"",""2255""
","
","","[{""page_index"":0,""viewing_time"":39830.39999997616},{""page_index"":1,""viewing_time"":11238}]","51068.80000001192","","","","","","","","","","","","","","","","","","","","","","","",""
"pit-trial","260","1708952","0.0-146.0","battery-v0.2","","""event"",""trial"",""time""
""fullscreenenter"",""1"",""2255""
","
","
","""event"",""trial"",""time""
""fullscreenenter"",""1"",""2255""
","
","","","1090","","","11","3960","229","r","elianto","#3366ff99"," "," ","1","+10","[1943.5]","1","3","","","3960","141","1","1","win","go","0"
"pit-trial","261","1713823","0.0-147.0","battery-v0.2","","""event"",""trial"",""time""
""fullscreenenter"",""1"",""2255""
","
","
","""event"",""trial"",""time""
""fullscreenenter"",""1"",""2255""
","
","","","-1","","","11","3960","229","y","elianto","#f73b6a7A","-1","-1","1","0","[]","0","3","","","3960","142","2","4","lose","no-go","0"
"pit-trial","262","1718124","0.0-148.0","battery-v0.2","","""event"",""trial"",""time""
""fullscreenenter"",""1"",""2255""
","
","
","""event"",""trial"",""time""
""fullscreenenter"",""1"",""2255""
","
","","","1434.199999988079","","","11","3960","229","m","elianto","#f73b6a7A","-1"," ","0","-10","[2293.599999964237]","1","3","","","3960","143","0","4","lose","no-go","0"
"pit-trial","263","1722990","0.0-149.0","battery-v0.2","","""event"",""trial"",""time""
""fullscreenenter"",""1"",""2255""
","
","
","""event"",""trial"",""time""
""fullscreenenter"",""1"",""2255""
","
","","","-1","","","11","3960","229","h","elianto","#f73b6a7A"," ","-1","0","-10","[]","0","3","","","3960","144","3","3","lose","go","0"
"pit-trial","264","1727012","0.0-150.0","battery-v0.2","","""event"",""trial"",""time""
""fullscreenenter"",""1"",""2255""
","
","
","""event"",""trial"",""time""
""fullscreenenter"",""1"",""2255""
","
","","","1163.2000000476837","","","11","3960","229","h","elianto","#f73b6a7A"," "," ","1","0","[2015.3999999761581]","1","3","","","3960","145","3","3","lose","go","0"
"pit-trial","265","1731879","0.0-151.0","battery-v0.2","","""event"",""trial"",""time""
""fullscreenenter"",""1"",""2255""
","
","
","""event"",""trial"",""time""
""fullscreenenter"",""1"",""2255""
","
","","","-1","","","11","3960","229","y","elianto","#f73b6a7A","-1","-1","1","0","[]","0","3","","","3960","146","2","4","lose","no-go","0"
"pit-trial","266","1736740","0.0-152.0","battery-v0.2","","""event"",""trial"",""time""
""fullscreenenter"",""1"",""2255""
","
","
","""event"",""trial"",""time""
""fullscreenenter"",""1"",""2255""
","
","","","-1","","","11","3960","229","m","elianto","#f73b6a7A","-1","-1","1","0","[]","0","3","","","3960","147","0","4","lose","no-go","0"
"pit-trial","267","1740268","0.0-153.0","battery-v0.2","","""event"",""trial"",""time""
""fullscreenenter"",""1"",""2255""
","
","
","""event"",""trial"",""time""
""fullscreenenter"",""1"",""2255""
","
","","","667.7999999523163","","","11","3960","229","r","elianto","#3366ff99"," "," ","1","+10","[1520.199999988079]","1","3","","","3960","148","1","1","win","go","0"
"pit-trial","268","1744276","0.0-154.0","battery-v0.2","","""event"",""trial"",""time""
""fullscreenenter"",""1"",""2255""
","
","
","""event"",""trial"",""time""
