"trial_type","trial_index","time_elapsed","internal_node_id","task_version","subject_id","interactions","blur_events","focus_events","fullscreenenter_events","fullscreenexit_events","success","view_history","rt","responses","num_errors","age","subject","participantId","rune","rune_set","hex","correct","choice","accuracy","outcome","keys","total_keys","block","practice","value","sub","trial","stimulus","robot","valence","action","sham"
"pavlovia","0","18","0.0-0.0","battery-v0.2","","""event"",""trial"",""time""
""fullscreenenter"",""1"",""3144""
","
","
","""event"",""trial"",""time""
""fullscreenenter"",""1"",""3144""
","
","","","","","","","","","","","","","","","","","","","","","","","","","","",""
"fullscreen","1","4096","0.0-1.0","battery-v0.2","","""event"",""trial"",""time""
""fullscreenenter"",""1"",""3144""
","
","
","""event"",""trial"",""time""
""fullscreenenter"",""1"",""3144""
","
","true","","","","","","","","","","","","","","","","","","","","","","","","","",""
"pit-instructions","2","12220","0.0-2.0-0.0","battery-v0.2","","""event"",""trial"",""time""
""fullscreenenter"",""1"",""3144""
","
","
","""event"",""trial"",""time""
""fullscreenenter"",""1"",""3144""
","
","","[{""page_index"":0,""viewing_time"":8118.300000071526}]","8118.900000095367","","","","","","","","","","","","","","","","","","","","","","","",""
"pit-comprehension","3","31730","0.0-2.0-1.0-0.0","battery-v0.2","","""event"",""trial"",""time""
""fullscreenenter"",""1"",""3144""
","
","
","""event"",""trial"",""time""
""fullscreenenter"",""1"",""3144""
","
","","","19504.899999976158","[""shark""]","0","10","18378","6167","","","","","","","","","","","","","","","","","","",""
"pit-instructions","4","34689","0.0-2.0-1.0-1.0","battery-v0.2","","""event"",""trial"",""time""
""fullscreenenter"",""1"",""3144""
","
","
","""event"",""trial"",""time""
""fullscreenenter"",""1"",""3144""
","
","","[{""page_index"":0,""viewing_time"":2946.399999976158}]","2946.7999999523163","","","","","","","","","","","","","","","","","","","","","","","",""
"pit-comprehension","5","41257","0.0-2.0-2.0-0.0","battery-v0.2","","""event"",""trial"",""time""
""fullscreenenter"",""1"",""3144""
","
","
","""event"",""trial"",""time""
""fullscreenenter"",""1"",""3144""
","
","","","6562.200000047684","[""tiger""]","0","10","18378","6167","","","","","","","","","","","","","","","","","","",""
"pit-instructions","6","42991","0.0-2.0-2.0-1.0","battery-v0.2","","""event"",""trial"",""time""
""fullscreenenter"",""1"",""3144""
","
","
","""event"",""trial"",""time""
""fullscreenenter"",""1"",""3144""
","
","","[{""page_index"":0,""viewing_time"":1728.3000000715256}]","1728.7000000476837","","","","","","","","","","","","","","","","","","","","","","","",""
"pit-instructions","7","144472","0.0-2.0-3.0","battery-v0.2","","""event"",""trial"",""time""
""fullscreenenter"",""1"",""3144""
","
","
","""event"",""trial"",""time""
""fullscreenenter"",""1"",""3144""
","
","","[{""page_index"":0,""viewing_time"":9115.600000023842},{""page_index"":1,""viewing_time"":6801.100000023842},{""page_index"":2,""viewing_time"":7248.199999928474},{""page_index"":3,""viewing_time"":5039},{""page_index"":4,""viewing_time"":6049.399999976158},{""page_index"":5,""viewing_time"":5485.700000047684},{""page_index"":6,""viewing_time"":7677.600000023842},{""page_index"":7,""viewing_time"":6331.199999928474},{""page_index"":8,""viewing_time"":6108.100000023842},{""page_index"":9,""viewing_time"":12249.700000047684},{""page_index"":10,""viewing_time"":9113.100000023842},{""page_index"":11,""viewing_time"":7481.799999952316},{""page_index"":12,""viewing_time"":7397.399999976158},{""page_index"":13,""viewing_time"":5372.100000023842}]","101471.20000004768","","","","","","","","","","","","","","","","","","","","","","","",""
"pit-trial","8","149177","0.0-2.0-4.0-0.0","battery-v0.2","","""event"",""trial"",""time""
""fullscreenenter"",""1"",""3144""
","
","
","""event"",""trial"",""time""
""fullscreenenter"",""1"",""3144""
","
","","","1840.7999999523163","","","10","18378","6167","&#9784;","elianto","#FFFFF080"," "," ","1","&#10004","[2691.600000023842]","1","0","0","","","","","","","",""
"pit-trial","9","153308","0.0-2.0-4.1-0.1","battery-v0.2","","""event"",""trial"",""time""
""fullscreenenter"",""1"",""3144""
","
","
","""event"",""trial"",""time""
""fullscreenenter"",""1"",""3144""
","
","","","1260.2000000476837","","","10","18378","6167","&#9784;","elianto","#FFFFF080"," "," ","1","&#10004","[2119.600000023842]","1","0","0","","","","","","","",""
"pit-trial","10","156921","0.0-2.0-4.2-0.2","battery-v0.2","","""event"",""trial"",""time""
""fullscreenenter"",""1"",""3144""
","
","
","""event"",""trial"",""time""
""fullscreenenter"",""1"",""3144""
","
","","","746.6999999284744","","","10","18378","6167","&#9784;","elianto","#FFFFF080"," "," ","1","&#10004","[1597.2999999523163]","1","0","0","","","","","","","",""
"pit-trial","11","160457","0.0-2.0-4.3-0.3","battery-v0.2","","""event"",""trial"",""time""
""fullscreenenter"",""1"",""3144""
","
","
","""event"",""trial"",""time""
""fullscreenenter"",""1"",""3144""
","
","","","665.1000000238419","","","10","18378","6167","&#9784;","elianto","#FFFFF080"," "," ","1","&#10004","[1516.3999999761581]","1","0","0","","","","","","","",""
"pit-trial","12","163897","0.0-2.0-4.4-0.4","battery-v0.2","","""event"",""trial"",""time""
""fullscreenenter"",""1"",""3144""
","
","
","""event"",""trial"",""time""
""fullscreenenter"",""1"",""3144""
","
","","","576.3999999761581","","","10","18378","6167","&#9784;","elianto","#FFFFF080"," "," ","1","&#10004","[1427]","1","0","0","","","","","","","",""
"pit-instructions","13","185648","0.0-2.0-5.0","battery-v0.2","","""event"",""trial"",""time""
""fullscreenenter"",""1"",""3144""
","
","
","""event"",""trial"",""time""
""fullscreenenter"",""1"",""3144""
","
","","[{""page_index"":0,""viewing_time"":5449.399999976158},{""page_index"":1,""viewing_time"":6234.299999952316},{""page_index"":2,""viewing_time"":4889.100000023842},{""page_index"":3,""viewing_time"":5172.100000023842}]","21745.299999952316","","","","","","","","","","","","","","","","","","","","","","","",""
"pit-trial","14","190527","0.0-2.0-6.0-0.0","battery-v0.2","","""event"",""trial"",""time""
""fullscreenenter"",""1"",""3144""
","
","
","""event"",""trial"",""time""
""fullscreenenter"",""1"",""3144""
","
","","","-1","","","10","18378","6167","&#9854;","elianto","#FFFFF080","-1","-1","1","&#10004","[]","0","0","1","","","","","","","",""
"pit-trial","15","195407","0.0-2.0-6.1-0.1","battery-v0.2","","""event"",""trial"",""time""
""fullscreenenter"",""1"",""3144""
","
","
","""event"",""trial"",""time""
""fullscreenenter"",""1"",""3144""
","
","","","-1","","","10","18378","6167","&#9854;","elianto","#FFFFF080","-1","-1","1","&#10004","[]","0","0","1","","","","","","","",""
"pit-trial","16","200278","0.0-2.0-6.2-0.2","battery-v0.2","","""event"",""trial"",""time""
""fullscreenenter"",""1"",""3144""
","
","
","""event"",""trial"",""time""
""fullscreenenter"",""1"",""3144""
","
","","","-1","","","10","18378","6167","&#9854;","elianto","#FFFFF080","-1","-1","1","&#10004","[]","0","0","1","","","","","","","",""
"pit-trial","17","205157","0.0-2.0-6.3-0.3","battery-v0.2","","""event"",""trial"",""time""
""fullscreenenter"",""1"",""3144""
","
","
","""event"",""trial"",""time""
""fullscreenenter"",""1"",""3144""
","
","","","-1","","","10","18378","6167","&#9854;","elianto","#FFFFF080","-1","-1","1","&#10004","[]","0","0","1","","","","","","","",""
"pit-trial","18","210038","0.0-2.0-6.4-0.4","battery-v0.2","","""event"",""trial"",""time""
""fullscreenenter"",""1"",""3144""
","
","
","""event"",""trial"",""time""
""fullscreenenter"",""1"",""3144""
","
","","","-1","","","10","18378","6167","&#9854;","elianto","#FFFFF080","-1","-1","1","&#10004","[]","0","0","1","","","","","","","",""
"pit-instructions","19","329364","0.0-2.0-7.0","battery-v0.2","","""event"",""trial"",""time""
""fullscreenenter"",""1"",""3144""
","
","
","""event"",""trial"",""time""
""fullscreenenter"",""1"",""3144""
","
","","[{""page_index"":0,""viewing_time"":6567.300000071526},{""page_index"":1,""viewing_time"":10587.299999952316},{""page_index"":2,""viewing_time"":6563.200000047684},{""page_index"":3,""viewing_time"":6478.199999928474},{""page_index"":4,""viewing_time"":5785.100000023842},{""page_index"":5,""viewing_time"":5474},{""page_index"":6,""viewing_time"":5484.200000047684},{""page_index"":7,""viewing_time"":7614.5},{""page_index"":8,""viewing_time"":6284.399999976158},{""page_index"":9,""viewing_time"":5944},{""page_index"":10,""viewing_time"":6626.699999928474},{""page_index"":11,""viewing_time"":4657.5},{""page_index"":12,""viewing_time"":6818.300000071526},{""page_index"":13,""viewing_time"":7246.299999952316},{""page_index"":14,""viewing_time"":7519.5},{""page_index"":15,""viewing_time"":6333.100000023842},{""page_index"":16,""viewing_time"":6410.5},{""page_index"":17,""viewing_time"":6925.700000047684}]","119320.39999997616","","","","","","","","","","","","","","","","","","","","","","","",""
"pit-trial","20","333459","0.0-2.0-8.0-0.0","battery-v0.2","","""event"",""trial"",""time""
""fullscreenenter"",""1"",""3144""
","
","
","""event"",""trial"",""time""
""fullscreenenter"",""1"",""3144""
","
","","","1221","","","10","18378","6167","&#9776;","elianto","#3366ff99"," "," ","1","+10","[2072.2000000476837]","1","0","1","","","","","","","",""
"pit-trial","21","337060","0.0-2.0-8.0-1.0","battery-v0.2","","""event"",""trial"",""time""
""fullscreenenter"",""1"",""3144""
","
","
","""event"",""trial"",""time""
""fullscreenenter"",""1"",""3144""
","
","","","731.2999999523163","","","10","18378","6167","&#9776;","elianto","#3366ff99"," "," ","1","+10","[1583.7000000476837]","1","0","1","","","","","","","",""
"pit-trial","22","340500","0.0-2.0-8.0-2.0","battery-v0.2","","""event"",""trial"",""time""
""fullscreenenter"",""1"",""3144""
","
","
","""event"",""trial"",""time""
""fullscreenenter"",""1"",""3144""
","
","","","583.2999999523163","","","10","18378","6167","&#9776;","elianto","#3366ff99"," "," ","1","+10","[1433.5]","1","0","1","","","","","","","",""
"pit-trial","23","344300","0.0-2.0-8.0-3.0","battery-v0.2","","""event"",""trial"",""time""
""fullscreenenter"",""1"",""3144""
","
","
","""event"",""trial"",""time""
""fullscreenenter"",""1"",""3144""
","
","","","936.8000000715256","","","10","18378","6167","&#9776;","elianto","#3366ff99"," "," ","1","0","[1792.6999999284744]","1","0","1","","","","","","","",""
"pit-trial","24","347750","0.0-2.0-8.0-4.0","battery-v0.2","","""event"",""trial"",""time""
""fullscreenenter"",""1"",""3144""
","
","
","""event"",""trial"",""time""
""fullscreenenter"",""1"",""3144""
","
","","","594.5","","","10","18378","6167","&#9776;","elianto","#3366ff99"," "," ","1","+10","[1445.1999999284744]","1","0","1","","","","","","","",""
"pit-trial","25","351350","0.0-2.0-8.1-0.1","battery-v0.2","","""event"",""trial"",""time""
""fullscreenenter"",""1"",""3144""
","
","
","""event"",""trial"",""time""
""fullscreenenter"",""1"",""3144""
","
","","","738.7000000476837","","","10","18378","6167","&#9776;","elianto","#3366ff99"," "," ","1","+10","[1593.2000000476837]","1","0","1","","","","","","","",""
"pit-trial","26","355460","0.0-2.0-8.1-1.1","battery-v0.2","","""event"",""trial"",""time""
""fullscreenenter"",""1"",""3144""
","
","
","""event"",""trial"",""time""
""fullscreenenter"",""1"",""3144""
","
","","","1244.7999999523163","","","10","18378","6167","&#9776;","elianto","#3366ff99"," "," ","1","+10","[2097.899999976158]","1","0","1","","","","","","","",""
"pit-trial","27","359400","0.0-2.0-8.1-2.1","battery-v0.2","","""event"",""trial"",""time""
""fullscreenenter"",""1"",""3144""
","
","
","""event"",""trial"",""time""
""fullscreenenter"",""1"",""3144""
","
","","","1065.7000000476837","","","10","18378","6167","&#9776;","elianto","#3366ff99"," "," ","1","+10","[1920.2999999523163]","1","0","1","","","","","","","",""
"pit-trial","28","362834","0.0-2.0-8.1-3.1","battery-v0.2","","""event"",""trial"",""time""
""fullscreenenter"",""1"",""3144""
","
","
","""event"",""trial"",""time""
""fullscreenenter"",""1"",""3144""
","
","","","568.6000000238419","","","10","18378","6167","&#9776;","elianto","#3366ff99"," "," ","1","0","[1422.2999999523163]","1","0","1","","","","","","","",""
"pit-trial","29","366378","0.0-2.0-8.1-4.1","battery-v0.2","","""event"",""trial"",""time""
""fullscreenenter"",""1"",""3144""
","
","
","""event"",""trial"",""time""
""fullscreenenter"",""1"",""3144""
","
","","","677.5","","","10","18378","6167","&#9776;","elianto","#3366ff99"," "," ","1","+10","[1535.5]","1","0","1","","","","","","","",""
"pit-trial","30","369892","0.0-2.0-8.2-0.2","battery-v0.2","","""event"",""trial"",""time""
""fullscreenenter"",""1"",""3144""
","
","
","""event"",""trial"",""time""
""fullscreenenter"",""1"",""3144""
","
","","","655.7999999523163","","","10","18378","6167","&#9776;","elianto","#3366ff99"," "," ","1","+10","[1508.8999999761581]","1","0","1","","","","","","","",""
"pit-trial","31","373266","0.0-2.0-8.2-1.2","battery-v0.2","","""event"",""trial"",""time""
""fullscreenenter"",""1"",""3144""
","
","
","""event"",""trial"",""time""
""fullscreenenter"",""1"",""3144""
","
","","","512.7999999523163","","","10","18378","6167","&#9776;","elianto","#3366ff99"," "," ","1","+10","[1363.1999999284744]","1","0","1","","","","","","","",""
"pit-trial","32","376639","0.0-2.0-8.2-2.2","battery-v0.2","","""event"",""trial"",""time""
""fullscreenenter"",""1"",""3144""
","
","
","""event"",""trial"",""time""
""fullscreenenter"",""1"",""3144""
","
","","","517.5","","","10","18378","6167","&#9776;","elianto","#3366ff99"," "," ","1","+10","[1368.5]","1","0","1","","","","","","","",""
"pit-trial","33","380011","0.0-2.0-8.2-3.2","battery-v0.2","","""event"",""trial"",""time""
""fullscreenenter"",""1"",""3144""
","
","
","""event"",""trial"",""time""
""fullscreenenter"",""1"",""3144""
","
","","","509.5","","","10","18378","6167","&#9776;","elianto","#3366ff99"," "," ","1","0","[1363.3999999761581]","1","0","1","","","","","","","",""
"pit-trial","34","383365","0.0-2.0-8.2-4.2","battery-v0.2","","""event"",""trial"",""time""
""fullscreenenter"",""1"",""3144""
","
","
","""event"",""trial"",""time""
""fullscreenenter"",""1"",""3144""
","
","","","490.89999997615814","","","10","18378","6167","&#9776;","elianto","#3366ff99"," "," ","1","+10","[1346.1000000238419]","1","0","1","","","","","","","",""
"call-function","35","383368","0.0-2.0-9.0","battery-v0.2","","""event"",""trial"",""time""
""fullscreenenter"",""1"",""3144""
","
","
","""event"",""trial"",""time""
""fullscreenenter"",""1"",""3144""
","
","","","","","","","","","","","","","","","","","","","","","","","","","","",""
"pit-instructions","36","427171","0.0-2.0-10.0","battery-v0.2","","""event"",""trial"",""time""
""fullscreenenter"",""1"",""3144""
","
","
","""event"",""trial"",""time""
""fullscreenenter"",""1"",""3144""
","
","","[{""page_index"":0,""viewing_time"":8592.5},{""page_index"":1,""viewing_time"":7509.5},{""page_index"":2,""viewing_time"":9858.5},{""page_index"":3,""viewing_time"":9393.100000023842},{""page_index"":4,""viewing_time"":8447.399999976158}]","43801.60000002384","","","","","","","","","","","","","","","","","","","","","","","",""
"pit-trial","37","432034","0.0-2.0-11.0-0.0","battery-v0.2","","""event"",""trial"",""time""
""fullscreenenter"",""1"",""3144""
","
","
","""event"",""trial"",""time""
""fullscreenenter"",""1"",""3144""
","
","","","-1","","","10","18378","6167","&#9761;","elianto","#3366ff99","-1","-1","1","+10","[]","0","0","2","","","","","","","",""
"pit-trial","38","436913","0.0-2.0-11.0-1.0","battery-v0.2","","""event"",""trial"",""time""
""fullscreenenter"",""1"",""3144""
","
","
","""event"",""trial"",""time""
""fullscreenenter"",""1"",""3144""
","
","","","-1","","","10","18378","6167","&#9761;","elianto","#3366ff99","-1","-1","1","+10","[]","0","0","2","","","","","","","",""
"pit-trial","39","441794","0.0-2.0-11.0-2.0","battery-v0.2","","""event"",""trial"",""time""
""fullscreenenter"",""1"",""3144""
","
","
","""event"",""trial"",""time""
""fullscreenenter"",""1"",""3144""
","
","","","-1","","","10","18378","6167","&#9761;","elianto","#3366ff99","-1","-1","1","+10","[]","0","0","2","","","","","","","",""
"pit-trial","40","445125","0.0-2.0-11.0-3.0","battery-v0.2","","""event"",""trial"",""time""
""fullscreenenter"",""1"",""3144""
","
","
","""event"",""trial"",""time""
""fullscreenenter"",""1"",""3144""
","
","","","465.7000000476837","","","10","18378","6167","&#9761;","elianto","#3366ff99","-1"," ","0","+10","[1320.6000000238419]","1","0","2","","","","","","","",""
"pit-trial","41","448514","0.0-2.0-11.0-4.0","battery-v0.2","","""event"",""trial"",""time""
""fullscreenenter"",""1"",""3144""
","
","
","""event"",""trial"",""time""
""fullscreenenter"",""1"",""3144""
","
","","","514.2999999523163","","","10","18378","6167","&#9761;","elianto","#3366ff99","-1"," ","0","0","[1367.8999999761581]","1","0","2","","","","","","","",""
"pit-trial","42","452144","0.0-2.0-11.1-0.1","battery-v0.2","","""event"",""trial"",""time""
""fullscreenenter"",""1"",""3144""
","
","
","""event"",""trial"",""time""
""fullscreenenter"",""1"",""3144""
","
","","","758.5","","","10","18378","6167","&#9761;","elianto","#3366ff99","-1"," ","0","0","[1613.3999999761581]","1","0","2","","","","","","","",""
"pit-trial","43","455544","0.0-2.0-11.1-1.1","battery-v0.2","","""event"",""trial"",""time""
""fullscreenenter"",""1"",""3144""
","
","
","""event"",""trial"",""time""
""fullscreenenter"",""1"",""3144""
","
","","","535.3000000715256","","","10","18378","6167","&#9761;","elianto","#3366ff99","-1"," ","0","0","[1390.1000000238419]","1","0","2","","","","","","","",""
"pit-trial","44","459092","0.0-2.0-11.1-2.1","battery-v0.2","","""event"",""trial"",""time""
""fullscreenenter"",""1"",""3144""
","
","
","""event"",""trial"",""time""
""fullscreenenter"",""1"",""3144""
","
","","","689.5","","","10","18378","6167","&#9761;","elianto","#3366ff99","-1"," ","0","0","[1540.1000000238419]","1","0","2","","","","","","","",""
"pit-trial","45","462825","0.0-2.0-11.1-3.1","battery-v0.2","","""event"",""trial"",""time""
""fullscreenenter"",""1"",""3144""
","
","
","""event"",""trial"",""time""
""fullscreenenter"",""1"",""3144""
","
","","","874.8000000715256","","","10","18378","6167","&#9761;","elianto","#3366ff99","-1"," ","0","+10","[1727.7000000476837]","1","0","2","","","","","","","",""
"pit-trial","46","466531","0.0-2.0-11.1-4.1","battery-v0.2","","""event"",""trial"",""time""
""fullscreenenter"",""1"",""3144""
","
","
","""event"",""trial"",""time""
""fullscreenenter"",""1"",""3144""
","
","","","846.3999999761581","","","10","18378","6167","&#9761;","elianto","#3366ff99","-1"," ","0","0","[1697.5]","1","0","2","","","","","","","",""
"pit-trial","47","469942","0.0-2.0-11.2-0.2","battery-v0.2","","""event"",""trial"",""time""
""fullscreenenter"",""1"",""3144""
","
","
","""event"",""trial"",""time""
""fullscreenenter"",""1"",""3144""
","
","","","548.5","","","10","18378","6167","&#9761;","elianto","#3366ff99","-1"," ","0","0","[1404.2999999523163]","1","0","2","","","","","","","",""
"pit-trial","48","473174","0.0-2.0-11.2-1.2","battery-v0.2","","""event"",""trial"",""time""
""fullscreenenter"",""1"",""3144""
","
","
","""event"",""trial"",""time""
""fullscreenenter"",""1"",""3144""
","
","","","373.7000000476837","","","10","18378","6167","&#9761;","elianto","#3366ff99","-1"," ","0","0","[1224.1999999284744]","1","0","2","","","","","","","",""
"pit-trial","49","476430","0.0-2.0-11.2-2.2","battery-v0.2","","""event"",""trial"",""time""
""fullscreenenter"",""1"",""3144""
","
","
","""event"",""trial"",""time""
""fullscreenenter"",""1"",""3144""
","
","","","395.7999999523163","","","10","18378","6167","&#9761;","elianto","#3366ff99","-1"," ","0","0","[1247.6999999284744]","1","0","2","","","","","","","",""
"pit-trial","50","479603","0.0-2.0-11.2-3.2","battery-v0.2","","""event"",""trial"",""time""
""fullscreenenter"",""1"",""3144""
","
","
","""event"",""trial"",""time""
""fullscreenenter"",""1"",""3144""
","
","","","317.7000000476837","","","10","18378","6167","&#9761;","elianto","#3366ff99","-1"," ","0","+10","[1168.5]","1","0","2","","","","","","","",""
"pit-trial","51","482888","0.0-2.0-11.2-4.2","battery-v0.2","","""event"",""trial"",""time""
""fullscreenenter"",""1"",""3144""
","
","
","""event"",""trial"",""time""
""fullscreenenter"",""1"",""3144""
","
","","","427.09999990463257","","","10","18378","6167","&#9761;","elianto","#3366ff99","-1"," ","0","0","[1277.7999999523163]","1","0","2","","","","","","","",""
"pit-trial","52","486288","0.0-2.0-11.3-0.3","battery-v0.2","","""event"",""trial"",""time""
""fullscreenenter"",""1"",""3144""
","
","
","""event"",""trial"",""time""
""fullscreenenter"",""1"",""3144""
","
","","","536.1000000238419","","","10","18378","6167","&#9761;","elianto","#3366ff99","-1"," ","0","0","[1393.8999999761581]","1","0","2","","","","","","","",""
"pit-trial","53","489723","0.0-2.0-11.3-1.3","battery-v0.2","","""event"",""trial"",""time""
""fullscreenenter"",""1"",""3144""
","
","
","""event"",""trial"",""time""
""fullscreenenter"",""1"",""3144""
","
","","","571.3999999761581","","","10","18378","6167","&#9761;","elianto","#3366ff99","-1"," ","0","0","[1423.8000000715256]","1","0","2","","","","","","","",""
"pit-trial","54","493245","0.0-2.0-11.3-2.3","battery-v0.2","","""event"",""trial"",""time""
""fullscreenenter"",""1"",""3144""
","
","
","""event"",""trial"",""time""
""fullscreenenter"",""1"",""3144""
","
","","","665.1000000238419","","","10","18378","6167","&#9761;","elianto","#3366ff99","-1"," ","0","0","[1515.2000000476837]","1","0","2","","","","","","","",""
"pit-trial","55","496667","0.0-2.0-11.3-3.3","battery-v0.2","","""event"",""trial"",""time""
""fullscreenenter"",""1"",""3144""
","
","
","""event"",""trial"",""time""
""fullscreenenter"",""1"",""3144""
","
","","","562.5","","","10","18378","6167","&#9761;","elianto","#3366ff99","-1"," ","0","+10","[1417.3000000715256]","1","0","2","","","","","","","",""
"pit-trial","56","500438","0.0-2.0-11.3-4.3","battery-v0.2","","""event"",""trial"",""time""
""fullscreenenter"",""1"",""3144""
","
","
","""event"",""trial"",""time""
""fullscreenenter"",""1"",""3144""
","
","","","914.1999999284744","","","10","18378","6167","&#9761;","elianto","#3366ff99","-1"," ","0","0","[1765.5999999046326]","1","0","2","","","","","","","",""
"call-function","57","500441","0.0-2.0-12.0","battery-v0.2","","""event"",""trial"",""time""
""fullscreenenter"",""1"",""3144""
","
","
","""event"",""trial"",""time""
""fullscreenenter"",""1"",""3144""
","
","","","","","","","","","","","","","","","","","","","","","","","","","","",""
"pit-instructions","58","534132","0.0-2.0-13.0","battery-v0.2","","""event"",""trial"",""time""
""fullscreenenter"",""1"",""3144""
","
","
","""event"",""trial"",""time""
""fullscreenenter"",""1"",""3144""
","
","","[{""page_index"":0,""viewing_time"":5964.100000023842},{""page_index"":1,""viewing_time"":7336.300000071526},{""page_index"":2,""viewing_time"":4567.599999904633},{""page_index"":3,""viewing_time"":10503},{""page_index"":4,""viewing_time"":5318.100000023842}]","33689.60000002384","","","","","","","","","","","","","","","","","","","","","","","",""
"pit-trial","59","538997","0.0-2.0-14.0-0.0","battery-v0.2","","""event"",""trial"",""time""
""fullscreenenter"",""1"",""3144""
","
","
","""event"",""trial"",""time""
""fullscreenenter"",""1"",""3144""
","
","","","-1","","","10","18378","6167","&#9826;","elianto","#f73b6a7A","-1","-1","1","0","[]","0","0","3","","","","","","","",""
"pit-trial","60","543867","0.0-2.0-14.0-1.0","battery-v0.2","","""event"",""trial"",""time""
""fullscreenenter"",""1"",""3144""
","
","
","""event"",""trial"",""time""
""fullscreenenter"",""1"",""3144""
","
","","","-1","","","10","18378","6167","&#9826;","elianto","#f73b6a7A","-1","-1","1","0","[2991.100000023842]","1","0","3","","","","","","","",""
"pit-trial","61","548327","0.0-2.0-14.0-2.0","battery-v0.2","","""event"",""trial"",""time""
""fullscreenenter"",""1"",""3144""
","
","
","""event"",""trial"",""time""
""fullscreenenter"",""1"",""3144""
","
","","","1585.6000000238419","","","10","18378","6167","&#9826;","elianto","#f73b6a7A","-1"," ","0","-10","[2437.399999976158]","1","0","3","","","","","","","",""
"pit-trial","62","553197","0.0-2.0-14.0-3.0","battery-v0.2","","""event"",""trial"",""time""
""fullscreenenter"",""1"",""3144""
","
","
","""event"",""trial"",""time""
""fullscreenenter"",""1"",""3144""
","
","","","-1","","","10","18378","6167","&#9826;","elianto","#f73b6a7A","-1","-1","1","-10","[]","0","0","3","","","","","","","",""
"pit-trial","63","558088","0.0-2.0-14.0-4.0","battery-v0.2","","""event"",""trial"",""time""
""fullscreenenter"",""1"",""3144""
","
","
","""event"",""trial"",""time""
""fullscreenenter"",""1"",""3144""
","
","","","-1","","","10","18378","6167","&#9826;","elianto","#f73b6a7A","-1","-1","1","0","[]","0","0","3","","","","","","","",""
"pit-trial","64","562958","0.0-2.0-14.1-0.1","battery-v0.2","","""event"",""trial"",""time""
""fullscreenenter"",""1"",""3144""
","
","
","""event"",""trial"",""time""
""fullscreenenter"",""1"",""3144""
","
","","","-1","","","10","18378","6167","&#9826;","elianto","#f73b6a7A","-1","-1","1","0","[]","0","0","3","","","","","","","",""
"pit-trial","65","567552","0.0-2.0-14.1-1.1","battery-v0.2","","""event"",""trial"",""time""
""fullscreenenter"",""1"",""3144""
","
","
","""event"",""trial"",""time""
""fullscreenenter"",""1"",""3144""
","
","","","1729","","","10","18378","6167","&#9826;","elianto","#f73b6a7A","-1"," ","0","-10","[2586.600000023842]","1","0","3","","","","","","","",""
"pit-trial","66","572419","0.0-2.0-14.1-2.1","battery-v0.2","","""event"",""trial"",""time""
""fullscreenenter"",""1"",""3144""
","
","
","""event"",""trial"",""time""
""fullscreenenter"",""1"",""3144""
","
","","","-1","","","10","18378","6167","&#9826;","elianto","#f73b6a7A","-1","-1","1","0","[]","0","0","3","","","","","","","",""
"pit-trial","67","577292","0.0-2.0-14.1-3.1","battery-v0.2","","""event"",""trial"",""time""
""fullscreenenter"",""1"",""3144""
","
","
","""event"",""trial"",""time""
""fullscreenenter"",""1"",""3144""
","
","","","-1","","","10","18378","6167","&#9826;","elianto","#f73b6a7A","-1","-1","1","-10","[]","0","0","3","","","","","","","",""
"pit-trial","68","582165","0.0-2.0-14.1-4.1","battery-v0.2","","""event"",""trial"",""time""
""fullscreenenter"",""1"",""3144""
","
","
","""event"",""trial"",""time""
""fullscreenenter"",""1"",""3144""
","
","","","-1","","","10","18378","6167","&#9826;","elianto","#f73b6a7A","-1","-1","1","0","[]","0","0","3","","","","","","","",""
"pit-trial","69","587024","0.0-2.0-14.2-0.2","battery-v0.2","","""event"",""trial"",""time""
""fullscreenenter"",""1"",""3144""
","
","
","""event"",""trial"",""time""
""fullscreenenter"",""1"",""3144""
","
","","","-1","","","10","18378","6167","&#9826;","elianto","#f73b6a7A","-1","-1","1","0","[]","0","0","3","","","","","","","",""
"pit-trial","70","591029","0.0-2.0-14.2-1.2","battery-v0.2","","""event"",""trial"",""time""
""fullscreenenter"",""1"",""3144""
","
","
","""event"",""trial"",""time""
""fullscreenenter"",""1"",""3144""
","
","","","1130.1000000238419","","","10","18378","6167","&#9826;","elianto","#f73b6a7A","-1"," ","0","-10","[1986.5]","1","0","3","","","","","","","",""
"pit-trial","71","595899","0.0-2.0-14.2-2.2","battery-v0.2","","""event"",""trial"",""time""
""fullscreenenter"",""1"",""3144""
","
","
","""event"",""trial"",""time""
""fullscreenenter"",""1"",""3144""
","
","","","-1","","","10","18378","6167","&#9826;","elianto","#f73b6a7A","-1","-1","1","0","[]","0","0","3","","","","","","","",""
"pit-trial","72","600766","0.0-2.0-14.2-3.2","battery-v0.2","","""event"",""trial"",""time""
""fullscreenenter"",""1"",""3144""
","
","
","""event"",""trial"",""time""
""fullscreenenter"",""1"",""3144""
","
","","","-1","","","10","18378","6167","&#9826;","elianto","#f73b6a7A","-1","-1","1","-10","[]","0","0","3","","","","","","","",""
"pit-trial","73","605629","0.0-2.0-14.2-4.2","battery-v0.2","","""event"",""trial"",""time""
""fullscreenenter"",""1"",""3144""
","
","
","""event"",""trial"",""time""
""fullscreenenter"",""1"",""3144""
","
","","","-1","","","10","18378","6167","&#9826;","elianto","#f73b6a7A","-1","-1","1","0","[]","0","0","3","","","","","","","",""
"pit-trial","74","609218","0.0-2.0-14.3-0.3","battery-v0.2","","""event"",""trial"",""time""
""fullscreenenter"",""1"",""3144""
","
","
","""event"",""trial"",""time""
""fullscreenenter"",""1"",""3144""
","
","","","718.2000000476837","","","10","18378","6167","&#9826;","elianto","#f73b6a7A","-1"," ","0","-10","[1575.7000000476837]","1","0","3","","","","","","","",""
"pit-trial","75","614083","0.0-2.0-14.3-1.3","battery-v0.2","","""event"",""trial"",""time""
""fullscreenenter"",""1"",""3144""
","
","
","""event"",""trial"",""time""
""fullscreenenter"",""1"",""3144""
","
","","","-1","","","10","18378","6167","&#9826;","elianto","#f73b6a7A","-1","-1","1","0","[]","0","0","3","","","","","","","",""
"pit-trial","76","618945","0.0-2.0-14.3-2.3","battery-v0.2","","""event"",""trial"",""time""
""fullscreenenter"",""1"",""3144""
","
","
","""event"",""trial"",""time""
""fullscreenenter"",""1"",""3144""
","
","","","-1","","","10","18378","6167","&#9826;","elianto","#f73b6a7A","-1","-1","1","0","[]","0","0","3","","","","","","","",""
"pit-trial","77","623825","0.0-2.0-14.3-3.3","battery-v0.2","","""event"",""trial"",""time""
""fullscreenenter"",""1"",""3144""
","
","
","""event"",""trial"",""time""
""fullscreenenter"",""1"",""3144""
","
","","","-1","","","10","18378","6167","&#9826;","elianto","#f73b6a7A","-1","-1","1","-10","[]","0","0","3","","","","","","","",""
"pit-trial","78","628689","0.0-2.0-14.3-4.3","battery-v0.2","","""event"",""trial"",""time""
""fullscreenenter"",""1"",""3144""
","
","
","""event"",""trial"",""time""
""fullscreenenter"",""1"",""3144""
","
","","","-1","","","10","18378","6167","&#9826;","elianto","#f73b6a7A","-1","-1","1","0","[]","0","0","3","","","","","","","",""
"call-function","79","628692","0.0-2.0-15.0","battery-v0.2","","""event"",""trial"",""time""
""fullscreenenter"",""1"",""3144""
","
","
","""event"",""trial"",""time""
""fullscreenenter"",""1"",""3144""
","
","","","","","","","","","","","","","","","","","","","","","","","","","","",""
"pit-instructions","80","656328","0.0-2.0-16.0","battery-v0.2","","""event"",""trial"",""time""
""fullscreenenter"",""1"",""3144""
","
","
","""event"",""trial"",""time""
""fullscreenenter"",""1"",""3144""
","
","","[{""page_index"":0,""viewing_time"":7580.800000071526},{""page_index"":1,""viewing_time"":9664.899999976158},{""page_index"":2,""viewing_time"":4444.5},{""page_index"":3,""viewing_time"":5944.5}]","27635.200000047684","","","","","","","","","","","","","","","","","","","","","","","",""
"pit-trial","81","661218","0.0-2.0-17.0-0.0","battery-v0.2","","""event"",""trial"",""time""
""fullscreenenter"",""1"",""3144""
","
","
","""event"",""trial"",""time""
""fullscreenenter"",""1"",""3144""
","
","","","-1","","","10","18378","6167","&#9789;","elianto","#f73b6a7A"," ","-1","0","-10","[]","0","0","4","","","","","","","",""
"pit-trial","82","665284","0.0-2.0-17.0-1.0","battery-v0.2","","""event"",""trial"",""time""
""fullscreenenter"",""1"",""3144""
","
","
","""event"",""trial"",""time""
""fullscreenenter"",""1"",""3144""
","
","","","1205.1000000238419","","","10","18378","6167","&#9789;","elianto","#f73b6a7A"," "," ","1","0","[2063]","1","0","4","","","","","","","",""
"pit-trial","83","670174","0.0-2.0-17.0-2.0","battery-v0.2","","""event"",""trial"",""time""
""fullscreenenter"",""1"",""3144""
","
","
","""event"",""trial"",""time""
""fullscreenenter"",""1"",""3144""
","
","","","-1","","","10","18378","6167","&#9789;","elianto","#f73b6a7A"," ","-1","0","-10","[]","0","0","4","","","","","","","",""
"pit-trial","84","675054","0.0-2.0-17.0-3.0","battery-v0.2","","""event"",""trial"",""time""
""fullscreenenter"",""1"",""3144""
","
","
","""event"",""trial"",""time""
""fullscreenenter"",""1"",""3144""
","
","","","-1","","","10","18378","6167","&#9789;","elianto","#f73b6a7A"," ","-1","0","0","[]","0","0","4","","","","","","","",""
"pit-trial","85","679944","0.0-2.0-17.0-4.0","battery-v0.2","","""event"",""trial"",""time""
""fullscreenenter"",""1"",""3144""
","
","
","""event"",""trial"",""time""
""fullscreenenter"",""1"",""3144""
","
","","","-1","","","10","18378","6167","&#9789;","elianto","#f73b6a7A"," ","-1","0","-10","[]","0","0","4","","","","","","","",""
"pit-trial","86","684819","0.0-2.0-17.1-0.1","battery-v0.2","","""event"",""trial"",""time""
""fullscreenenter"",""1"",""3144""
","
","
","""event"",""trial"",""time""
""fullscreenenter"",""1"",""3144""
","
","","","-1","","","10","18378","6167","&#9789;","elianto","#f73b6a7A"," ","-1","0","-10","[]","0","0","4","","","","","","","",""
"pit-trial","87","689677","0.0-2.0-17.1-1.1","battery-v0.2","","""event"",""trial"",""time""
""fullscreenenter"",""1"",""3144""
","
","
","""event"",""trial"",""time""
""fullscreenenter"",""1"",""3144""
","
","","","-1","","","10","18378","6167","&#9789;","elianto","#f73b6a7A"," ","-1","0","-10","[]","0","0","4","","","","","","","",""
"pit-trial","88","694535","0.0-2.0-17.1-2.1","battery-v0.2","","""event"",""trial"",""time""
""fullscreenenter"",""1"",""3144""
","
","
","""event"",""trial"",""time""
""fullscreenenter"",""1"",""3144""
","
","","","-1","","","10","18378","6167","&#9789;","elianto","#f73b6a7A"," ","-1","0","-10","[]","0","0","4","","","","","","","",""
"pit-trial","89","699402","0.0-2.0-17.1-3.1","battery-v0.2","","""event"",""trial"",""time""
""fullscreenenter"",""1"",""3144""
","
","
","""event"",""trial"",""time""
""fullscreenenter"",""1"",""3144""
","
","","","-1","","","10","18378","6167","&#9789;","elianto","#f73b6a7A"," ","-1","0","0","[]","0","0","4","","","","","","","",""
"pit-trial","90","704266","0.0-2.0-17.1-4.1","battery-v0.2","","""event"",""trial"",""time""
""fullscreenenter"",""1"",""3144""
","
","
","""event"",""trial"",""time""
""fullscreenenter"",""1"",""3144""
","
","","","-1","","","10","18378","6167","&#9789;","elianto","#f73b6a7A"," ","-1","0","-10","[]","0","0","4","","","","","","","",""
"pit-trial","91","709140","0.0-2.0-17.2-0.2","battery-v0.2","","""event"",""trial"",""time""
""fullscreenenter"",""1"",""3144""
","
","
","""event"",""trial"",""time""
""fullscreenenter"",""1"",""3144""
","
","","","-1","","","10","18378","6167","&#9789;","elianto","#f73b6a7A"," ","-1","0","-10","[]","0","0","4","","","","","","","",""
"pit-trial","92","712486","0.0-2.0-17.2-1.2","battery-v0.2","","""event"",""trial"",""time""
""fullscreenenter"",""1"",""3144""
","
","
","""event"",""trial"",""time""
""fullscreenenter"",""1"",""3144""
","
","","","476.89999997615814","","","10","18378","6167","&#9789;","elianto","#f73b6a7A"," "," ","1","0","[1327.1000000238419]","1","0","4","","","","","","","",""
"pit-trial","93","716248","0.0-2.0-17.2-2.2","battery-v0.2","","""event"",""trial"",""time""
""fullscreenenter"",""1"",""3144""
","
","
","""event"",""trial"",""time""
""fullscreenenter"",""1"",""3144""
","
","","","902.1000000238419","","","10","18378","6167","&#9789;","elianto","#f73b6a7A"," "," ","1","0","[1757.2000000476837]","1","0","4","","","","","","","",""
"pit-trial","94","719642","0.0-2.0-17.2-3.2","battery-v0.2","","""event"",""trial"",""time""
""fullscreenenter"",""1"",""3144""
","
","
","""event"",""trial"",""time""
""fullscreenenter"",""1"",""3144""
","
","","","536.1000000238419","","","10","18378","6167","&#9789;","elianto","#f73b6a7A"," "," ","1","-10","[1390.1000000238419]","1","0","4","","","","","","","",""
"pit-trial","95","724504","0.0-2.0-17.2-4.2","battery-v0.2","","""event"",""trial"",""time""
""fullscreenenter"",""1"",""3144""
","
","
","""event"",""trial"",""time""
""fullscreenenter"",""1"",""3144""
","
","","","-1","","","10","18378","6167","&#9789;","elianto","#f73b6a7A"," ","-1","0","-10","[]","0","0","4","","","","","","","",""
"pit-trial","96","729368","0.0-2.0-17.3-0.3","battery-v0.2","","""event"",""trial"",""time""
""fullscreenenter"",""1"",""3144""
","
","
","""event"",""trial"",""time""
""fullscreenenter"",""1"",""3144""
","
","","","-1","","","10","18378","6167","&#9789;","elianto","#f73b6a7A"," ","-1","0","-10","[2878.2000000476837]","1","0","4","","","","","","","",""
"pit-trial","97","734234","0.0-2.0-17.3-1.3","battery-v0.2","","""event"",""trial"",""time""
""fullscreenenter"",""1"",""3144""
","
","
","""event"",""trial"",""time""
""fullscreenenter"",""1"",""3144""
","
","","","-1","","","10","18378","6167","&#9789;","elianto","#f73b6a7A"," ","-1","0","-10","[]","0","0","4","","","","","","","",""
"pit-trial","98","739108","0.0-2.0-17.3-2.3","battery-v0.2","","""event"",""trial"",""time""
""fullscreenenter"",""1"",""3144""
","
","
","""event"",""trial"",""time""
""fullscreenenter"",""1"",""3144""
","
","","","-1","","","10","18378","6167","&#9789;","elianto","#f73b6a7A"," ","-1","0","-10","[]","0","0","4","","","","","","","",""
"pit-trial","99","743962","0.0-2.0-17.3-3.3","battery-v0.2","","""event"",""trial"",""time""
""fullscreenenter"",""1"",""3144""
","
","
","""event"",""trial"",""time""
""fullscreenenter"",""1"",""3144""
","
","","","-1","","","10","18378","6167","&#9789;","elianto","#f73b6a7A"," ","-1","0","0","[]","0","0","4","","","","","","","",""
"pit-trial","100","748817","0.0-2.0-17.3-4.3","battery-v0.2","","""event"",""trial"",""time""
""fullscreenenter"",""1"",""3144""
","
","
","""event"",""trial"",""time""
""fullscreenenter"",""1"",""3144""
","
","","","-1","","","10","18378","6167","&#9789;","elianto","#f73b6a7A"," ","-1","0","-10","[]","0","0","4","","","","","","","",""
"call-function","101","748820","0.0-2.0-18.0","battery-v0.2","","""event"",""trial"",""time""
""fullscreenenter"",""1"",""3144""
","
","
","""event"",""trial"",""time""
""fullscreenenter"",""1"",""3144""
","
","","","","","","","","","","","","","","","","","","","","","","","","","","",""
"pit-instructions","102","825893","0.0-2.0-19.0","battery-v0.2","","""event"",""trial"",""time""
""fullscreenenter"",""1"",""3144""
","
","
","""event"",""trial"",""time""
""fullscreenenter"",""1"",""3144""
","
","","[{""page_index"":0,""viewing_time"":8461.100000023842},{""page_index"":1,""viewing_time"":6499.600000023842},{""page_index"":2,""viewing_time"":14689.599999904633},{""page_index"":3,""viewing_time"":8896.300000071526},{""page_index"":4,""viewing_time"":9181.100000023842},{""page_index"":5,""viewing_time"":8909.099999904633},{""page_index"":6,""viewing_time"":9418.400000095367},{""page_index"":7,""viewing_time"":6696.899999976158},{""page_index"":8,""viewing_time"":4317.5}]","77070.10000002384","","","","","","","","","","","","","","","","","","","","","","","",""
"pit-comprehension","103","835093","0.0-2.0-20.0-0.0","battery-v0.2","","""event"",""trial"",""time""
""fullscreenenter"",""1"",""3144""
","
","
","""event"",""trial"",""time""
""fullscreenenter"",""1"",""3144""
","
","","","9195.600000023842","[""SPACE""]","0","10","18378","6167","","","","","","","","","","","","","","","","","","",""
"pit-instructions","104","838679","0.0-2.0-20.0-1.0","battery-v0.2","","""event"",""trial"",""time""
""fullscreenenter"",""1"",""3144""
","
","
","""event"",""trial"",""time""
""fullscreenenter"",""1"",""3144""
","
","","[{""page_index"":0,""viewing_time"":3378.5}]","3378.899999976158","","","","","","","","","","","","","","","","","","","","","","","",""
"pit-comprehension","105","851066","0.0-2.0-21.0-0.0","battery-v0.2","","""event"",""trial"",""time""
""fullscreenenter"",""1"",""3144""
","
","
","""event"",""trial"",""time""
""fullscreenenter"",""1"",""3144""
","
","","","12381.900000095367","[""10""]","0","10","18378","6167","","","","","","","","","","","","","","","","","","",""
"pit-instructions","106","852888","0.0-2.0-21.0-1.0","battery-v0.2","","""event"",""trial"",""time""
""fullscreenenter"",""1"",""3144""
","
","
","""event"",""trial"",""time""
""fullscreenenter"",""1"",""3144""
","
","","[{""page_index"":0,""viewing_time"":1777.3000000715256}]","1777.8999999761581","","","","","","","","","","","","","","","","","","","","","","","",""
"pit-comprehension","107","861886","0.0-2.0-22.0-0.0","battery-v0.2","","""event"",""trial"",""time""
""fullscreenenter"",""1"",""3144""
","
","
","""event"",""trial"",""time""
""fullscreenenter"",""1"",""3144""
","
","","","8994.699999928474","[""-10""]","1","10","18378","6167","","","","","","","","","","","","","","","","","","",""
"pit-instructions","108","869966","0.0-2.0-22.0-1.0","battery-v0.2","","""event"",""trial"",""time""
""fullscreenenter"",""1"",""3144""
","
","
","""event"",""trial"",""time""
""fullscreenenter"",""1"",""3144""
","
","","[{""page_index"":0,""viewing_time"":8033.5}]","8034.100000023842","","","","","","","","","","","","","","","","","","","","","","","",""
"pit-instructions","109","871301","0.0-2.0-22.0-2.0-0.0","battery-v0.2","","""event"",""trial"",""time""
""fullscreenenter"",""1"",""3144""
","
","
","""event"",""trial"",""time""
""fullscreenenter"",""1"",""3144""
","
","","[{""page_index"":0,""viewing_time"":1331.3000000715256}]","1332","","","","","","","","","","","","","","","","","","","","","","","",""
"pit-comprehension","110","881711","0.0-2.0-22.1-0.1","battery-v0.2","","""event"",""trial"",""time""
""fullscreenenter"",""1"",""3144""
","
","
","""event"",""trial"",""time""
""fullscreenenter"",""1"",""3144""
","
","","","10407.900000095367","[""0""]","0","10","18378","6167","","","","","","","","","","","","","","","","","","",""
"pit-instructions","111","882919","0.0-2.0-22.1-1.1","battery-v0.2","","""event"",""trial"",""time""
""fullscreenenter"",""1"",""3144""
","
","
","""event"",""trial"",""time""
""fullscreenenter"",""1"",""3144""
","
","","[{""page_index"":0,""viewing_time"":1165.2999999523163}]","1165.5","","","","","","","","","","","","","","","","","","","","","","","",""
"pit-comprehension","112","901603","0.0-2.0-23.0-0.0","battery-v0.2","","""event"",""trial"",""time""
""fullscreenenter"",""1"",""3144""
","
","
","""event"",""trial"",""time""
""fullscreenenter"",""1"",""3144""
","
","","","18681.899999976158","[""False""]","1","10","18378","6167","","","","","","","","","","","","","","","","","","",""
"pit-instructions","113","904009","0.0-2.0-23.0-1.0","battery-v0.2","","""event"",""trial"",""time""
""fullscreenenter"",""1"",""3144""
","
","
","""event"",""trial"",""time""
""fullscreenenter"",""1"",""3144""
","
","","[{""page_index"":0,""viewing_time"":2361.2000000476837}]","2361.600000023842","","","","","","","","","","","","","","","","","","","","","","","",""
"pit-instructions","114","905471","0.0-2.0-23.0-2.0-0.0","battery-v0.2","","""event"",""trial"",""time""
""fullscreenenter"",""1"",""3144""
","
","
","""event"",""trial"",""time""
""fullscreenenter"",""1"",""3144""
","
","","[{""page_index"":0,""viewing_time"":1460.4000000953674}]","1460.7000000476837","","","","","","","","","","","","","","","","","","","","","","","",""
"pit-comprehension","115","914430","0.0-2.0-23.1-0.1","battery-v0.2","","""event"",""trial"",""time""
""fullscreenenter"",""1"",""3144""
","
","
","""event"",""trial"",""time""
""fullscreenenter"",""1"",""3144""
","
","","","8956.600000023842","[""True""]","0","10","18378","6167","","","","","","","","","","","","","","","","","","",""
"pit-instructions","116","916818","0.0-2.0-23.1-1.1","battery-v0.2","","""event"",""trial"",""time""
""fullscreenenter"",""1"",""3144""
","
","
","""event"",""trial"",""time""
""fullscreenenter"",""1"",""3144""
","
","","[{""page_index"":0,""viewing_time"":2343.1999999284744}]","2343.399999976158","","","","","","","","","","","","","","","","","","","","","","","",""
"pit-comprehension","117","928944","0.0-2.0-24.0-0.0","battery-v0.2","","""event"",""trial"",""time""
""fullscreenenter"",""1"",""3144""
","
","
","""event"",""trial"",""time""
""fullscreenenter"",""1"",""3144""
","
","","","12123.799999952316","[""True""]","0","10","18378","6167","","","","","","","","","","","","","","","","","","",""
"pit-instructions","118","932764","0.0-2.0-24.0-1.0","battery-v0.2","","""event"",""trial"",""time""
""fullscreenenter"",""1"",""3144""
","
","
","""event"",""trial"",""time""
""fullscreenenter"",""1"",""3144""
","
","","[{""page_index"":0,""viewing_time"":3759.399999976158}]","3759.6999999284744","","","","","","","","","","","","","","","","","","","","","","","",""
"pit-comprehension","119","944355","0.0-2.0-25.0-0.0","battery-v0.2","","""event"",""trial"",""time""
""fullscreenenter"",""1"",""3144""
","
","
","""event"",""trial"",""time""
""fullscreenenter"",""1"",""3144""
","
","","","11587.100000023842","[""True""]","0","10","18378","6167","","","","","","","","","","","","","","","","","","",""
"pit-instructions","120","947542","0.0-2.0-25.0-1.0","battery-v0.2","","""event"",""trial"",""time""
""fullscreenenter"",""1"",""3144""
","
","
","""event"",""trial"",""time""
""fullscreenenter"",""1"",""3144""
","
","","[{""page_index"":0,""viewing_time"":3138.100000023842}]","3138.4000000953674","","","","","","","","","","","","","","","","","","","","","","","",""
"pit-comprehension","121","957738","0.0-2.0-26.0-0.0","battery-v0.2","","""event"",""trial"",""time""
""fullscreenenter"",""1"",""3144""
","
","
","""event"",""trial"",""time""
""fullscreenenter"",""1"",""3144""
","
","","","10192.5","[""False""]","0","10","18378","6167","","","","","","","","","","","","","","","","","","",""
"pit-instructions","122","959755","0.0-2.0-26.0-1.0","battery-v0.2","","""event"",""trial"",""time""
""fullscreenenter"",""1"",""3144""
","
","
","""event"",""trial"",""time""
""fullscreenenter"",""1"",""3144""
","
","","[{""page_index"":0,""viewing_time"":1966.1000000238419}]","1966.6000000238419","","","","","","","","","","","","","","","","","","","","","","","",""
"pit-instructions","123","982537","0.0-3.0","battery-v0.2","","""event"",""trial"",""time""
""fullscreenenter"",""1"",""3144""
","
","
","""event"",""trial"",""time""
""fullscreenenter"",""1"",""3144""
","
","","[{""page_index"":0,""viewing_time"":3323.6999999284744},{""page_index"":1,""viewing_time"":7523.600000023842},{""page_index"":2,""viewing_time"":11931.700000047684}]","22779.399999976158","","","","","","","","","","","","","","","","","","","","","","","",""
"pit-trial","124","987269","0.0-4.0","battery-v0.2","","""event"",""trial"",""time""
""fullscreenenter"",""1"",""3144""
","
","
","""event"",""trial"",""time""
""fullscreenenter"",""1"",""3144""
","
","","","1869.3999999761581","","","10","18378","6167","&#9752;","elianto","#f73b6a7A"," "," ","1","0","[2722.399999976158]","1","1","","","18378","1","3","3","lose","go","0"
"pit-trial","125","990690","0.0-5.0","battery-v0.2","","""event"",""trial"",""time""
""fullscreenenter"",""1"",""3144""
","
","
","""event"",""trial"",""time""
""fullscreenenter"",""1"",""3144""
","
","","","549.2000000476837","","","10","18378","6167","&#9730;","elianto","#3366ff99"," "," ","1","+10","[1405.3999999761581]","1","1","","","18378","2","1","1","win","go","0"
"pit-trial","126","994160","0.0-6.0","battery-v0.2","","""event"",""trial"",""time""
""fullscreenenter"",""1"",""3144""
","
","
","""event"",""trial"",""time""
""fullscreenenter"",""1"",""3144""
","
","","","597.3999999761581","","","10","18378","6167","&#9733;","elianto","#3366ff99","-1"," ","0","+10","[1449.1000000238419]","1","1","","","18378","3","2","2","win","no-go","1"
"pit-trial","127","997591","0.0-7.0","battery-v0.2","","""event"",""trial"",""time""
""fullscreenenter"",""1"",""3144""
","
","
","""event"",""trial"",""time""
""fullscreenenter"",""1"",""3144""
","
","","","571.8999999761581","","","10","18378","6167","&#9728;","elianto","#f73b6a7A","-1"," ","0","-10","[1424.3999999761581]","1","1","","","18378","4","0","4","lose","no-go","0"
"pit-trial","128","1001000","0.0-8.0","battery-v0.2","","""event"",""trial"",""time""
""fullscreenenter"",""1"",""3144""
","
","
","""event"",""trial"",""time""
""fullscreenenter"",""1"",""3144""
","
","","","538.5999999046326","","","10","18378","6167","&#9730;","elianto","#3366ff99"," "," ","1","+10","[1393.5]","1","1","","","18378","5","1","1","win","go","0"
"pit-trial","129","1005890","0.0-9.0","battery-v0.2","","""event"",""trial"",""time""
""fullscreenenter"",""1"",""3144""
","
","
","""event"",""trial"",""time""
""fullscreenenter"",""1"",""3144""
","
","","","-1","","","10","18378","6167","&#9752;","elianto","#f73b6a7A"," ","-1","0","-10","[]","0","1","","","18378","6","3","3","lose","go","0"
"pit-trial","130","1009385","0.0-10.0","battery-v0.2","","""event"",""trial"",""time""
""fullscreenenter"",""1"",""3144""
","
","
","""event"",""trial"",""time""
""fullscreenenter"",""1"",""3144""
","
","","","633","","","10","18378","6167","&#9733;","elianto","#3366ff99","-1"," ","0","0","[1483.2000000476837]","1","1","","","18378","7","2","2","win","no-go","0"
"pit-trial","131","1013519","0.0-11.0","battery-v0.2","","""event"",""trial"",""time""
""fullscreenenter"",""1"",""3144""
","
","
","""event"",""trial"",""time""
""fullscreenenter"",""1"",""3144""
","
","","","1268.1000000238419","","","10","18378","6167","&#9728;","elianto","#f73b6a7A","-1"," ","0","-10","[2123.7999999523163]","1","1","","","18378","8","0","4","lose","no-go","0"
"pit-trial","132","1018384","0.0-12.0","battery-v0.2","","""event"",""trial"",""time""
""fullscreenenter"",""1"",""3144""
","
","
","""event"",""trial"",""time""
""fullscreenenter"",""1"",""3144""
","
","","","-1","","","10","18378","6167","&#9752;","elianto","#f73b6a7A"," ","-1","0","-10","[]","0","1","","","18378","9","3","3","lose","go","0"
"pit-trial","133","1023248","0.0-13.0","battery-v0.2","","""event"",""trial"",""time""
""fullscreenenter"",""1"",""3144""
","
","
","""event"",""trial"",""time""
""fullscreenenter"",""1"",""3144""
","
","","","-1","","","10","18378","6167","&#9728;","elianto","#f73b6a7A","-1","-1","1","0","[]","0","1","","","18378","10","0","4","lose","no-go","0"
"pit-trial","134","1026978","0.0-14.0","battery-v0.2","","""event"",""trial"",""time""
""fullscreenenter"",""1"",""3144""
","
","
","""event"",""trial"",""time""
""fullscreenenter"",""1"",""3144""
","
","","","864.4000000953674","","","10","18378","6167","&#9730;","elianto","#3366ff99"," "," ","1","0","[1721.8999999761581]","1","1","","","18378","11","1","1","win","go","1"
"pit-trial","135","1030648","0.0-15.0","battery-v0.2","","""event"",""trial"",""time""
""fullscreenenter"",""1"",""3144""
","
","
","""event"",""trial"",""time""
""fullscreenenter"",""1"",""3144""
","
","","","801","","","10","18378","6167","&#9733;","elianto","#3366ff99","-1"," ","0","+10","[1655.4000000953674]","1","1","","","18378","12","2","2","win","no-go","1"
"pit-trial","136","1034610","0.0-16.0","battery-v0.2","","""event"",""trial"",""time""
""fullscreenenter"",""1"",""3144""
","
","
","""event"",""trial"",""time""
""fullscreenenter"",""1"",""3144""
","
","","","1101.5","","","10","18378","6167","&#9730;","elianto","#3366ff99"," "," ","1","+10","[1956.1000000238419]","1","1","","","18378","13","1","1","win","go","0"
"pit-trial","137","1039482","0.0-17.0","battery-v0.2","","""event"",""trial"",""time""
""fullscreenenter"",""1"",""3144""
","
","
","""event"",""trial"",""time""
""fullscreenenter"",""1"",""3144""
","
","","","-1","","","10","18378","6167","&#9728;","elianto","#f73b6a7A","-1","-1","1","0","[]","0","1","","","18378","14","0","4","lose","no-go","0"
"pit-trial","138","1043274","0.0-18.0","battery-v0.2","","""event"",""trial"",""time""
""fullscreenenter"",""1"",""3144""
","
","
","""event"",""trial"",""time""
""fullscreenenter"",""1"",""3144""
","
","","","932","","","10","18378","6167","&#9733;","elianto","#3366ff99","-1"," ","0","0","[1786.6000000238419]","1","1","","","18378","15","2","2","win","no-go","0"
"pit-trial","139","1048144","0.0-19.0","battery-v0.2","","""event"",""trial"",""time""
""fullscreenenter"",""1"",""3144""
","
","
","""event"",""trial"",""time""
""fullscreenenter"",""1"",""3144""
","
","","","-1","","","10","18378","6167","&#9752;","elianto","#f73b6a7A"," ","-1","0","-10","[]","0","1","","","18378","16","3","3","lose","go","0"
"pit-trial","140","1053007","0.0-20.0","battery-v0.2","","""event"",""trial"",""time""
""fullscreenenter"",""1"",""3144""
","
","
","""event"",""trial"",""time""
""fullscreenenter"",""1"",""3144""
","
","","","-1","","","10","18378","6167","&#9728;","elianto","#f73b6a7A","-1","-1","1","0","[]","0","1","","","18378","17","0","4","lose","no-go","0"
"pit-trial","141","1056692","0.0-21.0","battery-v0.2","","""event"",""trial"",""time""
""fullscreenenter"",""1"",""3144""
","
","
","""event"",""trial"",""time""
""fullscreenenter"",""1"",""3144""
","
","","","825.4000000953674","","","10","18378","6167","&#9733;","elianto","#3366ff99","-1"," ","0","0","[1677.1000000238419]","1","1","","","18378","18","2","2","win","no-go","0"
"pit-trial","142","1061556","0.0-22.0","battery-v0.2","","""event"",""trial"",""time""
""fullscreenenter"",""1"",""3144""
","
","
","""event"",""trial"",""time""
""fullscreenenter"",""1"",""3144""
","
","","","-1","","","10","18378","6167","&#9752;","elianto","#f73b6a7A"," ","-1","0","-10","[]","0","1","","","18378","19","3","3","lose","go","0"
"pit-trial","143","1065259","0.0-23.0","battery-v0.2","","""event"",""trial"",""time""
""fullscreenenter"",""1"",""3144""
","
","
","""event"",""trial"",""time""
""fullscreenenter"",""1"",""3144""
","
","","","844.6000000238419","","","10","18378","6167","&#9730;","elianto","#3366ff99"," "," ","1","+10","[1697.2000000476837]","1","1","","","18378","20","1","1","win","go","0"
"pit-instructions","144","1084316","0.0-24.0","battery-v0.2","","""event"",""trial"",""time""
""fullscreenenter"",""1"",""3144""
","
","
","""event"",""trial"",""time""
""fullscreenenter"",""1"",""3144""
","
","","[{""page_index"":0,""viewing_time"":12746.899999976158},{""page_index"":1,""viewing_time"":6306.899999976158}]","19054.200000047684","","","","","","","","","","","","","","","","","","","","","","","",""
"pit-trial","145","1089184","0.0-25.0","battery-v0.2","","""event"",""trial"",""time""
""fullscreenenter"",""1"",""3144""
","
","
","""event"",""trial"",""time""
""fullscreenenter"",""1"",""3144""
","
","","","-1","","","10","18378","6167","g","elianto","#f73b6a7A","-1","-1","1","0","[]","0","2","","","18378","21","3","4","lose","no-go","0"
"pit-trial","146","1094065","0.0-26.0","battery-v0.2","","""event"",""trial"",""time""
""fullscreenenter"",""1"",""3144""
","
","
","""event"",""trial"",""time""
""fullscreenenter"",""1"",""3144""
","
","","","-1","","","10","18378","6167","a","elianto","#f73b6a7A"," ","-1","0","-10","[]","0","2","","","18378","22","2","3","lose","go","0"
"pit-trial","147","1097544","0.0-27.0","battery-v0.2","","""event"",""trial"",""time""
""fullscreenenter"",""1"",""3144""
","
","
","""event"",""trial"",""time""
""fullscreenenter"",""1"",""3144""
","
","","","606.3999999761581","","","10","18378","6167","l","elianto","#3366ff99","-1"," ","0","0","[1460.3000000715256]","1","2","","","18378","23","1","2","win","no-go","0"
"pit-trial","148","1102434","0.0-28.0","battery-v0.2","","""event"",""trial"",""time""
""fullscreenenter"",""1"",""3144""
","
","
","""event"",""trial"",""time""
""fullscreenenter"",""1"",""3144""
","
","","","-1","","","10","18378","6167","u","elianto","#f73b6a7A"," ","-1","0","-10","[]","0","2","","","18378","24","0","3","lose","go","0"
"pit-trial","149","1107304","0.0-29.0","battery-v0.2","","""event"",""trial"",""time""
""fullscreenenter"",""1"",""3144""
","
","
","""event"",""trial"",""time""
""fullscreenenter"",""1"",""3144""
","
","","","-1","","","10","18378","6167","g","elianto","#f73b6a7A","-1","-1","1","0","[]","0","2","","","18378","25","3","4","lose","no-go","0"
"pit-trial","150","1112185","0.0-30.0","battery-v0.2","","""event"",""trial"",""time""
""fullscreenenter"",""1"",""3144""
","
","
","""event"",""trial"",""time""
""fullscreenenter"",""1"",""3144""
","
","","","-1","","","10","18378","6167","a","elianto","#f73b6a7A"," ","-1","0","0","[]","0","2","","","18378","26","2","3","lose","go","1"
"pit-trial","151","1115609","0.0-31.0","battery-v0.2","","""event"",""trial"",""time""
""fullscreenenter"",""1"",""3144""
","
","
","""event"",""trial"",""time""
""fullscreenenter"",""1"",""3144""
","
","","","559.5","","","10","18378","6167","l","elianto","#3366ff99","-1"," ","0","0","[1414.3000000715256]","1","2","","","18378","27","1","2","win","no-go","0"
"pit-trial","152","1119589","0.0-32.0","battery-v0.2","","""event"",""trial"",""time""
""fullscreenenter"",""1"",""3144""
","
","
","""event"",""trial"",""time""
""fullscreenenter"",""1"",""3144""
","
","","","1116.1999999284744","","","10","18378","6167","u","elianto","#f73b6a7A"," "," ","1","-10","[1972.5]","1","2","","","18378","28","0","3","lose","go","1"
"pit-trial","153","1124456","0.0-33.0","battery-v0.2","","""event"",""trial"",""time""
""fullscreenenter"",""1"",""3144""
","
","
","""event"",""trial"",""time""
""fullscreenenter"",""1"",""3144""
","
","","","-1","","","10","18378","6167","u","elianto","#f73b6a7A"," ","-1","0","0","[]","0","2","","","18378","29","0","3","lose","go","1"
"pit-trial","154","1129323","0.0-34.0","battery-v0.2","","""event"",""trial"",""time""
""fullscreenenter"",""1"",""3144""
","
","
","""event"",""trial"",""time""
""fullscreenenter"",""1"",""3144""
","
","","","-1","","","10","18378","6167","a","elianto","#f73b6a7A"," ","-1","0","-10","[]","0","2","","","18378","30","2","3","lose","go","0"
"pit-trial","155","1132957","0.0-35.0","battery-v0.2","","""event"",""trial"",""time""
""fullscreenenter"",""1"",""3144""
","
","
","""event"",""trial"",""time""
""fullscreenenter"",""1"",""3144""
","
","","","777","","","10","18378","6167","l","elianto","#3366ff99","-1"," ","0","0","[1627.1000000238419]","1","2","","","18378","31","1","2","win","no-go","0"
"pit-trial","156","1137833","0.0-36.0","battery-v0.2","","""event"",""trial"",""time""
""fullscreenenter"",""1"",""3144""
","
","
","""event"",""trial"",""time""
""fullscreenenter"",""1"",""3144""
","
","","","-1","","","10","18378","6167","g","elianto","#f73b6a7A","-1","-1","1","0","[]","0","2","","","18378","32","3","4","lose","no-go","0"
"pit-trial","157","1142694","0.0-37.0","battery-v0.2","","""event"",""trial"",""time""
""fullscreenenter"",""1"",""3144""
","
","
","""event"",""trial"",""time""
""fullscreenenter"",""1"",""3144""
","
","","","-1","","","10","18378","6167","u","elianto","#f73b6a7A"," ","-1","0","-10","[3358.2999999523163]","1","2","","","18378","33","0","3","lose","go","0"
"pit-trial","158","1147555","0.0-38.0","battery-v0.2","","""event"",""trial"",""time""
""fullscreenenter"",""1"",""3144""
","
","
","""event"",""trial"",""time""
""fullscreenenter"",""1"",""3144""
","
","","","-1","","","10","18378","6167","l","elianto","#3366ff99","-1","-1","1","+10","[]","0","2","","","18378","34","1","2","win","no-go","0"
"pit-trial","159","1152422","0.0-39.0","battery-v0.2","","""event"",""trial"",""time""
""fullscreenenter"",""1"",""3144""
","
","
","""event"",""trial"",""time""
""fullscreenenter"",""1"",""3144""
","
","","","-1","","","10","18378","6167","a","elianto","#f73b6a7A"," ","-1","0","-10","[]","0","2","","","18378","35","2","3","lose","go","0"
"pit-trial","160","1157295","0.0-40.0","battery-v0.2","","""event"",""trial"",""time""
""fullscreenenter"",""1"",""3144""
","
","
","""event"",""trial"",""time""
""fullscreenenter"",""1"",""3144""
","
","","","-1","","","10","18378","6167","g","elianto","#f73b6a7A","-1","-1","1","0","[]","0","2","","","18378","36","3","4","lose","no-go","0"
"pit-trial","161","1162124","0.0-41.0","battery-v0.2","","""event"",""trial"",""time""
""fullscreenenter"",""1"",""3144""
","
","
","""event"",""trial"",""time""
""fullscreenenter"",""1"",""3144""
","
","","","1971.1999999284744","","","10","18378","6167","u","elianto","#f73b6a7A"," "," ","1","0","[2824.5]","1","2","","","18378","37","0","3","lose","go","0"
"pit-trial","162","1166990","0.0-42.0","battery-v0.2","","""event"",""trial"",""time""
""fullscreenenter"",""1"",""3144""
","
","
","""event"",""trial"",""time""
""fullscreenenter"",""1"",""3144""
","
","","","-1","","","10","18378","6167","a","elianto","#f73b6a7A"," ","-1","0","-10","[]","0","2","","","18378","38","2","3","lose","go","0"
"pit-trial","163","1171859","0.0-43.0","battery-v0.2","","""event"",""trial"",""time""
""fullscreenenter"",""1"",""3144""
","
","
","""event"",""trial"",""time""
""fullscreenenter"",""1"",""3144""
","
","","","-1","","","10","18378","6167","l","elianto","#3366ff99","-1","-1","1","+10","[]","0","2","","","18378","39","1","2","win","no-go","0"
"pit-trial","164","1176717","0.0-44.0","battery-v0.2","","""event"",""trial"",""time""
""fullscreenenter"",""1"",""3144""
","
","
","""event"",""trial"",""time""
""fullscreenenter"",""1"",""3144""
","
","","","-1","","","10","18378","6167","g","elianto","#f73b6a7A","-1","-1","1","-10","[]","0","2","","","18378","40","3","4","lose","no-go","1"
"pit-trial","165","1181577","0.0-45.0","battery-v0.2","","""event"",""trial"",""time""
""fullscreenenter"",""1"",""3144""
","
","
","""event"",""trial"",""time""
""fullscreenenter"",""1"",""3144""
","
","","","-1","","","10","18378","6167","a","elianto","#f73b6a7A"," ","-1","0","-10","[]","0","2","","","18378","41","2","3","lose","go","0"
"pit-trial","166","1186450","0.0-46.0","battery-v0.2","","""event"",""trial"",""time""
""fullscreenenter"",""1"",""3144""
","
","
","""event"",""trial"",""time""
""fullscreenenter"",""1"",""3144""
","
","","","-1","","","10","18378","6167","u","elianto","#f73b6a7A"," ","-1","0","-10","[]","0","2","","","18378","42","0","3","lose","go","0"
"pit-trial","167","1191321","0.0-47.0","battery-v0.2","","""event"",""trial"",""time""
""fullscreenenter"",""1"",""3144""
","
","
","""event"",""trial"",""time""
""fullscreenenter"",""1"",""3144""
","
","","","-1","","","10","18378","6167","l","elianto","#3366ff99","-1","-1","1","+10","[]","0","2","","","18378","43","1","2","win","no-go","0"
"pit-trial","168","1196190","0.0-48.0","battery-v0.2","","""event"",""trial"",""time""
""fullscreenenter"",""1"",""3144""
","
","
","""event"",""trial"",""time""
""fullscreenenter"",""1"",""3144""
","
","","","-1","","","10","18378","6167","g","elianto","#f73b6a7A","-1","-1","1","0","[]","0","2","","","18378","44","3","4","lose","no-go","0"
"pit-trial","169","1201055","0.0-49.0","battery-v0.2","","""event"",""trial"",""time""
""fullscreenenter"",""1"",""3144""
","
","
","""event"",""trial"",""time""
""fullscreenenter"",""1"",""3144""
","
","","","-1","","","10","18378","6167","u","elianto","#f73b6a7A"," ","-1","0","-10","[]","0","2","","","18378","45","0","3","lose","go","0"
"pit-trial","170","1205921","0.0-50.0","battery-v0.2","","""event"",""trial"",""time""
""fullscreenenter"",""1"",""3144""
","
","
","""event"",""trial"",""time""
""fullscreenenter"",""1"",""3144""
","
","","","-1","","","10","18378","6167","g","elianto","#f73b6a7A","-1","-1","1","0","[]","0","2","","","18378","46","3","4","lose","no-go","0"
"pit-trial","171","1210785","0.0-51.0","battery-v0.2","","""event"",""trial"",""time""
""fullscreenenter"",""1"",""3144""
","
","
","""event"",""trial"",""time""
""fullscreenenter"",""1"",""3144""
","
","","","-1","","","10","18378","6167","l","elianto","#3366ff99","-1","-1","1","+10","[]","0","2","","","18378","47","1","2","win","no-go","0"
"pit-trial","172","1214703","0.0-52.0","battery-v0.2","","""event"",""trial"",""time""
""fullscreenenter"",""1"",""3144""
","
","
","""event"",""trial"",""time""
""fullscreenenter"",""1"",""3144""
","
","","","1058.3999999761581","","","10","18378","6167","a","elianto","#f73b6a7A"," "," ","1","-10","[1911.9000000953674]","1","2","","","18378","48","2","3","lose","go","1"
"pit-trial","173","1219578","0.0-53.0","battery-v0.2","","""event"",""trial"",""time""
""fullscreenenter"",""1"",""3144""
","
","
","""event"",""trial"",""time""
""fullscreenenter"",""1"",""3144""
","
","","","-1","","","10","18378","6167","l","elianto","#3366ff99","-1","-1","1","0","[]","0","2","","","18378","49","1","2","win","no-go","1"
"pit-trial","174","1224445","0.0-54.0","battery-v0.2","","""event"",""trial"",""time""
""fullscreenenter"",""1"",""3144""
","
","
","""event"",""trial"",""time""
""fullscreenenter"",""1"",""3144""
","
","","","-1","","","10","18378","6167","a","elianto","#f73b6a7A"," ","-1","0","-10","[]","0","2","","","18378","50","2","3","lose","go","0"
"pit-trial","175","1229307","0.0-55.0","battery-v0.2","","""event"",""trial"",""time""
""fullscreenenter"",""1"",""3144""
","
","
","""event"",""trial"",""time""
""fullscreenenter"",""1"",""3144""
","
","","","-1","","","10","18378","6167","u","elianto","#f73b6a7A"," ","-1","0","-10","[]","0","2","","","18378","51","0","3","lose","go","0"
"pit-trial","176","1234182","0.0-56.0","battery-v0.2","","""event"",""trial"",""time""
""fullscreenenter"",""1"",""3144""
","
","
","""event"",""trial"",""time""
""fullscreenenter"",""1"",""3144""
","
","","","-1","","","10","18378","6167","g","elianto","#f73b6a7A","-1","-1","1","-10","[]","0","2","","","18378","52","3","4","lose","no-go","1"
"pit-trial","177","1239042","0.0-57.0","battery-v0.2","","""event"",""trial"",""time""
""fullscreenenter"",""1"",""3144""
","
","
","""event"",""trial"",""time""
""fullscreenenter"",""1"",""3144""
","
","","","-1","","","10","18378","6167","g","elianto","#f73b6a7A","-1","-1","1","-10","[]","0","2","","","18378","53","3","4","lose","no-go","1"
"pit-trial","178","1243903","0.0-58.0","battery-v0.2","","""event"",""trial"",""time""
""fullscreenenter"",""1"",""3144""
","
","
","""event"",""trial"",""time""
""fullscreenenter"",""1"",""3144""
","
","","","-1","","","10","18378","6167","a","elianto","#f73b6a7A"," ","-1","0","0","[]","0","2","","","18378","54","2","3","lose","go","1"
"pit-trial","179","1248769","0.0-59.0","battery-v0.2","","""event"",""trial"",""time""
""fullscreenenter"",""1"",""3144""
","
","
","""event"",""trial"",""time""
""fullscreenenter"",""1"",""3144""
","
","","","-1","","","10","18378","6167","l","elianto","#3366ff99","-1","-1","1","+10","[]","0","2","","","18378","55","1","2","win","no-go","0"
"pit-trial","180","1253637","0.0-60.0","battery-v0.2","","""event"",""trial"",""time""
""fullscreenenter"",""1"",""3144""
","
","
","""event"",""trial"",""time""
""fullscreenenter"",""1"",""3144""
","
","","","-1","","","10","18378","6167","u","elianto","#f73b6a7A"," ","-1","0","-10","[]","0","2","","","18378","56","0","3","lose","go","0"
"pit-trial","181","1258504","0.0-61.0","battery-v0.2","","""event"",""trial"",""time""
""fullscreenenter"",""1"",""3144""
","
","
","""event"",""trial"",""time""
""fullscreenenter"",""1"",""3144""
","
","","","-1","","","10","18378","6167","a","elianto","#f73b6a7A"," ","-1","0","-10","[]","0","2","","","18378","57","2","3","lose","go","0"
"pit-trial","182","1263376","0.0-62.0","battery-v0.2","","""event"",""trial"",""time""
""fullscreenenter"",""1"",""3144""
","
","
","""event"",""trial"",""time""
""fullscreenenter"",""1"",""3144""
","
","","","-1","","","10","18378","6167","u","elianto","#f73b6a7A"," ","-1","0","-10","[]","0","2","","","18378","58","0","3","lose","go","0"
"pit-trial","183","1268236","0.0-63.0","battery-v0.2","","""event"",""trial"",""time""
""fullscreenenter"",""1"",""3144""
","
","
","""event"",""trial"",""time""
""fullscreenenter"",""1"",""3144""
","
","","","-1","","","10","18378","6167","p","elianto","#3366ff99"," ","-1","0","0","[]","0","2","","","18378","59","4","1","win","go","0"
"pit-trial","184","1273106","0.0-64.0","battery-v0.2","","""event"",""trial"",""time""
""fullscreenenter"",""1"",""3144""
","
","
","""event"",""trial"",""time""
""fullscreenenter"",""1"",""3144""
","
","","","-1","","","10","18378","6167","g","elianto","#f73b6a7A","-1","-1","1","-10","[]","0","2","","","18378","60","3","4","lose","no-go","1"
"pit-trial","185","1277973","0.0-65.0","battery-v0.2","","""event"",""trial"",""time""
""fullscreenenter"",""1"",""3144""
","
","
","""event"",""trial"",""time""
""fullscreenenter"",""1"",""3144""
","
","","","-1","","","10","18378","6167","a","elianto","#f73b6a7A"," ","-1","0","0","[]","0","2","","","18378","61","2","3","lose","go","1"
"pit-trial","186","1282841","0.0-66.0","battery-v0.2","","""event"",""trial"",""time""
""fullscreenenter"",""1"",""3144""
","
","
","""event"",""trial"",""time""
""fullscreenenter"",""1"",""3144""
","
","","","-1","","","10","18378","6167","p","elianto","#3366ff99"," ","-1","0","0","[]","0","2","","","18378","62","4","1","win","go","0"
"pit-trial","187","1287713","0.0-67.0","battery-v0.2","","""event"",""trial"",""time""
""fullscreenenter"",""1"",""3144""
","
","
","""event"",""trial"",""time""
""fullscreenenter"",""1"",""3144""
","
","","","-1","","","10","18378","6167","g","elianto","#f73b6a7A","-1","-1","1","0","[]","0","2","","","18378","63","3","4","lose","no-go","0"
"pit-trial","188","1292583","0.0-68.0","battery-v0.2","","""event"",""trial"",""time""
""fullscreenenter"",""1"",""3144""
","
","
","""event"",""trial"",""time""
""fullscreenenter"",""1"",""3144""
","
","","","-1","","","10","18378","6167","l","elianto","#3366ff99","-1","-1","1","+10","[]","0","2","","","18378","64","1","2","win","no-go","0"
"pit-trial","189","1297447","0.0-69.0","battery-v0.2","","""event"",""trial"",""time""
""fullscreenenter"",""1"",""3144""
","
","
","""event"",""trial"",""time""
""fullscreenenter"",""1"",""3144""
","
","","","-1","","","10","18378","6167","s","elianto","#3366ff99","-1","-1","1","+10","[2947.100000023842]","1","2","","","18378","65","5","2","win","no-go","0"
"pit-trial","190","1302309","0.0-70.0","battery-v0.2","","""event"",""trial"",""time""
""fullscreenenter"",""1"",""3144""
","
","
","""event"",""trial"",""time""
""fullscreenenter"",""1"",""3144""
","
","","","-1","","","10","18378","6167","l","elianto","#3366ff99","-1","-1","1","+10","[]","0","2","","","18378","66","1","2","win","no-go","0"
"pit-trial","191","1306126","0.0-71.0","battery-v0.2","","""event"",""trial"",""time""
""fullscreenenter"",""1"",""3144""
","
","
","""event"",""trial"",""time""
""fullscreenenter"",""1"",""3144""
","
","","","958.2999999523163","","","10","18378","6167","p","elianto","#3366ff99"," "," ","1","+10","[1809]","1","2","","","18378","67","4","1","win","go","0"
"pit-trial","192","1311005","0.0-72.0","battery-v0.2","","""event"",""trial"",""time""
""fullscreenenter"",""1"",""3144""
","
","
","""event"",""trial"",""time""
""fullscreenenter"",""1"",""3144""
","
","","","-1","","","10","18378","6167","g","elianto","#f73b6a7A","-1","-1","1","0","[]","0","2","","","18378","68","3","4","lose","no-go","0"
"pit-trial","193","1315867","0.0-73.0","battery-v0.2","","""event"",""trial"",""time""
""fullscreenenter"",""1"",""3144""
","
","
","""event"",""trial"",""time""
""fullscreenenter"",""1"",""3144""
","
","","","-1","","","10","18378","6167","a","elianto","#f73b6a7A"," ","-1","0","-10","[]","0","2","","","18378","69","2","3","lose","go","0"
"pit-trial","194","1319680","0.0-74.0","battery-v0.2","","""event"",""trial"",""time""
""fullscreenenter"",""1"",""3144""
","
","
","""event"",""trial"",""time""
""fullscreenenter"",""1"",""3144""
","
","","","956.7999999523163","","","10","18378","6167","s","elianto","#3366ff99","-1"," ","0","0","[1808.8999999761581]","1","2","","","18378","70","5","2","win","no-go","0"
"pit-trial","195","1323225","0.0-75.0","battery-v0.2","","""event"",""trial"",""time""
""fullscreenenter"",""1"",""3144""
","
","
","""event"",""trial"",""time""
""fullscreenenter"",""1"",""3144""
","
","","","683","","","10","18378","6167","p","elianto","#3366ff99"," "," ","1","+10","[1539.0999999046326]","1","2","","","18378","71","4","1","win","go","0"
"pit-trial","196","1328098","0.0-76.0","battery-v0.2","","""event"",""trial"",""time""
""fullscreenenter"",""1"",""3144""
","
","
","""event"",""trial"",""time""
""fullscreenenter"",""1"",""3144""
","
","","","-1","","","10","18378","6167","l","elianto","#3366ff99","-1","-1","1","+10","[]","0","2","","","18378","72","1","2","win","no-go","0"
"pit-trial","197","1331875","0.0-77.0","battery-v0.2","","""event"",""trial"",""time""
""fullscreenenter"",""1"",""3144""
","
","
","""event"",""trial"",""time""
""fullscreenenter"",""1"",""3144""
","
","","","915.6999999284744","","","10","18378","6167","l","elianto","#3366ff99","-1"," ","0","0","[1770.8000000715256]","1","2","","","18378","73","1","2","win","no-go","0"
"pit-trial","198","1336045","0.0-78.0","battery-v0.2","","""event"",""trial"",""time""
""fullscreenenter"",""1"",""3144""
","
","
","""event"",""trial"",""time""
""fullscreenenter"",""1"",""3144""
","
","","","1305.3000000715256","","","10","18378","6167","s","elianto","#3366ff99","-1"," ","0","0","[2157.3000000715256]","1","2","","","18378","74","5","2","win","no-go","0"
"pit-trial","199","1339848","0.0-79.0","battery-v0.2","","""event"",""trial"",""time""
""fullscreenenter"",""1"",""3144""
","
","
","""event"",""trial"",""time""
""fullscreenenter"",""1"",""3144""
","
","","","939.4000000953674","","","10","18378","6167","p","elianto","#3366ff99"," "," ","1","+10","[1791.6000000238419]","1","2","","","18378","75","4","1","win","go","0"
"pit-trial","200","1344720","0.0-80.0","battery-v0.2","","""event"",""trial"",""time""
""fullscreenenter"",""1"",""3144""
","
","
","""event"",""trial"",""time""
""fullscreenenter"",""1"",""3144""
","
","","","-1","","","10","18378","6167","g","elianto","#f73b6a7A","-1","-1","1","0","[]","0","2","","","18378","76","3","4","lose","no-go","0"
"pit-trial","201","1349062","0.0-81.0","battery-v0.2","","""event"",""trial"",""time""
""fullscreenenter"",""1"",""3144""
","
","
","""event"",""trial"",""time""
""fullscreenenter"",""1"",""3144""
","
","","","1480.1999999284744","","","10","18378","6167","p","elianto","#3366ff99"," "," ","1","+10","[2333.7999999523163]","1","2","","","18378","77","4","1","win","go","0"
"pit-trial","202","1353377","0.0-82.0","battery-v0.2","","""event"",""trial"",""time""
""fullscreenenter"",""1"",""3144""
","
","
","""event"",""trial"",""time""
""fullscreenenter"",""1"",""3144""
","
","","","1456.3999999761581","","","10","18378","6167","s","elianto","#3366ff99","-1"," ","0","0","[2307.399999976158]","1","2","","","18378","78","5","2","win","no-go","0"
"pit-trial","203","1357960","0.0-83.0","battery-v0.2","","""event"",""trial"",""time""
""fullscreenenter"",""1"",""3144""
","
","
","""event"",""trial"",""time""
""fullscreenenter"",""1"",""3144""
","
","","","1725.7000000476837","","","10","18378","6167","p","elianto","#3366ff99"," "," ","1","+10","[2576.7000000476837]","1","2","","","18378","79","4","1","win","go","0"
"pit-trial","204","1362826","0.0-84.0","battery-v0.2","","""event"",""trial"",""time""
""fullscreenenter"",""1"",""3144""
","
","
","""event"",""trial"",""time""
""fullscreenenter"",""1"",""3144""
","
","","","-1","","","10","18378","6167","g","elianto","#f73b6a7A","-1","-1","1","0","[]","0","2","","","18378","80","3","4","lose","no-go","0"
"pit-trial","205","1367684","0.0-85.0","battery-v0.2","","""event"",""trial"",""time""
""fullscreenenter"",""1"",""3144""
","
","
","""event"",""trial"",""time""
""fullscreenenter"",""1"",""3144""
","
","","","-1","","","10","18378","6167","s","elianto","#3366ff99","-1","-1","1","+10","[]","0","2","","","18378","81","5","2","win","no-go","0"
"pit-trial","206","1372366","0.0-86.0","battery-v0.2","","""event"",""trial"",""time""
""fullscreenenter"",""1"",""3144""
","
","
","""event"",""trial"",""time""
""fullscreenenter"",""1"",""3144""
","
","","","1821.1000000238419","","","10","18378","6167","e","elianto","#f73b6a7A","-1"," ","0","-10","[2674.600000023842]","1","2","","","18378","82","7","4","lose","no-go","0"
"pit-trial","207","1376099","0.0-87.0","battery-v0.2","","""event"",""trial"",""time""
""fullscreenenter"",""1"",""3144""
","
","
","""event"",""trial"",""time""
""fullscreenenter"",""1"",""3144""
","
","","","870.5","","","10","18378","6167","p","elianto","#3366ff99"," "," ","1","+10","[1720.8000000715256]","1","2","","","18378","83","4","1","win","go","0"
"pit-trial","208","1380964","0.0-88.0","battery-v0.2","","""event"",""trial"",""time""
""fullscreenenter"",""1"",""3144""
","
","
","""event"",""trial"",""time""
""fullscreenenter"",""1"",""3144""
","
","","","-1","","","10","18378","6167","g","elianto","#f73b6a7A","-1","-1","1","0","[]","0","2","","","18378","84","3","4","lose","no-go","0"
"pit-trial","209","1384833","0.0-89.0","battery-v0.2","","""event"",""trial"",""time""
""fullscreenenter"",""1"",""3144""
","
","
","""event"",""trial"",""time""
""fullscreenenter"",""1"",""3144""
","
","","","1008.3000000715256","","","10","18378","6167","p","elianto","#3366ff99"," "," ","1","+10","[1860.2000000476837]","1","2","","","18378","85","4","1","win","go","0"
"pit-trial","210","1389122","0.0-90.0","battery-v0.2","","""event"",""trial"",""time""
""fullscreenenter"",""1"",""3144""
","
","
","""event"",""trial"",""time""
""fullscreenenter"",""1"",""3144""
","
","","","1431.1000000238419","","","10","18378","6167","w","elianto","#f73b6a7A"," "," ","1","-10","[2282.100000023842]","1","2","","","18378","86","6","3","lose","go","1"
"pit-trial","211","1393977","0.0-91.0","battery-v0.2","","""event"",""trial"",""time""
""fullscreenenter"",""1"",""3144""
","
","
","""event"",""trial"",""time""
""fullscreenenter"",""1"",""3144""
","
","","","-1","","","10","18378","6167","e","elianto","#f73b6a7A","-1","-1","1","0","[]","0","2","","","18378","87","7","4","lose","no-go","0"
"pit-trial","212","1397835","0.0-92.0","battery-v0.2","","""event"",""trial"",""time""
""fullscreenenter"",""1"",""3144""
","
","
","""event"",""trial"",""time""
""fullscreenenter"",""1"",""3144""
","
","","","986.5","","","10","18378","6167","s","elianto","#3366ff99","-1"," ","0","0","[1844.5]","1","2","","","18378","88","5","2","win","no-go","0"
"pit-trial","213","1402702","0.0-93.0","battery-v0.2","","""event"",""trial"",""time""
""fullscreenenter"",""1"",""3144""
","
","
","""event"",""trial"",""time""
""fullscreenenter"",""1"",""3144""
","
","","","-1","","","10","18378","6167","e","elianto","#f73b6a7A","-1","-1","1","0","[]","0","2","","","18378","89","7","4","lose","no-go","0"
"pit-trial","214","1406371","0.0-94.0","battery-v0.2","","""event"",""trial"",""time""
""fullscreenenter"",""1"",""3144""
","
","
","""event"",""trial"",""time""
""fullscreenenter"",""1"",""3144""
","
","","","804.5999999046326","","","10","18378","6167","p","elianto","#3366ff99"," "," ","1","0","[1658.1999999284744]","1","2","","","18378","90","4","1","win","go","1"
"pit-trial","215","1411235","0.0-95.0","battery-v0.2","","""event"",""trial"",""time""
""fullscreenenter"",""1"",""3144""
","
","
","""event"",""trial"",""time""
""fullscreenenter"",""1"",""3144""
","
","","","-1","","","10","18378","6167","w","elianto","#f73b6a7A"," ","-1","0","-10","[]","0","2","","","18378","91","6","3","lose","go","0"
"pit-trial","216","1416113","0.0-96.0","battery-v0.2","","""event"",""trial"",""time""
""fullscreenenter"",""1"",""3144""
","
","
","""event"",""trial"",""time""
""fullscreenenter"",""1"",""3144""
","
","","","-1","","","10","18378","6167","s","elianto","#3366ff99","-1","-1","1","+10","[]","0","2","","","18378","92","5","2","win","no-go","0"
"pit-trial","217","1420996","0.0-97.0","battery-v0.2","","""event"",""trial"",""time""
""fullscreenenter"",""1"",""3144""
","
","
","""event"",""trial"",""time""
""fullscreenenter"",""1"",""3144""
","
","","","-1","","","10","18378","6167","e","elianto","#f73b6a7A","-1","-1","1","0","[]","0","2","","","18378","93","7","4","lose","no-go","0"
"pit-trial","218","1425702","0.0-98.0","battery-v0.2","","""event"",""trial"",""time""
""fullscreenenter"",""1"",""3144""
","
","
","""event"",""trial"",""time""
""fullscreenenter"",""1"",""3144""
","
","","","1845.8000000715256","","","10","18378","6167","d","elianto","#3366ff99"," "," ","1","+10","[2699.8000000715256]","1","2","","","18378","94","8","1","win","go","0"
"pit-trial","219","1430565","0.0-99.0","battery-v0.2","","""event"",""trial"",""time""
""fullscreenenter"",""1"",""3144""
","
","
","""event"",""trial"",""time""
""fullscreenenter"",""1"",""3144""
","
","","","-1","","","10","18378","6167","s","elianto","#3366ff99","-1","-1","1","+10","[]","0","2","","","18378","95","5","2","win","no-go","0"
"pit-trial","220","1435428","0.0-100.0","battery-v0.2","","""event"",""trial"",""time""
""fullscreenenter"",""1"",""3144""
","
","
","""event"",""trial"",""time""
""fullscreenenter"",""1"",""3144""
","
","","","-1","","","10","18378","6167","w","elianto","#f73b6a7A"," ","-1","0","0","[]","0","2","","","18378","96","6","3","lose","go","1"
"pit-trial","221","1440300","0.0-101.0","battery-v0.2","","""event"",""trial"",""time""
""fullscreenenter"",""1"",""3144""
","
","
","""event"",""trial"",""time""
""fullscreenenter"",""1"",""3144""
","
","","","-1","","","10","18378","6167","s","elianto","#3366ff99","-1","-1","1","+10","[]","0","2","","","18378","97","5","2","win","no-go","0"
"pit-trial","222","1445181","0.0-102.0","battery-v0.2","","""event"",""trial"",""time""
""fullscreenenter"",""1"",""3144""
","
","
","""event"",""trial"",""time""
""fullscreenenter"",""1"",""3144""
","
","","","-1","","","10","18378","6167","w","elianto","#f73b6a7A"," ","-1","0","-10","[]","0","2","","","18378","98","6","3","lose","go","0"
"pit-trial","223","1448946","0.0-103.0","battery-v0.2","","""event"",""trial"",""time""
""fullscreenenter"",""1"",""3144""
","
","
","""event"",""trial"",""time""
""fullscreenenter"",""1"",""3144""
","
","","","890.7000000476837","","","10","18378","6167","d","elianto","#3366ff99"," "," ","1","0","[1745.7000000476837]","1","2","","","18378","99","8","1","win","go","1"
"pit-trial","224","1453807","0.0-104.0","battery-v0.2","","""event"",""trial"",""time""
""fullscreenenter"",""1"",""3144""
","
","
","""event"",""trial"",""time""
""fullscreenenter"",""1"",""3144""
","
","","","-1","","","10","18378","6167","e","elianto","#f73b6a7A","-1","-1","1","-10","[]","0","2","","","18378","100","7","4","lose","no-go","1"
"pit-trial","225","1458670","0.0-105.0","battery-v0.2","","""event"",""trial"",""time""
""fullscreenenter"",""1"",""3144""
","
","
","""event"",""trial"",""time""
""fullscreenenter"",""1"",""3144""
","
","","","-1","","","10","18378","6167","d","elianto","#3366ff99"," ","-1","0","0","[]","0","2","","","18378","101","8","1","win","go","0"
"pit-trial","226","1463525","0.0-106.0","battery-v0.2","","""event"",""trial"",""time""
""fullscreenenter"",""1"",""3144""
","
","
","""event"",""trial"",""time""
""fullscreenenter"",""1"",""3144""
","
","","","-1","","","10","18378","6167","s","elianto","#3366ff99","-1","-1","1","+10","[]","0","2","","","18378","102","5","2","win","no-go","0"
"pit-trial","227","1467967","0.0-107.0","battery-v0.2","","""event"",""trial"",""time""
""fullscreenenter"",""1"",""3144""
","
","
","""event"",""trial"",""time""
""fullscreenenter"",""1"",""3144""
","
","","","1576.2000000476837","","","10","18378","6167","j","elianto","#3366ff99"," "," ","1","0","[2430.899999976158]","1","2","","","18378","103","9","1","win","go","1"
"pit-trial","228","1472836","0.0-108.0","battery-v0.2","","""event"",""trial"",""time""
""fullscreenenter"",""1"",""3144""
","
","
","""event"",""trial"",""time""
""fullscreenenter"",""1"",""3144""
","
","","","-1","","","10","18378","6167","e","elianto","#f73b6a7A","-1","-1","1","0","[]","0","2","","","18378","104","7","4","lose","no-go","0"
"pit-trial","229","1477701","0.0-109.0","battery-v0.2","","""event"",""trial"",""time""
""fullscreenenter"",""1"",""3144""
","
","
","""event"",""trial"",""time""
""fullscreenenter"",""1"",""3144""
","
","","","-1","","","10","18378","6167","p","elianto","#3366ff99"," ","-1","0","0","[]","0","2","","","18378","105","4","1","win","go","0"
"pit-trial","230","1482573","0.0-110.0","battery-v0.2","","""event"",""trial"",""time""
""fullscreenenter"",""1"",""3144""
","
","
","""event"",""trial"",""time""
""fullscreenenter"",""1"",""3144""
","
","","","-1","","","10","18378","6167","d","elianto","#3366ff99"," ","-1","0","0","[]","0","2","","","18378","106","8","1","win","go","0"
"pit-trial","231","1487437","0.0-111.0","battery-v0.2","","""event"",""trial"",""time""
""fullscreenenter"",""1"",""3144""
","
","
","""event"",""trial"",""time""
""fullscreenenter"",""1"",""3144""
","
","","","-1","","","10","18378","6167","w","elianto","#f73b6a7A"," ","-1","0","0","[]","0","2","","","18378","107","6","3","lose","go","1"
"pit-trial","232","1492297","0.0-112.0","battery-v0.2","","""event"",""trial"",""time""
""fullscreenenter"",""1"",""3144""
","
","
","""event"",""trial"",""time""
""fullscreenenter"",""1"",""3144""
","
","","","-1","","","10","18378","6167","j","elianto","#3366ff99"," ","-1","0","0","[]","0","2","","","18378","108","9","1","win","go","0"
"pit-trial","233","1497173","0.0-113.0","battery-v0.2","","""event"",""trial"",""time""
""fullscreenenter"",""1"",""3144""
","
","
","""event"",""trial"",""time""
""fullscreenenter"",""1"",""3144""
","
","","","-1","","","10","18378","6167","d","elianto","#3366ff99"," ","-1","0","0","[2925.1999999284744]","1","2","","","18378","109","8","1","win","go","0"
"pit-trial","234","1502033","0.0-114.0","battery-v0.2","","""event"",""trial"",""time""
""fullscreenenter"",""1"",""3144""
","
","
","""event"",""trial"",""time""
""fullscreenenter"",""1"",""3144""
","
","","","-1","","","10","18378","6167","w","elianto","#f73b6a7A"," ","-1","0","0","[]","0","2","","","18378","110","6","3","lose","go","1"
"pit-trial","235","1505652","0.0-115.0","battery-v0.2","","""event"",""trial"",""time""
""fullscreenenter"",""1"",""3144""
","
","
","""event"",""trial"",""time""
""fullscreenenter"",""1"",""3144""
","
","","","758.1999999284744","","","10","18378","6167","j","elianto","#3366ff99"," "," ","1","+10","[1609.8999999761581]","1","2","","","18378","111","9","1","win","go","0"
"pit-trial","236","1509189","0.0-116.0","battery-v0.2","","""event"",""trial"",""time""
""fullscreenenter"",""1"",""3144""
","
","
","""event"",""trial"",""time""
""fullscreenenter"",""1"",""3144""
","
","","","676.3999999761581","","","10","18378","6167","s","elianto","#3366ff99","-1"," ","0","0","[1532.2000000476837]","1","2","","","18378","112","5","2","win","no-go","0"
"pit-trial","237","1512890","0.0-117.0","battery-v0.2","","""event"",""trial"",""time""
""fullscreenenter"",""1"",""3144""
","
","
","""event"",""trial"",""time""
""fullscreenenter"",""1"",""3144""
","
","","","839.1000000238419","","","10","18378","6167","d","elianto","#3366ff99"," "," ","1","0","[1689.3000000715256]","1","2","","","18378","113","8","1","win","go","1"
"pit-trial","238","1517763","0.0-118.0","battery-v0.2","","""event"",""trial"",""time""
""fullscreenenter"",""1"",""3144""
","
","
","""event"",""trial"",""time""
""fullscreenenter"",""1"",""3144""
","
","","","-1","","","10","18378","6167","w","elianto","#f73b6a7A"," ","-1","0","-10","[]","0","2","","","18378","114","6","3","lose","go","0"
"pit-trial","239","1521548","0.0-119.0","battery-v0.2","","""event"",""trial"",""time""
""fullscreenenter"",""1"",""3144""
","
","
","""event"",""trial"",""time""
""fullscreenenter"",""1"",""3144""
","
","","","917.7999999523163","","","10","18378","6167","j","elianto","#3366ff99"," "," ","1","+10","[1769.8000000715256]","1","2","","","18378","115","9","1","win","go","0"
"pit-trial","240","1526414","0.0-120.0","battery-v0.2","","""event"",""trial"",""time""
""fullscreenenter"",""1"",""3144""
","
","
","""event"",""trial"",""time""
""fullscreenenter"",""1"",""3144""
","
","","","-1","","","10","18378","6167","s","elianto","#3366ff99","-1","-1","1","0","[]","0","2","","","18378","116","5","2","win","no-go","1"
"pit-trial","241","1529944","0.0-121.0","battery-v0.2","","""event"",""trial"",""time""
""fullscreenenter"",""1"",""3144""
","
","
","""event"",""trial"",""time""
""fullscreenenter"",""1"",""3144""
","
","","","668.1999999284744","","","10","18378","6167","d","elianto","#3366ff99"," "," ","1","+10","[1519]","1","2","","","18378","117","8","1","win","go","0"
"pit-trial","242","1533711","0.0-122.0","battery-v0.2","","""event"",""trial"",""time""
""fullscreenenter"",""1"",""3144""
","
","
","""event"",""trial"",""time""
""fullscreenenter"",""1"",""3144""
","
","","","903.3999999761581","","","10","18378","6167","j","elianto","#3366ff99"," "," ","1","+10","[1762.2999999523163]","1","2","","","18378","118","9","1","win","go","0"
"pit-trial","243","1538585","0.0-123.0","battery-v0.2","","""event"",""trial"",""time""
""fullscreenenter"",""1"",""3144""
","
","
","""event"",""trial"",""time""
""fullscreenenter"",""1"",""3144""
","
","","","-1","","","10","18378","6167","w","elianto","#f73b6a7A"," ","-1","0","-10","[]","0","2","","","18378","119","6","3","lose","go","0"
"pit-trial","244","1542098","0.0-124.0","battery-v0.2","","""event"",""trial"",""time""
""fullscreenenter"",""1"",""3144""
","
","
","""event"",""trial"",""time""
""fullscreenenter"",""1"",""3144""
","
","","","654.3000000715256","","","10","18378","6167","s","elianto","#3366ff99","-1"," ","0","+10","[1507.2000000476837]","1","2","","","18378","120","5","2","win","no-go","1"
"pit-trial","245","1545715","0.0-125.0","battery-v0.2","","""event"",""trial"",""time""
""fullscreenenter"",""1"",""3144""
","
","
","""event"",""trial"",""time""
""fullscreenenter"",""1"",""3144""
","
","","","759.3999999761581","","","10","18378","6167","d","elianto","#3366ff99"," "," ","1","+10","[1611.1000000238419]","1","2","","","18378","121","8","1","win","go","0"
"pit-trial","246","1550588","0.0-126.0","battery-v0.2","","""event"",""trial"",""time""
""fullscreenenter"",""1"",""3144""
","
","
","""event"",""trial"",""time""
""fullscreenenter"",""1"",""3144""
","
","","","-1","","","10","18378","6167","e","elianto","#f73b6a7A","-1","-1","1","0","[]","0","2","","","18378","122","7","4","lose","no-go","0"
"pit-trial","247","1554948","0.0-127.0","battery-v0.2","","""event"",""trial"",""time""
""fullscreenenter"",""1"",""3144""
","
","
","""event"",""trial"",""time""
""fullscreenenter"",""1"",""3144""
","
","","","1496.3999999761581","","","10","18378","6167","j","elianto","#3366ff99"," "," ","1","+10","[2350.0999999046326]","1","2","","","18378","123","9","1","win","go","0"
"pit-trial","248","1559817","0.0-128.0","battery-v0.2","","""event"",""trial"",""time""
""fullscreenenter"",""1"",""3144""
","
","
","""event"",""trial"",""time""
""fullscreenenter"",""1"",""3144""
","
","","","-1","","","10","18378","6167","w","elianto","#f73b6a7A"," ","-1","0","0","[]","0","2","","","18378","124","6","3","lose","go","1"
"pit-trial","249","1563409","0.0-129.0","battery-v0.2","","""event"",""trial"",""time""
""fullscreenenter"",""1"",""3144""
","
","
","""event"",""trial"",""time""
""fullscreenenter"",""1"",""3144""
","
","","","732.9000000953674","","","10","18378","6167","j","elianto","#3366ff99"," "," ","1","0","[1584.7000000476837]","1","2","","","18378","125","9","1","win","go","1"
"pit-trial","250","1567008","0.0-130.0","battery-v0.2","","""event"",""trial"",""time""
""fullscreenenter"",""1"",""3144""
","
","
","""event"",""trial"",""time""
""fullscreenenter"",""1"",""3144""
","
","","","744.5","","","10","18378","6167","d","elianto","#3366ff99"," "," ","1","+10","[1599.0999999046326]","1","2","","","18378","126","8","1","win","go","0"
"pit-trial","251","1571883","0.0-131.0","battery-v0.2","","""event"",""trial"",""time""
""fullscreenenter"",""1"",""3144""
","
","
","""event"",""trial"",""time""
""fullscreenenter"",""1"",""3144""
","
","","","-1","","","10","18378","6167","e","elianto","#f73b6a7A","-1","-1","1","-10","[]","0","2","","","18378","127","7","4","lose","no-go","1"
"pit-trial","252","1576746","0.0-132.0","battery-v0.2","","""event"",""trial"",""time""
""fullscreenenter"",""1"",""3144""
","
","
","""event"",""trial"",""time""
""fullscreenenter"",""1"",""3144""
","
","","","-1","","","10","18378","6167","w","elianto","#f73b6a7A"," ","-1","0","0","[]","0","2","","","18378","128","6","3","lose","go","1"
"pit-trial","253","1581609","0.0-133.0","battery-v0.2","","""event"",""trial"",""time""
""fullscreenenter"",""1"",""3144""
","
","
","""event"",""trial"",""time""
""fullscreenenter"",""1"",""3144""
","
","","","-1","","","10","18378","6167","e","elianto","#f73b6a7A","-1","-1","1","0","[]","0","2","","","18378","129","7","4","lose","no-go","0"
"pit-trial","254","1585210","0.0-134.0","battery-v0.2","","""event"",""trial"",""time""
""fullscreenenter"",""1"",""3144""
","
","
","""event"",""trial"",""time""
""fullscreenenter"",""1"",""3144""
","
","","","743.8000000715256","","","10","18378","6167","d","elianto","#3366ff99"," "," ","1","+10","[1596.7000000476837]","1","2","","","18378","130","8","1","win","go","0"
"pit-trial","255","1588808","0.0-135.0","battery-v0.2","","""event"",""trial"",""time""
""fullscreenenter"",""1"",""3144""
","
","
","""event"",""trial"",""time""
""fullscreenenter"",""1"",""3144""
","
","","","738.6999999284744","","","10","18378","6167","j","elianto","#3366ff99"," "," ","1","+10","[1591.1999999284744]","1","2","","","18378","131","9","1","win","go","0"
"pit-trial","256","1593673","0.0-136.0","battery-v0.2","","""event"",""trial"",""time""
""fullscreenenter"",""1"",""3144""
","
","
","""event"",""trial"",""time""
""fullscreenenter"",""1"",""3144""
","
","","","-1","","","10","18378","6167","w","elianto","#f73b6a7A"," ","-1","0","0","[]","0","2","","","18378","132","6","3","lose","go","1"
"pit-trial","257","1598541","0.0-137.0","battery-v0.2","","""event"",""trial"",""time""
""fullscreenenter"",""1"",""3144""
","
","
","""event"",""trial"",""time""
""fullscreenenter"",""1"",""3144""
","
","","","-1","","","10","18378","6167","e","elianto","#f73b6a7A","-1","-1","1","-10","[]","0","2","","","18378","133","7","4","lose","no-go","1"
"pit-trial","258","1603411","0.0-138.0","battery-v0.2","","""event"",""trial"",""time""
""fullscreenenter"",""1"",""3144""
","
","
","""event"",""trial"",""time""
""fullscreenenter"",""1"",""3144""
","
","","","-1","","","10","18378","6167","w","elianto","#f73b6a7A"," ","-1","0","-10","[]","0","2","","","18378","134","6","3","lose","go","0"
"pit-trial","259","1607361","0.0-139.0","battery-v0.2","","""event"",""trial"",""time""
""fullscreenenter"",""1"",""3144""
","
","
","""event"",""trial"",""time""
""fullscreenenter"",""1"",""3144""
","
","","","1084.2999999523163","","","10","18378","6167","j","elianto","#3366ff99"," "," ","1","+10","[1939.7999999523163]","1","2","","","18378","135","9","1","win","go","0"
"pit-trial","260","1611859","0.0-140.0","battery-v0.2","","""event"",""trial"",""time""
""fullscreenenter"",""1"",""3144""
","
","
","""event"",""trial"",""time""
""fullscreenenter"",""1"",""3144""
","
","","","1636.5","","","10","18378","6167","d","elianto","#3366ff99"," "," ","1","+10","[2487.2000000476837]","1","2","","","18378","136","8","1","win","go","0"
"pit-trial","261","1616724","0.0-141.0","battery-v0.2","","""event"",""trial"",""time""
""fullscreenenter"",""1"",""3144""
","
","
","""event"",""trial"",""time""
""fullscreenenter"",""1"",""3144""
","
","","","-1","","","10","18378","6167","e","elianto","#f73b6a7A","-1","-1","1","0","[]","0","2","","","18378","137","7","4","lose","no-go","0"
"pit-trial","262","1621593","0.0-142.0","battery-v0.2","","""event"",""trial"",""time""
""fullscreenenter"",""1"",""3144""
","
","
","""event"",""trial"",""time""
""fullscreenenter"",""1"",""3144""
","
","","","-1","","","10","18378","6167","d","elianto","#3366ff99"," ","-1","0","0","[]","0","2","","","18378","138","8","1","win","go","0"
"pit-trial","263","1626460","0.0-143.0","battery-v0.2","","""event"",""trial"",""time""
""fullscreenenter"",""1"",""3144""
","
","
","""event"",""trial"",""time""
""fullscreenenter"",""1"",""3144""
","
","","","-1","","","10","18378","6167","j","elianto","#3366ff99"," ","-1","0","0","[4090.7000000476837]","1","2","","","18378","139","9","1","win","go","0"
"pit-trial","264","1631338","0.0-144.0","battery-v0.2","","""event"",""trial"",""time""
""fullscreenenter"",""1"",""3144""
","
","
","""event"",""trial"",""time""
""fullscreenenter"",""1"",""3144""
","
","","","-1","","","10","18378","6167","w","elianto","#f73b6a7A"," ","-1","0","-10","[]","0","2","","","18378","140","6","3","lose","go","0"
"pit-instructions","265","1711097","0.0-145.0","battery-v0.2","","""event"",""trial"",""time""
""fullscreenenter"",""1"",""3144""
","
","
","""event"",""trial"",""time""
""fullscreenenter"",""1"",""3144""
","
","","[{""page_index"":0,""viewing_time"":70626},{""page_index"":1,""viewing_time"":9132.699999928474}]","79759","","","","","","","","","","","","","","","","","","","","","","","",""
"pit-trial","266","1715977","0.0-146.0","battery-v0.2","","""event"",""trial"",""time""
""fullscreenenter"",""1"",""3144""
","
","
","""event"",""trial"",""time""
""fullscreenenter"",""1"",""3144""
","
","","","-1","","","10","18378","6167","t","elianto","#f73b6a7A","-1","-1","1","-10","[]","0","3","","","18378","141","2","4","lose","no-go","1"
"pit-trial","267","1720847","0.0-147.0","battery-v0.2","","""event"",""trial"",""time""
""fullscreenenter"",""1"",""3144""
","
","
","""event"",""trial"",""time""
""fullscreenenter"",""1"",""3144""
","
","","","-1","","","10","18378","6167","n","elianto","#f73b6a7A","-1","-1","1","0","[]","0","3","","","18378","142","0","4","lose","no-go","0"
"pit-trial","268","1725717","0.0-148.0","battery-v0.2","","""event"",""trial"",""time""
""fullscreenenter"",""1"",""3144""
","
","
