"trial_type","trial_index","time_elapsed","internal_node_id","task_version","subject_id","interactions","blur_events","focus_events","fullscreenenter_events","fullscreenexit_events","success","view_history","rt","responses","num_errors","age","subject","participantId","rune","rune_set","hex","correct","choice","accuracy","outcome","keys","total_keys","block","practice","value","sub","trial","stimulus","robot","valence","action","sham"
"pavlovia","0","19","0.0-0.0","battery-v0.2","","""event"",""trial"",""time""
""fullscreenenter"",""1"",""1147""
","
","
","""event"",""trial"",""time""
""fullscreenenter"",""1"",""1147""
","
","","","","","","","","","","","","","","","","","","","","","","","","","","",""
"fullscreen","1","2145","0.0-1.0","battery-v0.2","","""event"",""trial"",""time""
""fullscreenenter"",""1"",""1147""
","
","
","""event"",""trial"",""time""
""fullscreenenter"",""1"",""1147""
","
","true","","","","","","","","","","","","","","","","","","","","","","","","","",""
"pit-instructions","2","6205","0.0-2.0-0.0","battery-v0.2","","""event"",""trial"",""time""
""fullscreenenter"",""1"",""1147""
","
","
","""event"",""trial"",""time""
""fullscreenenter"",""1"",""1147""
","
","","[{""page_index"":0,""viewing_time"":4056.5}]","4057","","","","","","","","","","","","","","","","","","","","","","","",""
"pit-comprehension","3","9401","0.0-2.0-1.0-0.0","battery-v0.2","","""event"",""trial"",""time""
""fullscreenenter"",""1"",""1147""
","
","
","""event"",""trial"",""time""
""fullscreenenter"",""1"",""1147""
","
","","","3191.39999999851","[""shark""]","0","24","10546","2957","","","","","","","","","","","","","","","","","","",""
"pit-instructions","4","10485","0.0-2.0-1.0-1.0","battery-v0.2","","""event"",""trial"",""time""
""fullscreenenter"",""1"",""1147""
","
","
","""event"",""trial"",""time""
""fullscreenenter"",""1"",""1147""
","
","","[{""page_index"":0,""viewing_time"":1065.8999999985099}]","1066.3999999985099","","","","","","","","","","","","","","","","","","","","","","","",""
"pit-comprehension","5","12949","0.0-2.0-2.0-0.0","battery-v0.2","","""event"",""trial"",""time""
""fullscreenenter"",""1"",""1147""
","
","
","""event"",""trial"",""time""
""fullscreenenter"",""1"",""1147""
","
","","","2459.89999999851","[""tiger""]","0","24","10546","2957","","","","","","","","","","","","","","","","","","",""
"pit-instructions","6","14073","0.0-2.0-2.0-1.0","battery-v0.2","","""event"",""trial"",""time""
""fullscreenenter"",""1"",""1147""
","
","
","""event"",""trial"",""time""
""fullscreenenter"",""1"",""1147""
","
","","[{""page_index"":0,""viewing_time"":1119.2000000029802}]","1119.6000000014901","","","","","","","","","","","","","","","","","","","","","","","",""
"pit-instructions","7","113284","0.0-2.0-3.0","battery-v0.2","","""event"",""trial"",""time""
""fullscreenenter"",""1"",""1147""
","
","
","""event"",""trial"",""time""
""fullscreenenter"",""1"",""1147""
","
","","[{""page_index"":0,""viewing_time"":9181},{""page_index"":1,""viewing_time"":6498.10000000149},{""page_index"":2,""viewing_time"":8255.09999999404},{""page_index"":3,""viewing_time"":5922.4000000059605},{""page_index"":4,""viewing_time"":6902},{""page_index"":5,""viewing_time"":6035.89999999851},{""page_index"":6,""viewing_time"":6128.10000000149},{""page_index"":7,""viewing_time"":6557.69999999553},{""page_index"":8,""viewing_time"":7189.60000000149},{""page_index"":9,""viewing_time"":7628.39999999851},{""page_index"":10,""viewing_time"":9123.39999999851},{""page_index"":11,""viewing_time"":6614.70000000298},{""page_index"":12,""viewing_time"":6741.5},{""page_index"":13,""viewing_time"":6431.10000000149}]","99209.29999999702","","","","","","","","","","","","","","","","","","","","","","","",""
"pit-trial","8","116736","0.0-2.0-4.0-0.0","battery-v0.2","","""event"",""trial"",""time""
""fullscreenenter"",""1"",""1147""
","
","
","""event"",""trial"",""time""
""fullscreenenter"",""1"",""1147""
","
","","","593.7000000029802","","","24","10546","2957","&#9784;","elianto","#FFFFF080"," "," ","1","&#10004","[1445.2999999970198]","1","0","0","","","","","","","",""
"pit-trial","9","120143","0.0-2.0-4.1-0.1","battery-v0.2","","""event"",""trial"",""time""
""fullscreenenter"",""1"",""1147""
","
","
","""event"",""trial"",""time""
""fullscreenenter"",""1"",""1147""
","
","","","550.8000000044703","","","24","10546","2957","&#9784;","elianto","#FFFFF080"," "," ","1","&#10004","[1401.3999999985099]","1","0","0","","","","","","","",""
"pit-trial","10","123610","0.0-2.0-4.2-0.2","battery-v0.2","","""event"",""trial"",""time""
""fullscreenenter"",""1"",""1147""
","
","
","""event"",""trial"",""time""
""fullscreenenter"",""1"",""1147""
","
","","","612.6000000014901","","","24","10546","2957","&#9784;","elianto","#FFFFF080"," "," ","1","&#10004","[1463.5]","1","0","0","","","","","","","",""
"pit-trial","11","127112","0.0-2.0-4.3-0.3","battery-v0.2","","""event"",""trial"",""time""
""fullscreenenter"",""1"",""1147""
","
","
","""event"",""trial"",""time""
""fullscreenenter"",""1"",""1147""
","
","","","644.7000000029802","","","24","10546","2957","&#9784;","elianto","#FFFFF080"," "," ","1","&#10004","[1495.3999999985099]","1","0","0","","","","","","","",""
"pit-trial","12","130529","0.0-2.0-4.4-0.4","battery-v0.2","","""event"",""trial"",""time""
""fullscreenenter"",""1"",""1147""
","
","
","""event"",""trial"",""time""
""fullscreenenter"",""1"",""1147""
","
","","","558.5","","","24","10546","2957","&#9784;","elianto","#FFFFF080"," "," ","1","&#10004","[1409.8999999985099]","1","0","0","","","","","","","",""
"pit-instructions","13","156092","0.0-2.0-5.0","battery-v0.2","","""event"",""trial"",""time""
""fullscreenenter"",""1"",""1147""
","
","
","""event"",""trial"",""time""
""fullscreenenter"",""1"",""1147""
","
","","[{""page_index"":0,""viewing_time"":6613.4000000059605},{""page_index"":1,""viewing_time"":7755.79999999702},{""page_index"":2,""viewing_time"":5231},{""page_index"":3,""viewing_time"":5961.10000000149}]","25561.70000000298","","","","","","","","","","","","","","","","","","","","","","","",""
"pit-trial","14","160954","0.0-2.0-6.0-0.0","battery-v0.2","","""event"",""trial"",""time""
""fullscreenenter"",""1"",""1147""
","
","
","""event"",""trial"",""time""
""fullscreenenter"",""1"",""1147""
","
","","","-1","","","24","10546","2957","&#9854;","elianto","#FFFFF080","-1","-1","1","&#10004","[]","0","0","1","","","","","","","",""
"pit-trial","15","165812","0.0-2.0-6.1-0.1","battery-v0.2","","""event"",""trial"",""time""
""fullscreenenter"",""1"",""1147""
","
","
","""event"",""trial"",""time""
""fullscreenenter"",""1"",""1147""
","
","","","-1","","","24","10546","2957","&#9854;","elianto","#FFFFF080","-1","-1","1","&#10004","[]","0","0","1","","","","","","","",""
"pit-trial","16","170670","0.0-2.0-6.2-0.2","battery-v0.2","","""event"",""trial"",""time""
""fullscreenenter"",""1"",""1147""
","
","
","""event"",""trial"",""time""
""fullscreenenter"",""1"",""1147""
","
","","","-1","","","24","10546","2957","&#9854;","elianto","#FFFFF080","-1","-1","1","&#10004","[]","0","0","1","","","","","","","",""
"pit-trial","17","175529","0.0-2.0-6.3-0.3","battery-v0.2","","""event"",""trial"",""time""
""fullscreenenter"",""1"",""1147""
","
","
","""event"",""trial"",""time""
""fullscreenenter"",""1"",""1147""
","
","","","-1","","","24","10546","2957","&#9854;","elianto","#FFFFF080","-1","-1","1","&#10004","[]","0","0","1","","","","","","","",""
"pit-trial","18","180388","0.0-2.0-6.4-0.4","battery-v0.2","","""event"",""trial"",""time""
""fullscreenenter"",""1"",""1147""
","
","
","""event"",""trial"",""time""
""fullscreenenter"",""1"",""1147""
","
","","","-1","","","24","10546","2957","&#9854;","elianto","#FFFFF080","-1","-1","1","&#10004","[]","0","0","1","","","","","","","",""
"pit-instructions","19","308427","0.0-2.0-7.0","battery-v0.2","","""event"",""trial"",""time""
""fullscreenenter"",""1"",""1147""
","
","
","""event"",""trial"",""time""
""fullscreenenter"",""1"",""1147""
","
","","[{""page_index"":0,""viewing_time"":9839.60000000149},{""page_index"":1,""viewing_time"":7591.39999999851},{""page_index"":2,""viewing_time"":5275.70000000298},{""page_index"":3,""viewing_time"":5166.5999999940395},{""page_index"":4,""viewing_time"":6264.4000000059605},{""page_index"":5,""viewing_time"":5852},{""page_index"":6,""viewing_time"":4633.5},{""page_index"":7,""viewing_time"":9514},{""page_index"":8,""viewing_time"":9759.59999999404},{""page_index"":9,""viewing_time"":5792.70000000298},{""page_index"":10,""viewing_time"":6321.70000000298},{""page_index"":11,""viewing_time"":6609.19999999553},{""page_index"":12,""viewing_time"":6534},{""page_index"":13,""viewing_time"":6403.30000000447},{""page_index"":14,""viewing_time"":7784},{""page_index"":15,""viewing_time"":8917.59999999404},{""page_index"":16,""viewing_time"":7233.9000000059605},{""page_index"":17,""viewing_time"":8544.09999999404}]","128037.5","","","","","","","","","","","","","","","","","","","","","","","",""
"pit-trial","20","312342","0.0-2.0-8.0-0.0","battery-v0.2","","""event"",""trial"",""time""
""fullscreenenter"",""1"",""1147""
","
","
","""event"",""trial"",""time""
""fullscreenenter"",""1"",""1147""
","
","","","1057.1999999955297","","","24","10546","2957","&#9776;","elianto","#3366ff99"," "," ","1","+10","[1908.7000000029802]","1","0","1","","","","","","","",""
"pit-trial","21","315616","0.0-2.0-8.0-1.0","battery-v0.2","","""event"",""trial"",""time""
""fullscreenenter"",""1"",""1147""
","
","
","""event"",""trial"",""time""
""fullscreenenter"",""1"",""1147""
","
","","","420.6000000014901","","","24","10546","2957","&#9776;","elianto","#3366ff99"," "," ","1","+10","[1271.7000000029802]","1","0","1","","","","","","","",""
"pit-trial","22","318875","0.0-2.0-8.0-2.0","battery-v0.2","","""event"",""trial"",""time""
""fullscreenenter"",""1"",""1147""
","
","
","""event"",""trial"",""time""
""fullscreenenter"",""1"",""1147""
","
","","","402.1000000014901","","","24","10546","2957","&#9776;","elianto","#3366ff99"," "," ","1","+10","[1253.1000000014901]","1","0","1","","","","","","","",""
"pit-trial","23","321963","0.0-2.0-8.0-3.0","battery-v0.2","","""event"",""trial"",""time""
""fullscreenenter"",""1"",""1147""
","
","
","""event"",""trial"",""time""
""fullscreenenter"",""1"",""1147""
","
","","","231.89999999850988","","","24","10546","2957","&#9776;","elianto","#3366ff99"," "," ","1","0","[1082.5]","1","0","1","","","","","","","",""
"pit-trial","24","325173","0.0-2.0-8.0-4.0","battery-v0.2","","""event"",""trial"",""time""
""fullscreenenter"",""1"",""1147""
","
","
","""event"",""trial"",""time""
""fullscreenenter"",""1"",""1147""
","
","","","355.79999999701977","","","24","10546","2957","&#9776;","elianto","#3366ff99"," "," ","1","+10","[1207]","1","0","1","","","","","","","",""
"pit-trial","25","328660","0.0-2.0-8.1-0.1","battery-v0.2","","""event"",""trial"",""time""
""fullscreenenter"",""1"",""1147""
","
","
","""event"",""trial"",""time""
""fullscreenenter"",""1"",""1147""
","
","","","631.1000000014901","","","24","10546","2957","&#9776;","elianto","#3366ff99"," "," ","1","+10","[1481.8000000044703]","1","0","1","","","","","","","",""
"pit-trial","26","331950","0.0-2.0-8.1-1.1","battery-v0.2","","""event"",""trial"",""time""
""fullscreenenter"",""1"",""1147""
","
","
","""event"",""trial"",""time""
""fullscreenenter"",""1"",""1147""
","
","","","434.6000000014901","","","24","10546","2957","&#9776;","elianto","#3366ff99"," "," ","1","+10","[1286.5]","1","0","1","","","","","","","",""
"pit-trial","27","335072","0.0-2.0-8.1-2.1","battery-v0.2","","""event"",""trial"",""time""
""fullscreenenter"",""1"",""1147""
","
","
","""event"",""trial"",""time""
""fullscreenenter"",""1"",""1147""
","
","","","264.30000000447035","","","24","10546","2957","&#9776;","elianto","#3366ff99"," "," ","1","+10","[1115.2000000029802]","1","0","1","","","","","","","",""
"pit-trial","28","338149","0.0-2.0-8.1-3.1","battery-v0.2","","""event"",""trial"",""time""
""fullscreenenter"",""1"",""1147""
","
","
","""event"",""trial"",""time""
""fullscreenenter"",""1"",""1147""
","
","","","220.89999999850988","","","24","10546","2957","&#9776;","elianto","#3366ff99"," "," ","1","0","[1071.6000000014901]","1","0","1","","","","","","","",""
"pit-trial","29","341185","0.0-2.0-8.1-4.1","battery-v0.2","","""event"",""trial"",""time""
""fullscreenenter"",""1"",""1147""
","
","
","""event"",""trial"",""time""
""fullscreenenter"",""1"",""1147""
","
","","","179","","","24","10546","2957","&#9776;","elianto","#3366ff99"," "," ","1","+10","[1031]","1","0","1","","","","","","","",""
"pit-trial","30","344518","0.0-2.0-8.2-0.2","battery-v0.2","","""event"",""trial"",""time""
""fullscreenenter"",""1"",""1147""
","
","
","""event"",""trial"",""time""
""fullscreenenter"",""1"",""1147""
","
","","","476.5","","","24","10546","2957","&#9776;","elianto","#3366ff99"," "," ","1","+10","[1329.2000000029802]","1","0","1","","","","","","","",""
"pit-trial","31","347836","0.0-2.0-8.2-1.2","battery-v0.2","","""event"",""trial"",""time""
""fullscreenenter"",""1"",""1147""
","
","
","""event"",""trial"",""time""
""fullscreenenter"",""1"",""1147""
","
","","","459.20000000298023","","","24","10546","2957","&#9776;","elianto","#3366ff99"," "," ","1","+10","[1310.5]","1","0","1","","","","","","","",""
"pit-trial","32","351238","0.0-2.0-8.2-2.2","battery-v0.2","","""event"",""trial"",""time""
""fullscreenenter"",""1"",""1147""
","
","
","""event"",""trial"",""time""
""fullscreenenter"",""1"",""1147""
","
","","","543.8999999985099","","","24","10546","2957","&#9776;","elianto","#3366ff99"," "," ","1","+10","[1394.3000000044703]","1","0","1","","","","","","","",""
"pit-trial","33","354550","0.0-2.0-8.2-3.2","battery-v0.2","","""event"",""trial"",""time""
""fullscreenenter"",""1"",""1147""
","
","
","""event"",""trial"",""time""
""fullscreenenter"",""1"",""1147""
","
","","","457.20000000298023","","","24","10546","2957","&#9776;","elianto","#3366ff99"," "," ","1","0","[1307.7000000029802]","1","0","1","","","","","","","",""
"pit-trial","34","357857","0.0-2.0-8.2-4.2","battery-v0.2","","""event"",""trial"",""time""
""fullscreenenter"",""1"",""1147""
","
","
","""event"",""trial"",""time""
""fullscreenenter"",""1"",""1147""
","
","","","449.8999999985099","","","24","10546","2957","&#9776;","elianto","#3366ff99"," "," ","1","+10","[1300.3999999985099]","1","0","1","","","","","","","",""
"call-function","35","357859","0.0-2.0-9.0","battery-v0.2","","""event"",""trial"",""time""
""fullscreenenter"",""1"",""1147""
","
","
","""event"",""trial"",""time""
""fullscreenenter"",""1"",""1147""
","
","","","","","","","","","","","","","","","","","","","","","","","","","","",""
"pit-instructions","36","395567","0.0-2.0-10.0","battery-v0.2","","""event"",""trial"",""time""
""fullscreenenter"",""1"",""1147""
","
","
","""event"",""trial"",""time""
""fullscreenenter"",""1"",""1147""
","
","","[{""page_index"":0,""viewing_time"":5695.4000000059605},{""page_index"":1,""viewing_time"":6876.199999988079},{""page_index"":2,""viewing_time"":9139.90000000596},{""page_index"":3,""viewing_time"":8740},{""page_index"":4,""viewing_time"":7255.4000000059605}]","37707.5","","","","","","","","","","","","","","","","","","","","","","","",""
"pit-trial","37","399367","0.0-2.0-11.0-0.0","battery-v0.2","","""event"",""trial"",""time""
""fullscreenenter"",""1"",""1147""
","
","
","""event"",""trial"",""time""
""fullscreenenter"",""1"",""1147""
","
","","","943.5999999940395","","","24","10546","2957","&#9761;","elianto","#3366ff99","-1"," ","0","0","[1795.4000000059605]","1","0","2","","","","","","","",""
"pit-trial","38","404228","0.0-2.0-11.0-1.0","battery-v0.2","","""event"",""trial"",""time""
""fullscreenenter"",""1"",""1147""
","
","
","""event"",""trial"",""time""
""fullscreenenter"",""1"",""1147""
","
","","","-1","","","24","10546","2957","&#9761;","elianto","#3366ff99","-1","-1","1","+10","[]","0","0","2","","","","","","","",""
"pit-trial","39","409084","0.0-2.0-11.0-2.0","battery-v0.2","","""event"",""trial"",""time""
""fullscreenenter"",""1"",""1147""
","
","
","""event"",""trial"",""time""
""fullscreenenter"",""1"",""1147""
","
","","","-1","","","24","10546","2957","&#9761;","elianto","#3366ff99","-1","-1","1","+10","[]","0","0","2","","","","","","","",""
"pit-trial","40","413103","0.0-2.0-11.0-3.0","battery-v0.2","","""event"",""trial"",""time""
""fullscreenenter"",""1"",""1147""
","
","
","""event"",""trial"",""time""
""fullscreenenter"",""1"",""1147""
","
","","","1162.3999999910593","","","24","10546","2957","&#9761;","elianto","#3366ff99","-1"," ","0","+10","[2013.0999999940395]","1","0","2","","","","","","","",""
"pit-trial","41","416542","0.0-2.0-11.0-4.0","battery-v0.2","","""event"",""trial"",""time""
""fullscreenenter"",""1"",""1147""
","
","
","""event"",""trial"",""time""
""fullscreenenter"",""1"",""1147""
","
","","","581.7000000029802","","","24","10546","2957","&#9761;","elianto","#3366ff99","-1"," ","0","0","[1432.2999999970198]","1","0","2","","","","","","","",""
"pit-trial","42","419633","0.0-2.0-11.1-0.1","battery-v0.2","","""event"",""trial"",""time""
""fullscreenenter"",""1"",""1147""
","
","
","""event"",""trial"",""time""
""fullscreenenter"",""1"",""1147""
","
","","","233.79999999701977","","","24","10546","2957","&#9761;","elianto","#3366ff99","-1"," ","0","0","[1084.7999999970198]","1","0","2","","","","","","","",""
"pit-trial","43","424494","0.0-2.0-11.1-1.1","battery-v0.2","","""event"",""trial"",""time""
""fullscreenenter"",""1"",""1147""
","
","
","""event"",""trial"",""time""
""fullscreenenter"",""1"",""1147""
","
","","","-1","","","24","10546","2957","&#9761;","elianto","#3366ff99","-1","-1","1","+10","[]","0","0","2","","","","","","","",""
"pit-trial","44","427777","0.0-2.0-11.1-2.1","battery-v0.2","","""event"",""trial"",""time""
""fullscreenenter"",""1"",""1147""
","
","
","""event"",""trial"",""time""
""fullscreenenter"",""1"",""1147""
","
","","","427.3999999910593","","","24","10546","2957","&#9761;","elianto","#3366ff99","-1"," ","0","0","[1278]","1","0","2","","","","","","","",""
"pit-trial","45","430890","0.0-2.0-11.1-3.1","battery-v0.2","","""event"",""trial"",""time""
""fullscreenenter"",""1"",""1147""
","
","
","""event"",""trial"",""time""
""fullscreenenter"",""1"",""1147""
","
","","","255.29999999701977","","","24","10546","2957","&#9761;","elianto","#3366ff99","-1"," ","0","+10","[431.70000000298023,1106.5]","2","0","2","","","","","","","",""
"pit-trial","46","435748","0.0-2.0-11.1-4.1","battery-v0.2","","""event"",""trial"",""time""
""fullscreenenter"",""1"",""1147""
","
","
","""event"",""trial"",""time""
""fullscreenenter"",""1"",""1147""
","
","","","-1","","","24","10546","2957","&#9761;","elianto","#3366ff99","-1","-1","1","+10","[]","0","0","2","","","","","","","",""
"pit-trial","47","440610","0.0-2.0-11.2-0.2","battery-v0.2","","""event"",""trial"",""time""
""fullscreenenter"",""1"",""1147""
","
","
","""event"",""trial"",""time""
""fullscreenenter"",""1"",""1147""
","
","","","-1","","","24","10546","2957","&#9761;","elianto","#3366ff99","-1","-1","1","+10","[]","0","0","2","","","","","","","",""
"pit-trial","48","445471","0.0-2.0-11.2-1.2","battery-v0.2","","""event"",""trial"",""time""
""fullscreenenter"",""1"",""1147""
","
","
","""event"",""trial"",""time""
""fullscreenenter"",""1"",""1147""
","
","","","-1","","","24","10546","2957","&#9761;","elianto","#3366ff99","-1","-1","1","+10","[]","0","0","2","","","","","","","",""
"pit-trial","49","450330","0.0-2.0-11.2-2.2","battery-v0.2","","""event"",""trial"",""time""
""fullscreenenter"",""1"",""1147""
","
","
","""event"",""trial"",""time""
""fullscreenenter"",""1"",""1147""
","
","","","-1","","","24","10546","2957","&#9761;","elianto","#3366ff99","-1","-1","1","+10","[]","0","0","2","","","","","","","",""
"pit-trial","50","455189","0.0-2.0-11.2-3.2","battery-v0.2","","""event"",""trial"",""time""
""fullscreenenter"",""1"",""1147""
","
","
","""event"",""trial"",""time""
""fullscreenenter"",""1"",""1147""
","
","","","-1","","","24","10546","2957","&#9761;","elianto","#3366ff99","-1","-1","1","0","[]","0","0","2","","","","","","","",""
"pit-trial","51","460044","0.0-2.0-11.2-4.2","battery-v0.2","","""event"",""trial"",""time""
""fullscreenenter"",""1"",""1147""
","
","
","""event"",""trial"",""time""
""fullscreenenter"",""1"",""1147""
","
","","","-1","","","24","10546","2957","&#9761;","elianto","#3366ff99","-1","-1","1","+10","[]","0","0","2","","","","","","","",""
"pit-trial","52","464906","0.0-2.0-11.3-0.3","battery-v0.2","","""event"",""trial"",""time""
""fullscreenenter"",""1"",""1147""
","
","
","""event"",""trial"",""time""
""fullscreenenter"",""1"",""1147""
","
","","","-1","","","24","10546","2957","&#9761;","elianto","#3366ff99","-1","-1","1","+10","[]","0","0","2","","","","","","","",""
"pit-trial","53","469761","0.0-2.0-11.3-1.3","battery-v0.2","","""event"",""trial"",""time""
""fullscreenenter"",""1"",""1147""
","
","
","""event"",""trial"",""time""
""fullscreenenter"",""1"",""1147""
","
","","","-1","","","24","10546","2957","&#9761;","elianto","#3366ff99","-1","-1","1","+10","[]","0","0","2","","","","","","","",""
"pit-trial","54","474618","0.0-2.0-11.3-2.3","battery-v0.2","","""event"",""trial"",""time""
""fullscreenenter"",""1"",""1147""
","
","
","""event"",""trial"",""time""
""fullscreenenter"",""1"",""1147""
","
","","","-1","","","24","10546","2957","&#9761;","elianto","#3366ff99","-1","-1","1","+10","[]","0","0","2","","","","","","","",""
"pit-trial","55","479475","0.0-2.0-11.3-3.3","battery-v0.2","","""event"",""trial"",""time""
""fullscreenenter"",""1"",""1147""
","
","
","""event"",""trial"",""time""
""fullscreenenter"",""1"",""1147""
","
","","","-1","","","24","10546","2957","&#9761;","elianto","#3366ff99","-1","-1","1","0","[]","0","0","2","","","","","","","",""
"pit-trial","56","484335","0.0-2.0-11.3-4.3","battery-v0.2","","""event"",""trial"",""time""
""fullscreenenter"",""1"",""1147""
","
","
","""event"",""trial"",""time""
""fullscreenenter"",""1"",""1147""
","
","","","-1","","","24","10546","2957","&#9761;","elianto","#3366ff99","-1","-1","1","+10","[]","0","0","2","","","","","","","",""
"call-function","57","484337","0.0-2.0-12.0","battery-v0.2","","""event"",""trial"",""time""
""fullscreenenter"",""1"",""1147""
","
","
","""event"",""trial"",""time""
""fullscreenenter"",""1"",""1147""
","
","","","","","","","","","","","","","","","","","","","","","","","","","","",""
"pit-instructions","58","529343","0.0-2.0-13.0","battery-v0.2","","""event"",""trial"",""time""
""fullscreenenter"",""1"",""1147""
","
","
","""event"",""trial"",""time""
""fullscreenenter"",""1"",""1147""
","
","","[{""page_index"":0,""viewing_time"":7078.5},{""page_index"":1,""viewing_time"":8925.70000000298},{""page_index"":2,""viewing_time"":4246.0999999940395},{""page_index"":3,""viewing_time"":17128.10000000894},{""page_index"":4,""viewing_time"":7627.899999991059}]","45006.70000000298","","","","","","","","","","","","","","","","","","","","","","","",""
"pit-trial","59","534201","0.0-2.0-14.0-0.0","battery-v0.2","","""event"",""trial"",""time""
""fullscreenenter"",""1"",""1147""
","
","
","""event"",""trial"",""time""
""fullscreenenter"",""1"",""1147""
","
","","","-1","","","24","10546","2957","&#9826;","elianto","#f73b6a7A","-1","-1","1","0","[]","0","0","3","","","","","","","",""
"pit-trial","60","537776","0.0-2.0-14.0-1.0","battery-v0.2","","""event"",""trial"",""time""
""fullscreenenter"",""1"",""1147""
","
","
","""event"",""trial"",""time""
""fullscreenenter"",""1"",""1147""
","
","","","720","","","24","10546","2957","&#9826;","elianto","#f73b6a7A","-1"," ","0","-10","[1570.7999999970198]","1","0","3","","","","","","","",""
"pit-trial","61","542637","0.0-2.0-14.0-2.0","battery-v0.2","","""event"",""trial"",""time""
""fullscreenenter"",""1"",""1147""
","
","
","""event"",""trial"",""time""
""fullscreenenter"",""1"",""1147""
","
","","","-1","","","24","10546","2957","&#9826;","elianto","#f73b6a7A","-1","-1","1","0","[]","0","0","3","","","","","","","",""
"pit-trial","62","547495","0.0-2.0-14.0-3.0","battery-v0.2","","""event"",""trial"",""time""
""fullscreenenter"",""1"",""1147""
","
","
","""event"",""trial"",""time""
""fullscreenenter"",""1"",""1147""
","
","","","-1","","","24","10546","2957","&#9826;","elianto","#f73b6a7A","-1","-1","1","-10","[]","0","0","3","","","","","","","",""
"pit-trial","63","552354","0.0-2.0-14.0-4.0","battery-v0.2","","""event"",""trial"",""time""
""fullscreenenter"",""1"",""1147""
","
","
","""event"",""trial"",""time""
""fullscreenenter"",""1"",""1147""
","
","","","-1","","","24","10546","2957","&#9826;","elianto","#f73b6a7A","-1","-1","1","0","[]","0","0","3","","","","","","","",""
"pit-trial","64","557209","0.0-2.0-14.1-0.1","battery-v0.2","","""event"",""trial"",""time""
""fullscreenenter"",""1"",""1147""
","
","
","""event"",""trial"",""time""
""fullscreenenter"",""1"",""1147""
","
","","","-1","","","24","10546","2957","&#9826;","elianto","#f73b6a7A","-1","-1","1","0","[]","0","0","3","","","","","","","",""
"pit-trial","65","562067","0.0-2.0-14.1-1.1","battery-v0.2","","""event"",""trial"",""time""
""fullscreenenter"",""1"",""1147""
","
","
","""event"",""trial"",""time""
""fullscreenenter"",""1"",""1147""
","
","","","-1","","","24","10546","2957","&#9826;","elianto","#f73b6a7A","-1","-1","1","0","[]","0","0","3","","","","","","","",""
"pit-trial","66","566921","0.0-2.0-14.1-2.1","battery-v0.2","","""event"",""trial"",""time""
""fullscreenenter"",""1"",""1147""
","
","
","""event"",""trial"",""time""
""fullscreenenter"",""1"",""1147""
","
","","","-1","","","24","10546","2957","&#9826;","elianto","#f73b6a7A","-1","-1","1","0","[]","0","0","3","","","","","","","",""
"pit-trial","67","571779","0.0-2.0-14.1-3.1","battery-v0.2","","""event"",""trial"",""time""
""fullscreenenter"",""1"",""1147""
","
","
","""event"",""trial"",""time""
""fullscreenenter"",""1"",""1147""
","
","","","-1","","","24","10546","2957","&#9826;","elianto","#f73b6a7A","-1","-1","1","-10","[]","0","0","3","","","","","","","",""
"pit-trial","68","576637","0.0-2.0-14.1-4.1","battery-v0.2","","""event"",""trial"",""time""
""fullscreenenter"",""1"",""1147""
","
","
","""event"",""trial"",""time""
""fullscreenenter"",""1"",""1147""
","
","","","-1","","","24","10546","2957","&#9826;","elianto","#f73b6a7A","-1","-1","1","0","[]","0","0","3","","","","","","","",""
"pit-trial","69","581496","0.0-2.0-14.2-0.2","battery-v0.2","","""event"",""trial"",""time""
""fullscreenenter"",""1"",""1147""
","
","
","""event"",""trial"",""time""
""fullscreenenter"",""1"",""1147""
","
","","","-1","","","24","10546","2957","&#9826;","elianto","#f73b6a7A","-1","-1","1","0","[]","0","0","3","","","","","","","",""
"pit-trial","70","586355","0.0-2.0-14.2-1.2","battery-v0.2","","""event"",""trial"",""time""
""fullscreenenter"",""1"",""1147""
","
","
","""event"",""trial"",""time""
""fullscreenenter"",""1"",""1147""
","
","","","-1","","","24","10546","2957","&#9826;","elianto","#f73b6a7A","-1","-1","1","0","[]","0","0","3","","","","","","","",""
"pit-trial","71","591213","0.0-2.0-14.2-2.2","battery-v0.2","","""event"",""trial"",""time""
""fullscreenenter"",""1"",""1147""
","
","
","""event"",""trial"",""time""
""fullscreenenter"",""1"",""1147""
","
","","","-1","","","24","10546","2957","&#9826;","elianto","#f73b6a7A","-1","-1","1","0","[]","0","0","3","","","","","","","",""
"pit-trial","72","596073","0.0-2.0-14.2-3.2","battery-v0.2","","""event"",""trial"",""time""
""fullscreenenter"",""1"",""1147""
","
","
","""event"",""trial"",""time""
""fullscreenenter"",""1"",""1147""
","
","","","-1","","","24","10546","2957","&#9826;","elianto","#f73b6a7A","-1","-1","1","-10","[]","0","0","3","","","","","","","",""
"pit-trial","73","600936","0.0-2.0-14.2-4.2","battery-v0.2","","""event"",""trial"",""time""
""fullscreenenter"",""1"",""1147""
","
","
","""event"",""trial"",""time""
""fullscreenenter"",""1"",""1147""
","
","","","-1","","","24","10546","2957","&#9826;","elianto","#f73b6a7A","-1","-1","1","0","[]","0","0","3","","","","","","","",""
"pit-trial","74","605795","0.0-2.0-14.3-0.3","battery-v0.2","","""event"",""trial"",""time""
""fullscreenenter"",""1"",""1147""
","
","
","""event"",""trial"",""time""
""fullscreenenter"",""1"",""1147""
","
","","","-1","","","24","10546","2957","&#9826;","elianto","#f73b6a7A","-1","-1","1","0","[]","0","0","3","","","","","","","",""
"pit-trial","75","610652","0.0-2.0-14.3-1.3","battery-v0.2","","""event"",""trial"",""time""
""fullscreenenter"",""1"",""1147""
","
","
","""event"",""trial"",""time""
""fullscreenenter"",""1"",""1147""
","
","","","-1","","","24","10546","2957","&#9826;","elianto","#f73b6a7A","-1","-1","1","0","[]","0","0","3","","","","","","","",""
"pit-trial","76","615508","0.0-2.0-14.3-2.3","battery-v0.2","","""event"",""trial"",""time""
""fullscreenenter"",""1"",""1147""
","
","
","""event"",""trial"",""time""
""fullscreenenter"",""1"",""1147""
","
","","","-1","","","24","10546","2957","&#9826;","elianto","#f73b6a7A","-1","-1","1","0","[]","0","0","3","","","","","","","",""
"pit-trial","77","620368","0.0-2.0-14.3-3.3","battery-v0.2","","""event"",""trial"",""time""
""fullscreenenter"",""1"",""1147""
","
","
","""event"",""trial"",""time""
""fullscreenenter"",""1"",""1147""
","
","","","-1","","","24","10546","2957","&#9826;","elianto","#f73b6a7A","-1","-1","1","-10","[]","0","0","3","","","","","","","",""
"pit-trial","78","625224","0.0-2.0-14.3-4.3","battery-v0.2","","""event"",""trial"",""time""
""fullscreenenter"",""1"",""1147""
","
","
","""event"",""trial"",""time""
""fullscreenenter"",""1"",""1147""
","
","","","-1","","","24","10546","2957","&#9826;","elianto","#f73b6a7A","-1","-1","1","0","[]","0","0","3","","","","","","","",""
"call-function","79","625226","0.0-2.0-15.0","battery-v0.2","","""event"",""trial"",""time""
""fullscreenenter"",""1"",""1147""
""blur"",""80"",""671166""
""focus"",""80"",""678274""
","""event"",""trial"",""time""
""blur"",""80"",""671166""
","""event"",""trial"",""time""
""focus"",""80"",""678274""
","""event"",""trial"",""time""
""fullscreenenter"",""1"",""1147""
","
","","","","","","","","","","","","","","","","","","","","","","","","","","",""
"pit-instructions","80","711154","0.0-2.0-16.0","battery-v0.2","","""event"",""trial"",""time""
""fullscreenenter"",""1"",""1147""
""blur"",""80"",""671166""
""focus"",""80"",""678274""
","""event"",""trial"",""time""
""blur"",""80"",""671166""
","""event"",""trial"",""time""
""focus"",""80"",""678274""
","""event"",""trial"",""time""
""fullscreenenter"",""1"",""1147""
","
","","[{""page_index"":0,""viewing_time"":55117.39999999106},{""page_index"":1,""viewing_time"":12938.70000000298},{""page_index"":2,""viewing_time"":10969.70000000298},{""page_index"":3,""viewing_time"":6885.20000000298}]","85911.5","","","","","","","","","","","","","","","","","","","","","","","",""
"pit-trial","81","716013","0.0-2.0-17.0-0.0","battery-v0.2","","""event"",""trial"",""time""
""fullscreenenter"",""1"",""1147""
""blur"",""80"",""671166""
""focus"",""80"",""678274""
","""event"",""trial"",""time""
""blur"",""80"",""671166""
","""event"",""trial"",""time""
""focus"",""80"",""678274""
","""event"",""trial"",""time""
""fullscreenenter"",""1"",""1147""
","
","","","-1","","","24","10546","2957","&#9789;","elianto","#f73b6a7A"," ","-1","0","-10","[]","0","0","4","","","","","","","",""
"pit-trial","82","719279","0.0-2.0-17.0-1.0","battery-v0.2","","""event"",""trial"",""time""
""fullscreenenter"",""1"",""1147""
""blur"",""80"",""671166""
""focus"",""80"",""678274""
","""event"",""trial"",""time""
""blur"",""80"",""671166""
","""event"",""trial"",""time""
""focus"",""80"",""678274""
","""event"",""trial"",""time""
""fullscreenenter"",""1"",""1147""
","
","","","409.70000000298023","","","24","10546","2957","&#9789;","elianto","#f73b6a7A"," "," ","1","0","[1261.2000000029802]","1","0","4","","","","","","","",""
"pit-trial","83","722650","0.0-2.0-17.0-2.0","battery-v0.2","","""event"",""trial"",""time""
""fullscreenenter"",""1"",""1147""
""blur"",""80"",""671166""
""focus"",""80"",""678274""
","""event"",""trial"",""time""
""blur"",""80"",""671166""
","""event"",""trial"",""time""
""focus"",""80"",""678274""
","""event"",""trial"",""time""
""fullscreenenter"",""1"",""1147""
","
","","","512.2999999970198","","","24","10546","2957","&#9789;","elianto","#f73b6a7A"," "," ","1","0","[1363.7000000029802]","1","0","4","","","","","","","",""
"pit-trial","84","725658","0.0-2.0-17.0-3.0","battery-v0.2","","""event"",""trial"",""time""
""fullscreenenter"",""1"",""1147""
""blur"",""80"",""671166""
""focus"",""80"",""678274""
","""event"",""trial"",""time""
""blur"",""80"",""671166""
","""event"",""trial"",""time""
""focus"",""80"",""678274""
","""event"",""trial"",""time""
""fullscreenenter"",""1"",""1147""
","
","","","150.20000000298023","","","24","10546","2957","&#9789;","elianto","#f73b6a7A"," "," ","1","-10","[1000.4000000059605]","1","0","4","","","","","","","",""
"pit-trial","85","728930","0.0-2.0-17.0-4.0","battery-v0.2","","""event"",""trial"",""time""
""fullscreenenter"",""1"",""1147""
""blur"",""80"",""671166""
""focus"",""80"",""678274""
","""event"",""trial"",""time""
""blur"",""80"",""671166""
","""event"",""trial"",""time""
""focus"",""80"",""678274""
","""event"",""trial"",""time""
""fullscreenenter"",""1"",""1147""
","
","","","412.40000000596046","","","24","10546","2957","&#9789;","elianto","#f73b6a7A"," "," ","1","0","[1265]","1","0","4","","","","","","","",""
"pit-trial","86","733792","0.0-2.0-17.1-0.1","battery-v0.2","","""event"",""trial"",""time""
""fullscreenenter"",""1"",""1147""
""blur"",""80"",""671166""
""focus"",""80"",""678274""
","""event"",""trial"",""time""
""blur"",""80"",""671166""
","""event"",""trial"",""time""
""focus"",""80"",""678274""
","""event"",""trial"",""time""
""fullscreenenter"",""1"",""1147""
","
","","","-1","","","24","10546","2957","&#9789;","elianto","#f73b6a7A"," ","-1","0","-10","[4110.20000000298]","1","0","4","","","","","","","",""
"pit-trial","87","737558","0.0-2.0-17.1-1.1","battery-v0.2","","""event"",""trial"",""time""
""fullscreenenter"",""1"",""1147""
""blur"",""80"",""671166""
""focus"",""80"",""678274""
","""event"",""trial"",""time""
""blur"",""80"",""671166""
","""event"",""trial"",""time""
""focus"",""80"",""678274""
","""event"",""trial"",""time""
""fullscreenenter"",""1"",""1147""
","
","","","910.5999999940395","","","24","10546","2957","&#9789;","elianto","#f73b6a7A"," "," ","1","0","[1762]","1","0","4","","","","","","","",""
"pit-trial","88","742155","0.0-2.0-17.1-2.1","battery-v0.2","","""event"",""trial"",""time""
""fullscreenenter"",""1"",""1147""
""blur"",""80"",""671166""
""focus"",""80"",""678274""
","""event"",""trial"",""time""
""blur"",""80"",""671166""
","""event"",""trial"",""time""
""focus"",""80"",""678274""
","""event"",""trial"",""time""
""fullscreenenter"",""1"",""1147""
","
","","","1739.6000000089407","","","24","10546","2957","&#9789;","elianto","#f73b6a7A"," "," ","1","0","[2589.7999999970198]","1","0","4","","","","","","","",""
"pit-trial","89","747018","0.0-2.0-17.1-3.1","battery-v0.2","","""event"",""trial"",""time""
""fullscreenenter"",""1"",""1147""
""blur"",""80"",""671166""
""focus"",""80"",""678274""
","""event"",""trial"",""time""
""blur"",""80"",""671166""
","""event"",""trial"",""time""
""focus"",""80"",""678274""
","""event"",""trial"",""time""
""fullscreenenter"",""1"",""1147""
","
","","","-1","","","24","10546","2957","&#9789;","elianto","#f73b6a7A"," ","-1","0","0","[4363.5]","1","0","4","","","","","","","",""
"pit-trial","90","751879","0.0-2.0-17.1-4.1","battery-v0.2","","""event"",""trial"",""time""
""fullscreenenter"",""1"",""1147""
""blur"",""80"",""671166""
""focus"",""80"",""678274""
","""event"",""trial"",""time""
""blur"",""80"",""671166""
","""event"",""trial"",""time""
""focus"",""80"",""678274""
","""event"",""trial"",""time""
""fullscreenenter"",""1"",""1147""
","
","","","-1","","","24","10546","2957","&#9789;","elianto","#f73b6a7A"," ","-1","0","-10","[4573.0999999940395]","1","0","4","","","","","","","",""
"pit-trial","91","754998","0.0-2.0-17.2-0.2","battery-v0.2","","""event"",""trial"",""time""
""fullscreenenter"",""1"",""1147""
""blur"",""80"",""671166""
""focus"",""80"",""678274""
","""event"",""trial"",""time""
""blur"",""80"",""671166""
","""event"",""trial"",""time""
""focus"",""80"",""678274""
","""event"",""trial"",""time""
""fullscreenenter"",""1"",""1147""
","
","","","258.70000000298023","","","24","10546","2957","&#9789;","elianto","#f73b6a7A"," "," ","1","0","[1110.7999999970198]","1","0","4","","","","","","","",""
"pit-trial","92","758961","0.0-2.0-17.2-1.2","battery-v0.2","","""event"",""trial"",""time""
""fullscreenenter"",""1"",""1147""
""blur"",""80"",""671166""
""focus"",""80"",""678274""
","""event"",""trial"",""time""
""blur"",""80"",""671166""
","""event"",""trial"",""time""
""focus"",""80"",""678274""
","""event"",""trial"",""time""
""fullscreenenter"",""1"",""1147""
","
","","","1104.0999999940395","","","24","10546","2957","&#9789;","elianto","#f73b6a7A"," "," ","1","0","[1955.5999999940395]","1","0","4","","","","","","","",""
"pit-trial","93","763820","0.0-2.0-17.2-2.2","battery-v0.2","","""event"",""trial"",""time""
""fullscreenenter"",""1"",""1147""
""blur"",""80"",""671166""
""focus"",""80"",""678274""
","""event"",""trial"",""time""
""blur"",""80"",""671166""
","""event"",""trial"",""time""
""focus"",""80"",""678274""
","""event"",""trial"",""time""
""fullscreenenter"",""1"",""1147""
","
","","","-1","","","24","10546","2957","&#9789;","elianto","#f73b6a7A"," ","-1","0","-10","[760.2000000029802,3085.2999999970198]","2","0","4","","","","","","","",""
"pit-trial","94","768677","0.0-2.0-17.2-3.2","battery-v0.2","","""event"",""trial"",""time""
""fullscreenenter"",""1"",""1147""
""blur"",""80"",""671166""
""focus"",""80"",""678274""
","""event"",""trial"",""time""
""blur"",""80"",""671166""
","""event"",""trial"",""time""
""focus"",""80"",""678274""
","""event"",""trial"",""time""
""fullscreenenter"",""1"",""1147""
","
","","","-1","","","24","10546","2957","&#9789;","elianto","#f73b6a7A"," ","-1","0","0","[4661.4000000059605]","1","0","4","","","","","","","",""
"pit-trial","95","773537","0.0-2.0-17.2-4.2","battery-v0.2","","""event"",""trial"",""time""
""fullscreenenter"",""1"",""1147""
""blur"",""80"",""671166""
""focus"",""80"",""678274""
","""event"",""trial"",""time""
""blur"",""80"",""671166""
","""event"",""trial"",""time""
""focus"",""80"",""678274""
","""event"",""trial"",""time""
""fullscreenenter"",""1"",""1147""
","
","","","-1","","","24","10546","2957","&#9789;","elianto","#f73b6a7A"," ","-1","0","-10","[3753.9000000059605]","1","0","4","","","","","","","",""
"pit-trial","96","778399","0.0-2.0-17.3-0.3","battery-v0.2","","""event"",""trial"",""time""
""fullscreenenter"",""1"",""1147""
""blur"",""80"",""671166""
""focus"",""80"",""678274""
","""event"",""trial"",""time""
""blur"",""80"",""671166""
","""event"",""trial"",""time""
""focus"",""80"",""678274""
","""event"",""trial"",""time""
""fullscreenenter"",""1"",""1147""
","
","","","-1","","","24","10546","2957","&#9789;","elianto","#f73b6a7A"," ","-1","0","-10","[259.40000000596046,3553.4000000059605,4280.9000000059605]","3","0","4","","","","","","","",""
"pit-trial","97","783258","0.0-2.0-17.3-1.3","battery-v0.2","","""event"",""trial"",""time""
""fullscreenenter"",""1"",""1147""
""blur"",""80"",""671166""
""focus"",""80"",""678274""
","""event"",""trial"",""time""
""blur"",""80"",""671166""
","""event"",""trial"",""time""
""focus"",""80"",""678274""
","""event"",""trial"",""time""
""fullscreenenter"",""1"",""1147""
","
","","","-1","","","24","10546","2957","&#9789;","elianto","#f73b6a7A"," ","-1","0","-10","[3157.7000000029802]","1","0","4","","","","","","","",""
"pit-trial","98","786968","0.0-2.0-17.3-2.3","battery-v0.2","","""event"",""trial"",""time""
""fullscreenenter"",""1"",""1147""
""blur"",""80"",""671166""
""focus"",""80"",""678274""
","""event"",""trial"",""time""
""blur"",""80"",""671166""
","""event"",""trial"",""time""
""focus"",""80"",""678274""
","""event"",""trial"",""time""
""fullscreenenter"",""1"",""1147""
","
","","","849.5","","","24","10546","2957","&#9789;","elianto","#f73b6a7A"," "," ","1","0","[810.3000000119209,1701.9000000059605,3112.2000000029802]","3","0","4","","","","","","","",""
"pit-trial","99","790144","0.0-2.0-17.3-3.3","battery-v0.2","","""event"",""trial"",""time""
""fullscreenenter"",""1"",""1147""
""blur"",""80"",""671166""
""focus"",""80"",""678274""
","""event"",""trial"",""time""
""blur"",""80"",""671166""
","""event"",""trial"",""time""
""focus"",""80"",""678274""
","""event"",""trial"",""time""
""fullscreenenter"",""1"",""1147""
","
","","","322.69999998807907","","","24","10546","2957","&#9789;","elianto","#f73b6a7A"," "," ","1","-10","[1173.7000000029802,2741]","2","0","4","","","","","","","",""
"pit-trial","100","793969","0.0-2.0-17.3-4.3","battery-v0.2","","""event"",""trial"",""time""
""fullscreenenter"",""1"",""1147""
""blur"",""80"",""671166""
""focus"",""80"",""678274""
","""event"",""trial"",""time""
""blur"",""80"",""671166""
","""event"",""trial"",""time""
""focus"",""80"",""678274""
","""event"",""trial"",""time""
""fullscreenenter"",""1"",""1147""
","
","","","965.5","","","24","10546","2957","&#9789;","elianto","#f73b6a7A"," "," ","1","0","[1817.4000000059605,3555.4000000059605]","2","0","4","","","","","","","",""
"call-function","101","793970","0.0-2.0-18.0","battery-v0.2","","""event"",""trial"",""time""
""fullscreenenter"",""1"",""1147""
""blur"",""80"",""671166""
""focus"",""80"",""678274""
","""event"",""trial"",""time""
""blur"",""80"",""671166""
","""event"",""trial"",""time""
""focus"",""80"",""678274""
","""event"",""trial"",""time""
""fullscreenenter"",""1"",""1147""
","
","","","","","","","","","","","","","","","","","","","","","","","","","","",""
"pit-instructions","102","901263","0.0-2.0-19.0","battery-v0.2","","""event"",""trial"",""time""
""fullscreenenter"",""1"",""1147""
""blur"",""80"",""671166""
""focus"",""80"",""678274""
","""event"",""trial"",""time""
""blur"",""80"",""671166""
","""event"",""trial"",""time""
""focus"",""80"",""678274""
","""event"",""trial"",""time""
""fullscreenenter"",""1"",""1147""
","
","","[{""page_index"":0,""viewing_time"":18460.29999999702},{""page_index"":1,""viewing_time"":6834},{""page_index"":2,""viewing_time"":13073.29999999702},{""page_index"":3,""viewing_time"":9204.10000000894},{""page_index"":4,""viewing_time"":19776.89999999106},{""page_index"":5,""viewing_time"":9555.800000011921},{""page_index"":6,""viewing_time"":12503.59999999404},{""page_index"":7,""viewing_time"":7937.79999999702},{""page_index"":8,""viewing_time"":9946.60000000894}]","107292.90000000596","","","","","","","","","","","","","","","","","","","","","","","",""
"pit-comprehension","103","914984","0.0-2.0-20.0-0.0","battery-v0.2","","""event"",""trial"",""time""
""fullscreenenter"",""1"",""1147""
""blur"",""80"",""671166""
""focus"",""80"",""678274""
","""event"",""trial"",""time""
""blur"",""80"",""671166""
","""event"",""trial"",""time""
""focus"",""80"",""678274""
","""event"",""trial"",""time""
""fullscreenenter"",""1"",""1147""
","
","","","13717.59999999404","[""SPACE""]","0","24","10546","2957","","","","","","","","","","","","","","","","","","",""
"pit-instructions","104","924450","0.0-2.0-20.0-1.0","battery-v0.2","","""event"",""trial"",""time""
""fullscreenenter"",""1"",""1147""
""blur"",""80"",""671166""
""focus"",""80"",""678274""
","""event"",""trial"",""time""
""blur"",""80"",""671166""
","""event"",""trial"",""time""
""focus"",""80"",""678274""
","""event"",""trial"",""time""
""fullscreenenter"",""1"",""1147""
","
","","[{""page_index"":0,""viewing_time"":9430.40000000596}]","9430.90000000596","","","","","","","","","","","","","","","","","","","","","","","",""
"pit-comprehension","105","931392","0.0-2.0-21.0-0.0","battery-v0.2","","""event"",""trial"",""time""
""fullscreenenter"",""1"",""1147""
""blur"",""80"",""671166""
""focus"",""80"",""678274""
","""event"",""trial"",""time""
""blur"",""80"",""671166""
","""event"",""trial"",""time""
""focus"",""80"",""678274""
","""event"",""trial"",""time""
""fullscreenenter"",""1"",""1147""
","
","","","6938.20000000298","[""10""]","0","24","10546","2957","","","","","","","","","","","","","","","","","","",""
"pit-instructions","106","944708","0.0-2.0-21.0-1.0","battery-v0.2","","""event"",""trial"",""time""
""fullscreenenter"",""1"",""1147""
""blur"",""80"",""671166""
""focus"",""80"",""678274""
","""event"",""trial"",""time""
""blur"",""80"",""671166""
","""event"",""trial"",""time""
""focus"",""80"",""678274""
","""event"",""trial"",""time""
""fullscreenenter"",""1"",""1147""
","
","","[{""page_index"":0,""viewing_time"":13281.90000000596}]","13282.10000000894","","","","","","","","","","","","","","","","","","","","","","","",""
"pit-comprehension","107","974996","0.0-2.0-22.0-0.0","battery-v0.2","","""event"",""trial"",""time""
""fullscreenenter"",""1"",""1147""
""blur"",""80"",""671166""
""focus"",""80"",""678274""
","""event"",""trial"",""time""
""blur"",""80"",""671166""
","""event"",""trial"",""time""
""focus"",""80"",""678274""
","""event"",""trial"",""time""
""fullscreenenter"",""1"",""1147""
","
","","","30283.79999999702","[""0""]","0","24","10546","2957","","","","","","","","","","","","","","","","","","",""
"pit-instructions","108","989400","0.0-2.0-22.0-1.0","battery-v0.2","","""event"",""trial"",""time""
""fullscreenenter"",""1"",""1147""
""blur"",""80"",""671166""
""focus"",""80"",""678274""
","""event"",""trial"",""time""
""blur"",""80"",""671166""
","""event"",""trial"",""time""
""focus"",""80"",""678274""
","""event"",""trial"",""time""
""fullscreenenter"",""1"",""1147""
","
","","[{""page_index"":0,""viewing_time"":14369.70000000298}]","14370.10000000894","","","","","","","","","","","","","","","","","","","","","","","",""
"pit-comprehension","109","1017910","0.0-2.0-23.0-0.0","battery-v0.2","","""event"",""trial"",""time""
""fullscreenenter"",""1"",""1147""
""blur"",""80"",""671166""
""focus"",""80"",""678274""
","""event"",""trial"",""time""
""blur"",""80"",""671166""
","""event"",""trial"",""time""
""focus"",""80"",""678274""
","""event"",""trial"",""time""
""fullscreenenter"",""1"",""1147""
","
","","","28505.30000001192","[""True""]","0","24","10546","2957","","","","","","","","","","","","","","","","","","",""
"pit-instructions","110","1033359","0.0-2.0-23.0-1.0","battery-v0.2","","""event"",""trial"",""time""
""fullscreenenter"",""1"",""1147""
""blur"",""80"",""671166""
""focus"",""80"",""678274""
","""event"",""trial"",""time""
""blur"",""80"",""671166""
","""event"",""trial"",""time""
""focus"",""80"",""678274""
","""event"",""trial"",""time""
""fullscreenenter"",""1"",""1147""
","
","","[{""page_index"":0,""viewing_time"":15415.5}]","15415.79999999702","","","","","","","","","","","","","","","","","","","","","","","",""
"pit-comprehension","111","1051111","0.0-2.0-24.0-0.0","battery-v0.2","","""event"",""trial"",""time""
""fullscreenenter"",""1"",""1147""
""blur"",""80"",""671166""
""focus"",""80"",""678274""
","""event"",""trial"",""time""
""blur"",""80"",""671166""
","""event"",""trial"",""time""
""focus"",""80"",""678274""
","""event"",""trial"",""time""
""fullscreenenter"",""1"",""1147""
","
","","","17747.89999999106","[""True""]","0","24","10546","2957","","","","","","","","","","","","","","","","","","",""
"pit-instructions","112","1063029","0.0-2.0-24.0-1.0","battery-v0.2","","""event"",""trial"",""time""
""fullscreenenter"",""1"",""1147""
""blur"",""80"",""671166""
""focus"",""80"",""678274""
","""event"",""trial"",""time""
""blur"",""80"",""671166""
","""event"",""trial"",""time""
""focus"",""80"",""678274""
","""event"",""trial"",""time""
""fullscreenenter"",""1"",""1147""
","
","","[{""page_index"":0,""viewing_time"":11883.40000000596}]","11883.90000000596","","","","","","","","","","","","","","","","","","","","","","","",""
"pit-comprehension","113","1079040","0.0-2.0-25.0-0.0","battery-v0.2","","""event"",""trial"",""time""
""fullscreenenter"",""1"",""1147""
""blur"",""80"",""671166""
""focus"",""80"",""678274""
","""event"",""trial"",""time""
""blur"",""80"",""671166""
","""event"",""trial"",""time""
""focus"",""80"",""678274""
","""event"",""trial"",""time""
""fullscreenenter"",""1"",""1147""
","
","","","16007.5","[""True""]","0","24","10546","2957","","","","","","","","","","","","","","","","","","",""
"pit-instructions","114","1092501","0.0-2.0-25.0-1.0","battery-v0.2","","""event"",""trial"",""time""
""fullscreenenter"",""1"",""1147""
""blur"",""80"",""671166""
""focus"",""80"",""678274""
","""event"",""trial"",""time""
""blur"",""80"",""671166""
","""event"",""trial"",""time""
""focus"",""80"",""678274""
","""event"",""trial"",""time""
""fullscreenenter"",""1"",""1147""
","
","","[{""page_index"":0,""viewing_time"":13425.29999999702}]","13425.79999999702","","","","","","","","","","","","","","","","","","","","","","","",""
"pit-comprehension","115","1136284","0.0-2.0-26.0-0.0","battery-v0.2","","""event"",""trial"",""time""
""fullscreenenter"",""1"",""1147""
""blur"",""80"",""671166""
""focus"",""80"",""678274""
","""event"",""trial"",""time""
""blur"",""80"",""671166""
","""event"",""trial"",""time""
""focus"",""80"",""678274""
","""event"",""trial"",""time""
""fullscreenenter"",""1"",""1147""
","
","","","43779.59999999404","[""False""]","0","24","10546","2957","","","","","","","","","","","","","","","","","","",""
"pit-instructions","116","1169872","0.0-2.0-26.0-1.0","battery-v0.2","","""event"",""trial"",""time""
""fullscreenenter"",""1"",""1147""
""blur"",""80"",""671166""
""focus"",""80"",""678274""
","""event"",""trial"",""time""
""blur"",""80"",""671166""
","""event"",""trial"",""time""
""focus"",""80"",""678274""
","""event"",""trial"",""time""
""fullscreenenter"",""1"",""1147""
","
","","[{""page_index"":0,""viewing_time"":33553}]","33553.20000000298","","","","","","","","","","","","","","","","","","","","","","","",""
"pit-instructions","117","1239964","0.0-3.0","battery-v0.2","","""event"",""trial"",""time""
""fullscreenenter"",""1"",""1147""
""blur"",""80"",""671166""
""focus"",""80"",""678274""
","""event"",""trial"",""time""
""blur"",""80"",""671166""
","""event"",""trial"",""time""
""focus"",""80"",""678274""
","""event"",""trial"",""time""
""fullscreenenter"",""1"",""1147""
","
","","[{""page_index"":0,""viewing_time"":54563.39999999106},{""page_index"":1,""viewing_time"":6655.5},{""page_index"":2,""viewing_time"":8871}]","70090.29999999702","","","","","","","","","","","","","","","","","","","","","","","",""
"pit-trial","118","1244826","0.0-4.0","battery-v0.2","","""event"",""trial"",""time""
""fullscreenenter"",""1"",""1147""
""blur"",""80"",""671166""
""focus"",""80"",""678274""
","""event"",""trial"",""time""
""blur"",""80"",""671166""
","""event"",""trial"",""time""
""focus"",""80"",""678274""
","""event"",""trial"",""time""
""fullscreenenter"",""1"",""1147""
","
","","","-1","","","24","10546","2957","&#9730;","elianto","#3366ff99"," ","-1","0","0","[]","0","1","","","10546","1","1","1","win","go","0"
"pit-trial","119","1248351","0.0-5.0","battery-v0.2","","""event"",""trial"",""time""
""fullscreenenter"",""1"",""1147""
""blur"",""80"",""671166""
""focus"",""80"",""678274""
","""event"",""trial"",""time""
""blur"",""80"",""671166""
","""event"",""trial"",""time""
""focus"",""80"",""678274""
","""event"",""trial"",""time""
""fullscreenenter"",""1"",""1147""
","
","","","666.6000000089407","","","24","10546","2957","&#9733;","elianto","#3366ff99","-1"," ","0","0","[1517.3999999910593]","1","1","","","10546","2","2","2","win","no-go","0"
"pit-trial","120","1252234","0.0-6.0","battery-v0.2","","""event"",""trial"",""time""
""fullscreenenter"",""1"",""1147""
""blur"",""80"",""671166""
""focus"",""80"",""678274""
","""event"",""trial"",""time""
""blur"",""80"",""671166""
","""event"",""trial"",""time""
""focus"",""80"",""678274""
","""event"",""trial"",""time""
""fullscreenenter"",""1"",""1147""
","
","","","1025.5","","","24","10546","2957","&#9752;","elianto","#f73b6a7A"," "," ","1","0","[1877.5999999940395]","1","1","","","10546","3","3","3","lose","go","0"
"pit-trial","121","1256073","0.0-7.0","battery-v0.2","","""event"",""trial"",""time""
""fullscreenenter"",""1"",""1147""
""blur"",""80"",""671166""
""focus"",""80"",""678274""
","""event"",""trial"",""time""
""blur"",""80"",""671166""
","""event"",""trial"",""time""
""focus"",""80"",""678274""
","""event"",""trial"",""time""
""fullscreenenter"",""1"",""1147""
","
","","","983.6999999880791","","","24","10546","2957","&#9728;","elianto","#f73b6a7A","-1"," ","0","-10","[1834.2000000029802]","1","1","","","10546","4","0","4","lose","no-go","0"
"pit-trial","122","1260447","0.0-8.0","battery-v0.2","","""event"",""trial"",""time""
""fullscreenenter"",""1"",""1147""
""blur"",""80"",""671166""
""focus"",""80"",""678274""
","""event"",""trial"",""time""
""blur"",""80"",""671166""
","""event"",""trial"",""time""
""focus"",""80"",""678274""
","""event"",""trial"",""time""
""fullscreenenter"",""1"",""1147""
","
","","","1516.2999999970198","","","24","10546","2957","&#9728;","elianto","#f73b6a7A","-1"," ","0","-10","[2368.2000000029802]","1","1","","","10546","5","0","4","lose","no-go","0"
"pit-trial","123","1264532","0.0-9.0","battery-v0.2","","""event"",""trial"",""time""
""fullscreenenter"",""1"",""1147""
""blur"",""80"",""671166""
""focus"",""80"",""678274""
","""event"",""trial"",""time""
""blur"",""80"",""671166""
","""event"",""trial"",""time""
""focus"",""80"",""678274""
","""event"",""trial"",""time""
""fullscreenenter"",""1"",""1147""
","
","","","1227.800000011921","","","24","10546","2957","&#9752;","elianto","#f73b6a7A"," "," ","1","0","[2078.800000011921]","1","1","","","10546","6","3","3","lose","go","0"
"pit-trial","124","1269392","0.0-10.0","battery-v0.2","","""event"",""trial"",""time""
""fullscreenenter"",""1"",""1147""
""blur"",""80"",""671166""
""focus"",""80"",""678274""
","""event"",""trial"",""time""
""blur"",""80"",""671166""
","""event"",""trial"",""time""
""focus"",""80"",""678274""
","""event"",""trial"",""time""
""fullscreenenter"",""1"",""1147""
","
","","","-1","","","24","10546","2957","&#9733;","elianto","#3366ff99","-1","-1","1","+10","[]","0","1","","","10546","7","2","2","win","no-go","0"
"pit-trial","125","1274250","0.0-11.0","battery-v0.2","","""event"",""trial"",""time""
""fullscreenenter"",""1"",""1147""
""blur"",""80"",""671166""
""focus"",""80"",""678274""
","""event"",""trial"",""time""
""blur"",""80"",""671166""
","""event"",""trial"",""time""
""focus"",""80"",""678274""
","""event"",""trial"",""time""
""fullscreenenter"",""1"",""1147""
","
","","","-1","","","24","10546","2957","&#9730;","elianto","#3366ff99"," ","-1","0","+10","[]","0","1","","","10546","8","1","1","win","go","1"
"pit-trial","126","1279109","0.0-12.0","battery-v0.2","","""event"",""trial"",""time""
""fullscreenenter"",""1"",""1147""
""blur"",""80"",""671166""
""focus"",""80"",""678274""
","""event"",""trial"",""time""
""blur"",""80"",""671166""
","""event"",""trial"",""time""
""focus"",""80"",""678274""
","""event"",""trial"",""time""
""fullscreenenter"",""1"",""1147""
","
","","","-1","","","24","10546","2957","&#9730;","elianto","#3366ff99"," ","-1","0","0","[]","0","1","","","10546","9","1","1","win","go","0"
"pit-trial","127","1283370","0.0-13.0","battery-v0.2","","""event"",""trial"",""time""
""fullscreenenter"",""1"",""1147""
""blur"",""80"",""671166""
""focus"",""80"",""678274""
","""event"",""trial"",""time""
""blur"",""80"",""671166""
","""event"",""trial"",""time""
""focus"",""80"",""678274""
","""event"",""trial"",""time""
""fullscreenenter"",""1"",""1147""
","
","","","1404.2999999970198","","","24","10546","2957","&#9752;","elianto","#f73b6a7A"," "," ","1","0","[2255.2999999970198]","1","1","","","10546","10","3","3","lose","go","0"
"pit-trial","128","1288229","0.0-14.0","battery-v0.2","","""event"",""trial"",""time""
""fullscreenenter"",""1"",""1147""
""blur"",""80"",""671166""
""focus"",""80"",""678274""
","""event"",""trial"",""time""
""blur"",""80"",""671166""
","""event"",""trial"",""time""
""focus"",""80"",""678274""
","""event"",""trial"",""time""
""fullscreenenter"",""1"",""1147""
","
","","","-1","","","24","10546","2957","&#9733;","elianto","#3366ff99","-1","-1","1","+10","[]","0","1","","","10546","11","2","2","win","no-go","0"
"pit-trial","129","1293087","0.0-15.0","battery-v0.2","","""event"",""trial"",""time""
""fullscreenenter"",""1"",""1147""
""blur"",""80"",""671166""
""focus"",""80"",""678274""
","""event"",""trial"",""time""
""blur"",""80"",""671166""
","""event"",""trial"",""time""
""focus"",""80"",""678274""
","""event"",""trial"",""time""
""fullscreenenter"",""1"",""1147""
","
","","","-1","","","24","10546","2957","&#9728;","elianto","#f73b6a7A","-1","-1","1","0","[]","0","1","","","10546","12","0","4","lose","no-go","0"
"pit-trial","130","1297946","0.0-16.0","battery-v0.2","","""event"",""trial"",""time""
""fullscreenenter"",""1"",""1147""
""blur"",""80"",""671166""
""focus"",""80"",""678274""
","""event"",""trial"",""time""
""blur"",""80"",""671166""
","""event"",""trial"",""time""
""focus"",""80"",""678274""
","""event"",""trial"",""time""
""fullscreenenter"",""1"",""1147""
","
","","","-1","","","24","10546","2957","&#9728;","elianto","#f73b6a7A","-1","-1","1","-10","[]","0","1","","","10546","13","0","4","lose","no-go","1"
"pit-trial","131","1302458","0.0-17.0","battery-v0.2","","""event"",""trial"",""time""
""fullscreenenter"",""1"",""1147""
""blur"",""80"",""671166""
""focus"",""80"",""678274""
","""event"",""trial"",""time""
""blur"",""80"",""671166""
","""event"",""trial"",""time""
""focus"",""80"",""678274""
","""event"",""trial"",""time""
""fullscreenenter"",""1"",""1147""
","
","","","1651.7000000029802","","","24","10546","2957","&#9752;","elianto","#f73b6a7A"," "," ","1","-10","[2505]","1","1","","","10546","14","3","3","lose","go","1"
"pit-trial","132","1306399","0.0-18.0","battery-v0.2","","""event"",""trial"",""time""
""fullscreenenter"",""1"",""1147""
""blur"",""80"",""671166""
""focus"",""80"",""678274""
","""event"",""trial"",""time""
""blur"",""80"",""671166""
","""event"",""trial"",""time""
""focus"",""80"",""678274""
","""event"",""trial"",""time""
""fullscreenenter"",""1"",""1147""
","
","","","1081.7999999970198","","","24","10546","2957","&#9730;","elianto","#3366ff99"," "," ","1","+10","[1932.8999999910593]","1","1","","","10546","15","1","1","win","go","0"
"pit-trial","133","1311258","0.0-19.0","battery-v0.2","","""event"",""trial"",""time""
""fullscreenenter"",""1"",""1147""
""blur"",""80"",""671166""
""focus"",""80"",""678274""
","""event"",""trial"",""time""
""blur"",""80"",""671166""
","""event"",""trial"",""time""
""focus"",""80"",""678274""
","""event"",""trial"",""time""
""fullscreenenter"",""1"",""1147""
","
","","","-1","","","24","10546","2957","&#9733;","elianto","#3366ff99","-1","-1","1","+10","[]","0","1","","","10546","16","2","2","win","no-go","0"
"pit-trial","134","1316116","0.0-20.0","battery-v0.2","","""event"",""trial"",""time""
""fullscreenenter"",""1"",""1147""
""blur"",""80"",""671166""
""focus"",""80"",""678274""
","""event"",""trial"",""time""
""blur"",""80"",""671166""
","""event"",""trial"",""time""
""focus"",""80"",""678274""
","""event"",""trial"",""time""
""fullscreenenter"",""1"",""1147""
","
","","","-1","","","24","10546","2957","&#9728;","elianto","#f73b6a7A","-1","-1","1","0","[]","0","1","","","10546","17","0","4","lose","no-go","0"
"pit-trial","135","1320277","0.0-21.0","battery-v0.2","","""event"",""trial"",""time""
""fullscreenenter"",""1"",""1147""
""blur"",""80"",""671166""
""focus"",""80"",""678274""
","""event"",""trial"",""time""
""blur"",""80"",""671166""
","""event"",""trial"",""time""
""focus"",""80"",""678274""
","""event"",""trial"",""time""
""fullscreenenter"",""1"",""1147""
","
","","","1304.5","","","24","10546","2957","&#9752;","elianto","#f73b6a7A"," "," ","1","0","[2155.5]","1","1","","","10546","18","3","3","lose","go","0"
"pit-trial","136","1324218","0.0-22.0","battery-v0.2","","""event"",""trial"",""time""
""fullscreenenter"",""1"",""1147""
""blur"",""80"",""671166""
""focus"",""80"",""678274""
","""event"",""trial"",""time""
""blur"",""80"",""671166""
","""event"",""trial"",""time""
""focus"",""80"",""678274""
","""event"",""trial"",""time""
""fullscreenenter"",""1"",""1147""
","
","","","1085","","","24","10546","2957","&#9730;","elianto","#3366ff99"," "," ","1","+10","[1936.3999999910593]","1","1","","","10546","19","1","1","win","go","0"
"pit-trial","137","1329077","0.0-23.0","battery-v0.2","","""event"",""trial"",""time""
""fullscreenenter"",""1"",""1147""
""blur"",""80"",""671166""
""focus"",""80"",""678274""
","""event"",""trial"",""time""
""blur"",""80"",""671166""
","""event"",""trial"",""time""
""focus"",""80"",""678274""
","""event"",""trial"",""time""
""fullscreenenter"",""1"",""1147""
","
","","","-1","","","24","10546","2957","&#9733;","elianto","#3366ff99","-1","-1","1","0","[]","0","1","","","10546","20","2","2","win","no-go","1"
"pit-instructions","138","1341935","0.0-24.0","battery-v0.2","","""event"",""trial"",""time""
""fullscreenenter"",""1"",""1147""
""blur"",""80"",""671166""
""focus"",""80"",""678274""
","""event"",""trial"",""time""
""blur"",""80"",""671166""
","""event"",""trial"",""time""
""focus"",""80"",""678274""
","""event"",""trial"",""time""
""fullscreenenter"",""1"",""1147""
","
","","[{""page_index"":0,""viewing_time"":5763.29999999702},{""page_index"":1,""viewing_time"":7092.4000000059605}]","12856","","","","","","","","","","","","","","","","","","","","","","","",""
"pit-trial","139","1346796","0.0-25.0","battery-v0.2","","""event"",""trial"",""time""
""fullscreenenter"",""1"",""1147""
""blur"",""80"",""671166""
""focus"",""80"",""678274""
","""event"",""trial"",""time""
""blur"",""80"",""671166""
","""event"",""trial"",""time""
""focus"",""80"",""678274""
","""event"",""trial"",""time""
""fullscreenenter"",""1"",""1147""
","
","","","-1","","","24","10546","2957","e","elianto","#f73b6a7A"," ","-1","0","-10","[]","0","2","","","10546","21","2","3","lose","go","0"
"pit-trial","140","1351655","0.0-26.0","battery-v0.2","","""event"",""trial"",""time""
""fullscreenenter"",""1"",""1147""
""blur"",""80"",""671166""
""focus"",""80"",""678274""
","""event"",""trial"",""time""
""blur"",""80"",""671166""
","""event"",""trial"",""time""
""focus"",""80"",""678274""
","""event"",""trial"",""time""
""fullscreenenter"",""1"",""1147""
","
","","","-1","","","24","10546","2957","w","elianto","#f73b6a7A","-1","-1","1","0","[]","0","2","","","10546","22","3","4","lose","no-go","0"
"pit-trial","141","1356513","0.0-27.0","battery-v0.2","","""event"",""trial"",""time""
""fullscreenenter"",""1"",""1147""
""blur"",""80"",""671166""
""focus"",""80"",""678274""
","""event"",""trial"",""time""
""blur"",""80"",""671166""
","""event"",""trial"",""time""
""focus"",""80"",""678274""
","""event"",""trial"",""time""
""fullscreenenter"",""1"",""1147""
","
","","","-1","","","24","10546","2957","j","elianto","#f73b6a7A"," ","-1","0","0","[]","0","2","","","10546","23","0","3","lose","go","1"
"pit-trial","142","1360316","0.0-28.0","battery-v0.2","","""event"",""trial"",""time""
""fullscreenenter"",""1"",""1147""
""blur"",""80"",""671166""
""focus"",""80"",""678274""
","""event"",""trial"",""time""
""blur"",""80"",""671166""
","""event"",""trial"",""time""
""focus"",""80"",""678274""
","""event"",""trial"",""time""
""fullscreenenter"",""1"",""1147""
","
","","","948.5999999940395","","","24","10546","2957","d","elianto","#3366ff99","-1"," ","0","0","[1799.5999999940395]","1","2","","","10546","24","1","2","win","no-go","0"
"pit-trial","143","1365171","0.0-29.0","battery-v0.2","","""event"",""trial"",""time""
""fullscreenenter"",""1"",""1147""
""blur"",""80"",""671166""
""focus"",""80"",""678274""
","""event"",""trial"",""time""
""blur"",""80"",""671166""
","""event"",""trial"",""time""
""focus"",""80"",""678274""
","""event"",""trial"",""time""
""fullscreenenter"",""1"",""1147""
","
","","","-1","","","24","10546","2957","j","elianto","#f73b6a7A"," ","-1","0","0","[]","0","2","","","10546","25","0","3","lose","go","1"
"pit-trial","144","1369094","0.0-30.0","battery-v0.2","","""event"",""trial"",""time""
""fullscreenenter"",""1"",""1147""
""blur"",""80"",""671166""
""focus"",""80"",""678274""
","""event"",""trial"",""time""
""blur"",""80"",""671166""
","""event"",""trial"",""time""
""focus"",""80"",""678274""
","""event"",""trial"",""time""
""fullscreenenter"",""1"",""1147""
","
","","","1064.3999999910593","","","24","10546","2957","d","elianto","#3366ff99","-1"," ","0","0","[1915.9000000059605]","1","2","","","10546","26","1","2","win","no-go","0"
"pit-trial","145","1373954","0.0-31.0","battery-v0.2","","""event"",""trial"",""time""
""fullscreenenter"",""1"",""1147""
""blur"",""80"",""671166""
""focus"",""80"",""678274""
","""event"",""trial"",""time""
""blur"",""80"",""671166""
","""event"",""trial"",""time""
""focus"",""80"",""678274""
","""event"",""trial"",""time""
""fullscreenenter"",""1"",""1147""
","
","","","-1","","","24","10546","2957","w","elianto","#f73b6a7A","-1","-1","1","0","[]","0","2","","","10546","27","3","4","lose","no-go","0"
"pit-trial","146","1377629","0.0-32.0","battery-v0.2","","""event"",""trial"",""time""
""fullscreenenter"",""1"",""1147""
""blur"",""80"",""671166""
""focus"",""80"",""678274""
","""event"",""trial"",""time""
""blur"",""80"",""671166""
","""event"",""trial"",""time""
""focus"",""80"",""678274""
","""event"",""trial"",""time""
""fullscreenenter"",""1"",""1147""
","
","","","817.2000000029802","","","24","10546","2957","e","elianto","#f73b6a7A"," "," ","1","0","[1668.7999999970198]","1","2","","","10546","28","2","3","lose","go","0"
"pit-trial","147","1381267","0.0-33.0","battery-v0.2","","""event"",""trial"",""time""
""fullscreenenter"",""1"",""1147""
""blur"",""80"",""671166""
""focus"",""80"",""678274""
","""event"",""trial"",""time""
""blur"",""80"",""671166""
","""event"",""trial"",""time""
""focus"",""80"",""678274""
","""event"",""trial"",""time""
""fullscreenenter"",""1"",""1147""
","
","","","784.0999999940395","","","24","10546","2957","e","elianto","#f73b6a7A"," "," ","1","0","[1634.6000000089407]","1","2","","","10546","29","2","3","lose","go","0"
"pit-trial","148","1386129","0.0-34.0","battery-v0.2","","""event"",""trial"",""time""
""fullscreenenter"",""1"",""1147""
""blur"",""80"",""671166""
""focus"",""80"",""678274""
","""event"",""trial"",""time""
""blur"",""80"",""671166""
","""event"",""trial"",""time""
""focus"",""80"",""678274""
","""event"",""trial"",""time""
""fullscreenenter"",""1"",""1147""
","
","","","-1","","","24","10546","2957","w","elianto","#f73b6a7A","-1","-1","1","0","[]","0","2","","","10546","30","3","4","lose","no-go","0"
"pit-trial","149","1390989","0.0-35.0","battery-v0.2","","""event"",""trial"",""time""
""fullscreenenter"",""1"",""1147""
""blur"",""80"",""671166""
""focus"",""80"",""678274""
","""event"",""trial"",""time""
""blur"",""80"",""671166""
","""event"",""trial"",""time""
""focus"",""80"",""678274""
","""event"",""trial"",""time""
""fullscreenenter"",""1"",""1147""
","
","","","-1","","","24","10546","2957","d","elianto","#3366ff99","-1","-1","1","+10","[]","0","2","","","10546","31","1","2","win","no-go","0"
"pit-trial","150","1395848","0.0-36.0","battery-v0.2","","""event"",""trial"",""time""
""fullscreenenter"",""1"",""1147""
""blur"",""80"",""671166""
""focus"",""80"",""678274""
","""event"",""trial"",""time""
""blur"",""80"",""671166""
","""event"",""trial"",""time""
""focus"",""80"",""678274""
","""event"",""trial"",""time""
""fullscreenenter"",""1"",""1147""
","
","","","-1","","","24","10546","2957","j","elianto","#f73b6a7A"," ","-1","0","-10","[]","0","2","","","10546","32","0","3","lose","go","0"
"pit-trial","151","1400706","0.0-37.0","battery-v0.2","","""event"",""trial"",""time""
""fullscreenenter"",""1"",""1147""
""blur"",""80"",""671166""
""focus"",""80"",""678274""
","""event"",""trial"",""time""
""blur"",""80"",""671166""
","""event"",""trial"",""time""
""focus"",""80"",""678274""
","""event"",""trial"",""time""
""fullscreenenter"",""1"",""1147""
","
","","","-1","","","24","10546","2957","w","elianto","#f73b6a7A","-1","-1","1","-10","[]","0","2","","","10546","33","3","4","lose","no-go","1"
"pit-trial","152","1405565","0.0-38.0","battery-v0.2","","""event"",""trial"",""time""
""fullscreenenter"",""1"",""1147""
""blur"",""80"",""671166""
""focus"",""80"",""678274""
","""event"",""trial"",""time""
""blur"",""80"",""671166""
","""event"",""trial"",""time""
""focus"",""80"",""678274""
","""event"",""trial"",""time""
""fullscreenenter"",""1"",""1147""
","
","","","-1","","","24","10546","2957","j","elianto","#f73b6a7A"," ","-1","0","-10","[]","0","2","","","10546","34","0","3","lose","go","0"
"pit-trial","153","1410045","0.0-39.0","battery-v0.2","","""event"",""trial"",""time""
""fullscreenenter"",""1"",""1147""
""blur"",""80"",""671166""
""focus"",""80"",""678274""
","""event"",""trial"",""time""
""blur"",""80"",""671166""
","""event"",""trial"",""time""
""focus"",""80"",""678274""
","""event"",""trial"",""time""
""fullscreenenter"",""1"",""1147""
","
","","","1623.5","","","24","10546","2957","e","elianto","#f73b6a7A"," "," ","1","0","[2474.7000000029802]","1","2","","","10546","35","2","3","lose","go","0"
"pit-trial","154","1414903","0.0-40.0","battery-v0.2","","""event"",""trial"",""time""
""fullscreenenter"",""1"",""1147""
""blur"",""80"",""671166""
""focus"",""80"",""678274""
","""event"",""trial"",""time""
""blur"",""80"",""671166""
","""event"",""trial"",""time""
""focus"",""80"",""678274""
","""event"",""trial"",""time""
""fullscreenenter"",""1"",""1147""
","
","","","-1","","","24","10546","2957","d","elianto","#3366ff99","-1","-1","1","+10","[]","0","2","","","10546","36","1","2","win","no-go","0"
"pit-trial","155","1419098","0.0-41.0","battery-v0.2","","""event"",""trial"",""time""
""fullscreenenter"",""1"",""1147""
""blur"",""80"",""671166""
""focus"",""80"",""678274""
","""event"",""trial"",""time""
""blur"",""80"",""671166""
","""event"",""trial"",""time""
""focus"",""80"",""678274""
","""event"",""trial"",""time""
""fullscreenenter"",""1"",""1147""
","
","","","1339.8999999910593","","","24","10546","2957","e","elianto","#f73b6a7A"," "," ","1","-10","[2191.0999999940395]","1","2","","","10546","37","2","3","lose","go","1"
"pit-trial","156","1423959","0.0-42.0","battery-v0.2","","""event"",""trial"",""time""
""fullscreenenter"",""1"",""1147""
""blur"",""80"",""671166""
""focus"",""80"",""678274""
","""event"",""trial"",""time""
""blur"",""80"",""671166""
","""event"",""trial"",""time""
""focus"",""80"",""678274""
","""event"",""trial"",""time""
""fullscreenenter"",""1"",""1147""
","
","","","-1","","","24","10546","2957","w","elianto","#f73b6a7A","-1","-1","1","0","[]","0","2","","","10546","38","3","4","lose","no-go","0"
"pit-trial","157","1428815","0.0-43.0","battery-v0.2","","""event"",""trial"",""time""
""fullscreenenter"",""1"",""1147""
""blur"",""80"",""671166""
""focus"",""80"",""678274""
","""event"",""trial"",""time""
""blur"",""80"",""671166""
","""event"",""trial"",""time""
""focus"",""80"",""678274""
","""event"",""trial"",""time""
""fullscreenenter"",""1"",""1147""
","
","","","-1","","","24","10546","2957","j","elianto","#f73b6a7A"," ","-1","0","-10","[]","0","2","","","10546","39","0","3","lose","go","0"
"pit-trial","158","1433677","0.0-44.0","battery-v0.2","","""event"",""trial"",""time""
""fullscreenenter"",""1"",""1147""
""blur"",""80"",""671166""
""focus"",""80"",""678274""
","""event"",""trial"",""time""
""blur"",""80"",""671166""
","""event"",""trial"",""time""
""focus"",""80"",""678274""
","""event"",""trial"",""time""
""fullscreenenter"",""1"",""1147""
","
","","","-1","","","24","10546","2957","d","elianto","#3366ff99","-1","-1","1","0","[]","0","2","","","10546","40","1","2","win","no-go","1"
"pit-trial","159","1437293","0.0-45.0","battery-v0.2","","""event"",""trial"",""time""
""fullscreenenter"",""1"",""1147""
""blur"",""80"",""671166""
""focus"",""80"",""678274""
","""event"",""trial"",""time""
""blur"",""80"",""671166""
","""event"",""trial"",""time""
""focus"",""80"",""678274""
","""event"",""trial"",""time""
""fullscreenenter"",""1"",""1147""
","
","","","757.7999999970198","","","24","10546","2957","d","elianto","#3366ff99","-1"," ","0","0","[1608.7999999970198]","1","2","","","10546","41","1","2","win","no-go","0"
"pit-trial","160","1441095","0.0-46.0","battery-v0.2","","""event"",""trial"",""time""
""fullscreenenter"",""1"",""1147""
""blur"",""80"",""671166""
""focus"",""80"",""678274""
","""event"",""trial"",""time""
""blur"",""80"",""671166""
","""event"",""trial"",""time""
""focus"",""80"",""678274""
","""event"",""trial"",""time""
""fullscreenenter"",""1"",""1147""
","
","","","945.2000000029802","","","24","10546","2957","e","elianto","#f73b6a7A"," "," ","1","0","[1797.3999999910593]","1","2","","","10546","42","2","3","lose","go","0"
"pit-trial","161","1445954","0.0-47.0","battery-v0.2","","""event"",""trial"",""time""
""fullscreenenter"",""1"",""1147""
""blur"",""80"",""671166""
""focus"",""80"",""678274""
","""event"",""trial"",""time""
""blur"",""80"",""671166""
","""event"",""trial"",""time""
""focus"",""80"",""678274""
","""event"",""trial"",""time""
""fullscreenenter"",""1"",""1147""
","
","","","-1","","","24","10546","2957","w","elianto","#f73b6a7A","-1","-1","1","0","[]","0","2","","","10546","43","3","4","lose","no-go","0"
"pit-trial","162","1449399","0.0-48.0","battery-v0.2","","""event"",""trial"",""time""
""fullscreenenter"",""1"",""1147""
""blur"",""80"",""671166""
""focus"",""80"",""678274""
","""event"",""trial"",""time""
""blur"",""80"",""671166""
","""event"",""trial"",""time""
""focus"",""80"",""678274""
","""event"",""trial"",""time""
""fullscreenenter"",""1"",""1147""
","
","","","589.2999999970198","","","24","10546","2957","j","elianto","#f73b6a7A"," "," ","1","0","[1441.7000000029802]","1","2","","","10546","44","0","3","lose","go","0"
"pit-trial","163","1454255","0.0-49.0","battery-v0.2","","""event"",""trial"",""time""
""fullscreenenter"",""1"",""1147""
""blur"",""80"",""671166""
""focus"",""80"",""678274""
","""event"",""trial"",""time""
""blur"",""80"",""671166""
","""event"",""trial"",""time""
""focus"",""80"",""678274""
","""event"",""trial"",""time""
""fullscreenenter"",""1"",""1147""
","
","","","-1","","","24","10546","2957","w","elianto","#f73b6a7A","-1","-1","1","0","[]","0","2","","","10546","45","3","4","lose","no-go","0"
"pit-trial","164","1459113","0.0-50.0","battery-v0.2","","""event"",""trial"",""time""
""fullscreenenter"",""1"",""1147""
""blur"",""80"",""671166""
""focus"",""80"",""678274""
","""event"",""trial"",""time""
""blur"",""80"",""671166""
","""event"",""trial"",""time""
""focus"",""80"",""678274""
","""event"",""trial"",""time""
""fullscreenenter"",""1"",""1147""
","
","","","-1","","","24","10546","2957","d","elianto","#3366ff99","-1","-1","1","+10","[]","0","2","","","10546","46","1","2","win","no-go","0"
"pit-trial","165","1463975","0.0-51.0","battery-v0.2","","""event"",""trial"",""time""
""fullscreenenter"",""1"",""1147""
""blur"",""80"",""671166""
""focus"",""80"",""678274""
","""event"",""trial"",""time""
""blur"",""80"",""671166""
","""event"",""trial"",""time""
""focus"",""80"",""678274""
","""event"",""trial"",""time""
""fullscreenenter"",""1"",""1147""
","
","","","-1","","","24","10546","2957","e","elianto","#f73b6a7A"," ","-1","0","-10","[]","0","2","","","10546","47","2","3","lose","go","0"
"pit-trial","166","1467564","0.0-52.0","battery-v0.2","","""event"",""trial"",""time""
""fullscreenenter"",""1"",""1147""
""blur"",""80"",""671166""
""focus"",""80"",""678274""
","""event"",""trial"",""time""
""blur"",""80"",""671166""
","""event"",""trial"",""time""
""focus"",""80"",""678274""
","""event"",""trial"",""time""
""fullscreenenter"",""1"",""1147""
","
","","","733.9000000059605","","","24","10546","2957","j","elianto","#f73b6a7A"," "," ","1","0","[1585.0999999940395]","1","2","","","10546","48","0","3","lose","go","0"
"pit-trial","167","1471145","0.0-53.0","battery-v0.2","","""event"",""trial"",""time""
""fullscreenenter"",""1"",""1147""
""blur"",""80"",""671166""
""focus"",""80"",""678274""
","""event"",""trial"",""time""
""blur"",""80"",""671166""
","""event"",""trial"",""time""
""focus"",""80"",""678274""
","""event"",""trial"",""time""
""fullscreenenter"",""1"",""1147""
","
","","","725.0999999940395","","","24","10546","2957","j","elianto","#f73b6a7A"," "," ","1","0","[1576]","1","2","","","10546","49","0","3","lose","go","0"
"pit-trial","168","1474629","0.0-54.0","battery-v0.2","","""event"",""trial"",""time""
""fullscreenenter"",""1"",""1147""
""blur"",""80"",""671166""
""focus"",""80"",""678274""
","""event"",""trial"",""time""
""blur"",""80"",""671166""
","""event"",""trial"",""time""
""focus"",""80"",""678274""
","""event"",""trial"",""time""
""fullscreenenter"",""1"",""1147""
","
","","","626.1000000089407","","","24","10546","2957","e","elianto","#f73b6a7A"," "," ","1","0","[1478.8999999910593]","1","2","","","10546","50","2","3","lose","go","0"
"pit-trial","169","1479490","0.0-55.0","battery-v0.2","","""event"",""trial"",""time""
""fullscreenenter"",""1"",""1147""
""blur"",""80"",""671166""
""focus"",""80"",""678274""
","""event"",""trial"",""time""
""blur"",""80"",""671166""
","""event"",""trial"",""time""
""focus"",""80"",""678274""
","""event"",""trial"",""time""
""fullscreenenter"",""1"",""1147""
","
","","","-1","","","24","10546","2957","w","elianto","#f73b6a7A","-1","-1","1","0","[]","0","2","","","10546","51","3","4","lose","no-go","0"
"pit-trial","170","1484345","0.0-56.0","battery-v0.2","","""event"",""trial"",""time""
""fullscreenenter"",""1"",""1147""
""blur"",""80"",""671166""
""focus"",""80"",""678274""
","""event"",""trial"",""time""
""blur"",""80"",""671166""
","""event"",""trial"",""time""
""focus"",""80"",""678274""
","""event"",""trial"",""time""
""fullscreenenter"",""1"",""1147""
","
","","","-1","","","24","10546","2957","d","elianto","#3366ff99","-1","-1","1","+10","[]","0","2","","","10546","52","1","2","win","no-go","0"
"pit-trial","171","1489202","0.0-57.0","battery-v0.2","","""event"",""trial"",""time""
""fullscreenenter"",""1"",""1147""
""blur"",""80"",""671166""
""focus"",""80"",""678274""
","""event"",""trial"",""time""
""blur"",""80"",""671166""
","""event"",""trial"",""time""
""focus"",""80"",""678274""
","""event"",""trial"",""time""
""fullscreenenter"",""1"",""1147""
","
","","","-1","","","24","10546","2957","d","elianto","#3366ff99","-1","-1","1","+10","[]","0","2","","","10546","53","1","2","win","no-go","0"
"pit-trial","172","1493250","0.0-58.0","battery-v0.2","","""event"",""trial"",""time""
""fullscreenenter"",""1"",""1147""
""blur"",""80"",""671166""
""focus"",""80"",""678274""
","""event"",""trial"",""time""
""blur"",""80"",""671166""
","""event"",""trial"",""time""
""focus"",""80"",""678274""
","""event"",""trial"",""time""
""fullscreenenter"",""1"",""1147""
","
","","","1189.7999999970198","","","24","10546","2957","e","elianto","#f73b6a7A"," "," ","1","0","[2040.2999999970198]","1","2","","","10546","54","2","3","lose","go","0"
"pit-trial","173","1498108","0.0-59.0","battery-v0.2","","""event"",""trial"",""time""
""fullscreenenter"",""1"",""1147""
""blur"",""80"",""671166""
""focus"",""80"",""678274""
","""event"",""trial"",""time""
""blur"",""80"",""671166""
","""event"",""trial"",""time""
""focus"",""80"",""678274""
","""event"",""trial"",""time""
""fullscreenenter"",""1"",""1147""
","
","","","-1","","","24","10546","2957","w","elianto","#f73b6a7A","-1","-1","1","0","[]","0","2","","","10546","55","3","4","lose","no-go","0"
"pit-trial","174","1502600","0.0-60.0","battery-v0.2","","""event"",""trial"",""time""
""fullscreenenter"",""1"",""1147""
""blur"",""80"",""671166""
""focus"",""80"",""678274""
","""event"",""trial"",""time""
""blur"",""80"",""671166""
","""event"",""trial"",""time""
""focus"",""80"",""678274""
","""event"",""trial"",""time""
""fullscreenenter"",""1"",""1147""
","
","","","1635.7999999970198","","","24","10546","2957","j","elianto","#f73b6a7A"," "," ","1","0","[2487.5]","1","2","","","10546","56","0","3","lose","go","0"
"pit-trial","175","1507463","0.0-61.0","battery-v0.2","","""event"",""trial"",""time""
""fullscreenenter"",""1"",""1147""
""blur"",""80"",""671166""
""focus"",""80"",""678274""
","""event"",""trial"",""time""
""blur"",""80"",""671166""
","""event"",""trial"",""time""
""focus"",""80"",""678274""
","""event"",""trial"",""time""
""fullscreenenter"",""1"",""1147""
","
","","","-1","","","24","10546","2957","w","elianto","#f73b6a7A","-1","-1","1","0","[]","0","2","","","10546","57","3","4","lose","no-go","0"
"pit-trial","176","1511350","0.0-62.0","battery-v0.2","","""event"",""trial"",""time""
""fullscreenenter"",""1"",""1147""
""blur"",""80"",""671166""
""focus"",""80"",""678274""
","""event"",""trial"",""time""
""blur"",""80"",""671166""
","""event"",""trial"",""time""
""focus"",""80"",""678274""
","""event"",""trial"",""time""
""fullscreenenter"",""1"",""1147""
","
","","","1030.1000000089407","","","24","10546","2957","e","elianto","#f73b6a7A"," "," ","1","0","[1880.6000000089407]","1","2","","","10546","58","2","3","lose","go","0"
"pit-trial","177","1515277","0.0-63.0","battery-v0.2","","""event"",""trial"",""time""
""fullscreenenter"",""1"",""1147""
""blur"",""80"",""671166""
""focus"",""80"",""678274""
","""event"",""trial"",""time""
""blur"",""80"",""671166""
","""event"",""trial"",""time""
""focus"",""80"",""678274""
","""event"",""trial"",""time""
""fullscreenenter"",""1"",""1147""
","
","","","1073.0999999940395","","","24","10546","2957","j","elianto","#f73b6a7A"," "," ","1","0","[1923.4000000059605]","1","2","","","10546","59","0","3","lose","go","0"
"pit-trial","178","1519738","0.0-64.0","battery-v0.2","","""event"",""trial"",""time""
""fullscreenenter"",""1"",""1147""
""blur"",""80"",""671166""
""focus"",""80"",""678274""
","""event"",""trial"",""time""
""blur"",""80"",""671166""
","""event"",""trial"",""time""
""focus"",""80"",""678274""
","""event"",""trial"",""time""
""fullscreenenter"",""1"",""1147""
","
","","","1604.3999999910593","","","24","10546","2957","s","elianto","#3366ff99"," "," ","1","+10","[2456.5999999940395]","1","2","","","10546","60","4","1","win","go","0"
"pit-trial","179","1524599","0.0-65.0","battery-v0.2","","""event"",""trial"",""time""
""fullscreenenter"",""1"",""1147""
""blur"",""80"",""671166""
""focus"",""80"",""678274""
","""event"",""trial"",""time""
""blur"",""80"",""671166""
","""event"",""trial"",""time""
""focus"",""80"",""678274""
","""event"",""trial"",""time""
""fullscreenenter"",""1"",""1147""
","
","","","-1","","","24","10546","2957","w","elianto","#f73b6a7A","-1","-1","1","0","[]","0","2","","","10546","61","3","4","lose","no-go","0"
"pit-trial","180","1528305","0.0-66.0","battery-v0.2","","""event"",""trial"",""time""
""fullscreenenter"",""1"",""1147""
""blur"",""80"",""671166""
""focus"",""80"",""678274""
","""event"",""trial"",""time""
""blur"",""80"",""671166""
","""event"",""trial"",""time""
""focus"",""80"",""678274""
","""event"",""trial"",""time""
""fullscreenenter"",""1"",""1147""
","
","","","850.2000000029802","","","24","10546","2957","e","elianto","#f73b6a7A"," "," ","1","0","[1701.7000000029802]","1","2","","","10546","62","2","3","lose","go","0"
"pit-trial","181","1531937","0.0-67.0","battery-v0.2","","""event"",""trial"",""time""
""fullscreenenter"",""1"",""1147""
""blur"",""80"",""671166""
""focus"",""80"",""678274""
","""event"",""trial"",""time""
""blur"",""80"",""671166""
","""event"",""trial"",""time""
""focus"",""80"",""678274""
","""event"",""trial"",""time""
""fullscreenenter"",""1"",""1147""
","
","","","775.1999999880791","","","24","10546","2957","s","elianto","#3366ff99"," "," ","1","+10","[1627.0999999940395]","1","2","","","10546","63","4","1","win","go","0"
"pit-trial","182","1536796","0.0-68.0","battery-v0.2","","""event"",""trial"",""time""
""fullscreenenter"",""1"",""1147""
""blur"",""80"",""671166""
""focus"",""80"",""678274""
","""event"",""trial"",""time""
""blur"",""80"",""671166""
","""event"",""trial"",""time""
""focus"",""80"",""678274""
","""event"",""trial"",""time""
""fullscreenenter"",""1"",""1147""
","
","","","-1","","","24","10546","2957","d","elianto","#3366ff99","-1","-1","1","+10","[]","0","2","","","10546","64","1","2","win","no-go","0"
"pit-trial","183","1540434","0.0-69.0","battery-v0.2","","""event"",""trial"",""time""
""fullscreenenter"",""1"",""1147""
""blur"",""80"",""671166""
""focus"",""80"",""678274""
","""event"",""trial"",""time""
""blur"",""80"",""671166""
","""event"",""trial"",""time""
""focus"",""80"",""678274""
","""event"",""trial"",""time""
""fullscreenenter"",""1"",""1147""
","
","","","781.9000000059605","","","24","10546","2957","s","elianto","#3366ff99"," "," ","1","0","[1632.300000011921]","1","2","","","10546","65","4","1","win","go","1"
"pit-trial","184","1545292","0.0-70.0","battery-v0.2","","""event"",""trial"",""time""
""fullscreenenter"",""1"",""1147""
""blur"",""80"",""671166""
""focus"",""80"",""678274""
","""event"",""trial"",""time""
""blur"",""80"",""671166""
","""event"",""trial"",""time""
""focus"",""80"",""678274""
","""event"",""trial"",""time""
""fullscreenenter"",""1"",""1147""
","
","","","-1","","","24","10546","2957","w","elianto","#f73b6a7A","-1","-1","1","0","[]","0","2","","","10546","66","3","4","lose","no-go","0"
"pit-trial","185","1549726","0.0-71.0","battery-v0.2","","""event"",""trial"",""time""
""fullscreenenter"",""1"",""1147""
""blur"",""80"",""671166""
""focus"",""80"",""678274""
","""event"",""trial"",""time""
""blur"",""80"",""671166""
","""event"",""trial"",""time""
""focus"",""80"",""678274""
","""event"",""trial"",""time""
""fullscreenenter"",""1"",""1147""
","
","","","1575.1000000089407","","","24","10546","2957","p","elianto","#3366ff99","-1"," ","0","0","[2427.4000000059605]","1","2","","","10546","67","5","2","win","no-go","0"
"pit-trial","186","1554588","0.0-72.0","battery-v0.2","","""event"",""trial"",""time""
""fullscreenenter"",""1"",""1147""
""blur"",""80"",""671166""
""focus"",""80"",""678274""
","""event"",""trial"",""time""
""blur"",""80"",""671166""
","""event"",""trial"",""time""
""focus"",""80"",""678274""
","""event"",""trial"",""time""
""fullscreenenter"",""1"",""1147""
","
","","","-1","","","24","10546","2957","d","elianto","#3366ff99","-1","-1","1","+10","[]","0","2","","","10546","68","1","2","win","no-go","0"
"pit-trial","187","1559447","0.0-73.0","battery-v0.2","","""event"",""trial"",""time""
""fullscreenenter"",""1"",""1147""
""blur"",""80"",""671166""
""focus"",""80"",""678274""
","""event"",""trial"",""time""
""blur"",""80"",""671166""
","""event"",""trial"",""time""
""focus"",""80"",""678274""
","""event"",""trial"",""time""
""fullscreenenter"",""1"",""1147""
","
","","","-1","","","24","10546","2957","p","elianto","#3366ff99","-1","-1","1","+10","[]","0","2","","","10546","69","5","2","win","no-go","0"
"pit-trial","188","1564300","0.0-74.0","battery-v0.2","","""event"",""trial"",""time""
""fullscreenenter"",""1"",""1147""
""blur"",""80"",""671166""
""focus"",""80"",""678274""
","""event"",""trial"",""time""
""blur"",""80"",""671166""
","""event"",""trial"",""time""
""focus"",""80"",""678274""
","""event"",""trial"",""time""
""fullscreenenter"",""1"",""1147""
","
","","","-1","","","24","10546","2957","d","elianto","#3366ff99","-1","-1","1","+10","[]","0","2","","","10546","70","1","2","win","no-go","0"
"pit-trial","189","1568220","0.0-75.0","battery-v0.2","","""event"",""trial"",""time""
""fullscreenenter"",""1"",""1147""
""blur"",""80"",""671166""
""focus"",""80"",""678274""
","""event"",""trial"",""time""
""blur"",""80"",""671166""
","""event"",""trial"",""time""
""focus"",""80"",""678274""
","""event"",""trial"",""time""
""fullscreenenter"",""1"",""1147""
","
","","","1061.1000000089407","","","24","10546","2957","e","elianto","#f73b6a7A"," "," ","1","-10","[1913.0999999940395]","1","2","","","10546","71","2","3","lose","go","1"
"pit-trial","190","1572844","0.0-76.0","battery-v0.2","","""event"",""trial"",""time""
""fullscreenenter"",""1"",""1147""
""blur"",""80"",""671166""
""focus"",""80"",""678274""
","""event"",""trial"",""time""
""blur"",""80"",""671166""
","""event"",""trial"",""time""
""focus"",""80"",""678274""
","""event"",""trial"",""time""
""fullscreenenter"",""1"",""1147""
","
","","","1765.0999999940395","","","24","10546","2957","s","elianto","#3366ff99"," "," ","1","0","[2616.5]","1","2","","","10546","72","4","1","win","go","1"
"pit-trial","191","1577702","0.0-77.0","battery-v0.2","","""event"",""trial"",""time""
""fullscreenenter"",""1"",""1147""
""blur"",""80"",""671166""
""focus"",""80"",""678274""
","""event"",""trial"",""time""
""blur"",""80"",""671166""
","""event"",""trial"",""time""
""focus"",""80"",""678274""
","""event"",""trial"",""time""
""fullscreenenter"",""1"",""1147""
","
","","","-1","","","24","10546","2957","w","elianto","#f73b6a7A","-1","-1","1","0","[]","0","2","","","10546","73","3","4","lose","no-go","0"
"pit-trial","192","1582560","0.0-78.0","battery-v0.2","","""event"",""trial"",""time""
""fullscreenenter"",""1"",""1147""
""blur"",""80"",""671166""
""focus"",""80"",""678274""
","""event"",""trial"",""time""
""blur"",""80"",""671166""
","""event"",""trial"",""time""
""focus"",""80"",""678274""
","""event"",""trial"",""time""
""fullscreenenter"",""1"",""1147""
","
","","","-1","","","24","10546","2957","d","elianto","#3366ff99","-1","-1","1","+10","[]","0","2","","","10546","74","1","2","win","no-go","0"
"pit-trial","193","1587416","0.0-79.0","battery-v0.2","","""event"",""trial"",""time""
""fullscreenenter"",""1"",""1147""
""blur"",""80"",""671166""
""focus"",""80"",""678274""
","""event"",""trial"",""time""
""blur"",""80"",""671166""
","""event"",""trial"",""time""
""focus"",""80"",""678274""
","""event"",""trial"",""time""
""fullscreenenter"",""1"",""1147""
","
","","","-1","","","24","10546","2957","p","elianto","#3366ff99","-1","-1","1","+10","[]","0","2","","","10546","75","5","2","win","no-go","0"
"pit-trial","194","1592273","0.0-80.0","battery-v0.2","","""event"",""trial"",""time""
""fullscreenenter"",""1"",""1147""
""blur"",""80"",""671166""
""focus"",""80"",""678274""
","""event"",""trial"",""time""
""blur"",""80"",""671166""
","""event"",""trial"",""time""
""focus"",""80"",""678274""
","""event"",""trial"",""time""
""fullscreenenter"",""1"",""1147""
","
","","","-1","","","24","10546","2957","s","elianto","#3366ff99"," ","-1","0","0","[]","0","2","","","10546","76","4","1","win","go","0"
"pit-trial","195","1597132","0.0-81.0","battery-v0.2","","""event"",""trial"",""time""
""fullscreenenter"",""1"",""1147""
""blur"",""80"",""671166""
""focus"",""80"",""678274""
","""event"",""trial"",""time""
""blur"",""80"",""671166""
","""event"",""trial"",""time""
""focus"",""80"",""678274""
","""event"",""trial"",""time""
""fullscreenenter"",""1"",""1147""
","
","","","-1","","","24","10546","2957","w","elianto","#f73b6a7A","-1","-1","1","0","[]","0","2","","","10546","77","3","4","lose","no-go","0"
"pit-trial","196","1600640","0.0-82.0","battery-v0.2","","""event"",""trial"",""time""
""fullscreenenter"",""1"",""1147""
""blur"",""80"",""671166""
""focus"",""80"",""678274""
","""event"",""trial"",""time""
""blur"",""80"",""671166""
","""event"",""trial"",""time""
""focus"",""80"",""678274""
","""event"",""trial"",""time""
""fullscreenenter"",""1"",""1147""
","
","","","651","","","24","10546","2957","s","elianto","#3366ff99"," "," ","1","+10","[1502.5]","1","2","","","10546","78","4","1","win","go","0"
"pit-trial","197","1605500","0.0-83.0","battery-v0.2","","""event"",""trial"",""time""
""fullscreenenter"",""1"",""1147""
""blur"",""80"",""671166""
""focus"",""80"",""678274""
","""event"",""trial"",""time""
""blur"",""80"",""671166""
","""event"",""trial"",""time""
""focus"",""80"",""678274""
","""event"",""trial"",""time""
""fullscreenenter"",""1"",""1147""
","
","","","-1","","","24","10546","2957","p","elianto","#3366ff99","-1","-1","1","+10","[]","0","2","","","10546","79","5","2","win","no-go","0"
"pit-trial","198","1609649","0.0-84.0","battery-v0.2","","""event"",""trial"",""time""
""fullscreenenter"",""1"",""1147""
""blur"",""80"",""671166""
""focus"",""80"",""678274""
","""event"",""trial"",""time""
""blur"",""80"",""671166""
","""event"",""trial"",""time""
""focus"",""80"",""678274""
","""event"",""trial"",""time""
""fullscreenenter"",""1"",""1147""
","
","","","1291.199999988079","","","24","10546","2957","s","elianto","#3366ff99"," "," ","1","+10","[2142.199999988079]","1","2","","","10546","80","4","1","win","go","0"
"pit-trial","199","1613185","0.0-85.0","battery-v0.2","","""event"",""trial"",""time""
""fullscreenenter"",""1"",""1147""
""blur"",""80"",""671166""
""focus"",""80"",""678274""
","""event"",""trial"",""time""
""blur"",""80"",""671166""
","""event"",""trial"",""time""
""focus"",""80"",""678274""
","""event"",""trial"",""time""
""fullscreenenter"",""1"",""1147""
","
","","","680.5999999940395","","","24","10546","2957","s","elianto","#3366ff99"," "," ","1","+10","[1531.7000000029802]","1","2","","","10546","81","4","1","win","go","0"
"pit-trial","200","1618044","0.0-86.0","battery-v0.2","","""event"",""trial"",""time""
""fullscreenenter"",""1"",""1147""
""blur"",""80"",""671166""
""focus"",""80"",""678274""
","""event"",""trial"",""time""
""blur"",""80"",""671166""
","""event"",""trial"",""time""
""focus"",""80"",""678274""
","""event"",""trial"",""time""
""fullscreenenter"",""1"",""1147""
","
","","","-1","","","24","10546","2957","w","elianto","#f73b6a7A","-1","-1","1","0","[]","0","2","","","10546","82","3","4","lose","no-go","0"
"pit-trial","201","1622901","0.0-87.0","battery-v0.2","","""event"",""trial"",""time""
""fullscreenenter"",""1"",""1147""
""blur"",""80"",""671166""
""focus"",""80"",""678274""
","""event"",""trial"",""time""
""blur"",""80"",""671166""
","""event"",""trial"",""time""
""focus"",""80"",""678274""
","""event"",""trial"",""time""
""fullscreenenter"",""1"",""1147""
","
","","","-1","","","24","10546","2957","a","elianto","#f73b6a7A","-1","-1","1","-10","[3031.4000000059605]","1","2","","","10546","83","7","4","lose","no-go","1"
"pit-trial","202","1627756","0.0-88.0","battery-v0.2","","""event"",""trial"",""time""
""fullscreenenter"",""1"",""1147""
""blur"",""80"",""671166""
""focus"",""80"",""678274""
","""event"",""trial"",""time""
""blur"",""80"",""671166""
","""event"",""trial"",""time""
""focus"",""80"",""678274""
","""event"",""trial"",""time""
""fullscreenenter"",""1"",""1147""
","
","","","-1","","","24","10546","2957","p","elianto","#3366ff99","-1","-1","1","+10","[]","0","2","","","10546","84","5","2","win","no-go","0"
"pit-trial","203","1632614","0.0-89.0","battery-v0.2","","""event"",""trial"",""time""
""fullscreenenter"",""1"",""1147""
""blur"",""80"",""671166""
""focus"",""80"",""678274""
","""event"",""trial"",""time""
""blur"",""80"",""671166""
","""event"",""trial"",""time""
""focus"",""80"",""678274""
","""event"",""trial"",""time""
""fullscreenenter"",""1"",""1147""
","
","","","-1","","","24","10546","2957","p","elianto","#3366ff99","-1","-1","1","+10","[]","0","2","","","10546","85","5","2","win","no-go","0"
"pit-trial","204","1636614","0.0-90.0","battery-v0.2","","""event"",""trial"",""time""
""fullscreenenter"",""1"",""1147""
""blur"",""80"",""671166""
""focus"",""80"",""678274""
","""event"",""trial"",""time""
""blur"",""80"",""671166""
","""event"",""trial"",""time""
""focus"",""80"",""678274""
","""event"",""trial"",""time""
""fullscreenenter"",""1"",""1147""
","
","","","1143.4000000059605","","","24","10546","2957","g","elianto","#f73b6a7A"," "," ","1","0","[1994.6000000089407]","1","2","","","10546","86","6","3","lose","go","0"
"pit-trial","205","1641265","0.0-91.0","battery-v0.2","","""event"",""trial"",""time""
""fullscreenenter"",""1"",""1147""
""blur"",""80"",""671166""
""focus"",""80"",""678274""
","""event"",""trial"",""time""
""blur"",""80"",""671166""
","""event"",""trial"",""time""
""focus"",""80"",""678274""
","""event"",""trial"",""time""
""fullscreenenter"",""1"",""1147""
","
","","","1792","","","24","10546","2957","a","elianto","#f73b6a7A","-1"," ","0","-10","[2643.7000000029802]","1","2","","","10546","87","7","4","lose","no-go","0"
"pit-trial","206","1645547","0.0-92.0","battery-v0.2","","""event"",""trial"",""time""
""fullscreenenter"",""1"",""1147""
""blur"",""80"",""671166""
""focus"",""80"",""678274""
","""event"",""trial"",""time""
""blur"",""80"",""671166""
","""event"",""trial"",""time""
""focus"",""80"",""678274""
","""event"",""trial"",""time""
""fullscreenenter"",""1"",""1147""
","
","","","1426.5999999940395","","","24","10546","2957","s","elianto","#3366ff99"," "," ","1","+10","[2277.4000000059605]","1","2","","","10546","88","4","1","win","go","0"
"pit-trial","207","1649713","0.0-93.0","battery-v0.2","","""event"",""trial"",""time""
""fullscreenenter"",""1"",""1147""
""blur"",""80"",""671166""
""focus"",""80"",""678274""
","""event"",""trial"",""time""
""blur"",""80"",""671166""
","""event"",""trial"",""time""
""focus"",""80"",""678274""
","""event"",""trial"",""time""
""fullscreenenter"",""1"",""1147""
","
