"trial_type","trial_index","time_elapsed","internal_node_id","task_version","subject_id","interactions","blur_events","focus_events","fullscreenenter_events","fullscreenexit_events","success","view_history","rt","responses","num_errors","age","subject","participantId","rune","rune_set","hex","correct","choice","accuracy","outcome","keys","total_keys","block","practice","value","sub","trial","stimulus","robot","valence","action","sham"
"pavlovia","0","12","0.0-0.0","battery-v0.2","","""event"",""trial"",""time""
""fullscreenenter"",""1"",""4201""
","
","
","""event"",""trial"",""time""
""fullscreenenter"",""1"",""4201""
","
","","","","","","","","","","","","","","","","","","","","","","","","","","",""
"fullscreen","1","5160","0.0-1.0","battery-v0.2","","""event"",""trial"",""time""
""fullscreenenter"",""1"",""4201""
","
","
","""event"",""trial"",""time""
""fullscreenenter"",""1"",""4201""
","
","true","","","","","","","","","","","","","","","","","","","","","","","","","",""
"pit-instructions","2","12975","0.0-2.0-0.0","battery-v0.2","","""event"",""trial"",""time""
""fullscreenenter"",""1"",""4201""
","
","
","""event"",""trial"",""time""
""fullscreenenter"",""1"",""4201""
","
","","[{""page_index"":0,""viewing_time"":7810.899999976158}]","7811.399999976158","","","","","","","","","","","","","","","","","","","","","","","",""
"pit-comprehension","3","17104","0.0-2.0-1.0-0.0","battery-v0.2","","""event"",""trial"",""time""
""fullscreenenter"",""1"",""4201""
","
","
","""event"",""trial"",""time""
""fullscreenenter"",""1"",""4201""
","
","","","4125.599999964237","[""shark""]","0","13","10098","4829","","","","","","","","","","","","","","","","","","",""
"pit-instructions","4","25503","0.0-2.0-1.0-1.0","battery-v0.2","","""event"",""trial"",""time""
""fullscreenenter"",""1"",""4201""
","
","
","""event"",""trial"",""time""
""fullscreenenter"",""1"",""4201""
","
","","[{""page_index"":0,""viewing_time"":8383}]","8383.5","","","","","","","","","","","","","","","","","","","","","","","",""
"pit-comprehension","5","28575","0.0-2.0-2.0-0.0","battery-v0.2","","""event"",""trial"",""time""
""fullscreenenter"",""1"",""4201""
","
","
","""event"",""trial"",""time""
""fullscreenenter"",""1"",""4201""
","
","","","3068.7000000476837","[""tiger""]","0","13","10098","4829","","","","","","","","","","","","","","","","","","",""
"pit-instructions","6","30679","0.0-2.0-2.0-1.0","battery-v0.2","","""event"",""trial"",""time""
""fullscreenenter"",""1"",""4201""
","
","
","""event"",""trial"",""time""
""fullscreenenter"",""1"",""4201""
","
","","[{""page_index"":0,""viewing_time"":2099.899999976158}]","2100.399999976158","","","","","","","","","","","","","","","","","","","","","","","",""
"pit-instructions","7","159688","0.0-2.0-3.0","battery-v0.2","","""event"",""trial"",""time""
""fullscreenenter"",""1"",""4201""
","
","
","""event"",""trial"",""time""
""fullscreenenter"",""1"",""4201""
","
","","[{""page_index"":0,""viewing_time"":13675.600000023842},{""page_index"":1,""viewing_time"":10376.099999964237},{""page_index"":2,""viewing_time"":14899},{""page_index"":3,""viewing_time"":11173.5},{""page_index"":4,""viewing_time"":7847.400000035763},{""page_index"":5,""viewing_time"":6472.399999976158},{""page_index"":6,""viewing_time"":8328.199999988079},{""page_index"":7,""viewing_time"":7751.900000035763},{""page_index"":8,""viewing_time"":6943.699999988079},{""page_index"":9,""viewing_time"":10744.5},{""page_index"":10,""viewing_time"":8432.199999988079},{""page_index"":11,""viewing_time"":7575.900000035763},{""page_index"":12,""viewing_time"":8904.299999952316},{""page_index"":13,""viewing_time"":5880.200000047684}]","129005.19999998808","","","","","","","","","","","","","","","","","","","","","","","",""
"pit-trial","8","163263","0.0-2.0-4.0-0.0","battery-v0.2","","""event"",""trial"",""time""
""fullscreenenter"",""1"",""4201""
","
","
","""event"",""trial"",""time""
""fullscreenenter"",""1"",""4201""
","
","","","715.5","","","13","10098","4829","&#9784;","elianto","#FFFFF080"," "," ","1","&#10004","[1571.199999988079]","1","0","0","","","","","","","",""
"pit-trial","9","166720","0.0-2.0-4.1-0.1","battery-v0.2","","""event"",""trial"",""time""
""fullscreenenter"",""1"",""4201""
","
","
","""event"",""trial"",""time""
""fullscreenenter"",""1"",""4201""
","
","","","591.8999999761581","","","13","10098","4829","&#9784;","elianto","#FFFFF080"," "," ","1","&#10004","[1448.1000000238419]","1","0","0","","","","","","","",""
"pit-trial","10","170250","0.0-2.0-4.2-0.2","battery-v0.2","","""event"",""trial"",""time""
""fullscreenenter"",""1"",""4201""
","
","
","""event"",""trial"",""time""
""fullscreenenter"",""1"",""4201""
","
","","","667.8999999761581","","","13","10098","4829","&#9784;","elianto","#FFFFF080"," "," ","1","&#10004","[1520.8999999761581]","1","0","0","","","","","","","",""
"pit-trial","11","173662","0.0-2.0-4.3-0.3","battery-v0.2","","""event"",""trial"",""time""
""fullscreenenter"",""1"",""4201""
","
","
","""event"",""trial"",""time""
""fullscreenenter"",""1"",""4201""
","
","","","551.1999999880791","","","13","10098","4829","&#9784;","elianto","#FFFFF080"," "," ","1","&#10004","[1408]","1","0","0","","","","","","","",""
"pit-trial","12","177416","0.0-2.0-4.4-0.4","battery-v0.2","","""event"",""trial"",""time""
""fullscreenenter"",""1"",""4201""
","
","
","""event"",""trial"",""time""
""fullscreenenter"",""1"",""4201""
","
","","","883","","","13","10098","4829","&#9784;","elianto","#FFFFF080"," "," ","1","&#10004","[1744.1000000238419]","1","0","0","","","","","","","",""
"pit-instructions","13","200776","0.0-2.0-5.0","battery-v0.2","","""event"",""trial"",""time""
""fullscreenenter"",""1"",""4201""
","
","
","""event"",""trial"",""time""
""fullscreenenter"",""1"",""4201""
","
","","[{""page_index"":0,""viewing_time"":5828.300000011921},{""page_index"":1,""viewing_time"":6320.399999976158},{""page_index"":2,""viewing_time"":5840.100000023842},{""page_index"":3,""viewing_time"":5367.699999988079}]","23356.80000001192","","","","","","","","","","","","","","","","","","","","","","","",""
"pit-trial","14","205646","0.0-2.0-6.0-0.0","battery-v0.2","","""event"",""trial"",""time""
""fullscreenenter"",""1"",""4201""
","
","
","""event"",""trial"",""time""
""fullscreenenter"",""1"",""4201""
","
","","","-1","","","13","10098","4829","&#9854;","elianto","#FFFFF080","-1","-1","1","&#10004","[]","0","0","1","","","","","","","",""
"pit-trial","15","210513","0.0-2.0-6.1-0.1","battery-v0.2","","""event"",""trial"",""time""
""fullscreenenter"",""1"",""4201""
","
","
","""event"",""trial"",""time""
""fullscreenenter"",""1"",""4201""
","
","","","-1","","","13","10098","4829","&#9854;","elianto","#FFFFF080","-1","-1","1","&#10004","[]","0","0","1","","","","","","","",""
"pit-trial","16","215380","0.0-2.0-6.2-0.2","battery-v0.2","","""event"",""trial"",""time""
""fullscreenenter"",""1"",""4201""
","
","
","""event"",""trial"",""time""
""fullscreenenter"",""1"",""4201""
","
","","","-1","","","13","10098","4829","&#9854;","elianto","#FFFFF080","-1","-1","1","&#10004","[]","0","0","1","","","","","","","",""
"pit-trial","17","220244","0.0-2.0-6.3-0.3","battery-v0.2","","""event"",""trial"",""time""
""fullscreenenter"",""1"",""4201""
","
","
","""event"",""trial"",""time""
""fullscreenenter"",""1"",""4201""
","
","","","-1","","","13","10098","4829","&#9854;","elianto","#FFFFF080","-1","-1","1","&#10004","[]","0","0","1","","","","","","","",""
"pit-trial","18","225104","0.0-2.0-6.4-0.4","battery-v0.2","","""event"",""trial"",""time""
""fullscreenenter"",""1"",""4201""
","
","
","""event"",""trial"",""time""
""fullscreenenter"",""1"",""4201""
","
","","","-1","","","13","10098","4829","&#9854;","elianto","#FFFFF080","-1","-1","1","&#10004","[]","0","0","1","","","","","","","",""
"pit-instructions","19","343570","0.0-2.0-7.0","battery-v0.2","","""event"",""trial"",""time""
""fullscreenenter"",""1"",""4201""
","
","
","""event"",""trial"",""time""
""fullscreenenter"",""1"",""4201""
","
","","[{""page_index"":0,""viewing_time"":5941.899999976158},{""page_index"":1,""viewing_time"":6704.199999988079},{""page_index"":2,""viewing_time"":5904.100000023842},{""page_index"":3,""viewing_time"":6288},{""page_index"":4,""viewing_time"":5831.899999976158},{""page_index"":5,""viewing_time"":5432.700000047684},{""page_index"":6,""viewing_time"":4527.699999988079},{""page_index"":7,""viewing_time"":13386.199999988079},{""page_index"":8,""viewing_time"":6566},{""page_index"":9,""viewing_time"":7224.300000011921},{""page_index"":10,""viewing_time"":6183.899999976158},{""page_index"":11,""viewing_time"":4608.300000011921},{""page_index"":12,""viewing_time"":6816.199999988079},{""page_index"":13,""viewing_time"":7040.100000023842},{""page_index"":14,""viewing_time"":6904},{""page_index"":15,""viewing_time"":6192},{""page_index"":16,""viewing_time"":6128.199999988079},{""page_index"":17,""viewing_time"":6784}]","118464.19999998808","","","","","","","","","","","","","","","","","","","","","","","",""
"pit-trial","20","347253","0.0-2.0-8.0-0.0","battery-v0.2","","""event"",""trial"",""time""
""fullscreenenter"",""1"",""4201""
","
","
","""event"",""trial"",""time""
""fullscreenenter"",""1"",""4201""
","
","","","821.9000000357628","","","13","10098","4829","&#9776;","elianto","#3366ff99"," "," ","1","+10","[1672.5]","1","0","1","","","","","","","",""
"pit-trial","21","350989","0.0-2.0-8.0-1.0","battery-v0.2","","""event"",""trial"",""time""
""fullscreenenter"",""1"",""4201""
","
","
","""event"",""trial"",""time""
""fullscreenenter"",""1"",""4201""
","
","","","867.5","","","13","10098","4829","&#9776;","elianto","#3366ff99"," "," ","1","+10","[1717.5]","1","0","1","","","","","","","",""
"pit-trial","22","354642","0.0-2.0-8.0-2.0","battery-v0.2","","""event"",""trial"",""time""
""fullscreenenter"",""1"",""4201""
","
","
","""event"",""trial"",""time""
""fullscreenenter"",""1"",""4201""
","
","","","790.5","","","13","10098","4829","&#9776;","elianto","#3366ff99"," "," ","1","+10","[1652.300000011921]","1","0","1","","","","","","","",""
"pit-trial","23","358318","0.0-2.0-8.0-3.0","battery-v0.2","","""event"",""trial"",""time""
""fullscreenenter"",""1"",""4201""
","
","
","""event"",""trial"",""time""
""fullscreenenter"",""1"",""4201""
","
","","","815.1000000238419","","","13","10098","4829","&#9776;","elianto","#3366ff99"," "," ","1","0","[1672.9000000357628]","1","0","1","","","","","","","",""
"pit-trial","24","361871","0.0-2.0-8.0-4.0","battery-v0.2","","""event"",""trial"",""time""
""fullscreenenter"",""1"",""4201""
","
","
","""event"",""trial"",""time""
""fullscreenenter"",""1"",""4201""
","
","","","685","","","13","10098","4829","&#9776;","elianto","#3366ff99"," "," ","1","+10","[1536.800000011921]","1","0","1","","","","","","","",""
"pit-trial","25","365708","0.0-2.0-8.1-0.1","battery-v0.2","","""event"",""trial"",""time""
""fullscreenenter"",""1"",""4201""
","
","
","""event"",""trial"",""time""
""fullscreenenter"",""1"",""4201""
","
","","","975","","","13","10098","4829","&#9776;","elianto","#3366ff99"," "," ","1","+10","[1825.6000000238419]","1","0","1","","","","","","","",""
"pit-trial","26","369293","0.0-2.0-8.1-1.1","battery-v0.2","","""event"",""trial"",""time""
""fullscreenenter"",""1"",""4201""
","
","
","""event"",""trial"",""time""
""fullscreenenter"",""1"",""4201""
","
","","","722.3000000119209","","","13","10098","4829","&#9776;","elianto","#3366ff99"," "," ","1","+10","[1573.7000000476837]","1","0","1","","","","","","","",""
"pit-trial","27","372921","0.0-2.0-8.1-2.1","battery-v0.2","","""event"",""trial"",""time""
""fullscreenenter"",""1"",""4201""
","
","
","""event"",""trial"",""time""
""fullscreenenter"",""1"",""4201""
","
","","","765.6999999880791","","","13","10098","4829","&#9776;","elianto","#3366ff99"," "," ","1","+10","[1622.300000011921]","1","0","1","","","","","","","",""
"pit-trial","28","376069","0.0-2.0-8.1-3.1","battery-v0.2","","""event"",""trial"",""time""
""fullscreenenter"",""1"",""4201""
","
","
","""event"",""trial"",""time""
""fullscreenenter"",""1"",""4201""
","
","","","290.80000001192093","","","13","10098","4829","&#9776;","elianto","#3366ff99"," "," ","1","0","[1142.6000000238419]","1","0","1","","","","","","","",""
"pit-trial","29","379452","0.0-2.0-8.1-4.1","battery-v0.2","","""event"",""trial"",""time""
""fullscreenenter"",""1"",""4201""
","
","
","""event"",""trial"",""time""
""fullscreenenter"",""1"",""4201""
","
","","","530.1000000238419","","","13","10098","4829","&#9776;","elianto","#3366ff99"," "," ","1","+10","[1380.4000000357628]","1","0","1","","","","","","","",""
"pit-trial","30","383286","0.0-2.0-8.2-0.2","battery-v0.2","","""event"",""trial"",""time""
""fullscreenenter"",""1"",""4201""
","
","
","""event"",""trial"",""time""
""fullscreenenter"",""1"",""4201""
","
","","","981.4000000357628","","","13","10098","4829","&#9776;","elianto","#3366ff99"," "," ","1","+10","[1832.1000000238419]","1","0","1","","","","","","","",""
"pit-trial","31","386701","0.0-2.0-8.2-1.2","battery-v0.2","","""event"",""trial"",""time""
""fullscreenenter"",""1"",""4201""
","
","
","""event"",""trial"",""time""
""fullscreenenter"",""1"",""4201""
","
","","","562.3000000119209","","","13","10098","4829","&#9776;","elianto","#3366ff99"," "," ","1","+10","[1412.6000000238419]","1","0","1","","","","","","","",""
"pit-trial","32","390170","0.0-2.0-8.2-2.2","battery-v0.2","","""event"",""trial"",""time""
""fullscreenenter"",""1"",""4201""
","
","
","""event"",""trial"",""time""
""fullscreenenter"",""1"",""4201""
","
","","","614.7999999523163","","","13","10098","4829","&#9776;","elianto","#3366ff99"," "," ","1","+10","[1465.5]","1","0","1","","","","","","","",""
"pit-trial","33","393424","0.0-2.0-8.2-3.2","battery-v0.2","","""event"",""trial"",""time""
""fullscreenenter"",""1"",""4201""
","
","
","""event"",""trial"",""time""
""fullscreenenter"",""1"",""4201""
","
","","","401.39999997615814","","","13","10098","4829","&#9776;","elianto","#3366ff99"," "," ","1","0","[1251.5999999642372]","1","0","1","","","","","","","",""
"pit-trial","34","396567","0.0-2.0-8.2-4.2","battery-v0.2","","""event"",""trial"",""time""
""fullscreenenter"",""1"",""4201""
","
","
","""event"",""trial"",""time""
""fullscreenenter"",""1"",""4201""
","
","","","290","","","13","10098","4829","&#9776;","elianto","#3366ff99"," "," ","1","+10","[1142]","1","0","1","","","","","","","",""
"call-function","35","396569","0.0-2.0-9.0","battery-v0.2","","""event"",""trial"",""time""
""fullscreenenter"",""1"",""4201""
","
","
","""event"",""trial"",""time""
""fullscreenenter"",""1"",""4201""
","
","","","","","","","","","","","","","","","","","","","","","","","","","","",""
"pit-instructions","36","436060","0.0-2.0-10.0","battery-v0.2","","""event"",""trial"",""time""
""fullscreenenter"",""1"",""4201""
","
","
","""event"",""trial"",""time""
""fullscreenenter"",""1"",""4201""
","
","","[{""page_index"":0,""viewing_time"":6202.199999988079},{""page_index"":1,""viewing_time"":7344.100000023842},{""page_index"":2,""viewing_time"":9287.899999976158},{""page_index"":3,""viewing_time"":9208.399999976158},{""page_index"":4,""viewing_time"":7448.100000023842}]","39491.19999998808","","","","","","","","","","","","","","","","","","","","","","","",""
"pit-trial","37","439621","0.0-2.0-11.0-0.0","battery-v0.2","","""event"",""trial"",""time""
""fullscreenenter"",""1"",""4201""
","
","
","""event"",""trial"",""time""
""fullscreenenter"",""1"",""4201""
","
","","","703.6999999880791","","","13","10098","4829","&#9761;","elianto","#3366ff99","-1"," ","0","0","[1557.4000000357628]","1","0","2","","","","","","","",""
"pit-trial","38","442975","0.0-2.0-11.0-1.0","battery-v0.2","","""event"",""trial"",""time""
""fullscreenenter"",""1"",""4201""
","
","
","""event"",""trial"",""time""
""fullscreenenter"",""1"",""4201""
","
","","","488.69999998807907","","","13","10098","4829","&#9761;","elianto","#3366ff99","-1"," ","0","0","[1343.199999988079]","1","0","2","","","","","","","",""
"pit-trial","39","446286","0.0-2.0-11.0-2.0","battery-v0.2","","""event"",""trial"",""time""
""fullscreenenter"",""1"",""4201""
","
","
","""event"",""trial"",""time""
""fullscreenenter"",""1"",""4201""
","
","","","444.19999998807907","","","13","10098","4829","&#9761;","elianto","#3366ff99","-1"," ","0","0","[1298.199999988079]","1","0","2","","","","","","","",""
"pit-trial","40","451159","0.0-2.0-11.0-3.0","battery-v0.2","","""event"",""trial"",""time""
""fullscreenenter"",""1"",""4201""
","
","
","""event"",""trial"",""time""
""fullscreenenter"",""1"",""4201""
","
","","","-1","","","13","10098","4829","&#9761;","elianto","#3366ff99","-1","-1","1","0","[]","0","0","2","","","","","","","",""
"pit-trial","41","455664","0.0-2.0-11.0-4.0","battery-v0.2","","""event"",""trial"",""time""
""fullscreenenter"",""1"",""4201""
","
","
","""event"",""trial"",""time""
""fullscreenenter"",""1"",""4201""
","
","","","1645.7000000476837","","","13","10098","4829","&#9761;","elianto","#3366ff99","-1"," ","0","0","[2499.800000011921]","1","0","2","","","","","","","",""
"pit-trial","42","460542","0.0-2.0-11.1-0.1","battery-v0.2","","""event"",""trial"",""time""
""fullscreenenter"",""1"",""4201""
","
","
","""event"",""trial"",""time""
""fullscreenenter"",""1"",""4201""
","
","","","-1","","","13","10098","4829","&#9761;","elianto","#3366ff99","-1","-1","1","+10","[]","0","0","2","","","","","","","",""
"pit-trial","43","465415","0.0-2.0-11.1-1.1","battery-v0.2","","""event"",""trial"",""time""
""fullscreenenter"",""1"",""4201""
","
","
","""event"",""trial"",""time""
""fullscreenenter"",""1"",""4201""
","
","","","-1","","","13","10098","4829","&#9761;","elianto","#3366ff99","-1","-1","1","+10","[]","0","0","2","","","","","","","",""
"pit-trial","44","470269","0.0-2.0-11.1-2.1","battery-v0.2","","""event"",""trial"",""time""
""fullscreenenter"",""1"",""4201""
","
","
","""event"",""trial"",""time""
""fullscreenenter"",""1"",""4201""
","
","","","-1","","","13","10098","4829","&#9761;","elianto","#3366ff99","-1","-1","1","+10","[]","0","0","2","","","","","","","",""
"pit-trial","45","473563","0.0-2.0-11.1-3.1","battery-v0.2","","""event"",""trial"",""time""
""fullscreenenter"",""1"",""4201""
","
","
","""event"",""trial"",""time""
""fullscreenenter"",""1"",""4201""
","
","","","441.80000001192093","","","13","10098","4829","&#9761;","elianto","#3366ff99","-1"," ","0","+10","[1292.5999999642372]","1","0","2","","","","","","","",""
"pit-trial","46","477649","0.0-2.0-11.1-4.1","battery-v0.2","","""event"",""trial"",""time""
""fullscreenenter"",""1"",""4201""
","
","
","""event"",""trial"",""time""
""fullscreenenter"",""1"",""4201""
","
","","","1232.1000000238419","","","13","10098","4829","&#9761;","elianto","#3366ff99","-1"," ","0","0","[2083.100000023842]","1","0","2","","","","","","","",""
"pit-trial","47","481816","0.0-2.0-11.2-0.2","battery-v0.2","","""event"",""trial"",""time""
""fullscreenenter"",""1"",""4201""
","
","
","""event"",""trial"",""time""
""fullscreenenter"",""1"",""4201""
","
","","","1313.300000011921","","","13","10098","4829","&#9761;","elianto","#3366ff99","-1"," ","0","0","[2164.5]","1","0","2","","","","","","","",""
"pit-trial","48","486669","0.0-2.0-11.2-1.2","battery-v0.2","","""event"",""trial"",""time""
""fullscreenenter"",""1"",""4201""
","
","
","""event"",""trial"",""time""
""fullscreenenter"",""1"",""4201""
","
","","","-1","","","13","10098","4829","&#9761;","elianto","#3366ff99","-1","-1","1","+10","[]","0","0","2","","","","","","","",""
"pit-trial","49","490671","0.0-2.0-11.2-2.2","battery-v0.2","","""event"",""trial"",""time""
""fullscreenenter"",""1"",""4201""
","
","
","""event"",""trial"",""time""
""fullscreenenter"",""1"",""4201""
","
","","","1149.800000011921","","","13","10098","4829","&#9761;","elianto","#3366ff99","-1"," ","0","0","[2000.5]","1","0","2","","","","","","","",""
"pit-trial","50","495524","0.0-2.0-11.2-3.2","battery-v0.2","","""event"",""trial"",""time""
""fullscreenenter"",""1"",""4201""
","
","
","""event"",""trial"",""time""
""fullscreenenter"",""1"",""4201""
","
","","","-1","","","13","10098","4829","&#9761;","elianto","#3366ff99","-1","-1","1","0","[]","0","0","2","","","","","","","",""
"pit-trial","51","500378","0.0-2.0-11.2-4.2","battery-v0.2","","""event"",""trial"",""time""
""fullscreenenter"",""1"",""4201""
","
","
","""event"",""trial"",""time""
""fullscreenenter"",""1"",""4201""
","
","","","-1","","","13","10098","4829","&#9761;","elianto","#3366ff99","-1","-1","1","+10","[]","0","0","2","","","","","","","",""
"pit-trial","52","505167","0.0-2.0-11.3-0.3","battery-v0.2","","""event"",""trial"",""time""
""fullscreenenter"",""1"",""4201""
","
","
","""event"",""trial"",""time""
""fullscreenenter"",""1"",""4201""
","
","","","1933.8999999761581","","","13","10098","4829","&#9761;","elianto","#3366ff99","-1"," ","0","0","[2786.100000023842]","1","0","2","","","","","","","",""
"pit-trial","53","508523","0.0-2.0-11.3-1.3","battery-v0.2","","""event"",""trial"",""time""
""fullscreenenter"",""1"",""4201""
","
","
","""event"",""trial"",""time""
""fullscreenenter"",""1"",""4201""
","
","","","504.5","","","13","10098","4829","&#9761;","elianto","#3366ff99","-1"," ","0","0","[1354.5999999642372]","1","0","2","","","","","","","",""
"pit-trial","54","512138","0.0-2.0-11.3-2.3","battery-v0.2","","""event"",""trial"",""time""
""fullscreenenter"",""1"",""4201""
","
","
","""event"",""trial"",""time""
""fullscreenenter"",""1"",""4201""
","
","","","761.6999999880791","","","13","10098","4829","&#9761;","elianto","#3366ff99","-1"," ","0","0","[1612.4000000357628]","1","0","2","","","","","","","",""
"pit-trial","55","515807","0.0-2.0-11.3-3.3","battery-v0.2","","""event"",""trial"",""time""
""fullscreenenter"",""1"",""4201""
","
","
","""event"",""trial"",""time""
""fullscreenenter"",""1"",""4201""
","
","","","817","","","13","10098","4829","&#9761;","elianto","#3366ff99","-1"," ","0","+10","[1667.199999988079]","1","0","2","","","","","","","",""
"pit-trial","56","520660","0.0-2.0-11.3-4.3","battery-v0.2","","""event"",""trial"",""time""
""fullscreenenter"",""1"",""4201""
","
","
","""event"",""trial"",""time""
""fullscreenenter"",""1"",""4201""
","
","","","-1","","","13","10098","4829","&#9761;","elianto","#3366ff99","-1","-1","1","+10","[2910.600000023842]","1","0","2","","","","","","","",""
"call-function","57","520661","0.0-2.0-12.0","battery-v0.2","","""event"",""trial"",""time""
""fullscreenenter"",""1"",""4201""
","
","
","""event"",""trial"",""time""
""fullscreenenter"",""1"",""4201""
","
","","","","","","","","","","","","","","","","","","","","","","","","","","",""
"pit-instructions","58","551734","0.0-2.0-13.0","battery-v0.2","","""event"",""trial"",""time""
""fullscreenenter"",""1"",""4201""
","
","
","""event"",""trial"",""time""
""fullscreenenter"",""1"",""4201""
","
","","[{""page_index"":0,""viewing_time"":5063.600000023842},{""page_index"":1,""viewing_time"":7080.399999976158},{""page_index"":2,""viewing_time"":3383.5},{""page_index"":3,""viewing_time"":10520.300000011921},{""page_index"":4,""viewing_time"":5024.300000011921}]","31072.600000023842","","","","","","","","","","","","","","","","","","","","","","","",""
"pit-trial","59","555362","0.0-2.0-14.0-0.0","battery-v0.2","","""event"",""trial"",""time""
""fullscreenenter"",""1"",""4201""
","
","
","""event"",""trial"",""time""
""fullscreenenter"",""1"",""4201""
","
","","","756.3000000119209","","","13","10098","4829","&#9826;","elianto","#f73b6a7A","-1"," ","0","-10","[1615.699999988079]","1","0","3","","","","","","","",""
"pit-trial","60","558849","0.0-2.0-14.0-1.0","battery-v0.2","","""event"",""trial"",""time""
""fullscreenenter"",""1"",""4201""
","
","
","""event"",""trial"",""time""
""fullscreenenter"",""1"",""4201""
","
","","","634.9000000357628","","","13","10098","4829","&#9826;","elianto","#f73b6a7A","-1"," ","0","-10","[1485.3999999761581]","1","0","3","","","","","","","",""
"pit-trial","61","562352","0.0-2.0-14.0-2.0","battery-v0.2","","""event"",""trial"",""time""
""fullscreenenter"",""1"",""4201""
","
","
","""event"",""trial"",""time""
""fullscreenenter"",""1"",""4201""
","
","","","636.6000000238419","","","13","10098","4829","&#9826;","elianto","#f73b6a7A","-1"," ","0","-10","[1491.1000000238419]","1","0","3","","","","","","","",""
"pit-trial","62","567214","0.0-2.0-14.0-3.0","battery-v0.2","","""event"",""trial"",""time""
""fullscreenenter"",""1"",""4201""
","
","
","""event"",""trial"",""time""
""fullscreenenter"",""1"",""4201""
","
","","","-1","","","13","10098","4829","&#9826;","elianto","#f73b6a7A","-1","-1","1","-10","[]","0","0","3","","","","","","","",""
"pit-trial","63","572082","0.0-2.0-14.0-4.0","battery-v0.2","","""event"",""trial"",""time""
""fullscreenenter"",""1"",""4201""
","
","
","""event"",""trial"",""time""
""fullscreenenter"",""1"",""4201""
","
","","","-1","","","13","10098","4829","&#9826;","elianto","#f73b6a7A","-1","-1","1","0","[]","0","0","3","","","","","","","",""
"pit-trial","64","576965","0.0-2.0-14.1-0.1","battery-v0.2","","""event"",""trial"",""time""
""fullscreenenter"",""1"",""4201""
","
","
","""event"",""trial"",""time""
""fullscreenenter"",""1"",""4201""
","
","","","-1","","","13","10098","4829","&#9826;","elianto","#f73b6a7A","-1","-1","1","0","[]","0","0","3","","","","","","","",""
"pit-trial","65","581821","0.0-2.0-14.1-1.1","battery-v0.2","","""event"",""trial"",""time""
""fullscreenenter"",""1"",""4201""
","
","
","""event"",""trial"",""time""
""fullscreenenter"",""1"",""4201""
","
","","","-1","","","13","10098","4829","&#9826;","elianto","#f73b6a7A","-1","-1","1","0","[]","0","0","3","","","","","","","",""
"pit-trial","66","586674","0.0-2.0-14.1-2.1","battery-v0.2","","""event"",""trial"",""time""
""fullscreenenter"",""1"",""4201""
","
","
","""event"",""trial"",""time""
""fullscreenenter"",""1"",""4201""
","
","","","-1","","","13","10098","4829","&#9826;","elianto","#f73b6a7A","-1","-1","1","0","[3043.400000035763]","1","0","3","","","","","","","",""
"pit-trial","67","591216","0.0-2.0-14.1-3.1","battery-v0.2","","""event"",""trial"",""time""
""fullscreenenter"",""1"",""4201""
","
","
","""event"",""trial"",""time""
""fullscreenenter"",""1"",""4201""
","
","","","1689.6000000238419","","","13","10098","4829","&#9826;","elianto","#f73b6a7A","-1"," ","0","0","[2540.2000000476837]","1","0","3","","","","","","","",""
"pit-trial","68","594926","0.0-2.0-14.1-4.1","battery-v0.2","","""event"",""trial"",""time""
""fullscreenenter"",""1"",""4201""
","
","
","""event"",""trial"",""time""
""fullscreenenter"",""1"",""4201""
","
","","","857.1999999880791","","","13","10098","4829","&#9826;","elianto","#f73b6a7A","-1"," ","0","-10","[1707.9000000357628]","1","0","3","","","","","","","",""
"pit-trial","69","598479","0.0-2.0-14.2-0.2","battery-v0.2","","""event"",""trial"",""time""
""fullscreenenter"",""1"",""4201""
","
","
","""event"",""trial"",""time""
""fullscreenenter"",""1"",""4201""
","
","","","697.6999999880791","","","13","10098","4829","&#9826;","elianto","#f73b6a7A","-1"," ","0","-10","[1548.699999988079]","1","0","3","","","","","","","",""
"pit-trial","70","603332","0.0-2.0-14.2-1.2","battery-v0.2","","""event"",""trial"",""time""
""fullscreenenter"",""1"",""4201""
","
","
","""event"",""trial"",""time""
""fullscreenenter"",""1"",""4201""
","
","","","-1","","","13","10098","4829","&#9826;","elianto","#f73b6a7A","-1","-1","1","0","[]","0","0","3","","","","","","","",""
"pit-trial","71","608184","0.0-2.0-14.2-2.2","battery-v0.2","","""event"",""trial"",""time""
""fullscreenenter"",""1"",""4201""
","
","
","""event"",""trial"",""time""
""fullscreenenter"",""1"",""4201""
","
","","","-1","","","13","10098","4829","&#9826;","elianto","#f73b6a7A","-1","-1","1","0","[]","0","0","3","","","","","","","",""
"pit-trial","72","611815","0.0-2.0-14.2-3.2","battery-v0.2","","""event"",""trial"",""time""
""fullscreenenter"",""1"",""4201""
","
","
","""event"",""trial"",""time""
""fullscreenenter"",""1"",""4201""
","
","","","778.1999999880791","","","13","10098","4829","&#9826;","elianto","#f73b6a7A","-1"," ","0","0","[1629.1000000238419]","1","0","3","","","","","","","",""
"pit-trial","73","615605","0.0-2.0-14.2-4.2","battery-v0.2","","""event"",""trial"",""time""
""fullscreenenter"",""1"",""4201""
","
","
","""event"",""trial"",""time""
""fullscreenenter"",""1"",""4201""
","
","","","937.8000000119209","","","13","10098","4829","&#9826;","elianto","#f73b6a7A","-1"," ","0","-10","[1788.199999988079]","1","0","3","","","","","","","",""
"pit-trial","74","620459","0.0-2.0-14.3-0.3","battery-v0.2","","""event"",""trial"",""time""
""fullscreenenter"",""1"",""4201""
","
","
","""event"",""trial"",""time""
""fullscreenenter"",""1"",""4201""
","
","","","-1","","","13","10098","4829","&#9826;","elianto","#f73b6a7A","-1","-1","1","0","[]","0","0","3","","","","","","","",""
"pit-trial","75","624330","0.0-2.0-14.3-1.3","battery-v0.2","","""event"",""trial"",""time""
""fullscreenenter"",""1"",""4201""
","
","
","""event"",""trial"",""time""
""fullscreenenter"",""1"",""4201""
","
","","","1017.1000000238419","","","13","10098","4829","&#9826;","elianto","#f73b6a7A","-1"," ","0","-10","[1868.6000000238419]","1","0","3","","","","","","","",""
"pit-trial","76","629182","0.0-2.0-14.3-2.3","battery-v0.2","","""event"",""trial"",""time""
""fullscreenenter"",""1"",""4201""
","
","
","""event"",""trial"",""time""
""fullscreenenter"",""1"",""4201""
","
","","","-1","","","13","10098","4829","&#9826;","elianto","#f73b6a7A","-1","-1","1","0","[2971.5]","1","0","3","","","","","","","",""
"pit-trial","77","634035","0.0-2.0-14.3-3.3","battery-v0.2","","""event"",""trial"",""time""
""fullscreenenter"",""1"",""4201""
","
","
","""event"",""trial"",""time""
""fullscreenenter"",""1"",""4201""
","
","","","-1","","","13","10098","4829","&#9826;","elianto","#f73b6a7A","-1","-1","1","-10","[]","0","0","3","","","","","","","",""
"pit-trial","78","638356","0.0-2.0-14.3-4.3","battery-v0.2","","""event"",""trial"",""time""
""fullscreenenter"",""1"",""4201""
","
","
","""event"",""trial"",""time""
""fullscreenenter"",""1"",""4201""
","
","","","1467.0999999642372","","","13","10098","4829","&#9826;","elianto","#f73b6a7A","-1"," ","0","-10","[2318.199999988079]","1","0","3","","","","","","","",""
"call-function","79","638358","0.0-2.0-15.0","battery-v0.2","","""event"",""trial"",""time""
""fullscreenenter"",""1"",""4201""
","
","
","""event"",""trial"",""time""
""fullscreenenter"",""1"",""4201""
","
","","","","","","","","","","","","","","","","","","","","","","","","","","",""
"pit-instructions","80","662079","0.0-2.0-16.0","battery-v0.2","","""event"",""trial"",""time""
""fullscreenenter"",""1"",""4201""
","
","
","""event"",""trial"",""time""
""fullscreenenter"",""1"",""4201""
","
","","[{""page_index"":0,""viewing_time"":6480.5},{""page_index"":1,""viewing_time"":8271.900000035763},{""page_index"":2,""viewing_time"":4336.599999964237},{""page_index"":3,""viewing_time"":4631.900000035763}]","23721.19999998808","","","","","","","","","","","","","","","","","","","","","","","",""
"pit-trial","81","665733","0.0-2.0-17.0-0.0","battery-v0.2","","""event"",""trial"",""time""
""fullscreenenter"",""1"",""4201""
","
","
","""event"",""trial"",""time""
""fullscreenenter"",""1"",""4201""
","
","","","788.6000000238419","","","13","10098","4829","&#9789;","elianto","#f73b6a7A"," "," ","1","0","[1648.800000011921]","1","0","4","","","","","","","",""
"pit-trial","82","669049","0.0-2.0-17.0-1.0","battery-v0.2","","""event"",""trial"",""time""
""fullscreenenter"",""1"",""4201""
","
","
","""event"",""trial"",""time""
""fullscreenenter"",""1"",""4201""
","
","","","447.80000001192093","","","13","10098","4829","&#9789;","elianto","#f73b6a7A"," "," ","1","0","[1301.8999999761581]","1","0","4","","","","","","","",""
"pit-trial","83","672317","0.0-2.0-17.0-2.0","battery-v0.2","","""event"",""trial"",""time""
""fullscreenenter"",""1"",""4201""
","
","
","""event"",""trial"",""time""
""fullscreenenter"",""1"",""4201""
","
","","","393.5","","","13","10098","4829","&#9789;","elianto","#f73b6a7A"," "," ","1","0","[1250.300000011921]","1","0","4","","","","","","","",""
"pit-trial","84","675436","0.0-2.0-17.0-3.0","battery-v0.2","","""event"",""trial"",""time""
""fullscreenenter"",""1"",""4201""
","
","
","""event"",""trial"",""time""
""fullscreenenter"",""1"",""4201""
","
","","","261","","","13","10098","4829","&#9789;","elianto","#f73b6a7A"," "," ","1","-10","[1116.6000000238419]","1","0","4","","","","","","","",""
"pit-trial","85","678649","0.0-2.0-17.0-4.0","battery-v0.2","","""event"",""trial"",""time""
""fullscreenenter"",""1"",""4201""
","
","
","""event"",""trial"",""time""
""fullscreenenter"",""1"",""4201""
","
","","","346.39999997615814","","","13","10098","4829","&#9789;","elianto","#f73b6a7A"," "," ","1","0","[1198.3999999761581]","1","0","4","","","","","","","",""
"pit-trial","86","681994","0.0-2.0-17.1-0.1","battery-v0.2","","""event"",""trial"",""time""
""fullscreenenter"",""1"",""4201""
","
","
","""event"",""trial"",""time""
""fullscreenenter"",""1"",""4201""
","
","","","471.30000001192093","","","13","10098","4829","&#9789;","elianto","#f73b6a7A"," "," ","1","0","[1327.4000000357628]","1","0","4","","","","","","","",""
"pit-trial","87","685412","0.0-2.0-17.1-1.1","battery-v0.2","","""event"",""trial"",""time""
""fullscreenenter"",""1"",""4201""
","
","
","""event"",""trial"",""time""
""fullscreenenter"",""1"",""4201""
","
","","","549.1000000238419","","","13","10098","4829","&#9789;","elianto","#f73b6a7A"," "," ","1","0","[1411]","1","0","4","","","","","","","",""
"pit-trial","88","688693","0.0-2.0-17.1-2.1","battery-v0.2","","""event"",""trial"",""time""
""fullscreenenter"",""1"",""4201""
","
","
","""event"",""trial"",""time""
""fullscreenenter"",""1"",""4201""
","
","","","415.89999997615814","","","13","10098","4829","&#9789;","elianto","#f73b6a7A"," "," ","1","0","[1266.800000011921]","1","0","4","","","","","","","",""
"pit-trial","89","691979","0.0-2.0-17.1-3.1","battery-v0.2","","""event"",""trial"",""time""
""fullscreenenter"",""1"",""4201""
","
","
","""event"",""trial"",""time""
""fullscreenenter"",""1"",""4201""
","
","","","418.39999997615814","","","13","10098","4829","&#9789;","elianto","#f73b6a7A"," "," ","1","-10","[1271.199999988079]","1","0","4","","","","","","","",""
"pit-trial","90","695091","0.0-2.0-17.1-4.1","battery-v0.2","","""event"",""trial"",""time""
""fullscreenenter"",""1"",""4201""
","
","
","""event"",""trial"",""time""
""fullscreenenter"",""1"",""4201""
","
","","","258.19999998807907","","","13","10098","4829","&#9789;","elianto","#f73b6a7A"," "," ","1","0","[1109.0999999642372]","1","0","4","","","","","","","",""
"pit-trial","91","698359","0.0-2.0-17.2-0.2","battery-v0.2","","""event"",""trial"",""time""
""fullscreenenter"",""1"",""4201""
","
","
","""event"",""trial"",""time""
""fullscreenenter"",""1"",""4201""
","
","","","414.80000001192093","","","13","10098","4829","&#9789;","elianto","#f73b6a7A"," "," ","1","0","[1264.8999999761581]","1","0","4","","","","","","","",""
"pit-trial","92","702032","0.0-2.0-17.2-1.2","battery-v0.2","","""event"",""trial"",""time""
""fullscreenenter"",""1"",""4201""
","
","
","""event"",""trial"",""time""
""fullscreenenter"",""1"",""4201""
","
","","","819.3000000119209","","","13","10098","4829","&#9789;","elianto","#f73b6a7A"," "," ","1","0","[1671.1000000238419]","1","0","4","","","","","","","",""
"pit-trial","93","706179","0.0-2.0-17.2-2.2","battery-v0.2","","""event"",""trial"",""time""
""fullscreenenter"",""1"",""4201""
","
","
","""event"",""trial"",""time""
""fullscreenenter"",""1"",""4201""
","
","","","1293.800000011921","","","13","10098","4829","&#9789;","elianto","#f73b6a7A"," "," ","1","0","[817.5999999642372,2145.199999988079]","2","0","4","","","","","","","",""
"pit-trial","94","709505","0.0-2.0-17.2-3.2","battery-v0.2","","""event"",""trial"",""time""
""fullscreenenter"",""1"",""4201""
","
","
","""event"",""trial"",""time""
""fullscreenenter"",""1"",""4201""
","
","","","471.5","","","13","10098","4829","&#9789;","elianto","#f73b6a7A"," "," ","1","-10","[1321.800000011921]","1","0","4","","","","","","","",""
"pit-trial","95","712742","0.0-2.0-17.2-4.2","battery-v0.2","","""event"",""trial"",""time""
""fullscreenenter"",""1"",""4201""
","
","
","""event"",""trial"",""time""
""fullscreenenter"",""1"",""4201""
","
","","","383.5","","","13","10098","4829","&#9789;","elianto","#f73b6a7A"," "," ","1","0","[1235.800000011921]","1","0","4","","","","","","","",""
"pit-trial","96","715680","0.0-2.0-17.3-0.3","battery-v0.2","","""event"",""trial"",""time""
""fullscreenenter"",""1"",""4201""
","
","
","""event"",""trial"",""time""
""fullscreenenter"",""1"",""4201""
","
","","","83.69999998807907","","","13","10098","4829","&#9789;","elianto","#f73b6a7A"," "," ","1","0","[934.1999999880791]","1","0","4","","","","","","","",""
"pit-trial","97","718915","0.0-2.0-17.3-1.3","battery-v0.2","","""event"",""trial"",""time""
""fullscreenenter"",""1"",""4201""
","
","
","""event"",""trial"",""time""
""fullscreenenter"",""1"",""4201""
","
","","","382.5","","","13","10098","4829","&#9789;","elianto","#f73b6a7A"," "," ","1","0","[1233]","1","0","4","","","","","","","",""
"pit-trial","98","722188","0.0-2.0-17.3-2.3","battery-v0.2","","""event"",""trial"",""time""
""fullscreenenter"",""1"",""4201""
","
","
","""event"",""trial"",""time""
""fullscreenenter"",""1"",""4201""
","
","","","419","","","13","10098","4829","&#9789;","elianto","#f73b6a7A"," "," ","1","0","[1269.8999999761581]","1","0","4","","","","","","","",""
"pit-trial","99","725510","0.0-2.0-17.3-3.3","battery-v0.2","","""event"",""trial"",""time""
""fullscreenenter"",""1"",""4201""
","
","
","""event"",""trial"",""time""
""fullscreenenter"",""1"",""4201""
","
","","","468.30000001192093","","","13","10098","4829","&#9789;","elianto","#f73b6a7A"," "," ","1","-10","[1319]","1","0","4","","","","","","","",""
"pit-trial","100","728613","0.0-2.0-17.3-4.3","battery-v0.2","","""event"",""trial"",""time""
""fullscreenenter"",""1"",""4201""
","
","
","""event"",""trial"",""time""
""fullscreenenter"",""1"",""4201""
","
","","","249.5","","","13","10098","4829","&#9789;","elianto","#f73b6a7A"," "," ","1","0","[1100.4000000357628]","1","0","4","","","","","","","",""
"call-function","101","728614","0.0-2.0-18.0","battery-v0.2","","""event"",""trial"",""time""
""fullscreenenter"",""1"",""4201""
","
","
","""event"",""trial"",""time""
""fullscreenenter"",""1"",""4201""
","
","","","","","","","","","","","","","","","","","","","","","","","","","","",""
"pit-instructions","102","797618","0.0-2.0-19.0","battery-v0.2","","""event"",""trial"",""time""
""fullscreenenter"",""1"",""4201""
","
","
","""event"",""trial"",""time""
""fullscreenenter"",""1"",""4201""
","
","","[{""page_index"":0,""viewing_time"":6786.300000011921},{""page_index"":1,""viewing_time"":5440.100000023842},{""page_index"":2,""viewing_time"":13760.300000011921},{""page_index"":3,""viewing_time"":7264.099999964237},{""page_index"":4,""viewing_time"":7751.800000011921},{""page_index"":5,""viewing_time"":9384.399999976158},{""page_index"":6,""viewing_time"":8256.100000023842},{""page_index"":7,""viewing_time"":5888.100000023842},{""page_index"":8,""viewing_time"":4472.299999952316}]","69003.70000004768","","","","","","","","","","","","","","","","","","","","","","","",""
"pit-comprehension","103","802419","0.0-2.0-20.0-0.0","battery-v0.2","","""event"",""trial"",""time""
""fullscreenenter"",""1"",""4201""
","
","
","""event"",""trial"",""time""
""fullscreenenter"",""1"",""4201""
","
","","","4796.600000023842","[""SPACE""]","0","13","10098","4829","","","","","","","","","","","","","","","","","","",""
"pit-instructions","104","805546","0.0-2.0-20.0-1.0","battery-v0.2","","""event"",""trial"",""time""
""fullscreenenter"",""1"",""4201""
","
","
","""event"",""trial"",""time""
""fullscreenenter"",""1"",""4201""
","
","","[{""page_index"":0,""viewing_time"":3083.5}]","3083.899999976158","","","","","","","","","","","","","","","","","","","","","","","",""
"pit-comprehension","105","812339","0.0-2.0-21.0-0.0","battery-v0.2","","""event"",""trial"",""time""
""fullscreenenter"",""1"",""4201""
","
","
","""event"",""trial"",""time""
""fullscreenenter"",""1"",""4201""
","
","","","6790.099999964237","[""10""]","0","13","10098","4829","","","","","","","","","","","","","","","","","","",""
"pit-instructions","106","814410","0.0-2.0-21.0-1.0","battery-v0.2","","""event"",""trial"",""time""
""fullscreenenter"",""1"",""4201""
","
","
","""event"",""trial"",""time""
""fullscreenenter"",""1"",""4201""
","
","","[{""page_index"":0,""viewing_time"":2034.5999999642372}]","2034.8999999761581","","","","","","","","","","","","","","","","","","","","","","","",""
"pit-comprehension","107","821163","0.0-2.0-22.0-0.0","battery-v0.2","","""event"",""trial"",""time""
""fullscreenenter"",""1"",""4201""
","
","
","""event"",""trial"",""time""
""fullscreenenter"",""1"",""4201""
","
","","","6749.5","[""0""]","0","13","10098","4829","","","","","","","","","","","","","","","","","","",""
"pit-instructions","108","824322","0.0-2.0-22.0-1.0","battery-v0.2","","""event"",""trial"",""time""
""fullscreenenter"",""1"",""4201""
","
","
","""event"",""trial"",""time""
""fullscreenenter"",""1"",""4201""
","
","","[{""page_index"":0,""viewing_time"":3122.199999988079}]","3122.699999988079","","","","","","","","","","","","","","","","","","","","","","","",""
"pit-comprehension","109","837243","0.0-2.0-23.0-0.0","battery-v0.2","","""event"",""trial"",""time""
""fullscreenenter"",""1"",""4201""
","
","
","""event"",""trial"",""time""
""fullscreenenter"",""1"",""4201""
","
","","","12918","[""True""]","0","13","10098","4829","","","","","","","","","","","","","","","","","","",""
"pit-instructions","110","839123","0.0-2.0-23.0-1.0","battery-v0.2","","""event"",""trial"",""time""
""fullscreenenter"",""1"",""4201""
","
","
","""event"",""trial"",""time""
""fullscreenenter"",""1"",""4201""
","
","","[{""page_index"":0,""viewing_time"":1841.5}]","1841.800000011921","","","","","","","","","","","","","","","","","","","","","","","",""
"pit-comprehension","111","846603","0.0-2.0-24.0-0.0","battery-v0.2","","""event"",""trial"",""time""
""fullscreenenter"",""1"",""4201""
","
","
","""event"",""trial"",""time""
""fullscreenenter"",""1"",""4201""
","
","","","7478.199999988079","[""True""]","0","13","10098","4829","","","","","","","","","","","","","","","","","","",""
"pit-instructions","112","848339","0.0-2.0-24.0-1.0","battery-v0.2","","""event"",""trial"",""time""
""fullscreenenter"",""1"",""4201""
","
","
","""event"",""trial"",""time""
""fullscreenenter"",""1"",""4201""
","
","","[{""page_index"":0,""viewing_time"":1697.4000000357628}]","1697.6000000238419","","","","","","","","","","","","","","","","","","","","","","","",""
"pit-comprehension","113","855236","0.0-2.0-25.0-0.0","battery-v0.2","","""event"",""trial"",""time""
""fullscreenenter"",""1"",""4201""
","
","
","""event"",""trial"",""time""
""fullscreenenter"",""1"",""4201""
","
","","","6893.899999976158","[""True""]","0","13","10098","4829","","","","","","","","","","","","","","","","","","",""
"pit-instructions","114","856971","0.0-2.0-25.0-1.0","battery-v0.2","","""event"",""trial"",""time""
""fullscreenenter"",""1"",""4201""
","
","
","""event"",""trial"",""time""
""fullscreenenter"",""1"",""4201""
","
","","[{""page_index"":0,""viewing_time"":1696.4000000357628}]","1696.7000000476837","","","","","","","","","","","","","","","","","","","","","","","",""
"pit-comprehension","115","862788","0.0-2.0-26.0-0.0","battery-v0.2","","""event"",""trial"",""time""
""fullscreenenter"",""1"",""4201""
","
","
","""event"",""trial"",""time""
""fullscreenenter"",""1"",""4201""
","
","","","5813.899999976158","[""False""]","0","13","10098","4829","","","","","","","","","","","","","","","","","","",""
"pit-instructions","116","864643","0.0-2.0-26.0-1.0","battery-v0.2","","""event"",""trial"",""time""
""fullscreenenter"",""1"",""4201""
","
","
","""event"",""trial"",""time""
""fullscreenenter"",""1"",""4201""
","
","","[{""page_index"":0,""viewing_time"":1817.2999999523163}]","1817.5999999642372","","","","","","","","","","","","","","","","","","","","","","","",""
"pit-instructions","117","881715","0.0-3.0","battery-v0.2","","""event"",""trial"",""time""
""fullscreenenter"",""1"",""4201""
","
","
","""event"",""trial"",""time""
""fullscreenenter"",""1"",""4201""
","
","","[{""page_index"":0,""viewing_time"":3774.300000011921},{""page_index"":1,""viewing_time"":6408.100000023842},{""page_index"":2,""viewing_time"":6888.099999964237}]","17070.900000035763","","","","","","","","","","","","","","","","","","","","","","","",""
"pit-trial","118","885550","0.0-4.0","battery-v0.2","","""event"",""trial"",""time""
""fullscreenenter"",""1"",""4201""
","
","
","""event"",""trial"",""time""
""fullscreenenter"",""1"",""4201""
","
","","","964.1999999880791","","","13","10098","4829","&#9730;","elianto","#3366ff99"," "," ","1","+10","[1826.800000011921]","1","1","","","10098","1","1","1","win","go","0"
"pit-trial","119","889308","0.0-5.0","battery-v0.2","","""event"",""trial"",""time""
""fullscreenenter"",""1"",""4201""
","
","
","""event"",""trial"",""time""
""fullscreenenter"",""1"",""4201""
","
","","","902.6999999880791","","","13","10098","4829","&#9733;","elianto","#3366ff99","-1"," ","0","0","[1752.8999999761581]","1","1","","","10098","2","2","2","win","no-go","0"
"pit-trial","120","892813","0.0-6.0","battery-v0.2","","""event"",""trial"",""time""
""fullscreenenter"",""1"",""4201""
","
","
","""event"",""trial"",""time""
""fullscreenenter"",""1"",""4201""
","
","","","639.1000000238419","","","13","10098","4829","&#9752;","elianto","#f73b6a7A"," "," ","1","0","[1495]","1","1","","","10098","3","3","3","lose","go","0"
"pit-trial","121","896262","0.0-7.0","battery-v0.2","","""event"",""trial"",""time""
""fullscreenenter"",""1"",""4201""
","
","
","""event"",""trial"",""time""
""fullscreenenter"",""1"",""4201""
","
","","","594.8000000119209","","","13","10098","4829","&#9728;","elianto","#f73b6a7A","-1"," ","0","-10","[1446.8999999761581]","1","1","","","10098","4","0","4","lose","no-go","0"
"pit-trial","122","900108","0.0-8.0","battery-v0.2","","""event"",""trial"",""time""
""fullscreenenter"",""1"",""4201""
","
","
","""event"",""trial"",""time""
""fullscreenenter"",""1"",""4201""
","
","","","977","","","13","10098","4829","&#9752;","elianto","#f73b6a7A"," "," ","1","0","[1828.9000000357628]","1","1","","","10098","5","3","3","lose","go","0"
"pit-trial","123","904100","0.0-9.0","battery-v0.2","","""event"",""trial"",""time""
""fullscreenenter"",""1"",""4201""
","
","
","""event"",""trial"",""time""
""fullscreenenter"",""1"",""4201""
","
","","","1132.300000011921","","","13","10098","4829","&#9733;","elianto","#3366ff99","-1"," ","0","0","[1988.699999988079]","1","1","","","10098","6","2","2","win","no-go","0"
"pit-trial","124","908063","0.0-10.0","battery-v0.2","","""event"",""trial"",""time""
""fullscreenenter"",""1"",""4201""
","
","
","""event"",""trial"",""time""
""fullscreenenter"",""1"",""4201""
","
","","","1104.2999999523163","","","13","10098","4829","&#9730;","elianto","#3366ff99"," "," ","1","0","[1954.199999988079]","1","1","","","10098","7","1","1","win","go","1"
"pit-trial","125","912922","0.0-11.0","battery-v0.2","","""event"",""trial"",""time""
""fullscreenenter"",""1"",""4201""
","
","
","""event"",""trial"",""time""
""fullscreenenter"",""1"",""4201""
","
","","","-1","","","13","10098","4829","&#9728;","elianto","#f73b6a7A","-1","-1","1","0","[]","0","1","","","10098","8","0","4","lose","no-go","0"
"pit-trial","126","916495","0.0-12.0","battery-v0.2","","""event"",""trial"",""time""
""fullscreenenter"",""1"",""4201""
","
","
","""event"",""trial"",""time""
""fullscreenenter"",""1"",""4201""
","
","","","719.8000000119209","","","13","10098","4829","&#9752;","elianto","#f73b6a7A"," "," ","1","0","[1570.4000000357628]","1","1","","","10098","9","3","3","lose","go","0"
"pit-trial","127","920479","0.0-13.0","battery-v0.2","","""event"",""trial"",""time""
""fullscreenenter"",""1"",""4201""
","
","
","""event"",""trial"",""time""
""fullscreenenter"",""1"",""4201""
","
","","","1132","","","13","10098","4829","&#9728;","elianto","#f73b6a7A","-1"," ","0","0","[1982.3999999761581]","1","1","","","10098","10","0","4","lose","no-go","1"
"pit-trial","128","924369","0.0-14.0","battery-v0.2","","""event"",""trial"",""time""
""fullscreenenter"",""1"",""4201""
","
","
","""event"",""trial"",""time""
""fullscreenenter"",""1"",""4201""
","
","","","1037.3999999761581","","","13","10098","4829","&#9733;","elianto","#3366ff99","-1"," ","0","0","[1888.3999999761581]","1","1","","","10098","11","2","2","win","no-go","0"
"pit-trial","129","927783","0.0-15.0","battery-v0.2","","""event"",""trial"",""time""
""fullscreenenter"",""1"",""4201""
","
","
","""event"",""trial"",""time""
""fullscreenenter"",""1"",""4201""
","
","","","558.8000000119209","","","13","10098","4829","&#9730;","elianto","#3366ff99"," "," ","1","+10","[1410.300000011921]","1","1","","","10098","12","1","1","win","go","0"
"pit-trial","130","931488","0.0-16.0","battery-v0.2","","""event"",""trial"",""time""
""fullscreenenter"",""1"",""4201""
","
","
","""event"",""trial"",""time""
""fullscreenenter"",""1"",""4201""
","
","","","852.4000000357628","","","13","10098","4829","&#9728;","elianto","#f73b6a7A","-1"," ","0","0","[1702.5999999642372]","1","1","","","10098","13","0","4","lose","no-go","1"
"pit-trial","131","935248","0.0-17.0","battery-v0.2","","""event"",""trial"",""time""
""fullscreenenter"",""1"",""4201""
","
","
","""event"",""trial"",""time""
""fullscreenenter"",""1"",""4201""
","
","","","907.6999999880791","","","13","10098","4829","&#9730;","elianto","#3366ff99"," "," ","1","+10","[1758.1000000238419]","1","1","","","10098","14","1","1","win","go","0"
"pit-trial","132","940113","0.0-18.0","battery-v0.2","","""event"",""trial"",""time""
""fullscreenenter"",""1"",""4201""
","
","
","""event"",""trial"",""time""
""fullscreenenter"",""1"",""4201""
","
","","","-1","","","13","10098","4829","&#9733;","elianto","#3366ff99","-1","-1","1","0","[]","0","1","","","10098","15","2","2","win","no-go","1"
"pit-trial","133","944293","0.0-19.0","battery-v0.2","","""event"",""trial"",""time""
""fullscreenenter"",""1"",""4201""
","
","
","""event"",""trial"",""time""
""fullscreenenter"",""1"",""4201""
","
","","","1325","","","13","10098","4829","&#9752;","elianto","#f73b6a7A"," "," ","1","-10","[2176.600000023842]","1","1","","","10098","16","3","3","lose","go","1"
"pit-trial","134","948858","0.0-20.0","battery-v0.2","","""event"",""trial"",""time""
""fullscreenenter"",""1"",""4201""
","
","
","""event"",""trial"",""time""
""fullscreenenter"",""1"",""4201""
","
","","","1712.699999988079","","","13","10098","4829","&#9728;","elianto","#f73b6a7A","-1"," ","0","-10","[2563.300000011921]","1","1","","","10098","17","0","4","lose","no-go","0"
"pit-trial","135","952555","0.0-21.0","battery-v0.2","","""event"",""trial"",""time""
""fullscreenenter"",""1"",""4201""
","
","
","""event"",""trial"",""time""
""fullscreenenter"",""1"",""4201""
","
","","","842.8999999761581","","","13","10098","4829","&#9752;","elianto","#f73b6a7A"," "," ","1","0","[1694.5]","1","1","","","10098","18","3","3","lose","go","0"
"pit-trial","136","957409","0.0-22.0","battery-v0.2","","""event"",""trial"",""time""
""fullscreenenter"",""1"",""4201""
","
","
","""event"",""trial"",""time""
""fullscreenenter"",""1"",""4201""
","
","","","-1","","","13","10098","4829","&#9733;","elianto","#3366ff99","-1","-1","1","+10","[4209.800000011921]","1","1","","","10098","19","2","2","win","no-go","0"
"pit-trial","137","962091","0.0-23.0","battery-v0.2","","""event"",""trial"",""time""
""fullscreenenter"",""1"",""4201""
","
","
","""event"",""trial"",""time""
""fullscreenenter"",""1"",""4201""
","
","","","1828.5999999642372","","","13","10098","4829","&#9730;","elianto","#3366ff99"," "," ","1","0","[2679.699999988079]","1","1","","","10098","20","1","1","win","go","1"
"pit-instructions","138","974499","0.0-24.0","battery-v0.2","","""event"",""trial"",""time""
""fullscreenenter"",""1"",""4201""
","
","
","""event"",""trial"",""time""
""fullscreenenter"",""1"",""4201""
","
","","[{""page_index"":0,""viewing_time"":6044.300000011921},{""page_index"":1,""viewing_time"":6361.399999976158}]","12406","","","","","","","","","","","","","","","","","","","","","","","",""
"pit-trial","139","979166","0.0-25.0","battery-v0.2","","""event"",""trial"",""time""
""fullscreenenter"",""1"",""4201""
","
","
","""event"",""trial"",""time""
""fullscreenenter"",""1"",""4201""
","
","","","1790.8999999761581","","","13","10098","4829","l","elianto","#3366ff99"," "," ","1","+10","[2650.100000023842]","1","2","","","10098","21","1","1","win","go","0"
"pit-trial","140","984028","0.0-26.0","battery-v0.2","","""event"",""trial"",""time""
""fullscreenenter"",""1"",""4201""
","
","
","""event"",""trial"",""time""
""fullscreenenter"",""1"",""4201""
","
","","","-1","","","13","10098","4829","u","elianto","#f73b6a7A","-1","-1","1","0","[4474.100000023842]","1","2","","","10098","22","0","4","lose","no-go","0"
"pit-trial","141","988283","0.0-27.0","battery-v0.2","","""event"",""trial"",""time""
""fullscreenenter"",""1"",""4201""
","
","
","""event"",""trial"",""time""
""fullscreenenter"",""1"",""4201""
","
","","","1387.699999988079","","","13","10098","4829","g","elianto","#f73b6a7A"," "," ","1","0","[2238.399999976158]","1","2","","","10098","23","3","3","lose","go","0"
"pit-trial","142","992119","0.0-28.0","battery-v0.2","","""event"",""trial"",""time""
""fullscreenenter"",""1"",""4201""
","
","
","""event"",""trial"",""time""
""fullscreenenter"",""1"",""4201""
","
","","","958.0999999642372","","","13","10098","4829","a","elianto","#f73b6a7A","-1"," ","0","-10","[1819.8999999761581]","1","2","","","10098","24","2","4","lose","no-go","0"
"pit-trial","143","996554","0.0-29.0","battery-v0.2","","""event"",""trial"",""time""
""fullscreenenter"",""1"",""4201""
","
","
","""event"",""trial"",""time""
""fullscreenenter"",""1"",""4201""
","
","","","1572.699999988079","","","13","10098","4829","u","elianto","#f73b6a7A","-1"," ","0","-10","[2432]","1","2","","","10098","25","0","4","lose","no-go","0"
"pit-trial","144","1000380","0.0-30.0","battery-v0.2","","""event"",""trial"",""time""
""fullscreenenter"",""1"",""4201""
","
","
","""event"",""trial"",""time""
""fullscreenenter"",""1"",""4201""
","
","","","953.8999999761581","","","13","10098","4829","g","elianto","#f73b6a7A"," "," ","1","0","[1808.699999988079]","1","2","","","10098","26","3","3","lose","go","0"
"pit-trial","145","1004744","0.0-31.0","battery-v0.2","","""event"",""trial"",""time""
""fullscreenenter"",""1"",""4201""
","
","
","""event"",""trial"",""time""
""fullscreenenter"",""1"",""4201""
","
","","","1501.199999988079","","","13","10098","4829","a","elianto","#f73b6a7A","-1"," ","0","-10","[2351.5]","1","2","","","10098","27","2","4","lose","no-go","0"
"pit-trial","146","1008633","0.0-32.0","battery-v0.2","","""event"",""trial"",""time""
""fullscreenenter"",""1"",""4201""
","
","
","""event"",""trial"",""time""
""fullscreenenter"",""1"",""4201""
","
","","","1035.4000000357628","","","13","10098","4829","l","elianto","#3366ff99"," "," ","1","+10","[1885.3999999761581]","1","2","","","10098","28","1","1","win","go","0"
"pit-trial","147","1012686","0.0-33.0","battery-v0.2","","""event"",""trial"",""time""
""fullscreenenter"",""1"",""4201""
","
","
","""event"",""trial"",""time""
""fullscreenenter"",""1"",""4201""
","
","","","1200.5","","","13","10098","4829","g","elianto","#f73b6a7A"," "," ","1","-10","[2051]","1","2","","","10098","29","3","3","lose","go","1"
"pit-trial","148","1017539","0.0-34.0","battery-v0.2","","""event"",""trial"",""time""
""fullscreenenter"",""1"",""4201""
","
","
","""event"",""trial"",""time""
""fullscreenenter"",""1"",""4201""
","
","","","-1","","","13","10098","4829","a","elianto","#f73b6a7A","-1","-1","1","0","[]","0","2","","","10098","30","2","4","lose","no-go","0"
"pit-trial","149","1021174","0.0-35.0","battery-v0.2","","""event"",""trial"",""time""
""fullscreenenter"",""1"",""4201""
","
","
","""event"",""trial"",""time""
""fullscreenenter"",""1"",""4201""
","
","","","781.5","","","13","10098","4829","l","elianto","#3366ff99"," "," ","1","+10","[1632.300000011921]","1","2","","","10098","31","1","1","win","go","0"
"pit-trial","150","1026026","0.0-36.0","battery-v0.2","","""event"",""trial"",""time""
""fullscreenenter"",""1"",""4201""
","
","
","""event"",""trial"",""time""
""fullscreenenter"",""1"",""4201""
","
","","","-1","","","13","10098","4829","u","elianto","#f73b6a7A","-1","-1","1","0","[]","0","2","","","10098","32","0","4","lose","no-go","0"
"pit-trial","151","1030878","0.0-37.0","battery-v0.2","","""event"",""trial"",""time""
""fullscreenenter"",""1"",""4201""
","
","
","""event"",""trial"",""time""
""fullscreenenter"",""1"",""4201""
","
","","","-1","","","13","10098","4829","a","elianto","#f73b6a7A","-1","-1","1","0","[]","0","2","","","10098","33","2","4","lose","no-go","0"
"pit-trial","152","1035473","0.0-38.0","battery-v0.2","","""event"",""trial"",""time""
""fullscreenenter"",""1"",""4201""
","
","
","""event"",""trial"",""time""
""fullscreenenter"",""1"",""4201""
","
","","","1740.8999999761581","","","13","10098","4829","g","elianto","#f73b6a7A"," "," ","1","0","[2591.5]","1","2","","","10098","34","3","3","lose","go","0"
"pit-trial","153","1039299","0.0-39.0","battery-v0.2","","""event"",""trial"",""time""
""fullscreenenter"",""1"",""4201""
","
","
","""event"",""trial"",""time""
""fullscreenenter"",""1"",""4201""
","
","","","973.1999999880791","","","13","10098","4829","u","elianto","#f73b6a7A","-1"," ","0","-10","[1823.3999999761581]","1","2","","","10098","35","0","4","lose","no-go","0"
"pit-trial","154","1042921","0.0-40.0","battery-v0.2","","""event"",""trial"",""time""
""fullscreenenter"",""1"",""4201""
","
","
","""event"",""trial"",""time""
""fullscreenenter"",""1"",""4201""
","
","","","769.2000000476837","","","13","10098","4829","l","elianto","#3366ff99"," "," ","1","+10","[1619.300000011921]","1","2","","","10098","36","1","1","win","go","0"
"pit-trial","155","1047540","0.0-41.0","battery-v0.2","","""event"",""trial"",""time""
""fullscreenenter"",""1"",""4201""
","
","
","""event"",""trial"",""time""
""fullscreenenter"",""1"",""4201""
","
","","","1765","","","13","10098","4829","a","elianto","#f73b6a7A","-1"," ","0","-10","[2615.7000000476837]","1","2","","","10098","37","2","4","lose","no-go","0"
"pit-trial","156","1052393","0.0-42.0","battery-v0.2","","""event"",""trial"",""time""
""fullscreenenter"",""1"",""4201""
","
","
","""event"",""trial"",""time""
""fullscreenenter"",""1"",""4201""
","
","","","-1","","","13","10098","4829","g","elianto","#f73b6a7A"," ","-1","0","-10","[]","0","2","","","10098","38","3","3","lose","go","0"
"pit-trial","157","1056289","0.0-43.0","battery-v0.2","","""event"",""trial"",""time""
""fullscreenenter"",""1"",""4201""
","
","
","""event"",""trial"",""time""
""fullscreenenter"",""1"",""4201""
","
","","","1040.699999988079","","","13","10098","4829","l","elianto","#3366ff99"," "," ","1","+10","[1892.6000000238419]","1","2","","","10098","39","1","1","win","go","0"
"pit-trial","158","1061140","0.0-44.0","battery-v0.2","","""event"",""trial"",""time""
""fullscreenenter"",""1"",""4201""
","
","
","""event"",""trial"",""time""
""fullscreenenter"",""1"",""4201""
","
","","","-1","","","13","10098","4829","u","elianto","#f73b6a7A","-1","-1","1","0","[]","0","2","","","10098","40","0","4","lose","no-go","0"
"pit-trial","159","1065614","0.0-45.0","battery-v0.2","","""event"",""trial"",""time""
""fullscreenenter"",""1"",""4201""
","
","
","""event"",""trial"",""time""
""fullscreenenter"",""1"",""4201""
","
","","","1620.800000011921","","","13","10098","4829","g","elianto","#f73b6a7A"," "," ","1","0","[2471.199999988079]","1","2","","","10098","41","3","3","lose","go","0"
"pit-trial","160","1069512","0.0-46.0","battery-v0.2","","""event"",""trial"",""time""
""fullscreenenter"",""1"",""4201""
","
","
","""event"",""trial"",""time""
""fullscreenenter"",""1"",""4201""
","
","","","1045.199999988079","","","13","10098","4829","u","elianto","#f73b6a7A","-1"," ","0","-10","[1895.8999999761581]","1","2","","","10098","42","0","4","lose","no-go","0"
"pit-trial","161","1073840","0.0-47.0","battery-v0.2","","""event"",""trial"",""time""
""fullscreenenter"",""1"",""4201""
","
","
","""event"",""trial"",""time""
""fullscreenenter"",""1"",""4201""
","
","","","1474.699999988079","","","13","10098","4829","a","elianto","#f73b6a7A","-1"," ","0","-10","[2325.300000011921]","1","2","","","10098","43","2","4","lose","no-go","0"
"pit-trial","162","1077634","0.0-48.0","battery-v0.2","","""event"",""trial"",""time""
""fullscreenenter"",""1"",""4201""
","
","
","""event"",""trial"",""time""
""fullscreenenter"",""1"",""4201""
","
","","","940.9000000357628","","","13","10098","4829","l","elianto","#3366ff99"," "," ","1","+10","[1791.5]","1","2","","","10098","44","1","1","win","go","0"
"pit-trial","163","1082487","0.0-49.0","battery-v0.2","","""event"",""trial"",""time""
""fullscreenenter"",""1"",""4201""
","
","
","""event"",""trial"",""time""
""fullscreenenter"",""1"",""4201""
","
","","","-1","","","13","10098","4829","g","elianto","#f73b6a7A"," ","-1","0","-10","[]","0","2","","","10098","45","3","3","lose","go","0"
"pit-trial","164","1087341","0.0-50.0","battery-v0.2","","""event"",""trial"",""time""
""fullscreenenter"",""1"",""4201""
","
","
","""event"",""trial"",""time""
""fullscreenenter"",""1"",""4201""
","
","","","-1","","","13","10098","4829","u","elianto","#f73b6a7A","-1","-1","1","0","[]","0","2","","","10098","46","0","4","lose","no-go","0"
"pit-trial","165","1092195","0.0-51.0","battery-v0.2","","""event"",""trial"",""time""
""fullscreenenter"",""1"",""4201""
","
","
","""event"",""trial"",""time""
""fullscreenenter"",""1"",""4201""
","
","","","-1","","","13","10098","4829","a","elianto","#f73b6a7A","-1","-1","1","0","[]","0","2","","","10098","47","2","4","lose","no-go","0"
"pit-trial","166","1096030","0.0-52.0","battery-v0.2","","""event"",""trial"",""time""
""fullscreenenter"",""1"",""4201""
","
","
","""event"",""trial"",""time""
""fullscreenenter"",""1"",""4201""
","
","","","982.1999999880791","","","13","10098","4829","p","elianto","#3366ff99","-1"," ","0","0","[1832.5]","1","2","","","10098","48","4","2","win","no-go","0"
"pit-trial","167","1100068","0.0-53.0","battery-v0.2","","""event"",""trial"",""time""
""fullscreenenter"",""1"",""4201""
","
","
","""event"",""trial"",""time""
""fullscreenenter"",""1"",""4201""
","
","","","1183.5","","","13","10098","4829","u","elianto","#f73b6a7A","-1"," ","0","-10","[2034.8999999761581]","1","2","","","10098","49","0","4","lose","no-go","0"
"pit-trial","168","1104209","0.0-54.0","battery-v0.2","","""event"",""trial"",""time""
""fullscreenenter"",""1"",""4201""
","
","
","""event"",""trial"",""time""
""fullscreenenter"",""1"",""4201""
","
","","","1288.699999988079","","","13","10098","4829","g","elianto","#f73b6a7A"," "," ","1","0","[2139.699999988079]","1","2","","","10098","50","3","3","lose","go","0"
"pit-trial","169","1107897","0.0-55.0","battery-v0.2","","""event"",""trial"",""time""
""fullscreenenter"",""1"",""4201""
","
","
","""event"",""trial"",""time""
""fullscreenenter"",""1"",""4201""
","
","","","834.6000000238419","","","13","10098","4829","l","elianto","#3366ff99"," "," ","1","+10","[1685.6000000238419]","1","2","","","10098","51","1","1","win","go","0"
"pit-trial","170","1112177","0.0-56.0","battery-v0.2","","""event"",""trial"",""time""
""fullscreenenter"",""1"",""4201""
","
","
","""event"",""trial"",""time""
""fullscreenenter"",""1"",""4201""
","
","","","1428.199999988079","","","13","10098","4829","p","elianto","#3366ff99","-1"," ","0","0","[2278.300000011921]","1","2","","","10098","52","4","2","win","no-go","0"
"pit-trial","171","1116183","0.0-57.0","battery-v0.2","","""event"",""trial"",""time""
""fullscreenenter"",""1"",""4201""
","
","
","""event"",""trial"",""time""
""fullscreenenter"",""1"",""4201""
","
","","","1152.9000000357628","","","13","10098","4829","l","elianto","#3366ff99"," "," ","1","0","[2003.1000000238419]","1","2","","","10098","53","1","1","win","go","1"
"pit-trial","172","1120118","0.0-58.0","battery-v0.2","","""event"",""trial"",""time""
""fullscreenenter"",""1"",""4201""
","
","
","""event"",""trial"",""time""
""fullscreenenter"",""1"",""4201""
","
","","","1082.3999999761581","","","13","10098","4829","a","elianto","#f73b6a7A","-1"," ","0","-10","[1932.5]","1","2","","","10098","54","2","4","lose","no-go","0"
"pit-trial","173","1123872","0.0-59.0","battery-v0.2","","""event"",""trial"",""time""
""fullscreenenter"",""1"",""4201""
","
","
","""event"",""trial"",""time""
""fullscreenenter"",""1"",""4201""
","
","","","897.6000000238419","","","13","10098","4829","p","elianto","#3366ff99","-1"," ","0","0","[1751.4000000357628]","1","2","","","10098","55","4","2","win","no-go","0"
"pit-trial","174","1128726","0.0-60.0","battery-v0.2","","""event"",""trial"",""time""
""fullscreenenter"",""1"",""4201""
","
","
","""event"",""trial"",""time""
""fullscreenenter"",""1"",""4201""
","
","","","-1","","","13","10098","4829","u","elianto","#f73b6a7A","-1","-1","1","-10","[]","0","2","","","10098","56","0","4","lose","no-go","1"
"pit-trial","175","1132449","0.0-61.0","battery-v0.2","","""event"",""trial"",""time""
""fullscreenenter"",""1"",""4201""
","
","
","""event"",""trial"",""time""
""fullscreenenter"",""1"",""4201""
","
","","","871.0999999642372","","","13","10098","4829","p","elianto","#3366ff99","-1"," ","0","0","[1721.199999988079]","1","2","","","10098","57","4","2","win","no-go","0"
"pit-trial","176","1137303","0.0-62.0","battery-v0.2","","""event"",""trial"",""time""
""fullscreenenter"",""1"",""4201""
","
","
","""event"",""trial"",""time""
""fullscreenenter"",""1"",""4201""
","
","","","-1","","","13","10098","4829","u","elianto","#f73b6a7A","-1","-1","1","0","[]","0","2","","","10098","58","0","4","lose","no-go","0"
"pit-trial","177","1141003","0.0-63.0","battery-v0.2","","""event"",""trial"",""time""
""fullscreenenter"",""1"",""4201""
","
","
","""event"",""trial"",""time""
""fullscreenenter"",""1"",""4201""
","
","","","847.5","","","13","10098","4829","l","elianto","#3366ff99"," "," ","1","0","[1698.1000000238419]","1","2","","","10098","59","1","1","win","go","1"
"pit-trial","178","1145857","0.0-64.0","battery-v0.2","","""event"",""trial"",""time""
""fullscreenenter"",""1"",""4201""
","
","
","""event"",""trial"",""time""
""fullscreenenter"",""1"",""4201""
","
","","","-1","","","13","10098","4829","g","elianto","#f73b6a7A"," ","-1","0","-10","[]","0","2","","","10098","60","3","3","lose","go","0"
"pit-trial","179","1149753","0.0-65.0","battery-v0.2","","""event"",""trial"",""time""
""fullscreenenter"",""1"",""4201""
","
","
","""event"",""trial"",""time""
""fullscreenenter"",""1"",""4201""
","
","","","1040.7000000476837","","","13","10098","4829","p","elianto","#3366ff99","-1"," ","0","0","[1892.5]","1","2","","","10098","61","4","2","win","no-go","0"
"pit-trial","180","1154605","0.0-66.0","battery-v0.2","","""event"",""trial"",""time""
""fullscreenenter"",""1"",""4201""
","
","
","""event"",""trial"",""time""
""fullscreenenter"",""1"",""4201""
","
","","","-1","","","13","10098","4829","g","elianto","#f73b6a7A"," ","-1","0","-10","[]","0","2","","","10098","62","3","3","lose","go","0"
"pit-trial","181","1159458","0.0-67.0","battery-v0.2","","""event"",""trial"",""time""
""fullscreenenter"",""1"",""4201""
","
","
","""event"",""trial"",""time""
""fullscreenenter"",""1"",""4201""
","
","","","-1","","","13","10098","4829","a","elianto","#f73b6a7A","-1","-1","1","0","[]","0","2","","","10098","63","2","4","lose","no-go","0"
"pit-trial","182","1163484","0.0-68.0","battery-v0.2","","""event"",""trial"",""time""
""fullscreenenter"",""1"",""4201""
","
","
","""event"",""trial"",""time""
""fullscreenenter"",""1"",""4201""
","
","","","1172.6000000238419","","","13","10098","4829","l","elianto","#3366ff99"," "," ","1","0","[2023.6000000238419]","1","2","","","10098","64","1","1","win","go","1"
"pit-trial","183","1168336","0.0-69.0","battery-v0.2","","""event"",""trial"",""time""
""fullscreenenter"",""1"",""4201""
","
","
","""event"",""trial"",""time""
""fullscreenenter"",""1"",""4201""
","
","","","-1","","","13","10098","4829","p","elianto","#3366ff99","-1","-1","1","0","[]","0","2","","","10098","65","4","2","win","no-go","1"
"pit-trial","184","1171963","0.0-70.0","battery-v0.2","","""event"",""trial"",""time""
""fullscreenenter"",""1"",""4201""
","
","
","""event"",""trial"",""time""
""fullscreenenter"",""1"",""4201""
","
","","","774.3000000119209","","","13","10098","4829","l","elianto","#3366ff99"," "," ","1","+10","[1624.8999999761581]","1","2","","","10098","66","1","1","win","go","0"
"pit-trial","185","1176816","0.0-71.0","battery-v0.2","","""event"",""trial"",""time""
""fullscreenenter"",""1"",""4201""
","
","
","""event"",""trial"",""time""
""fullscreenenter"",""1"",""4201""
","
","","","-1","","","13","10098","4829","g","elianto","#f73b6a7A"," ","-1","0","-10","[]","0","2","","","10098","67","3","3","lose","go","0"
"pit-trial","186","1181669","0.0-72.0","battery-v0.2","","""event"",""trial"",""time""
""fullscreenenter"",""1"",""4201""
","
","
","""event"",""trial"",""time""
""fullscreenenter"",""1"",""4201""
","
","","","-1","","","13","10098","4829","a","elianto","#f73b6a7A","-1","-1","1","-10","[]","0","2","","","10098","68","2","4","lose","no-go","1"
"pit-trial","187","1185533","0.0-73.0","battery-v0.2","","""event"",""trial"",""time""
""fullscreenenter"",""1"",""4201""
","
","
","""event"",""trial"",""time""
""fullscreenenter"",""1"",""4201""
","
","","","1010.7999999523163","","","13","10098","4829","l","elianto","#3366ff99"," "," ","1","+10","[1861.6000000238419]","1","2","","","10098","69","1","1","win","go","0"
"pit-trial","188","1190386","0.0-74.0","battery-v0.2","","""event"",""trial"",""time""
""fullscreenenter"",""1"",""4201""
","
","
","""event"",""trial"",""time""
""fullscreenenter"",""1"",""4201""
","
","","","-1","","","13","10098","4829","p","elianto","#3366ff99","-1","-1","1","+10","[]","0","2","","","10098","70","4","2","win","no-go","0"
"pit-trial","189","1195238","0.0-75.0","battery-v0.2","","""event"",""trial"",""time""
""fullscreenenter"",""1"",""4201""
","
","
","""event"",""trial"",""time""
""fullscreenenter"",""1"",""4201""
","
","","","-1","","","13","10098","4829","g","elianto","#f73b6a7A"," ","-1","0","-10","[]","0","2","","","10098","71","3","3","lose","go","0"
"pit-trial","190","1199227","0.0-76.0","battery-v0.2","","""event"",""trial"",""time""
""fullscreenenter"",""1"",""4201""
","
","
","""event"",""trial"",""time""
""fullscreenenter"",""1"",""4201""
","
","","","1134.5","","","13","10098","4829","s","elianto","#3366ff99"," "," ","1","+10","[1986.5]","1","2","","","10098","72","5","1","win","go","0"
"pit-trial","191","1203134","0.0-77.0","battery-v0.2","","""event"",""trial"",""time""
""fullscreenenter"",""1"",""4201""
","
","
","""event"",""trial"",""time""
""fullscreenenter"",""1"",""4201""
","
","","","1054","","","13","10098","4829","l","elianto","#3366ff99"," "," ","1","+10","[1904.8999999761581]","1","2","","","10098","73","1","1","win","go","0"
"pit-trial","192","1206939","0.0-78.0","battery-v0.2","","""event"",""trial"",""time""
""fullscreenenter"",""1"",""4201""
","
","
","""event"",""trial"",""time""
""fullscreenenter"",""1"",""4201""
","
","","","952.6000000238419","","","13","10098","4829","s","elianto","#3366ff99"," "," ","1","0","[1803.1000000238419]","1","2","","","10098","74","5","1","win","go","1"
"pit-trial","193","1210675","0.0-79.0","battery-v0.2","","""event"",""trial"",""time""
""fullscreenenter"",""1"",""4201""
","
","
","""event"",""trial"",""time""
""fullscreenenter"",""1"",""4201""
","
","","","882.8000000119209","","","13","10098","4829","p","elianto","#3366ff99","-1"," ","0","0","[1733.300000011921]","1","2","","","10098","75","4","2","win","no-go","0"
"pit-trial","194","1215536","0.0-80.0","battery-v0.2","","""event"",""trial"",""time""
""fullscreenenter"",""1"",""4201""
","
","
","""event"",""trial"",""time""
""fullscreenenter"",""1"",""4201""
","
","","","-1","","","13","10098","4829","g","elianto","#f73b6a7A"," ","-1","0","-10","[]","0","2","","","10098","76","3","3","lose","go","0"
"pit-trial","195","1219824","0.0-81.0","battery-v0.2","","""event"",""trial"",""time""
""fullscreenenter"",""1"",""4201""
","
","
","""event"",""trial"",""time""
""fullscreenenter"",""1"",""4201""
","
","","","1435.9000000357628","","","13","10098","4829","s","elianto","#3366ff99"," "," ","1","+10","[2286.100000023842]","1","2","","","10098","77","5","1","win","go","0"
"pit-trial","196","1224677","0.0-82.0","battery-v0.2","","""event"",""trial"",""time""
""fullscreenenter"",""1"",""4201""
","
","
","""event"",""trial"",""time""
""fullscreenenter"",""1"",""4201""
","
","","","-1","","","13","10098","4829","p","elianto","#3366ff99","-1","-1","1","+10","[]","0","2","","","10098","78","4","2","win","no-go","0"
"pit-trial","197","1229530","0.0-83.0","battery-v0.2","","""event"",""trial"",""time""
""fullscreenenter"",""1"",""4201""
","
","
","""event"",""trial"",""time""
""fullscreenenter"",""1"",""4201""
","
","","","-1","","","13","10098","4829","g","elianto","#f73b6a7A"," ","-1","0","0","[]","0","2","","","10098","79","3","3","lose","go","1"
"pit-trial","198","1233566","0.0-84.0","battery-v0.2","","""event"",""trial"",""time""
""fullscreenenter"",""1"",""4201""
","
","
","""event"",""trial"",""time""
""fullscreenenter"",""1"",""4201""
","
","","","1183","","","13","10098","4829","w","elianto","#f73b6a7A","-1"," ","0","-10","[2033.699999988079]","1","2","","","10098","80","6","4","lose","no-go","0"
"pit-trial","199","1237715","0.0-85.0","battery-v0.2","","""event"",""trial"",""time""
""fullscreenenter"",""1"",""4201""
","
","
","""event"",""trial"",""time""
""fullscreenenter"",""1"",""4201""
","
","","","1295.9000000357628","","","13","10098","4829","e","elianto","#f73b6a7A"," "," ","1","-10","[2147]","1","2","","","10098","81","7","3","lose","go","1"
"pit-trial","200","1241763","0.0-86.0","battery-v0.2","","""event"",""trial"",""time""
""fullscreenenter"",""1"",""4201""
","
","
","""event"",""trial"",""time""
""fullscreenenter"",""1"",""4201""
","
","","","1194.2999999523163","","","13","10098","4829","p","elianto","#3366ff99","-1"," ","0","0","[2045.300000011921]","1","2","","","10098","82","4","2","win","no-go","0"
"pit-trial","201","1246002","0.0-87.0","battery-v0.2","","""event"",""trial"",""time""
""fullscreenenter"",""1"",""4201""
","
","
","""event"",""trial"",""time""
""fullscreenenter"",""1"",""4201""
","
","","","1387","","","13","10098","4829","w","elianto","#f73b6a7A","-1"," ","0","-10","[2237.100000023842]","1","2","","","10098","83","6","4","lose","no-go","0"
"pit-trial","202","1250010","0.0-88.0","battery-v0.2","","""event"",""trial"",""time""
""fullscreenenter"",""1"",""4201""
","
","
","""event"",""trial"",""time""
""fullscreenenter"",""1"",""4201""
","
","","","1154.800000011921","","","13","10098","4829","s","elianto","#3366ff99"," "," ","1","+10","[2005.6000000238419]","1","2","","","10098","84","5","1","win","go","0"
"pit-trial","203","1254863","0.0-89.0","battery-v0.2","","""event"",""trial"",""time""
""fullscreenenter"",""1"",""4201""
","
","
","""event"",""trial"",""time""
""fullscreenenter"",""1"",""4201""
","
","","","-1","","","13","10098","4829","e","elianto","#f73b6a7A"," ","-1","0","-10","[]","0","2","","","10098","85","7","3","lose","go","0"
"pit-trial","204","1258912","0.0-90.0","battery-v0.2","","""event"",""trial"",""time""
""fullscreenenter"",""1"",""4201""
","
","
","""event"",""trial"",""time""
""fullscreenenter"",""1"",""4201""
","
","","","1195.8999999761581","","","13","10098","4829","p","elianto","#3366ff99","-1"," ","0","0","[2046]","1","2","","","10098","86","4","2","win","no-go","0"
"pit-trial","205","1263765","0.0-91.0","battery-v0.2","","""event"",""trial"",""time""
""fullscreenenter"",""1"",""4201""
","
","
","""event"",""trial"",""time""
""fullscreenenter"",""1"",""4201""
","
","","","-1","","","13","10098","4829","w","elianto","#f73b6a7A","-1","-1","1","0","[]","0","2","","","10098","87","6","4","lose","no-go","0"
"pit-trial","206","1267435","0.0-92.0","battery-v0.2","","""event"",""trial"",""time""
""fullscreenenter"",""1"",""4201""
","
","
","""event"",""trial"",""time""
""fullscreenenter"",""1"",""4201""
","
","","","816.8999999761581","","","13","10098","4829","s","elianto","#3366ff99"," "," ","1","+10","[1667.300000011921]","1","2","","","10098","88","5","1","win","go","0"
"pit-trial","207","1272289","0.0-93.0","battery-v0.2","","""event"",""trial"",""time""
""fullscreenenter"",""1"",""4201""
","
","
","""event"",""trial"",""time""
""fullscreenenter"",""1"",""4201""
","
","","","-1","","","13","10098","4829","p","elianto","#3366ff99","-1","-1","1","+10","[]","0","2","","","10098","89","4","2","win","no-go","0"
"pit-trial","208","1276654","0.0-94.0","battery-v0.2","","""event"",""trial"",""time""
""fullscreenenter"",""1"",""4201""
","
","
","""event"",""trial"",""time""
""fullscreenenter"",""1"",""4201""
","
","","","1512.6000000238419","","","13","10098","4829","w","elianto","#f73b6a7A","-1"," ","0","-10","[2362.600000023842]","1","2","","","10098","90","6","4","lose","no-go","0"
"pit-trial","209","1280628","0.0-95.0","battery-v0.2","","""event"",""trial"",""time""
""fullscreenenter"",""1"",""4201""
","
","
","""event"",""trial"",""time""
""fullscreenenter"",""1"",""4201""
","
","","","1121.5","","","13","10098","4829","s","elianto","#3366ff99"," "," ","1","+10","[1971.7999999523163]","1","2","","","10098","91","5","1","win","go","0"
"pit-trial","210","1285481","0.0-96.0","battery-v0.2","","""event"",""trial"",""time""
""fullscreenenter"",""1"",""4201""
","
","
","""event"",""trial"",""time""
""fullscreenenter"",""1"",""4201""
","
","","","-1","","","13","10098","4829","e","elianto","#f73b6a7A"," ","-1","0","0","[]","0","2","","","10098","92","7","3","lose","go","1"
"pit-trial","211","1289270","0.0-97.0","battery-v0.2","","""event"",""trial"",""time""
""fullscreenenter"",""1"",""4201""
","
","
","""event"",""trial"",""time""
""fullscreenenter"",""1"",""4201""
","
","","","937","","","13","10098","4829","s","elianto","#3366ff99"," "," ","1","+10","[1787]","1","2","","","10098","93","5","1","win","go","0"
"pit-trial","212","1294124","0.0-98.0","battery-v0.2","","""event"",""trial"",""time""
""fullscreenenter"",""1"",""4201""
","
","
","""event"",""trial"",""time""
""fullscreenenter"",""1"",""4201""
","
","","","-1","","","13","10098","4829","w","elianto","#f73b6a7A","-1","-1","1","0","[]","0","2","","","10098","94","6","4","lose","no-go","0"
"pit-trial","213","1298173","0.0-99.0","battery-v0.2","","""event"",""trial"",""time""
""fullscreenenter"",""1"",""4201""
","
","
","""event"",""trial"",""time""
""fullscreenenter"",""1"",""4201""
","
","","","1196.7000000476837","","","13","10098","4829","d","elianto","#3366ff99","-1"," ","0","0","[2046.9000000357628]","1","2","","","10098","95","8","2","win","no-go","0"
"pit-trial","214","1303028","0.0-100.0","battery-v0.2","","""event"",""trial"",""time""
""fullscreenenter"",""1"",""4201""
","
","
","""event"",""trial"",""time""
""fullscreenenter"",""1"",""4201""
","
","","","-1","","","13","10098","4829","e","elianto","#f73b6a7A"," ","-1","0","-10","[]","0","2","","","10098","96","7","3","lose","go","0"
"pit-trial","215","1306886","0.0-101.0","battery-v0.2","","""event"",""trial"",""time""
""fullscreenenter"",""1"",""4201""
","
","
","""event"",""trial"",""time""
""fullscreenenter"",""1"",""4201""
","
","","","1004.8999999761581","","","13","10098","4829","d","elianto","#3366ff99","-1"," ","0","0","[1855.800000011921]","1","2","","","10098","97","8","2","win","no-go","0"
"pit-trial","216","1311739","0.0-102.0","battery-v0.2","","""event"",""trial"",""time""
""fullscreenenter"",""1"",""4201""
","
","
","""event"",""trial"",""time""
""fullscreenenter"",""1"",""4201""
","
","","","-1","","","13","10098","4829","w","elianto","#f73b6a7A","-1","-1","1","0","[]","0","2","","","10098","98","6","4","lose","no-go","0"
"pit-trial","217","1315857","0.0-103.0","battery-v0.2","","""event"",""trial"",""time""
""fullscreenenter"",""1"",""4201""
","
","
","""event"",""trial"",""time""
""fullscreenenter"",""1"",""4201""
","
","","","1264.6000000238419","","","13","10098","4829","s","elianto","#3366ff99"," "," ","1","+10","[2115.100000023842]","1","2","","","10098","99","5","1","win","go","0"
"pit-trial","218","1320710","0.0-104.0","battery-v0.2","","""event"",""trial"",""time""
""fullscreenenter"",""1"",""4201""
","
","
","""event"",""trial"",""time""
""fullscreenenter"",""1"",""4201""
","
","","","-1","","","13","10098","4829","e","elianto","#f73b6a7A"," ","-1","0","-10","[]","0","2","","","10098","100","7","3","lose","go","0"
"pit-trial","219","1325075","0.0-105.0","battery-v0.2","","""event"",""trial"",""time""
""fullscreenenter"",""1"",""4201""
","
","
","""event"",""trial"",""time""
""fullscreenenter"",""1"",""4201""
","
","","","1511","","","13","10098","4829","j","elianto","#3366ff99","-1"," ","0","0","[2361.100000023842]","1","2","","","10098","101","9","2","win","no-go","0"
"pit-trial","220","1329928","0.0-106.0","battery-v0.2","","""event"",""trial"",""time""
""fullscreenenter"",""1"",""4201""
","
","
","""event"",""trial"",""time""
""fullscreenenter"",""1"",""4201""
","
","","","-1","","","13","10098","4829","w","elianto","#f73b6a7A","-1","-1","1","0","[]","0","2","","","10098","102","6","4","lose","no-go","0"
"pit-trial","221","1333564","0.0-107.0","battery-v0.2","","""event"",""trial"",""time""
""fullscreenenter"",""1"",""4201""
","
","
","""event"",""trial"",""time""
""fullscreenenter"",""1"",""4201""
","
","","","784.5999999642372","","","13","10098","4829","s","elianto","#3366ff99"," "," ","1","+10","[1634.800000011921]","1","2","","","10098","103","5","1","win","go","0"
"pit-trial","222","1337565","0.0-108.0","battery-v0.2","","""event"",""trial"",""time""
""fullscreenenter"",""1"",""4201""
","
","
","""event"",""trial"",""time""
""fullscreenenter"",""1"",""4201""
","
","","","1148.300000011921","","","13","10098","4829","d","elianto","#3366ff99","-1"," ","0","0","[1998.699999988079]","1","2","","","10098","104","8","2","win","no-go","0"
"pit-trial","223","1342418","0.0-109.0","battery-v0.2","","""event"",""trial"",""time""
""fullscreenenter"",""1"",""4201""
","
","
","""event"",""trial"",""time""
""fullscreenenter"",""1"",""4201""
","
","","","-1","","","13","10098","4829","w","elianto","#f73b6a7A","-1","-1","1","-10","[2868.300000011921]","1","2","","","10098","105","6","4","lose","no-go","1"
"pit-trial","224","1346134","0.0-110.0","battery-v0.2","","""event"",""trial"",""time""
""fullscreenenter"",""1"",""4201""
","
","
","""event"",""trial"",""time""
""fullscreenenter"",""1"",""4201""
","
","","","862.9000000357628","","","13","10098","4829","s","elianto","#3366ff99"," "," ","1","0","[1713.5]","1","2","","","10098","106","5","1","win","go","1"
"pit-trial","225","1349967","0.0-111.0","battery-v0.2","","""event"",""trial"",""time""
""fullscreenenter"",""1"",""4201""
","
","
","""event"",""trial"",""time""
""fullscreenenter"",""1"",""4201""
","
","","","979.6000000238419","","","13","10098","4829","d","elianto","#3366ff99","-1"," ","0","0","[1831.2000000476837]","1","2","","","10098","107","8","2","win","no-go","0"
"pit-trial","226","1353743","0.0-112.0","battery-v0.2","","""event"",""trial"",""time""
""fullscreenenter"",""1"",""4201""
","
","
","""event"",""trial"",""time""
""fullscreenenter"",""1"",""4201""
","
","","","921.3000000119209","","","13","10098","4829","j","elianto","#3366ff99","-1"," ","0","0","[1772.300000011921]","1","2","","","10098","108","9","2","win","no-go","0"
"pit-trial","227","1357418","0.0-113.0","battery-v0.2","","""event"",""trial"",""time""
""fullscreenenter"",""1"",""4201""
","
","
","""event"",""trial"",""time""
""fullscreenenter"",""1"",""4201""
","
","","","822.6999999880791","","","13","10098","4829","s","elianto","#3366ff99"," "," ","1","+10","[1673]","1","2","","","10098","109","5","1","win","go","0"
"pit-trial","228","1362270","0.0-114.0","battery-v0.2","","""event"",""trial"",""time""
""fullscreenenter"",""1"",""4201""
","
","
","""event"",""trial"",""time""
""fullscreenenter"",""1"",""4201""
","
","","","-1","","","13","10098","4829","w","elianto","#f73b6a7A","-1","-1","1","0","[]","0","2","","","10098","110","6","4","lose","no-go","0"
"pit-trial","229","1367123","0.0-115.0","battery-v0.2","","""event"",""trial"",""time""
""fullscreenenter"",""1"",""4201""
","
","
","""event"",""trial"",""time""
""fullscreenenter"",""1"",""4201""
","
","","","-1","","","13","10098","4829","d","elianto","#3366ff99","-1","-1","1","+10","[]","0","2","","","10098","111","8","2","win","no-go","0"
"pit-trial","230","1371976","0.0-116.0","battery-v0.2","","""event"",""trial"",""time""
""fullscreenenter"",""1"",""4201""
","
","
","""event"",""trial"",""time""
""fullscreenenter"",""1"",""4201""
","
","","","-1","","","13","10098","4829","j","elianto","#3366ff99","-1","-1","1","0","[]","0","2","","","10098","112","9","2","win","no-go","1"
"pit-trial","231","1375758","0.0-117.0","battery-v0.2","","""event"",""trial"",""time""
""fullscreenenter"",""1"",""4201""
","
","
","""event"",""trial"",""time""
""fullscreenenter"",""1"",""4201""
","
","","","926.5","","","13","10098","4829","j","elianto","#3366ff99","-1"," ","0","0","[1776.8999999761581]","1","2","","","10098","113","9","2","win","no-go","0"
"pit-trial","232","1379903","0.0-118.0","battery-v0.2","","""event"",""trial"",""time""
""fullscreenenter"",""1"",""4201""
","
","
","""event"",""trial"",""time""
""fullscreenenter"",""1"",""4201""
","
","","","1283","","","13","10098","4829","d","elianto","#3366ff99","-1"," ","0","+10","[2134]","1","2","","","10098","114","8","2","win","no-go","1"
"pit-trial","233","1384755","0.0-119.0","battery-v0.2","","""event"",""trial"",""time""
""fullscreenenter"",""1"",""4201""
","
","
","""event"",""trial"",""time""
""fullscreenenter"",""1"",""4201""
","
","","","-1","","","13","10098","4829","e","elianto","#f73b6a7A"," ","-1","0","-10","[]","0","2","","","10098","115","7","3","lose","go","0"
"pit-trial","234","1388476","0.0-120.0","battery-v0.2","","""event"",""trial"",""time""
""fullscreenenter"",""1"",""4201""
","
","
","""event"",""trial"",""time""
""fullscreenenter"",""1"",""4201""
","
","","","869","","","13","10098","4829","s","elianto","#3366ff99"," "," ","1","+10","[1719]","1","2","","","10098","116","5","1","win","go","0"
"pit-trial","235","1393333","0.0-121.0","battery-v0.2","","""event"",""trial"",""time""
""fullscreenenter"",""1"",""4201""
","
","
","""event"",""trial"",""time""
""fullscreenenter"",""1"",""4201""
","
","","","-1","","","13","10098","4829","w","elianto","#f73b6a7A","-1","-1","1","0","[]","0","2","","","10098","117","6","4","lose","no-go","0"
"pit-trial","236","1396940","0.0-122.0","battery-v0.2","","""event"",""trial"",""time""
""fullscreenenter"",""1"",""4201""
","
","
","""event"",""trial"",""time""
""fullscreenenter"",""1"",""4201""
","
","","","754.7999999523163","","","13","10098","4829","s","elianto","#3366ff99"," "," ","1","+10","[1605.199999988079]","1","2","","","10098","118","5","1","win","go","0"
"pit-trial","237","1401793","0.0-123.0","battery-v0.2","","""event"",""trial"",""time""
""fullscreenenter"",""1"",""4201""
","
","
","""event"",""trial"",""time""
""fullscreenenter"",""1"",""4201""
","
","","","-1","","","13","10098","4829","j","elianto","#3366ff99","-1","-1","1","+10","[]","0","2","","","10098","119","9","2","win","no-go","0"
"pit-trial","238","1406646","0.0-124.0","battery-v0.2","","""event"",""trial"",""time""
""fullscreenenter"",""1"",""4201""
","
","
","""event"",""trial"",""time""
""fullscreenenter"",""1"",""4201""
","
","","","-1","","","13","10098","4829","d","elianto","#3366ff99","-1","-1","1","0","[]","0","2","","","10098","120","8","2","win","no-go","1"
"pit-trial","239","1410808","0.0-125.0","battery-v0.2","","""event"",""trial"",""time""
""fullscreenenter"",""1"",""4201""
","
","
","""event"",""trial"",""time""
""fullscreenenter"",""1"",""4201""
","
","","","1309.300000011921","","","13","10098","4829","d","elianto","#3366ff99","-1"," ","0","+10","[2159.399999976158]","1","2","","","10098","121","8","2","win","no-go","1"
"pit-trial","240","1414433","0.0-126.0","battery-v0.2","","""event"",""trial"",""time""
""fullscreenenter"",""1"",""4201""
","
","
","""event"",""trial"",""time""
""fullscreenenter"",""1"",""4201""
","
","","","765.6000000238419","","","13","10098","4829","s","elianto","#3366ff99"," "," ","1","+10","[1621.7000000476837]","1","2","","","10098","122","5","1","win","go","0"
"pit-trial","241","1419286","0.0-127.0","battery-v0.2","","""event"",""trial"",""time""
""fullscreenenter"",""1"",""4201""
","
","
","""event"",""trial"",""time""
""fullscreenenter"",""1"",""4201""
","
","","","-1","","","13","10098","4829","e","elianto","#f73b6a7A"," ","-1","0","-10","[]","0","2","","","10098","123","7","3","lose","go","0"
"pit-trial","242","1424138","0.0-128.0","battery-v0.2","","""event"",""trial"",""time""
""fullscreenenter"",""1"",""4201""
","
","
","""event"",""trial"",""time""
""fullscreenenter"",""1"",""4201""
","
","","","-1","","","13","10098","4829","j","elianto","#3366ff99","-1","-1","1","+10","[]","0","2","","","10098","124","9","2","win","no-go","0"
"pit-trial","243","1428993","0.0-129.0","battery-v0.2","","""event"",""trial"",""time""
""fullscreenenter"",""1"",""4201""
","
","
","""event"",""trial"",""time""
""fullscreenenter"",""1"",""4201""
","
","","","-1","","","13","10098","4829","w","elianto","#f73b6a7A","-1","-1","1","-10","[]","0","2","","","10098","125","6","4","lose","no-go","1"
"pit-trial","244","1433849","0.0-130.0","battery-v0.2","","""event"",""trial"",""time""
""fullscreenenter"",""1"",""4201""
","
","
","""event"",""trial"",""time""
""fullscreenenter"",""1"",""4201""
","
","","","-1","","","13","10098","4829","j","elianto","#3366ff99","-1","-1","1","+10","[]","0","2","","","10098","126","9","2","win","no-go","0"
"pit-trial","245","1438702","0.0-131.0","battery-v0.2","","""event"",""trial"",""time""
""fullscreenenter"",""1"",""4201""
","
","
","""event"",""trial"",""time""
""fullscreenenter"",""1"",""4201""
","
","","","-1","","","13","10098","4829","e","elianto","#f73b6a7A"," ","-1","0","0","[]","0","2","","","10098","127","7","3","lose","go","1"
"pit-trial","246","1442595","0.0-132.0","battery-v0.2","","""event"",""trial"",""time""
""fullscreenenter"",""1"",""4201""
","
","
","""event"",""trial"",""time""
""fullscreenenter"",""1"",""4201""
","
","","","1039.5","","","13","10098","4829","d","elianto","#3366ff99","-1"," ","0","0","[1890.5999999642372]","1","2","","","10098","128","8","2","win","no-go","0"
"pit-trial","247","1447448","0.0-133.0","battery-v0.2","","""event"",""trial"",""time""
""fullscreenenter"",""1"",""4201""
","
","
","""event"",""trial"",""time""
""fullscreenenter"",""1"",""4201""
","
","","","-1","","","13","10098","4829","e","elianto","#f73b6a7A"," ","-1","0","-10","[]","0","2","","","10098","129","7","3","lose","go","0"
"pit-trial","248","1451568","0.0-134.0","battery-v0.2","","""event"",""trial"",""time""
""fullscreenenter"",""1"",""4201""
","
","
","""event"",""trial"",""time""
""fullscreenenter"",""1"",""4201""
","
","","","1267.1000000238419","","","13","10098","4829","d","elianto","#3366ff99","-1"," ","0","0","[2117.800000011921]","1","2","","","10098","130","8","2","win","no-go","0"
"pit-trial","249","1456421","0.0-135.0","battery-v0.2","","""event"",""trial"",""time""
""fullscreenenter"",""1"",""4201""
","
","
","""event"",""trial"",""time""
""fullscreenenter"",""1"",""4201""
","
","","","-1","","","13","10098","4829","w","elianto","#f73b6a7A","-1","-1","1","0","[]","0","2","","","10098","131","6","4","lose","no-go","0"
"pit-trial","250","1460579","0.0-136.0","battery-v0.2","","""event"",""trial"",""time""
""fullscreenenter"",""1"",""4201""
","
","
","""event"",""trial"",""time""
""fullscreenenter"",""1"",""4201""
","
","","","1305.1000000238419","","","13","10098","4829","j","elianto","#3366ff99","-1"," ","0","0","[2155.899999976158]","1","2","","","10098","132","9","2","win","no-go","0"
"pit-trial","251","1465433","0.0-137.0","battery-v0.2","","""event"",""trial"",""time""
""fullscreenenter"",""1"",""4201""
","
","
","""event"",""trial"",""time""
""fullscreenenter"",""1"",""4201""
","
","","","-1","","","13","10098","4829","w","elianto","#f73b6a7A","-1","-1","1","-10","[]","0","2","","","10098","133","6","4","lose","no-go","1"
"pit-trial","252","1469343","0.0-138.0","battery-v0.2","","""event"",""trial"",""time""
""fullscreenenter"",""1"",""4201""
","
","
","""event"",""trial"",""time""
""fullscreenenter"",""1"",""4201""
","
","","","1058.0999999642372","","","13","10098","4829","d","elianto","#3366ff99","-1"," ","0","0","[1908.4000000357628]","1","2","","","10098","134","8","2","win","no-go","0"
"pit-trial","253","1474196","0.0-139.0","battery-v0.2","","""event"",""trial"",""time""
""fullscreenenter"",""1"",""4201""
","
","
","""event"",""trial"",""time""
""fullscreenenter"",""1"",""4201""
","
","","","-1","","","13","10098","4829","j","elianto","#3366ff99","-1","-1","1","0","[]","0","2","","","10098","135","9","2","win","no-go","1"
"pit-trial","254","1479049","0.0-140.0","battery-v0.2","","""event"",""trial"",""time""
""fullscreenenter"",""1"",""4201""
","
","
","""event"",""trial"",""time""
""fullscreenenter"",""1"",""4201""
","
","","","-1","","","13","10098","4829","e","elianto","#f73b6a7A"," ","-1","0","-10","[]","0","2","","","10098","136","7","3","lose","go","0"
"pit-trial","255","1483047","0.0-141.0","battery-v0.2","","""event"",""trial"",""time""
""fullscreenenter"",""1"",""4201""
","
","
","""event"",""trial"",""time""
""fullscreenenter"",""1"",""4201""
","
","","","1145.8999999761581","","","13","10098","4829","e","elianto","#f73b6a7A"," "," ","1","-10","[1996.3999999761581]","1","2","","","10098","137","7","3","lose","go","1"
"pit-trial","256","1487900","0.0-142.0","battery-v0.2","","""event"",""trial"",""time""
""fullscreenenter"",""1"",""4201""
","
","
","""event"",""trial"",""time""
""fullscreenenter"",""1"",""4201""
","
","","","-1","","","13","10098","4829","j","elianto","#3366ff99","-1","-1","1","+10","[]","0","2","","","10098","138","9","2","win","no-go","0"
"pit-trial","257","1492754","0.0-143.0","battery-v0.2","","""event"",""trial"",""time""
""fullscreenenter"",""1"",""4201""
","
","
","""event"",""trial"",""time""
""fullscreenenter"",""1"",""4201""
","
","","","-1","","","13","10098","4829","w","elianto","#f73b6a7A","-1","-1","1","0","[]","0","2","","","10098","139","6","4","lose","no-go","0"
"pit-trial","258","1496587","0.0-144.0","battery-v0.2","","""event"",""trial"",""time""
""fullscreenenter"",""1"",""4201""
","
","
","""event"",""trial"",""time""
""fullscreenenter"",""1"",""4201""
","
","","","980.1999999880791","","","13","10098","4829","d","elianto","#3366ff99","-1"," ","0","0","[1830.7999999523163]","1","2","","","10098","140","8","2","win","no-go","0"
"pit-instructions","259","1510374","0.0-145.0","battery-v0.2","","""event"",""trial"",""time""
""fullscreenenter"",""1"",""4201""
","
","
","""event"",""trial"",""time""
""fullscreenenter"",""1"",""4201""
","
","","[{""page_index"":0,""viewing_time"":5528.5},{""page_index"":1,""viewing_time"":8256.100000023842}]","13784.899999976158","","","","","","","","","","","","","","","","","","","","","","","",""
"pit-trial","260","1515253","0.0-146.0","battery-v0.2","","""event"",""trial"",""time""
""fullscreenenter"",""1"",""4201""
","
","
","""event"",""trial"",""time""
""fullscreenenter"",""1"",""4201""
","
","","","-1","","","13","10098","4829","b","elianto","#f73b6a7A","-1","-1","1","0","[]","0","3","","","10098","141","3","4","lose","no-go","0"
"pit-trial","261","1520115","0.0-147.0","battery-v0.2","","""event"",""trial"",""time""
""fullscreenenter"",""1"",""4201""
","
","
","""event"",""trial"",""time""
""fullscreenenter"",""1"",""4201""
","
","","","-1","","","13","10098","4829","t","elianto","#f73b6a7A"," ","-1","0","-10","[]","0","3","","","10098","142","2","3","lose","go","0"
"pit-trial","262","1523903","0.0-148.0","battery-v0.2","","""event"",""trial"",""time""
""fullscreenenter"",""1"",""4201""
","
","
","""event"",""trial"",""time""
""fullscreenenter"",""1"",""4201""
","
","","","920.8000000119209","","","13","10098","4829","f","elianto","#3366ff99","-1"," ","0","0","[1772.300000011921]","1","3","","","10098","143","1","2","win","no-go","0"
"pit-trial","263","1528059","0.0-149.0","battery-v0.2","","""event"",""trial"",""time""
""fullscreenenter"",""1"",""4201""
","
","
","""event"",""trial"",""time""
""fullscreenenter"",""1"",""4201""
","
","","","1288.199999988079","","","13","10098","4829","n","elianto","#f73b6a7A"," "," ","1","0","[2141]","1","3","","","10098","144","0","3","lose","go","0"
"pit-trial","264","1531859","0.0-150.0","battery-v0.2","","""event"",""trial"",""time""
""fullscreenenter"",""1"",""4201""
","
","
","""event"",""trial"",""time""
""fullscreenenter"",""1"",""4201""
","
