"trial_type","trial_index","time_elapsed","internal_node_id","task_version","subject_id","interactions","blur_events","focus_events","fullscreenenter_events","fullscreenexit_events","success","view_history","rt","responses","num_errors","age","subject","participantId","rune","rune_set","hex","correct","choice","accuracy","outcome","keys","total_keys","block","practice","value","sub","trial","stimulus","robot","valence","action","sham"
"pavlovia","0","7","0.0-0.0","battery-v0.2","","""event"",""trial"",""time""
""fullscreenenter"",""1"",""2030""
","
","
","""event"",""trial"",""time""
""fullscreenenter"",""1"",""2030""
","
","","","","","","","","","","","","","","","","","","","","","","","","","","",""
"fullscreen","1","2756","0.0-1.0","battery-v0.2","","""event"",""trial"",""time""
""fullscreenenter"",""1"",""2030""
","
","
","""event"",""trial"",""time""
""fullscreenenter"",""1"",""2030""
","
","true","","","","","","","","","","","","","","","","","","","","","","","","","",""
"pit-instructions","2","8829","0.0-2.0-0.0","battery-v0.2","","""event"",""trial"",""time""
""fullscreenenter"",""1"",""2030""
","
","
","""event"",""trial"",""time""
""fullscreenenter"",""1"",""2030""
","
","","[{""page_index"":0,""viewing_time"":6067.200000286102}]","6067.800000190735","","","","","","","","","","","","","","","","","","","","","","","",""
"pit-comprehension","3","13403","0.0-2.0-1.0-0.0","battery-v0.2","","""event"",""trial"",""time""
""fullscreenenter"",""1"",""2030""
","
","
","""event"",""trial"",""time""
""fullscreenenter"",""1"",""2030""
","
","","","4571.299999713898","[""shark""]","0","15","4556","2599","","","","","","","","","","","","","","","","","","",""
"pit-instructions","4","16774","0.0-2.0-1.0-1.0","battery-v0.2","","""event"",""trial"",""time""
""fullscreenenter"",""1"",""2030""
","
","
","""event"",""trial"",""time""
""fullscreenenter"",""1"",""2030""
","
","","[{""page_index"":0,""viewing_time"":3352.4000000953674}]","3352.6000003814697","","","","","","","","","","","","","","","","","","","","","","","",""
"pit-comprehension","5","20234","0.0-2.0-2.0-0.0","battery-v0.2","","""event"",""trial"",""time""
""fullscreenenter"",""1"",""2030""
","
","
","""event"",""trial"",""time""
""fullscreenenter"",""1"",""2030""
","
","","","3457.5","[""tiger""]","0","15","4556","2599","","","","","","","","","","","","","","","","","","",""
"pit-instructions","6","22132","0.0-2.0-2.0-1.0","battery-v0.2","","""event"",""trial"",""time""
""fullscreenenter"",""1"",""2030""
","
","
","""event"",""trial"",""time""
""fullscreenenter"",""1"",""2030""
","
","","[{""page_index"":0,""viewing_time"":1895.4000000953674}]","1895.5","","","","","","","","","","","","","","","","","","","","","","","",""
"pit-instructions","7","130456","0.0-2.0-3.0","battery-v0.2","","""event"",""trial"",""time""
""fullscreenenter"",""1"",""2030""
","
","
","""event"",""trial"",""time""
""fullscreenenter"",""1"",""2030""
","
","","[{""page_index"":0,""viewing_time"":9122.300000190735},{""page_index"":1,""viewing_time"":5892},{""page_index"":2,""viewing_time"":8857.599999904633},{""page_index"":3,""viewing_time"":7250.400000095367},{""page_index"":4,""viewing_time"":5759.900000095367},{""page_index"":5,""viewing_time"":5851.699999809265},{""page_index"":6,""viewing_time"":7100.400000095367},{""page_index"":7,""viewing_time"":6283.900000095367},{""page_index"":8,""viewing_time"":8490.799999713898},{""page_index"":9,""viewing_time"":10849.300000190735},{""page_index"":10,""viewing_time"":13540},{""page_index"":11,""viewing_time"":7241.799999713898},{""page_index"":12,""viewing_time"":6550.300000190735},{""page_index"":13,""viewing_time"":5532}]","108322.7000002861","","","","","","","","","","","","","","","","","","","","","","","",""
"pit-trial","8","134501","0.0-2.0-4.0-0.0","battery-v0.2","","""event"",""trial"",""time""
""fullscreenenter"",""1"",""2030""
","
","
","""event"",""trial"",""time""
""fullscreenenter"",""1"",""2030""
","
","","","1169","","","15","4556","2599","&#9784;","elianto","#FFFFF080"," "," ","1","&#10004","[773.0999999046326,2020.8999996185303]","2","0","0","","","","","","","",""
"pit-trial","9","138432","0.0-2.0-4.1-0.1","battery-v0.2","","""event"",""trial"",""time""
""fullscreenenter"",""1"",""2030""
","
","
","""event"",""trial"",""time""
""fullscreenenter"",""1"",""2030""
","
","","","1065.7999997138977","","","15","4556","2599","&#9784;","elianto","#FFFFF080"," "," ","1","&#10004","[1918.1999998092651]","1","0","0","","","","","","","",""
"pit-trial","10","141921","0.0-2.0-4.2-0.2","battery-v0.2","","""event"",""trial"",""time""
""fullscreenenter"",""1"",""2030""
","
","
","""event"",""trial"",""time""
""fullscreenenter"",""1"",""2030""
","
","","","624.2000002861023","","","15","4556","2599","&#9784;","elianto","#FFFFF080"," "," ","1","&#10004","[1475.3999996185303]","1","0","0","","","","","","","",""
"pit-trial","11","145401","0.0-2.0-4.3-0.3","battery-v0.2","","""event"",""trial"",""time""
""fullscreenenter"",""1"",""2030""
","
","
","""event"",""trial"",""time""
""fullscreenenter"",""1"",""2030""
","
","","","616.9000000953674","","","15","4556","2599","&#9784;","elianto","#FFFFF080"," "," ","1","&#10004","[1467.3000001907349]","1","0","0","","","","","","","",""
"pit-trial","12","148872","0.0-2.0-4.4-0.4","battery-v0.2","","""event"",""trial"",""time""
""fullscreenenter"",""1"",""2030""
","
","
","""event"",""trial"",""time""
""fullscreenenter"",""1"",""2030""
","
","","","590.5","","","15","4556","2599","&#9784;","elianto","#FFFFF080"," "," ","1","&#10004","[1443.7000002861023]","1","0","0","","","","","","","",""
"pit-instructions","13","173660","0.0-2.0-5.0","battery-v0.2","","""event"",""trial"",""time""
""fullscreenenter"",""1"",""2030""
","
","
","""event"",""trial"",""time""
""fullscreenenter"",""1"",""2030""
","
","","[{""page_index"":0,""viewing_time"":5184.599999904633},{""page_index"":1,""viewing_time"":6238},{""page_index"":2,""viewing_time"":7515.800000190735},{""page_index"":3,""viewing_time"":5846.299999713898}]","24784.900000095367","","","","","","","","","","","","","","","","","","","","","","","",""
"pit-trial","14","178551","0.0-2.0-6.0-0.0","battery-v0.2","","""event"",""trial"",""time""
""fullscreenenter"",""1"",""2030""
","
","
","""event"",""trial"",""time""
""fullscreenenter"",""1"",""2030""
","
","","","-1","","","15","4556","2599","&#9854;","elianto","#FFFFF080","-1","-1","1","&#10004","[]","0","0","1","","","","","","","",""
"pit-trial","15","183421","0.0-2.0-6.1-0.1","battery-v0.2","","""event"",""trial"",""time""
""fullscreenenter"",""1"",""2030""
","
","
","""event"",""trial"",""time""
""fullscreenenter"",""1"",""2030""
","
","","","-1","","","15","4556","2599","&#9854;","elianto","#FFFFF080","-1","-1","1","&#10004","[]","0","0","1","","","","","","","",""
"pit-trial","16","188301","0.0-2.0-6.2-0.2","battery-v0.2","","""event"",""trial"",""time""
""fullscreenenter"",""1"",""2030""
","
","
","""event"",""trial"",""time""
""fullscreenenter"",""1"",""2030""
","
","","","-1","","","15","4556","2599","&#9854;","elianto","#FFFFF080","-1","-1","1","&#10004","[]","0","0","1","","","","","","","",""
"pit-trial","17","193172","0.0-2.0-6.3-0.3","battery-v0.2","","""event"",""trial"",""time""
""fullscreenenter"",""1"",""2030""
","
","
","""event"",""trial"",""time""
""fullscreenenter"",""1"",""2030""
","
","","","-1","","","15","4556","2599","&#9854;","elianto","#FFFFF080","-1","-1","1","&#10004","[]","0","0","1","","","","","","","",""
"pit-trial","18","198052","0.0-2.0-6.4-0.4","battery-v0.2","","""event"",""trial"",""time""
""fullscreenenter"",""1"",""2030""
","
","
","""event"",""trial"",""time""
""fullscreenenter"",""1"",""2030""
","
","","","-1","","","15","4556","2599","&#9854;","elianto","#FFFFF080","-1","-1","1","&#10004","[]","0","0","1","","","","","","","",""
"pit-instructions","19","331495","0.0-2.0-7.0","battery-v0.2","","""event"",""trial"",""time""
""fullscreenenter"",""1"",""2030""
","
","
","""event"",""trial"",""time""
""fullscreenenter"",""1"",""2030""
","
","","[{""page_index"":0,""viewing_time"":6798.299999713898},{""page_index"":1,""viewing_time"":9586.099999904633},{""page_index"":2,""viewing_time"":5963.900000095367},{""page_index"":3,""viewing_time"":5836.200000286102},{""page_index"":4,""viewing_time"":8787.799999713898},{""page_index"":5,""viewing_time"":6128},{""page_index"":6,""viewing_time"":6472},{""page_index"":7,""viewing_time"":8192.099999904633},{""page_index"":8,""viewing_time"":6872.10000038147},{""page_index"":9,""viewing_time"":6638},{""page_index"":10,""viewing_time"":9322},{""page_index"":11,""viewing_time"":6141.599999904633},{""page_index"":12,""viewing_time"":7304.299999713898},{""page_index"":13,""viewing_time"":7601.800000190735},{""page_index"":14,""viewing_time"":7390.400000095367},{""page_index"":15,""viewing_time"":6637.900000095367},{""page_index"":16,""viewing_time"":8144.099999904633},{""page_index"":17,""viewing_time"":9621.599999904633}]","133438.39999961853","","","","","","","","","","","","","","","","","","","","","","","",""
"pit-trial","20","335042","0.0-2.0-8.0-0.0","battery-v0.2","","""event"",""trial"",""time""
""fullscreenenter"",""1"",""2030""
","
","
","""event"",""trial"",""time""
""fullscreenenter"",""1"",""2030""
","
","","","668.6000003814697","","","15","4556","2599","&#9776;","elianto","#3366ff99"," "," ","1","+10","[1519.5]","1","0","1","","","","","","","",""
"pit-trial","21","338602","0.0-2.0-8.0-1.0","battery-v0.2","","""event"",""trial"",""time""
""fullscreenenter"",""1"",""2030""
","
","
","""event"",""trial"",""time""
""fullscreenenter"",""1"",""2030""
","
","","","698.2999997138977","","","15","4556","2599","&#9776;","elianto","#3366ff99"," "," ","1","+10","[1548.1999998092651]","1","0","1","","","","","","","",""
"pit-trial","22","342102","0.0-2.0-8.0-2.0","battery-v0.2","","""event"",""trial"",""time""
""fullscreenenter"",""1"",""2030""
","
","
","""event"",""trial"",""time""
""fullscreenenter"",""1"",""2030""
","
","","","630.0999999046326","","","15","4556","2599","&#9776;","elianto","#3366ff99"," "," ","1","+10","[1482]","1","0","1","","","","","","","",""
"pit-trial","23","345482","0.0-2.0-8.0-3.0","battery-v0.2","","""event"",""trial"",""time""
""fullscreenenter"",""1"",""2030""
","
","
","""event"",""trial"",""time""
""fullscreenenter"",""1"",""2030""
","
","","","514.2000002861023","","","15","4556","2599","&#9776;","elianto","#3366ff99"," "," ","1","0","[1370.1000003814697]","1","0","1","","","","","","","",""
"pit-trial","24","348972","0.0-2.0-8.0-4.0","battery-v0.2","","""event"",""trial"",""time""
""fullscreenenter"",""1"",""2030""
","
","
","""event"",""trial"",""time""
""fullscreenenter"",""1"",""2030""
","
","","","616.1999998092651","","","15","4556","2599","&#9776;","elianto","#3366ff99"," "," ","1","+10","[1467.5999999046326]","1","0","1","","","","","","","",""
"pit-trial","25","352401","0.0-2.0-8.1-0.1","battery-v0.2","","""event"",""trial"",""time""
""fullscreenenter"",""1"",""2030""
","
","
","""event"",""trial"",""time""
""fullscreenenter"",""1"",""2030""
","
","","","549.4000000953674","","","15","4556","2599","&#9776;","elianto","#3366ff99"," "," ","1","+10","[1399.4000000953674]","1","0","1","","","","","","","",""
"pit-trial","26","355882","0.0-2.0-8.1-1.1","battery-v0.2","","""event"",""trial"",""time""
""fullscreenenter"",""1"",""2030""
","
","
","""event"",""trial"",""time""
""fullscreenenter"",""1"",""2030""
","
","","","601.8000001907349","","","15","4556","2599","&#9776;","elianto","#3366ff99"," "," ","1","+10","[1454.4000000953674]","1","0","1","","","","","","","",""
"pit-trial","27","359383","0.0-2.0-8.1-2.1","battery-v0.2","","""event"",""trial"",""time""
""fullscreenenter"",""1"",""2030""
","
","
","""event"",""trial"",""time""
""fullscreenenter"",""1"",""2030""
","
","","","632.9000000953674","","","15","4556","2599","&#9776;","elianto","#3366ff99"," "," ","1","+10","[1491]","1","0","1","","","","","","","",""
"pit-trial","28","362815","0.0-2.0-8.1-3.1","battery-v0.2","","""event"",""trial"",""time""
""fullscreenenter"",""1"",""2030""
","
","
","""event"",""trial"",""time""
""fullscreenenter"",""1"",""2030""
","
","","","568.7999997138977","","","15","4556","2599","&#9776;","elianto","#3366ff99"," "," ","1","0","[1422.0999999046326]","1","0","1","","","","","","","",""
"pit-trial","29","366232","0.0-2.0-8.1-4.1","battery-v0.2","","""event"",""trial"",""time""
""fullscreenenter"",""1"",""2030""
","
","
","""event"",""trial"",""time""
""fullscreenenter"",""1"",""2030""
","
","","","554","","","15","4556","2599","&#9776;","elianto","#3366ff99"," "," ","1","+10","[1407.4000000953674]","1","0","1","","","","","","","",""
"pit-trial","30","369591","0.0-2.0-8.2-0.2","battery-v0.2","","""event"",""trial"",""time""
""fullscreenenter"",""1"",""2030""
","
","
","""event"",""trial"",""time""
""fullscreenenter"",""1"",""2030""
","
","","","496.30000019073486","","","15","4556","2599","&#9776;","elianto","#3366ff99"," "," ","1","+10","[1348]","1","0","1","","","","","","","",""
"pit-trial","31","372983","0.0-2.0-8.2-1.2","battery-v0.2","","""event"",""trial"",""time""
""fullscreenenter"",""1"",""2030""
","
","
","""event"",""trial"",""time""
""fullscreenenter"",""1"",""2030""
","
","","","530.1999998092651","","","15","4556","2599","&#9776;","elianto","#3366ff99"," "," ","1","+10","[1381.1999998092651]","1","0","1","","","","","","","",""
"pit-trial","32","376223","0.0-2.0-8.2-2.2","battery-v0.2","","""event"",""trial"",""time""
""fullscreenenter"",""1"",""2030""
","
","
","""event"",""trial"",""time""
""fullscreenenter"",""1"",""2030""
","
","","","376.1000003814697","","","15","4556","2599","&#9776;","elianto","#3366ff99"," "," ","1","+10","[1229.4000000953674]","1","0","1","","","","","","","",""
"pit-trial","33","379655","0.0-2.0-8.2-3.2","battery-v0.2","","""event"",""trial"",""time""
""fullscreenenter"",""1"",""2030""
","
","
","""event"",""trial"",""time""
""fullscreenenter"",""1"",""2030""
","
","","","573.0999999046326","","","15","4556","2599","&#9776;","elianto","#3366ff99"," "," ","1","0","[1425.1999998092651]","1","0","1","","","","","","","",""
"pit-trial","34","383016","0.0-2.0-8.2-4.2","battery-v0.2","","""event"",""trial"",""time""
""fullscreenenter"",""1"",""2030""
","
","
","""event"",""trial"",""time""
""fullscreenenter"",""1"",""2030""
","
","","","497.80000019073486","","","15","4556","2599","&#9776;","elianto","#3366ff99"," "," ","1","+10","[1350]","1","0","1","","","","","","","",""
"call-function","35","383018","0.0-2.0-9.0","battery-v0.2","","""event"",""trial"",""time""
""fullscreenenter"",""1"",""2030""
","
","
","""event"",""trial"",""time""
""fullscreenenter"",""1"",""2030""
","
","","","","","","","","","","","","","","","","","","","","","","","","","","",""
"pit-instructions","36","423971","0.0-2.0-10.0","battery-v0.2","","""event"",""trial"",""time""
""fullscreenenter"",""1"",""2030""
","
","
","""event"",""trial"",""time""
""fullscreenenter"",""1"",""2030""
","
","","[{""page_index"":0,""viewing_time"":6106.799999713898},{""page_index"":1,""viewing_time"":6888.300000190735},{""page_index"":2,""viewing_time"":11045.800000190735},{""page_index"":3,""viewing_time"":9229.89999961853},{""page_index"":4,""viewing_time"":7680.5}]","40951.5","","","","","","","","","","","","","","","","","","","","","","","",""
"pit-trial","37","427400","0.0-2.0-11.0-0.0","battery-v0.2","","""event"",""trial"",""time""
""fullscreenenter"",""1"",""2030""
","
","
","""event"",""trial"",""time""
""fullscreenenter"",""1"",""2030""
","
","","","568.1999998092651","","","15","4556","2599","&#9761;","elianto","#3366ff99","-1"," ","0","0","[1419.2999997138977]","1","0","2","","","","","","","",""
"pit-trial","38","430860","0.0-2.0-11.0-1.0","battery-v0.2","","""event"",""trial"",""time""
""fullscreenenter"",""1"",""2030""
","
","
","""event"",""trial"",""time""
""fullscreenenter"",""1"",""2030""
","
","","","593.9000000953674","","","15","4556","2599","&#9761;","elianto","#3366ff99","-1"," ","0","0","[1446.5999999046326]","1","0","2","","","","","","","",""
"pit-trial","39","435740","0.0-2.0-11.0-2.0","battery-v0.2","","""event"",""trial"",""time""
""fullscreenenter"",""1"",""2030""
","
","
","""event"",""trial"",""time""
""fullscreenenter"",""1"",""2030""
","
","","","-1","","","15","4556","2599","&#9761;","elianto","#3366ff99","-1","-1","1","+10","[]","0","0","2","","","","","","","",""
"pit-trial","40","440630","0.0-2.0-11.0-3.0","battery-v0.2","","""event"",""trial"",""time""
""fullscreenenter"",""1"",""2030""
","
","
","""event"",""trial"",""time""
""fullscreenenter"",""1"",""2030""
","
","","","-1","","","15","4556","2599","&#9761;","elianto","#3366ff99","-1","-1","1","0","[]","0","0","2","","","","","","","",""
"pit-trial","41","445520","0.0-2.0-11.0-4.0","battery-v0.2","","""event"",""trial"",""time""
""fullscreenenter"",""1"",""2030""
","
","
","""event"",""trial"",""time""
""fullscreenenter"",""1"",""2030""
","
","","","-1","","","15","4556","2599","&#9761;","elianto","#3366ff99","-1","-1","1","+10","[]","0","0","2","","","","","","","",""
"pit-trial","42","450390","0.0-2.0-11.1-0.1","battery-v0.2","","""event"",""trial"",""time""
""fullscreenenter"",""1"",""2030""
","
","
","""event"",""trial"",""time""
""fullscreenenter"",""1"",""2030""
","
","","","-1","","","15","4556","2599","&#9761;","elianto","#3366ff99","-1","-1","1","+10","[]","0","0","2","","","","","","","",""
"pit-trial","43","453888","0.0-2.0-11.1-1.1","battery-v0.2","","""event"",""trial"",""time""
""fullscreenenter"",""1"",""2030""
","
","
","""event"",""trial"",""time""
""fullscreenenter"",""1"",""2030""
","
","","","636.2000002861023","","","15","4556","2599","&#9761;","elianto","#3366ff99","-1"," ","0","0","[1488.6000003814697]","1","0","2","","","","","","","",""
"pit-trial","44","457663","0.0-2.0-11.1-2.1","battery-v0.2","","""event"",""trial"",""time""
""fullscreenenter"",""1"",""2030""
","
","
","""event"",""trial"",""time""
""fullscreenenter"",""1"",""2030""
","
","","","913.5","","","15","4556","2599","&#9761;","elianto","#3366ff99","-1"," ","0","0","[1767.2000002861023]","1","0","2","","","","","","","",""
"pit-trial","45","461091","0.0-2.0-11.1-3.1","battery-v0.2","","""event"",""trial"",""time""
""fullscreenenter"",""1"",""2030""
","
","
","""event"",""trial"",""time""
""fullscreenenter"",""1"",""2030""
","
","","","552.6000003814697","","","15","4556","2599","&#9761;","elianto","#3366ff99","-1"," ","0","+10","[1406.9000000953674]","1","0","2","","","","","","","",""
"pit-trial","46","464953","0.0-2.0-11.1-4.1","battery-v0.2","","""event"",""trial"",""time""
""fullscreenenter"",""1"",""2030""
","
","
","""event"",""trial"",""time""
""fullscreenenter"",""1"",""2030""
","
","","","1000.6000003814697","","","15","4556","2599","&#9761;","elianto","#3366ff99","-1"," ","0","0","[1852.5999999046326]","1","0","2","","","","","","","",""
"pit-trial","47","468240","0.0-2.0-11.2-0.2","battery-v0.2","","""event"",""trial"",""time""
""fullscreenenter"",""1"",""2030""
","
","
","""event"",""trial"",""time""
""fullscreenenter"",""1"",""2030""
","
","","","425","","","15","4556","2599","&#9761;","elianto","#3366ff99","-1"," ","0","0","[284,1276.1000003814697]","2","0","2","","","","","","","",""
"pit-trial","48","471415","0.0-2.0-11.2-1.2","battery-v0.2","","""event"",""trial"",""time""
""fullscreenenter"",""1"",""2030""
","
","
","""event"",""trial"",""time""
""fullscreenenter"",""1"",""2030""
","
","","","314.5","","","15","4556","2599","&#9761;","elianto","#3366ff99","-1"," ","0","0","[1166.3000001907349]","1","0","2","","","","","","","",""
"pit-trial","49","474736","0.0-2.0-11.2-2.2","battery-v0.2","","""event"",""trial"",""time""
""fullscreenenter"",""1"",""2030""
","
","
","""event"",""trial"",""time""
""fullscreenenter"",""1"",""2030""
","
","","","456","","","15","4556","2599","&#9761;","elianto","#3366ff99","-1"," ","0","0","[1310.2999997138977]","1","0","2","","","","","","","",""
"pit-trial","50","478095","0.0-2.0-11.2-3.2","battery-v0.2","","""event"",""trial"",""time""
""fullscreenenter"",""1"",""2030""
","
","
","""event"",""trial"",""time""
""fullscreenenter"",""1"",""2030""
","
","","","498.5","","","15","4556","2599","&#9761;","elianto","#3366ff99","-1"," ","0","+10","[1351.5]","1","0","2","","","","","","","",""
"pit-trial","51","481369","0.0-2.0-11.2-4.2","battery-v0.2","","""event"",""trial"",""time""
""fullscreenenter"",""1"",""2030""
","
","
","""event"",""trial"",""time""
""fullscreenenter"",""1"",""2030""
","
","","","408.5","","","15","4556","2599","&#9761;","elianto","#3366ff99","-1"," ","0","0","[1262.5]","1","0","2","","","","","","","",""
"pit-trial","52","484336","0.0-2.0-11.3-0.3","battery-v0.2","","""event"",""trial"",""time""
""fullscreenenter"",""1"",""2030""
","
","
","""event"",""trial"",""time""
""fullscreenenter"",""1"",""2030""
","
","","","105.7999997138977","","","15","4556","2599","&#9761;","elianto","#3366ff99","-1"," ","0","0","[957.4000000953674,1140.1000003814697]","2","0","2","","","","","","","",""
"pit-trial","53","487642","0.0-2.0-11.3-1.3","battery-v0.2","","""event"",""trial"",""time""
""fullscreenenter"",""1"",""2030""
","
","
","""event"",""trial"",""time""
""fullscreenenter"",""1"",""2030""
","
","","","440.7000002861023","","","15","4556","2599","&#9761;","elianto","#3366ff99","-1"," ","0","0","[1293.9000000953674]","1","0","2","","","","","","","",""
"pit-trial","54","492504","0.0-2.0-11.3-2.3","battery-v0.2","","""event"",""trial"",""time""
""fullscreenenter"",""1"",""2030""
","
","
","""event"",""trial"",""time""
""fullscreenenter"",""1"",""2030""
","
","","","-1","","","15","4556","2599","&#9761;","elianto","#3366ff99","-1","-1","1","+10","[3291.7000002861023,4620.099999904633]","2","0","2","","","","","","","",""
"pit-trial","55","496070","0.0-2.0-11.3-3.3","battery-v0.2","","""event"",""trial"",""time""
""fullscreenenter"",""1"",""2030""
","
","
","""event"",""trial"",""time""
""fullscreenenter"",""1"",""2030""
","
","","","689.2000002861023","","","15","4556","2599","&#9761;","elianto","#3366ff99","-1"," ","0","+10","[1542]","1","0","2","","","","","","","",""
"pit-trial","56","500936","0.0-2.0-11.3-4.3","battery-v0.2","","""event"",""trial"",""time""
""fullscreenenter"",""1"",""2030""
","
","
","""event"",""trial"",""time""
""fullscreenenter"",""1"",""2030""
","
","","","-1","","","15","4556","2599","&#9761;","elianto","#3366ff99","-1","-1","1","+10","[]","0","0","2","","","","","","","",""
"call-function","57","500939","0.0-2.0-12.0","battery-v0.2","","""event"",""trial"",""time""
""fullscreenenter"",""1"",""2030""
","
","
","""event"",""trial"",""time""
""fullscreenenter"",""1"",""2030""
","
","","","","","","","","","","","","","","","","","","","","","","","","","","",""
"pit-instructions","58","540895","0.0-2.0-13.0","battery-v0.2","","""event"",""trial"",""time""
""fullscreenenter"",""1"",""2030""
","
","
","""event"",""trial"",""time""
""fullscreenenter"",""1"",""2030""
","
","","[{""page_index"":0,""viewing_time"":6537.200000286102},{""page_index"":1,""viewing_time"":8088.199999809265},{""page_index"":2,""viewing_time"":5515.700000286102},{""page_index"":3,""viewing_time"":14370},{""page_index"":4,""viewing_time"":5444.39999961853}]","39955.800000190735","","","","","","","","","","","","","","","","","","","","","","","",""
"pit-trial","59","545768","0.0-2.0-14.0-0.0","battery-v0.2","","""event"",""trial"",""time""
""fullscreenenter"",""1"",""2030""
","
","
","""event"",""trial"",""time""
""fullscreenenter"",""1"",""2030""
","
","","","-1","","","15","4556","2599","&#9826;","elianto","#f73b6a7A","-1","-1","1","0","[]","0","0","3","","","","","","","",""
"pit-trial","60","550658","0.0-2.0-14.0-1.0","battery-v0.2","","""event"",""trial"",""time""
""fullscreenenter"",""1"",""2030""
","
","
","""event"",""trial"",""time""
""fullscreenenter"",""1"",""2030""
","
","","","-1","","","15","4556","2599","&#9826;","elianto","#f73b6a7A","-1","-1","1","0","[]","0","0","3","","","","","","","",""
"pit-trial","61","555539","0.0-2.0-14.0-2.0","battery-v0.2","","""event"",""trial"",""time""
""fullscreenenter"",""1"",""2030""
","
","
","""event"",""trial"",""time""
""fullscreenenter"",""1"",""2030""
","
","","","-1","","","15","4556","2599","&#9826;","elianto","#f73b6a7A","-1","-1","1","0","[]","0","0","3","","","","","","","",""
"pit-trial","62","560418","0.0-2.0-14.0-3.0","battery-v0.2","","""event"",""trial"",""time""
""fullscreenenter"",""1"",""2030""
","
","
","""event"",""trial"",""time""
""fullscreenenter"",""1"",""2030""
","
","","","-1","","","15","4556","2599","&#9826;","elianto","#f73b6a7A","-1","-1","1","-10","[]","0","0","3","","","","","","","",""
"pit-trial","63","565288","0.0-2.0-14.0-4.0","battery-v0.2","","""event"",""trial"",""time""
""fullscreenenter"",""1"",""2030""
","
","
","""event"",""trial"",""time""
""fullscreenenter"",""1"",""2030""
","
","","","-1","","","15","4556","2599","&#9826;","elianto","#f73b6a7A","-1","-1","1","0","[]","0","0","3","","","","","","","",""
"pit-trial","64","570158","0.0-2.0-14.1-0.1","battery-v0.2","","""event"",""trial"",""time""
""fullscreenenter"",""1"",""2030""
","
","
","""event"",""trial"",""time""
""fullscreenenter"",""1"",""2030""
","
","","","-1","","","15","4556","2599","&#9826;","elianto","#f73b6a7A","-1","-1","1","0","[]","0","0","3","","","","","","","",""
"pit-trial","65","575023","0.0-2.0-14.1-1.1","battery-v0.2","","""event"",""trial"",""time""
""fullscreenenter"",""1"",""2030""
","
","
","""event"",""trial"",""time""
""fullscreenenter"",""1"",""2030""
","
","","","-1","","","15","4556","2599","&#9826;","elianto","#f73b6a7A","-1","-1","1","0","[]","0","0","3","","","","","","","",""
"pit-trial","66","579889","0.0-2.0-14.1-2.1","battery-v0.2","","""event"",""trial"",""time""
""fullscreenenter"",""1"",""2030""
","
","
","""event"",""trial"",""time""
""fullscreenenter"",""1"",""2030""
","
","","","-1","","","15","4556","2599","&#9826;","elianto","#f73b6a7A","-1","-1","1","0","[]","0","0","3","","","","","","","",""
"pit-trial","67","584751","0.0-2.0-14.1-3.1","battery-v0.2","","""event"",""trial"",""time""
""fullscreenenter"",""1"",""2030""
","
","
","""event"",""trial"",""time""
""fullscreenenter"",""1"",""2030""
","
","","","-1","","","15","4556","2599","&#9826;","elianto","#f73b6a7A","-1","-1","1","-10","[]","0","0","3","","","","","","","",""
"pit-trial","68","589616","0.0-2.0-14.1-4.1","battery-v0.2","","""event"",""trial"",""time""
""fullscreenenter"",""1"",""2030""
","
","
","""event"",""trial"",""time""
""fullscreenenter"",""1"",""2030""
","
","","","-1","","","15","4556","2599","&#9826;","elianto","#f73b6a7A","-1","-1","1","0","[]","0","0","3","","","","","","","",""
"pit-trial","69","594480","0.0-2.0-14.2-0.2","battery-v0.2","","""event"",""trial"",""time""
""fullscreenenter"",""1"",""2030""
","
","
","""event"",""trial"",""time""
""fullscreenenter"",""1"",""2030""
","
","","","-1","","","15","4556","2599","&#9826;","elianto","#f73b6a7A","-1","-1","1","0","[]","0","0","3","","","","","","","",""
"pit-trial","70","599343","0.0-2.0-14.2-1.2","battery-v0.2","","""event"",""trial"",""time""
""fullscreenenter"",""1"",""2030""
","
","
","""event"",""trial"",""time""
""fullscreenenter"",""1"",""2030""
","
","","","-1","","","15","4556","2599","&#9826;","elianto","#f73b6a7A","-1","-1","1","0","[]","0","0","3","","","","","","","",""
"pit-trial","71","604208","0.0-2.0-14.2-2.2","battery-v0.2","","""event"",""trial"",""time""
""fullscreenenter"",""1"",""2030""
","
","
","""event"",""trial"",""time""
""fullscreenenter"",""1"",""2030""
","
","","","-1","","","15","4556","2599","&#9826;","elianto","#f73b6a7A","-1","-1","1","0","[]","0","0","3","","","","","","","",""
"pit-trial","72","609073","0.0-2.0-14.2-3.2","battery-v0.2","","""event"",""trial"",""time""
""fullscreenenter"",""1"",""2030""
","
","
","""event"",""trial"",""time""
""fullscreenenter"",""1"",""2030""
","
","","","-1","","","15","4556","2599","&#9826;","elianto","#f73b6a7A","-1","-1","1","-10","[]","0","0","3","","","","","","","",""
"pit-trial","73","613936","0.0-2.0-14.2-4.2","battery-v0.2","","""event"",""trial"",""time""
""fullscreenenter"",""1"",""2030""
","
","
","""event"",""trial"",""time""
""fullscreenenter"",""1"",""2030""
","
","","","-1","","","15","4556","2599","&#9826;","elianto","#f73b6a7A","-1","-1","1","0","[]","0","0","3","","","","","","","",""
"pit-trial","74","618800","0.0-2.0-14.3-0.3","battery-v0.2","","""event"",""trial"",""time""
""fullscreenenter"",""1"",""2030""
","
","
","""event"",""trial"",""time""
""fullscreenenter"",""1"",""2030""
","
","","","-1","","","15","4556","2599","&#9826;","elianto","#f73b6a7A","-1","-1","1","0","[]","0","0","3","","","","","","","",""
"pit-trial","75","623663","0.0-2.0-14.3-1.3","battery-v0.2","","""event"",""trial"",""time""
""fullscreenenter"",""1"",""2030""
","
","
","""event"",""trial"",""time""
""fullscreenenter"",""1"",""2030""
","
","","","-1","","","15","4556","2599","&#9826;","elianto","#f73b6a7A","-1","-1","1","0","[]","0","0","3","","","","","","","",""
"pit-trial","76","628529","0.0-2.0-14.3-2.3","battery-v0.2","","""event"",""trial"",""time""
""fullscreenenter"",""1"",""2030""
","
","
","""event"",""trial"",""time""
""fullscreenenter"",""1"",""2030""
","
","","","-1","","","15","4556","2599","&#9826;","elianto","#f73b6a7A","-1","-1","1","0","[]","0","0","3","","","","","","","",""
"pit-trial","77","633392","0.0-2.0-14.3-3.3","battery-v0.2","","""event"",""trial"",""time""
""fullscreenenter"",""1"",""2030""
","
","
","""event"",""trial"",""time""
""fullscreenenter"",""1"",""2030""
","
","","","-1","","","15","4556","2599","&#9826;","elianto","#f73b6a7A","-1","-1","1","-10","[]","0","0","3","","","","","","","",""
"pit-trial","78","638263","0.0-2.0-14.3-4.3","battery-v0.2","","""event"",""trial"",""time""
""fullscreenenter"",""1"",""2030""
","
","
","""event"",""trial"",""time""
""fullscreenenter"",""1"",""2030""
","
","","","-1","","","15","4556","2599","&#9826;","elianto","#f73b6a7A","-1","-1","1","0","[]","0","0","3","","","","","","","",""
"call-function","79","638266","0.0-2.0-15.0","battery-v0.2","","""event"",""trial"",""time""
""fullscreenenter"",""1"",""2030""
","
","
","""event"",""trial"",""time""
""fullscreenenter"",""1"",""2030""
","
","","","","","","","","","","","","","","","","","","","","","","","","","","",""
"pit-instructions","80","664557","0.0-2.0-16.0","battery-v0.2","","""event"",""trial"",""time""
""fullscreenenter"",""1"",""2030""
","
","
","""event"",""trial"",""time""
""fullscreenenter"",""1"",""2030""
","
","","[{""page_index"":0,""viewing_time"":6916.800000190735},{""page_index"":1,""viewing_time"":9379.900000095367},{""page_index"":2,""viewing_time"":5420.099999904633},{""page_index"":3,""viewing_time"":4573.599999904633}]","26290.700000286102","","","","","","","","","","","","","","","","","","","","","","","",""
"pit-trial","81","669436","0.0-2.0-17.0-0.0","battery-v0.2","","""event"",""trial"",""time""
""fullscreenenter"",""1"",""2030""
","
","
","""event"",""trial"",""time""
""fullscreenenter"",""1"",""2030""
","
","","","-1","","","15","4556","2599","&#9789;","elianto","#f73b6a7A"," ","-1","0","-10","[]","0","0","4","","","","","","","",""
"pit-trial","82","673126","0.0-2.0-17.0-1.0","battery-v0.2","","""event"",""trial"",""time""
""fullscreenenter"",""1"",""2030""
","
","
","""event"",""trial"",""time""
""fullscreenenter"",""1"",""2030""
","
","","","811.5","","","15","4556","2599","&#9789;","elianto","#f73b6a7A"," "," ","1","0","[1666.5]","1","0","4","","","","","","","",""
"pit-trial","83","676726","0.0-2.0-17.0-2.0","battery-v0.2","","""event"",""trial"",""time""
""fullscreenenter"",""1"",""2030""
","
","
","""event"",""trial"",""time""
""fullscreenenter"",""1"",""2030""
","
","","","734.0999999046326","","","15","4556","2599","&#9789;","elianto","#f73b6a7A"," "," ","1","0","[1584.7000002861023]","1","0","4","","","","","","","",""
"pit-trial","84","681606","0.0-2.0-17.0-3.0","battery-v0.2","","""event"",""trial"",""time""
""fullscreenenter"",""1"",""2030""
","
","
","""event"",""trial"",""time""
""fullscreenenter"",""1"",""2030""
","
","","","-1","","","15","4556","2599","&#9789;","elianto","#f73b6a7A"," ","-1","0","0","[]","0","0","4","","","","","","","",""
"pit-trial","85","686486","0.0-2.0-17.0-4.0","battery-v0.2","","""event"",""trial"",""time""
""fullscreenenter"",""1"",""2030""
","
","
","""event"",""trial"",""time""
""fullscreenenter"",""1"",""2030""
","
","","","-1","","","15","4556","2599","&#9789;","elianto","#f73b6a7A"," ","-1","0","-10","[]","0","0","4","","","","","","","",""
"pit-trial","86","691376","0.0-2.0-17.1-0.1","battery-v0.2","","""event"",""trial"",""time""
""fullscreenenter"",""1"",""2030""
","
","
","""event"",""trial"",""time""
""fullscreenenter"",""1"",""2030""
","
","","","-1","","","15","4556","2599","&#9789;","elianto","#f73b6a7A"," ","-1","0","-10","[]","0","0","4","","","","","","","",""
"pit-trial","87","694935","0.0-2.0-17.1-1.1","battery-v0.2","","""event"",""trial"",""time""
""fullscreenenter"",""1"",""2030""
","
","
","""event"",""trial"",""time""
""fullscreenenter"",""1"",""2030""
","
","","","700.7999997138977","","","15","4556","2599","&#9789;","elianto","#f73b6a7A"," "," ","1","0","[1551]","1","0","4","","","","","","","",""
"pit-trial","88","698327","0.0-2.0-17.1-2.1","battery-v0.2","","""event"",""trial"",""time""
""fullscreenenter"",""1"",""2030""
","
","
","""event"",""trial"",""time""
""fullscreenenter"",""1"",""2030""
","
","","","529","","","15","4556","2599","&#9789;","elianto","#f73b6a7A"," "," ","1","0","[1382.7999997138977]","1","0","4","","","","","","","",""
"pit-trial","89","701680","0.0-2.0-17.1-3.1","battery-v0.2","","""event"",""trial"",""time""
""fullscreenenter"",""1"",""2030""
","
","
","""event"",""trial"",""time""
""fullscreenenter"",""1"",""2030""
","
","","","488.59999990463257","","","15","4556","2599","&#9789;","elianto","#f73b6a7A"," "," ","1","-10","[1343]","1","0","4","","","","","","","",""
"pit-trial","90","704951","0.0-2.0-17.1-4.1","battery-v0.2","","""event"",""trial"",""time""
""fullscreenenter"",""1"",""2030""
","
","
","""event"",""trial"",""time""
""fullscreenenter"",""1"",""2030""
","
","","","413.59999990463257","","","15","4556","2599","&#9789;","elianto","#f73b6a7A"," "," ","1","0","[1263.8000001907349]","1","0","4","","","","","","","",""
"pit-trial","91","708263","0.0-2.0-17.2-0.2","battery-v0.2","","""event"",""trial"",""time""
""fullscreenenter"",""1"",""2030""
","
","
","""event"",""trial"",""time""
""fullscreenenter"",""1"",""2030""
","
","","","449","","","15","4556","2599","&#9789;","elianto","#f73b6a7A"," "," ","1","0","[1302]","1","0","4","","","","","","","",""
"pit-trial","92","711472","0.0-2.0-17.2-1.2","battery-v0.2","","""event"",""trial"",""time""
""fullscreenenter"",""1"",""2030""
","
","
","""event"",""trial"",""time""
""fullscreenenter"",""1"",""2030""
","
","","","345.09999990463257","","","15","4556","2599","&#9789;","elianto","#f73b6a7A"," "," ","1","0","[1198.6999998092651]","1","0","4","","","","","","","",""
"pit-trial","93","714760","0.0-2.0-17.2-2.2","battery-v0.2","","""event"",""trial"",""time""
""fullscreenenter"",""1"",""2030""
","
","
","""event"",""trial"",""time""
""fullscreenenter"",""1"",""2030""
","
","","","425.69999980926514","","","15","4556","2599","&#9789;","elianto","#f73b6a7A"," "," ","1","0","[1278.6999998092651]","1","0","4","","","","","","","",""
"pit-trial","94","717927","0.0-2.0-17.2-3.2","battery-v0.2","","""event"",""trial"",""time""
""fullscreenenter"",""1"",""2030""
","
","
","""event"",""trial"",""time""
""fullscreenenter"",""1"",""2030""
","
","","","307.80000019073486","","","15","4556","2599","&#9789;","elianto","#f73b6a7A"," "," ","1","-10","[1159.5999999046326]","1","0","4","","","","","","","",""
"pit-trial","95","720936","0.0-2.0-17.2-4.2","battery-v0.2","","""event"",""trial"",""time""
""fullscreenenter"",""1"",""2030""
","
","
","""event"",""trial"",""time""
""fullscreenenter"",""1"",""2030""
","
","","","147.5","","","15","4556","2599","&#9789;","elianto","#f73b6a7A"," "," ","1","0","[1001.0999999046326]","1","0","4","","","","","","","",""
"pit-trial","96","723872","0.0-2.0-17.3-0.3","battery-v0.2","","""event"",""trial"",""time""
""fullscreenenter"",""1"",""2030""
","
","
","""event"",""trial"",""time""
""fullscreenenter"",""1"",""2030""
","
","","","72.7999997138977","","","15","4556","2599","&#9789;","elianto","#f73b6a7A"," "," ","1","0","[925.5]","1","0","4","","","","","","","",""
"pit-trial","97","727367","0.0-2.0-17.3-1.3","battery-v0.2","","""event"",""trial"",""time""
""fullscreenenter"",""1"",""2030""
","
","
","""event"",""trial"",""time""
""fullscreenenter"",""1"",""2030""
","
","","","633.6999998092651","","","15","4556","2599","&#9789;","elianto","#f73b6a7A"," "," ","1","0","[1487.0999999046326]","1","0","4","","","","","","","",""
"pit-trial","98","730704","0.0-2.0-17.3-2.3","battery-v0.2","","""event"",""trial"",""time""
""fullscreenenter"",""1"",""2030""
","
","
","""event"",""trial"",""time""
""fullscreenenter"",""1"",""2030""
","
","","","473.40000009536743","","","15","4556","2599","&#9789;","elianto","#f73b6a7A"," "," ","1","0","[1328.0999999046326]","1","0","4","","","","","","","",""
"pit-trial","99","734119","0.0-2.0-17.3-3.3","battery-v0.2","","""event"",""trial"",""time""
""fullscreenenter"",""1"",""2030""
","
","
","""event"",""trial"",""time""
""fullscreenenter"",""1"",""2030""
","
","","","552.3000001907349","","","15","4556","2599","&#9789;","elianto","#f73b6a7A"," "," ","1","-10","[1405.9000000953674]","1","0","4","","","","","","","",""
"pit-trial","100","737440","0.0-2.0-17.3-4.3","battery-v0.2","","""event"",""trial"",""time""
""fullscreenenter"",""1"",""2030""
","
","
","""event"",""trial"",""time""
""fullscreenenter"",""1"",""2030""
","
","","","457","","","15","4556","2599","&#9789;","elianto","#f73b6a7A"," "," ","1","0","[1312.4000000953674]","1","0","4","","","","","","","",""
"call-function","101","737442","0.0-2.0-18.0","battery-v0.2","","""event"",""trial"",""time""
""fullscreenenter"",""1"",""2030""
","
","
","""event"",""trial"",""time""
""fullscreenenter"",""1"",""2030""
","
","","","","","","","","","","","","","","","","","","","","","","","","","","",""
"pit-instructions","102","810295","0.0-2.0-19.0","battery-v0.2","","""event"",""trial"",""time""
""fullscreenenter"",""1"",""2030""
","
","
","""event"",""trial"",""time""
""fullscreenenter"",""1"",""2030""
","
","","[{""page_index"":0,""viewing_time"":6728.300000190735},{""page_index"":1,""viewing_time"":6877.800000190735},{""page_index"":2,""viewing_time"":14588.39999961853},{""page_index"":3,""viewing_time"":8321.60000038147},{""page_index"":4,""viewing_time"":9742.199999809265},{""page_index"":5,""viewing_time"":8102.099999904633},{""page_index"":6,""viewing_time"":8030},{""page_index"":7,""viewing_time"":5844},{""page_index"":8,""viewing_time"":4618}]","72852.7000002861","","","","","","","","","","","","","","","","","","","","","","","",""
"pit-comprehension","103","815009","0.0-2.0-20.0-0.0","battery-v0.2","","""event"",""trial"",""time""
""fullscreenenter"",""1"",""2030""
","
","
","""event"",""trial"",""time""
""fullscreenenter"",""1"",""2030""
","
","","","4711.700000286102","[""SPACE""]","0","15","4556","2599","","","","","","","","","","","","","","","","","","",""
"pit-instructions","104","818209","0.0-2.0-20.0-1.0","battery-v0.2","","""event"",""trial"",""time""
""fullscreenenter"",""1"",""2030""
","
","
","""event"",""trial"",""time""
""fullscreenenter"",""1"",""2030""
","
","","[{""page_index"":0,""viewing_time"":3145.8999996185303}]","3146.199999809265","","","","","","","","","","","","","","","","","","","","","","","",""
"pit-comprehension","105","824366","0.0-2.0-21.0-0.0","battery-v0.2","","""event"",""trial"",""time""
""fullscreenenter"",""1"",""2030""
","
","
","""event"",""trial"",""time""
""fullscreenenter"",""1"",""2030""
","
","","","6154","[""10""]","0","15","4556","2599","","","","","","","","","","","","","","","","","","",""
"pit-instructions","106","827818","0.0-2.0-21.0-1.0","battery-v0.2","","""event"",""trial"",""time""
""fullscreenenter"",""1"",""2030""
","
","
","""event"",""trial"",""time""
""fullscreenenter"",""1"",""2030""
","
","","[{""page_index"":0,""viewing_time"":3423.4000000953674}]","3423.6000003814697","","","","","","","","","","","","","","","","","","","","","","","",""
"pit-comprehension","107","835094","0.0-2.0-22.0-0.0","battery-v0.2","","""event"",""trial"",""time""
""fullscreenenter"",""1"",""2030""
","
","
","""event"",""trial"",""time""
""fullscreenenter"",""1"",""2030""
","
","","","7274.400000095367","[""-10""]","1","15","4556","2599","","","","","","","","","","","","","","","","","","",""
"pit-instructions","108","839109","0.0-2.0-22.0-1.0","battery-v0.2","","""event"",""trial"",""time""
""fullscreenenter"",""1"",""2030""
","
","
","""event"",""trial"",""time""
""fullscreenenter"",""1"",""2030""
","
","","[{""page_index"":0,""viewing_time"":3985.300000190735}]","3985.4000000953674","","","","","","","","","","","","","","","","","","","","","","","",""
"pit-instructions","109","840664","0.0-2.0-22.0-2.0-0.0","battery-v0.2","","""event"",""trial"",""time""
""fullscreenenter"",""1"",""2030""
","
","
","""event"",""trial"",""time""
""fullscreenenter"",""1"",""2030""
","
","","[{""page_index"":0,""viewing_time"":1553.0999999046326}]","1553.2000002861023","","","","","","","","","","","","","","","","","","","","","","","",""
"pit-comprehension","110","847344","0.0-2.0-22.1-0.1","battery-v0.2","","""event"",""trial"",""time""
""fullscreenenter"",""1"",""2030""
","
","
","""event"",""trial"",""time""
""fullscreenenter"",""1"",""2030""
","
","","","6678.800000190735","[""0""]","0","15","4556","2599","","","","","","","","","","","","","","","","","","",""
"pit-instructions","111","849854","0.0-2.0-22.1-1.1","battery-v0.2","","""event"",""trial"",""time""
""fullscreenenter"",""1"",""2030""
","
","
","""event"",""trial"",""time""
""fullscreenenter"",""1"",""2030""
","
","","[{""page_index"":0,""viewing_time"":2478.699999809265}]","2479","","","","","","","","","","","","","","","","","","","","","","","",""
"pit-comprehension","112","860316","0.0-2.0-23.0-0.0","battery-v0.2","","""event"",""trial"",""time""
""fullscreenenter"",""1"",""2030""
","
","
","""event"",""trial"",""time""
""fullscreenenter"",""1"",""2030""
","
","","","10460.599999904633","[""True""]","0","15","4556","2599","","","","","","","","","","","","","","","","","","",""
"pit-instructions","113","862479","0.0-2.0-23.0-1.0","battery-v0.2","","""event"",""trial"",""time""
""fullscreenenter"",""1"",""2030""
","
","
","""event"",""trial"",""time""
""fullscreenenter"",""1"",""2030""
","
","","[{""page_index"":0,""viewing_time"":2132.4000000953674}]","2132.5999999046326","","","","","","","","","","","","","","","","","","","","","","","",""
"pit-comprehension","114","870290","0.0-2.0-24.0-0.0","battery-v0.2","","""event"",""trial"",""time""
""fullscreenenter"",""1"",""2030""
","
","
","""event"",""trial"",""time""
""fullscreenenter"",""1"",""2030""
","
","","","7808.300000190735","[""True""]","0","15","4556","2599","","","","","","","","","","","","","","","","","","",""
"pit-instructions","115","872510","0.0-2.0-24.0-1.0","battery-v0.2","","""event"",""trial"",""time""
""fullscreenenter"",""1"",""2030""
","
","
","""event"",""trial"",""time""
""fullscreenenter"",""1"",""2030""
","
","","[{""page_index"":0,""viewing_time"":2188.699999809265}]","2188.9000000953674","","","","","","","","","","","","","","","","","","","","","","","",""
"pit-comprehension","116","879654","0.0-2.0-25.0-0.0","battery-v0.2","","""event"",""trial"",""time""
""fullscreenenter"",""1"",""2030""
","
","
","""event"",""trial"",""time""
""fullscreenenter"",""1"",""2030""
","
","","","7142.400000095367","[""True""]","0","15","4556","2599","","","","","","","","","","","","","","","","","","",""
"pit-instructions","117","883622","0.0-2.0-25.0-1.0","battery-v0.2","","""event"",""trial"",""time""
""fullscreenenter"",""1"",""2030""
","
","
","""event"",""trial"",""time""
""fullscreenenter"",""1"",""2030""
","
","","[{""page_index"":0,""viewing_time"":3936.3999996185303}]","3936.5999999046326","","","","","","","","","","","","","","","","","","","","","","","",""
"pit-comprehension","118","891579","0.0-2.0-26.0-0.0","battery-v0.2","","""event"",""trial"",""time""
""fullscreenenter"",""1"",""2030""
","
","
","""event"",""trial"",""time""
""fullscreenenter"",""1"",""2030""
","
","","","7958.200000286102","[""False""]","0","15","4556","2599","","","","","","","","","","","","","","","","","","",""
"pit-instructions","119","893469","0.0-2.0-26.0-1.0","battery-v0.2","","""event"",""trial"",""time""
""fullscreenenter"",""1"",""2030""
","
","
","""event"",""trial"",""time""
""fullscreenenter"",""1"",""2030""
","
","","[{""page_index"":0,""viewing_time"":1857.6999998092651}]","1857.9000000953674","","","","","","","","","","","","","","","","","","","","","","","",""
"pit-instructions","120","910533","0.0-3.0","battery-v0.2","","""event"",""trial"",""time""
""fullscreenenter"",""1"",""2030""
","
","
","""event"",""trial"",""time""
""fullscreenenter"",""1"",""2030""
","
","","[{""page_index"":0,""viewing_time"":3746.4000000953674},{""page_index"":1,""viewing_time"":5624.300000190735},{""page_index"":2,""viewing_time"":7691.900000095367}]","17062.900000095367","","","","","","","","","","","","","","","","","","","","","","","",""
"pit-trial","121","915425","0.0-4.0","battery-v0.2","","""event"",""trial"",""time""
""fullscreenenter"",""1"",""2030""
","
","
","""event"",""trial"",""time""
""fullscreenenter"",""1"",""2030""
","
","","","-1","","","15","4556","2599","&#9752;","elianto","#f73b6a7A"," ","-1","0","-10","[]","0","1","","","4556","1","3","3","lose","go","0"
"pit-trial","122","918905","0.0-5.0","battery-v0.2","","""event"",""trial"",""time""
""fullscreenenter"",""1"",""2030""
","
","
","""event"",""trial"",""time""
""fullscreenenter"",""1"",""2030""
","
","","","603","","","15","4556","2599","&#9730;","elianto","#3366ff99"," "," ","1","+10","[1460.6999998092651]","1","1","","","4556","2","1","1","win","go","0"
"pit-trial","123","923156","0.0-6.0","battery-v0.2","","""event"",""trial"",""time""
""fullscreenenter"",""1"",""2030""
","
","
","""event"",""trial"",""time""
""fullscreenenter"",""1"",""2030""
","
","","","1375.6999998092651","","","15","4556","2599","&#9728;","elianto","#f73b6a7A","-1"," ","0","-10","[2226.0999999046326]","1","1","","","4556","3","0","4","lose","no-go","0"
"pit-trial","124","927055","0.0-7.0","battery-v0.2","","""event"",""trial"",""time""
""fullscreenenter"",""1"",""2030""
","
","
","""event"",""trial"",""time""
""fullscreenenter"",""1"",""2030""
","
","","","1020.5999999046326","","","15","4556","2599","&#9733;","elianto","#3366ff99","-1"," ","0","+10","[1871.9000000953674]","1","1","","","4556","4","2","2","win","no-go","1"
"pit-trial","125","931946","0.0-8.0","battery-v0.2","","""event"",""trial"",""time""
""fullscreenenter"",""1"",""2030""
","
","
","""event"",""trial"",""time""
""fullscreenenter"",""1"",""2030""
","
","","","-1","","","15","4556","2599","&#9728;","elianto","#f73b6a7A","-1","-1","1","0","[]","0","1","","","4556","5","0","4","lose","no-go","0"
"pit-trial","126","936836","0.0-9.0","battery-v0.2","","""event"",""trial"",""time""
""fullscreenenter"",""1"",""2030""
","
","
","""event"",""trial"",""time""
""fullscreenenter"",""1"",""2030""
","
","","","-1","","","15","4556","2599","&#9752;","elianto","#f73b6a7A"," ","-1","0","0","[]","0","1","","","4556","6","3","3","lose","go","1"
"pit-trial","127","940372","0.0-10.0","battery-v0.2","","""event"",""trial"",""time""
""fullscreenenter"",""1"",""2030""
","
","
","""event"",""trial"",""time""
""fullscreenenter"",""1"",""2030""
","
","","","676.1999998092651","","","15","4556","2599","&#9733;","elianto","#3366ff99","-1"," ","0","+10","[1529.4000000953674]","1","1","","","4556","7","2","2","win","no-go","1"
"pit-trial","128","944371","0.0-11.0","battery-v0.2","","""event"",""trial"",""time""
""fullscreenenter"",""1"",""2030""
","
","
","""event"",""trial"",""time""
""fullscreenenter"",""1"",""2030""
","
","","","1124.9000000953674","","","15","4556","2599","&#9730;","elianto","#3366ff99"," "," ","1","+10","[1975.0999999046326]","1","1","","","4556","8","1","1","win","go","0"
"pit-trial","129","947852","0.0-12.0","battery-v0.2","","""event"",""trial"",""time""
""fullscreenenter"",""1"",""2030""
","
","
","""event"",""trial"",""time""
""fullscreenenter"",""1"",""2030""
","
","","","605.5","","","15","4556","2599","&#9730;","elianto","#3366ff99"," "," ","1","+10","[1457.7000002861023]","1","1","","","4556","9","1","1","win","go","0"
"pit-trial","130","951463","0.0-13.0","battery-v0.2","","""event"",""trial"",""time""
""fullscreenenter"",""1"",""2030""
","
","
","""event"",""trial"",""time""
""fullscreenenter"",""1"",""2030""
","
","","","746.8000001907349","","","15","4556","2599","&#9733;","elianto","#3366ff99","-1"," ","0","+10","[1603.2000002861023]","1","1","","","4556","10","2","2","win","no-go","1"
"pit-trial","131","955271","0.0-14.0","battery-v0.2","","""event"",""trial"",""time""
""fullscreenenter"",""1"",""2030""
","
","
","""event"",""trial"",""time""
""fullscreenenter"",""1"",""2030""
","
","","","945.6999998092651","","","15","4556","2599","&#9728;","elianto","#f73b6a7A","-1"," ","0","-10","[1799]","1","1","","","4556","11","0","4","lose","no-go","0"
"pit-trial","132","959062","0.0-15.0","battery-v0.2","","""event"",""trial"",""time""
""fullscreenenter"",""1"",""2030""
","
","
","""event"",""trial"",""time""
""fullscreenenter"",""1"",""2030""
","
","","","929.0999999046326","","","15","4556","2599","&#9752;","elianto","#f73b6a7A"," "," ","1","0","[1783.7999997138977]","1","1","","","4556","12","3","3","lose","go","0"
"pit-trial","133","963279","0.0-16.0","battery-v0.2","","""event"",""trial"",""time""
""fullscreenenter"",""1"",""2030""
","
","
","""event"",""trial"",""time""
""fullscreenenter"",""1"",""2030""
","
","","","1354.2000002861023","","","15","4556","2599","&#9728;","elianto","#f73b6a7A","-1"," ","0","-10","[2208.7000002861023]","1","1","","","4556","13","0","4","lose","no-go","0"
"pit-trial","134","966639","0.0-17.0","battery-v0.2","","""event"",""trial"",""time""
""fullscreenenter"",""1"",""2030""
","
","
","""event"",""trial"",""time""
""fullscreenenter"",""1"",""2030""
","
","","","496.59999990463257","","","15","4556","2599","&#9730;","elianto","#3366ff99"," "," ","1","+10","[1350.4000000953674]","1","1","","","4556","14","1","1","win","go","0"
"pit-trial","135","970519","0.0-18.0","battery-v0.2","","""event"",""trial"",""time""
""fullscreenenter"",""1"",""2030""
","
","
","""event"",""trial"",""time""
""fullscreenenter"",""1"",""2030""
","
","","","1017.8000001907349","","","15","4556","2599","&#9733;","elianto","#3366ff99","-1"," ","0","0","[1871.3999996185303]","1","1","","","4556","15","2","2","win","no-go","0"
"pit-trial","136","975007","0.0-19.0","battery-v0.2","","""event"",""trial"",""time""
""fullscreenenter"",""1"",""2030""
","
","
","""event"",""trial"",""time""
""fullscreenenter"",""1"",""2030""
","
","","","1626.5","","","15","4556","2599","&#9752;","elianto","#f73b6a7A"," "," ","1","0","[2480.0999999046326]","1","1","","","4556","16","3","3","lose","go","0"
"pit-trial","137","978959","0.0-20.0","battery-v0.2","","""event"",""trial"",""time""
""fullscreenenter"",""1"",""2030""
","
","
","""event"",""trial"",""time""
""fullscreenenter"",""1"",""2030""
","
","","","1091.5999999046326","","","15","4556","2599","&#9752;","elianto","#f73b6a7A"," "," ","1","0","[1942.4000000953674]","1","1","","","4556","17","3","3","lose","go","0"
"pit-trial","138","982496","0.0-21.0","battery-v0.2","","""event"",""trial"",""time""
""fullscreenenter"",""1"",""2030""
","
","
","""event"",""trial"",""time""
""fullscreenenter"",""1"",""2030""
","
","","","674.7999997138977","","","15","4556","2599","&#9730;","elianto","#3366ff99"," "," ","1","+10","[1526.1999998092651]","1","1","","","4556","18","1","1","win","go","0"
"pit-trial","139","985998","0.0-22.0","battery-v0.2","","""event"",""trial"",""time""
""fullscreenenter"",""1"",""2030""
","
","
","""event"",""trial"",""time""
""fullscreenenter"",""1"",""2030""
","
","","","643.3000001907349","","","15","4556","2599","&#9733;","elianto","#3366ff99","-1"," ","0","+10","[1495.3000001907349]","1","1","","","4556","19","2","2","win","no-go","1"
"pit-trial","140","990863","0.0-23.0","battery-v0.2","","""event"",""trial"",""time""
""fullscreenenter"",""1"",""2030""
","
","
","""event"",""trial"",""time""
""fullscreenenter"",""1"",""2030""
","
","","","-1","","","15","4556","2599","&#9728;","elianto","#f73b6a7A","-1","-1","1","0","[]","0","1","","","4556","20","0","4","lose","no-go","0"
"pit-instructions","141","1005560","0.0-24.0","battery-v0.2","","""event"",""trial"",""time""
""fullscreenenter"",""1"",""2030""
","
","
","""event"",""trial"",""time""
""fullscreenenter"",""1"",""2030""
","
","","[{""page_index"":0,""viewing_time"":5802},{""page_index"":1,""viewing_time"":8891.699999809265}]","14693.900000095367","","","","","","","","","","","","","","","","","","","","","","","",""
"pit-trial","142","1010437","0.0-25.0","battery-v0.2","","""event"",""trial"",""time""
""fullscreenenter"",""1"",""2030""
","
","
","""event"",""trial"",""time""
""fullscreenenter"",""1"",""2030""
","
","","","-1","","","15","4556","2599","y","elianto","#f73b6a7A","-1","-1","1","0","[]","0","2","","","4556","21","2","4","lose","no-go","0"
"pit-trial","143","1015328","0.0-26.0","battery-v0.2","","""event"",""trial"",""time""
""fullscreenenter"",""1"",""2030""
","
","
","""event"",""trial"",""time""
""fullscreenenter"",""1"",""2030""
","
","","","-1","","","15","4556","2599","h","elianto","#f73b6a7A"," ","-1","0","0","[]","0","2","","","4556","22","3","3","lose","go","1"
"pit-trial","144","1020208","0.0-27.0","battery-v0.2","","""event"",""trial"",""time""
""fullscreenenter"",""1"",""2030""
","
","
","""event"",""trial"",""time""
""fullscreenenter"",""1"",""2030""
","
","","","-1","","","15","4556","2599","m","elianto","#f73b6a7A","-1","-1","1","-10","[]","0","2","","","4556","23","0","4","lose","no-go","1"
"pit-trial","145","1023778","0.0-28.0","battery-v0.2","","""event"",""trial"",""time""
""fullscreenenter"",""1"",""2030""
","
","
","""event"",""trial"",""time""
""fullscreenenter"",""1"",""2030""
","
","","","709.6999998092651","","","15","4556","2599","r","elianto","#3366ff99"," "," ","1","+10","[1559.8999996185303]","1","2","","","4556","24","1","1","win","go","0"
"pit-trial","146","1027437","0.0-29.0","battery-v0.2","","""event"",""trial"",""time""
""fullscreenenter"",""1"",""2030""
","
","
","""event"",""trial"",""time""
""fullscreenenter"",""1"",""2030""
","
","","","784.5","","","15","4556","2599","r","elianto","#3366ff99"," "," ","1","+10","[1635.8000001907349]","1","2","","","4556","25","1","1","win","go","0"
"pit-trial","147","1032328","0.0-30.0","battery-v0.2","","""event"",""trial"",""time""
""fullscreenenter"",""1"",""2030""
","
","
","""event"",""trial"",""time""
""fullscreenenter"",""1"",""2030""
","
","","","-1","","","15","4556","2599","y","elianto","#f73b6a7A","-1","-1","1","0","[]","0","2","","","4556","26","2","4","lose","no-go","0"
"pit-trial","148","1037199","0.0-31.0","battery-v0.2","","""event"",""trial"",""time""
""fullscreenenter"",""1"",""2030""
","
","
","""event"",""trial"",""time""
""fullscreenenter"",""1"",""2030""
","
","","","-1","","","15","4556","2599","h","elianto","#f73b6a7A"," ","-1","0","0","[]","0","2","","","4556","27","3","3","lose","go","1"
"pit-trial","149","1040657","0.0-32.0","battery-v0.2","","""event"",""trial"",""time""
""fullscreenenter"",""1"",""2030""
","
","
","""event"",""trial"",""time""
""fullscreenenter"",""1"",""2030""
","
","","","595","","","15","4556","2599","m","elianto","#f73b6a7A","-1"," ","0","0","[1449.0999999046326]","1","2","","","4556","28","0","4","lose","no-go","1"
"pit-trial","150","1044375","0.0-33.0","battery-v0.2","","""event"",""trial"",""time""
""fullscreenenter"",""1"",""2030""
","
","
","""event"",""trial"",""time""
""fullscreenenter"",""1"",""2030""
","
","","","857.2999997138977","","","15","4556","2599","m","elianto","#f73b6a7A","-1"," ","0","-10","[1711.1999998092651]","1","2","","","4556","29","0","4","lose","no-go","0"
"pit-trial","151","1047999","0.0-34.0","battery-v0.2","","""event"",""trial"",""time""
""fullscreenenter"",""1"",""2030""
","
","
","""event"",""trial"",""time""
""fullscreenenter"",""1"",""2030""
","
","","","764.1999998092651","","","15","4556","2599","r","elianto","#3366ff99"," "," ","1","+10","[1614.6999998092651]","1","2","","","4556","30","1","1","win","go","0"
"pit-trial","152","1052863","0.0-35.0","battery-v0.2","","""event"",""trial"",""time""
""fullscreenenter"",""1"",""2030""
","
","
","""event"",""trial"",""time""
""fullscreenenter"",""1"",""2030""
","
","","","-1","","","15","4556","2599","h","elianto","#f73b6a7A"," ","-1","0","0","[]","0","2","","","4556","31","3","3","lose","go","1"
"pit-trial","153","1057727","0.0-36.0","battery-v0.2","","""event"",""trial"",""time""
""fullscreenenter"",""1"",""2030""
","
","
","""event"",""trial"",""time""
""fullscreenenter"",""1"",""2030""
","
","","","-1","","","15","4556","2599","y","elianto","#f73b6a7A","-1","-1","1","0","[]","0","2","","","4556","32","2","4","lose","no-go","0"
"pit-trial","154","1061412","0.0-37.0","battery-v0.2","","""event"",""trial"",""time""
""fullscreenenter"",""1"",""2030""
","
","
","""event"",""trial"",""time""
""fullscreenenter"",""1"",""2030""
","
","","","821.0999999046326","","","15","4556","2599","r","elianto","#3366ff99"," "," ","1","+10","[1672.4000000953674]","1","2","","","4556","33","1","1","win","go","0"
"pit-trial","155","1066279","0.0-38.0","battery-v0.2","","""event"",""trial"",""time""
""fullscreenenter"",""1"",""2030""
","
","
","""event"",""trial"",""time""
""fullscreenenter"",""1"",""2030""
","
","","","-1","","","15","4556","2599","h","elianto","#f73b6a7A"," ","-1","0","-10","[]","0","2","","","4556","34","3","3","lose","go","0"
"pit-trial","156","1070280","0.0-39.0","battery-v0.2","","""event"",""trial"",""time""
""fullscreenenter"",""1"",""2030""
","
","
","""event"",""trial"",""time""
""fullscreenenter"",""1"",""2030""
","
","","","1137.0999999046326","","","15","4556","2599","m","elianto","#f73b6a7A","-1"," ","0","-10","[1991.5]","1","2","","","4556","35","0","4","lose","no-go","0"
"pit-trial","157","1075161","0.0-40.0","battery-v0.2","","""event"",""trial"",""time""
""fullscreenenter"",""1"",""2030""
","
","
","""event"",""trial"",""time""
""fullscreenenter"",""1"",""2030""
","
","","","-1","","","15","4556","2599","y","elianto","#f73b6a7A","-1","-1","1","0","[]","0","2","","","4556","36","2","4","lose","no-go","0"
"pit-trial","158","1078535","0.0-41.0","battery-v0.2","","""event"",""trial"",""time""
""fullscreenenter"",""1"",""2030""
","
","
","""event"",""trial"",""time""
""fullscreenenter"",""1"",""2030""
","
","","","515.9000000953674","","","15","4556","2599","r","elianto","#3366ff99"," "," ","1","+10","[1366.7000002861023]","1","2","","","4556","37","1","1","win","go","0"
"pit-trial","159","1083413","0.0-42.0","battery-v0.2","","""event"",""trial"",""time""
""fullscreenenter"",""1"",""2030""
","
","
","""event"",""trial"",""time""
""fullscreenenter"",""1"",""2030""
","
","","","-1","","","15","4556","2599","h","elianto","#f73b6a7A"," ","-1","0","-10","[]","0","2","","","4556","38","3","3","lose","go","0"
"pit-trial","160","1087375","0.0-43.0","battery-v0.2","","""event"",""trial"",""time""
""fullscreenenter"",""1"",""2030""
","
","
","""event"",""trial"",""time""
""fullscreenenter"",""1"",""2030""
","
","","","1102.9000000953674","","","15","4556","2599","m","elianto","#f73b6a7A","-1"," ","0","0","[1953.2000002861023]","1","2","","","4556","39","0","4","lose","no-go","1"
"pit-trial","161","1092240","0.0-44.0","battery-v0.2","","""event"",""trial"",""time""
""fullscreenenter"",""1"",""2030""
","
","
","""event"",""trial"",""time""
""fullscreenenter"",""1"",""2030""
","
","","","-1","","","15","4556","2599","y","elianto","#f73b6a7A","-1","-1","1","0","[]","0","2","","","4556","40","2","4","lose","no-go","0"
"pit-trial","162","1096759","0.0-45.0","battery-v0.2","","""event"",""trial"",""time""
""fullscreenenter"",""1"",""2030""
","
","
","""event"",""trial"",""time""
""fullscreenenter"",""1"",""2030""
","
","","","1659.1999998092651","","","15","4556","2599","m","elianto","#f73b6a7A","-1"," ","0","-10","[2512.0999999046326]","1","2","","","4556","41","0","4","lose","no-go","0"
"pit-trial","163","1100536","0.0-46.0","battery-v0.2","","""event"",""trial"",""time""
""fullscreenenter"",""1"",""2030""
","
","
","""event"",""trial"",""time""
""fullscreenenter"",""1"",""2030""
","
","","","916.5","","","15","4556","2599","h","elianto","#f73b6a7A"," "," ","1","0","[1767.3000001907349]","1","2","","","4556","42","3","3","lose","go","0"
"pit-trial","164","1103879","0.0-47.0","battery-v0.2","","""event"",""trial"",""time""
""fullscreenenter"",""1"",""2030""
","
","
","""event"",""trial"",""time""
""fullscreenenter"",""1"",""2030""
","
","","","481","","","15","4556","2599","r","elianto","#3366ff99"," "," ","1","+10","[1334.6000003814697]","1","2","","","4556","43","1","1","win","go","0"
"pit-trial","165","1108752","0.0-48.0","battery-v0.2","","""event"",""trial"",""time""
""fullscreenenter"",""1"",""2030""
","
","
","""event"",""trial"",""time""
""fullscreenenter"",""1"",""2030""
","
","","","-1","","","15","4556","2599","y","elianto","#f73b6a7A","-1","-1","1","0","[]","0","2","","","4556","44","2","4","lose","no-go","0"
"pit-trial","166","1112783","0.0-49.0","battery-v0.2","","""event"",""trial"",""time""
""fullscreenenter"",""1"",""2030""
","
","
","""event"",""trial"",""time""
""fullscreenenter"",""1"",""2030""
","
","","","1170.4000000953674","","","15","4556","2599","m","elianto","#f73b6a7A","-1"," ","0","-10","[2023.8000001907349]","1","2","","","4556","45","0","4","lose","no-go","0"
"pit-trial","167","1117648","0.0-50.0","battery-v0.2","","""event"",""trial"",""time""
""fullscreenenter"",""1"",""2030""
","
","
","""event"",""trial"",""time""
""fullscreenenter"",""1"",""2030""
","
","","","-1","","","15","4556","2599","h","elianto","#f73b6a7A"," ","-1","0","-10","[]","0","2","","","4556","46","3","3","lose","go","0"
"pit-trial","168","1121255","0.0-51.0","battery-v0.2","","""event"",""trial"",""time""
""fullscreenenter"",""1"",""2030""
","
","
","""event"",""trial"",""time""
""fullscreenenter"",""1"",""2030""
","
","","","744.8000001907349","","","15","4556","2599","z","elianto","#3366ff99","-1"," ","0","+10","[1598]","1","2","","","4556","47","4","2","win","no-go","1"
"pit-trial","169","1126120","0.0-52.0","battery-v0.2","","""event"",""trial"",""time""
""fullscreenenter"",""1"",""2030""
","
","
","""event"",""trial"",""time""
""fullscreenenter"",""1"",""2030""
","
","","","-1","","","15","4556","2599","y","elianto","#f73b6a7A","-1","-1","1","0","[]","0","2","","","4556","48","2","4","lose","no-go","0"
"pit-trial","170","1129687","0.0-53.0","battery-v0.2","","""event"",""trial"",""time""
""fullscreenenter"",""1"",""2030""
","
","
","""event"",""trial"",""time""
""fullscreenenter"",""1"",""2030""
","
","","","706.8999996185303","","","15","4556","2599","h","elianto","#f73b6a7A"," "," ","1","0","[1559.6999998092651]","1","2","","","4556","49","3","3","lose","go","0"
"pit-trial","171","1133272","0.0-54.0","battery-v0.2","","""event"",""trial"",""time""
""fullscreenenter"",""1"",""2030""
","
","
","""event"",""trial"",""time""
""fullscreenenter"",""1"",""2030""
","
","","","721.5","","","15","4556","2599","r","elianto","#3366ff99"," "," ","1","+10","[1575.1999998092651]","1","2","","","4556","50","1","1","win","go","0"
"pit-trial","172","1137040","0.0-55.0","battery-v0.2","","""event"",""trial"",""time""
""fullscreenenter"",""1"",""2030""
","
","
","""event"",""trial"",""time""
""fullscreenenter"",""1"",""2030""
","
","","","905.6000003814697","","","15","4556","2599","m","elianto","#f73b6a7A","-1"," ","0","-10","[1758.8000001907349]","1","2","","","4556","51","0","4","lose","no-go","0"
"pit-trial","173","1140681","0.0-56.0","battery-v0.2","","""event"",""trial"",""time""
""fullscreenenter"",""1"",""2030""
","
","
","""event"",""trial"",""time""
""fullscreenenter"",""1"",""2030""
","
","","","779.5999999046326","","","15","4556","2599","z","elianto","#3366ff99","-1"," ","0","0","[1631.8000001907349]","1","2","","","4556","52","4","2","win","no-go","0"
"pit-trial","174","1144144","0.0-57.0","battery-v0.2","","""event"",""trial"",""time""
""fullscreenenter"",""1"",""2030""
","
","
","""event"",""trial"",""time""
""fullscreenenter"",""1"",""2030""
","
","","","604.6000003814697","","","15","4556","2599","z","elianto","#3366ff99","-1"," ","0","0","[1454.8999996185303]","1","2","","","4556","53","4","2","win","no-go","0"
"pit-trial","175","1147705","0.0-58.0","battery-v0.2","","""event"",""trial"",""time""
""fullscreenenter"",""1"",""2030""
","
","
","""event"",""trial"",""time""
""fullscreenenter"",""1"",""2030""
","
","","","698.9000000953674","","","15","4556","2599","r","elianto","#3366ff99"," "," ","1","+10","[1550.7000002861023]","1","2","","","4556","54","1","1","win","go","0"
"pit-trial","176","1152581","0.0-59.0","battery-v0.2","","""event"",""trial"",""time""
""fullscreenenter"",""1"",""2030""
","
","
","""event"",""trial"",""time""
""fullscreenenter"",""1"",""2030""
","
","","","-1","","","15","4556","2599","y","elianto","#f73b6a7A","-1","-1","1","0","[]","0","2","","","4556","55","2","4","lose","no-go","0"
"pit-trial","177","1156072","0.0-60.0","battery-v0.2","","""event"",""trial"",""time""
""fullscreenenter"",""1"",""2030""
","
","
","""event"",""trial"",""time""
""fullscreenenter"",""1"",""2030""
","
","","","627.5","","","15","4556","2599","m","elianto","#f73b6a7A","-1"," ","0","-10","[1483]","1","2","","","4556","56","0","4","lose","no-go","0"
"pit-trial","178","1160947","0.0-61.0","battery-v0.2","","""event"",""trial"",""time""
""fullscreenenter"",""1"",""2030""
","
","
","""event"",""trial"",""time""
""fullscreenenter"",""1"",""2030""
","
","","","-1","","","15","4556","2599","m","elianto","#f73b6a7A","-1","-1","1","0","[]","0","2","","","4556","57","0","4","lose","no-go","0"
"pit-trial","179","1164560","0.0-62.0","battery-v0.2","","""event"",""trial"",""time""
""fullscreenenter"",""1"",""2030""
","
","
","""event"",""trial"",""time""
""fullscreenenter"",""1"",""2030""
","
","","","745.4000000953674","","","15","4556","2599","z","elianto","#3366ff99","-1"," ","0","0","[1604]","1","2","","","4556","58","4","2","win","no-go","0"
"pit-trial","180","1168369","0.0-63.0","battery-v0.2","","""event"",""trial"",""time""
""fullscreenenter"",""1"",""2030""
","
","
","""event"",""trial"",""time""
""fullscreenenter"",""1"",""2030""
","
","","","940.1999998092651","","","15","4556","2599","h","elianto","#f73b6a7A"," "," ","1","0","[1792.5999999046326]","1","2","","","4556","59","3","3","lose","go","0"
"pit-trial","181","1171855","0.0-64.0","battery-v0.2","","""event"",""trial"",""time""
""fullscreenenter"",""1"",""2030""
","
","
","""event"",""trial"",""time""
""fullscreenenter"",""1"",""2030""
","
","","","625.1999998092651","","","15","4556","2599","r","elianto","#3366ff99"," "," ","1","+10","[1477.3999996185303]","1","2","","","4556","60","1","1","win","go","0"
"pit-trial","182","1176727","0.0-65.0","battery-v0.2","","""event"",""trial"",""time""
""fullscreenenter"",""1"",""2030""
","
","
","""event"",""trial"",""time""
""fullscreenenter"",""1"",""2030""
","
","","","-1","","","15","4556","2599","y","elianto","#f73b6a7A","-1","-1","1","-10","[]","0","2","","","4556","61","2","4","lose","no-go","1"
"pit-trial","183","1180319","0.0-66.0","battery-v0.2","","""event"",""trial"",""time""
""fullscreenenter"",""1"",""2030""
","
","
","""event"",""trial"",""time""
""fullscreenenter"",""1"",""2030""
","
","","","733.4000000953674","","","15","4556","2599","r","elianto","#3366ff99"," "," ","1","+10","[1584.1000003814697]","1","2","","","4556","62","1","1","win","go","0"
"pit-trial","184","1184528","0.0-67.0","battery-v0.2","","""event"",""trial"",""time""
""fullscreenenter"",""1"",""2030""
","
","
","""event"",""trial"",""time""
""fullscreenenter"",""1"",""2030""
","
","","","1345.9000000953674","","","15","4556","2599","h","elianto","#f73b6a7A"," "," ","1","-10","[2199.4000000953674]","1","2","","","4556","63","3","3","lose","go","1"
"pit-trial","185","1188175","0.0-68.0","battery-v0.2","","""event"",""trial"",""time""
""fullscreenenter"",""1"",""2030""
","
","
","""event"",""trial"",""time""
""fullscreenenter"",""1"",""2030""
","
","","","787","","","15","4556","2599","z","elianto","#3366ff99","-1"," ","0","0","[1638.5]","1","2","","","4556","64","4","2","win","no-go","0"
"pit-trial","186","1191810","0.0-69.0","battery-v0.2","","""event"",""trial"",""time""
""fullscreenenter"",""1"",""2030""
","
","
","""event"",""trial"",""time""
""fullscreenenter"",""1"",""2030""
","
","","","765.7999997138977","","","15","4556","2599","r","elianto","#3366ff99"," "," ","1","+10","[1616.4000000953674]","1","2","","","4556","65","1","1","win","go","0"
"pit-trial","187","1195455","0.0-70.0","battery-v0.2","","""event"",""trial"",""time""
""fullscreenenter"",""1"",""2030""
","
","
","""event"",""trial"",""time""
""fullscreenenter"",""1"",""2030""
","
","","","784.1999998092651","","","15","4556","2599","h","elianto","#f73b6a7A"," "," ","1","-10","[1635.5]","1","2","","","4556","66","3","3","lose","go","1"
"pit-trial","188","1198967","0.0-71.0","battery-v0.2","","""event"",""trial"",""time""
""fullscreenenter"",""1"",""2030""
","
","
","""event"",""trial"",""time""
""fullscreenenter"",""1"",""2030""
","
","","","650.0999999046326","","","15","4556","2599","z","elianto","#3366ff99","-1"," ","0","0","[1503.5]","1","2","","","4556","67","4","2","win","no-go","0"
"pit-trial","189","1203831","0.0-72.0","battery-v0.2","","""event"",""trial"",""time""
""fullscreenenter"",""1"",""2030""
","
","
","""event"",""trial"",""time""
""fullscreenenter"",""1"",""2030""
","
","","","-1","","","15","4556","2599","y","elianto","#f73b6a7A","-1","-1","1","0","[]","0","2","","","4556","68","2","4","lose","no-go","0"
"pit-trial","190","1207527","0.0-73.0","battery-v0.2","","""event"",""trial"",""time""
""fullscreenenter"",""1"",""2030""
","
","
","""event"",""trial"",""time""
""fullscreenenter"",""1"",""2030""
","
","","","839.0999999046326","","","15","4556","2599","c","elianto","#3366ff99"," "," ","1","+10","[1689.5999999046326]","1","2","","","4556","69","5","1","win","go","0"
"pit-trial","191","1211119","0.0-74.0","battery-v0.2","","""event"",""trial"",""time""
""fullscreenenter"",""1"",""2030""
","
","
","""event"",""trial"",""time""
""fullscreenenter"",""1"",""2030""
","
","","","731.5","","","15","4556","2599","r","elianto","#3366ff99"," "," ","1","+10","[1582.9000000953674]","1","2","","","4556","70","1","1","win","go","0"
"pit-trial","192","1214727","0.0-75.0","battery-v0.2","","""event"",""trial"",""time""
""fullscreenenter"",""1"",""2030""
","
","
","""event"",""trial"",""time""
""fullscreenenter"",""1"",""2030""
","
","","","744.6999998092651","","","15","4556","2599","z","elianto","#3366ff99","-1"," ","0","0","[1599.4000000953674]","1","2","","","4556","71","4","2","win","no-go","0"
"pit-trial","193","1219599","0.0-76.0","battery-v0.2","","""event"",""trial"",""time""
""fullscreenenter"",""1"",""2030""
","
","
","""event"",""trial"",""time""
""fullscreenenter"",""1"",""2030""
","
","","","-1","","","15","4556","2599","h","elianto","#f73b6a7A"," ","-1","0","-10","[]","0","2","","","4556","72","3","3","lose","go","0"
"pit-trial","194","1223167","0.0-77.0","battery-v0.2","","""event"",""trial"",""time""
""fullscreenenter"",""1"",""2030""
","
","
","""event"",""trial"",""time""
""fullscreenenter"",""1"",""2030""
","
","","","707.2000002861023","","","15","4556","2599","c","elianto","#3366ff99"," "," ","1","+10","[1560.2000002861023]","1","2","","","4556","73","5","1","win","go","0"
"pit-trial","195","1228040","0.0-78.0","battery-v0.2","","""event"",""trial"",""time""
""fullscreenenter"",""1"",""2030""
","
","
","""event"",""trial"",""time""
""fullscreenenter"",""1"",""2030""
","
","","","-1","","","15","4556","2599","h","elianto","#f73b6a7A"," ","-1","0","-10","[]","0","2","","","4556","74","3","3","lose","go","0"
"pit-trial","196","1231671","0.0-79.0","battery-v0.2","","""event"",""trial"",""time""
""fullscreenenter"",""1"",""2030""
","
","
","""event"",""trial"",""time""
""fullscreenenter"",""1"",""2030""
","
","","","770","","","15","4556","2599","z","elianto","#3366ff99","-1"," ","0","+10","[1622.1000003814697,3151.4000000953674]","2","2","","","4556","75","4","2","win","no-go","1"
"pit-trial","197","1235295","0.0-80.0","battery-v0.2","","""event"",""trial"",""time""
""fullscreenenter"",""1"",""2030""
","
","
","""event"",""trial"",""time""
""fullscreenenter"",""1"",""2030""
","
","","","761","","","15","4556","2599","r","elianto","#3366ff99"," "," ","1","+10","[1615.7999997138977]","1","2","","","4556","76","1","1","win","go","0"
"pit-trial","198","1238823","0.0-81.0","battery-v0.2","","""event"",""trial"",""time""
""fullscreenenter"",""1"",""2030""
","
","
","""event"",""trial"",""time""
""fullscreenenter"",""1"",""2030""
","
","","","668.9000000953674","","","15","4556","2599","c","elianto","#3366ff99"," "," ","1","+10","[1519.5999999046326]","1","2","","","4556","77","5","1","win","go","0"
"pit-trial","199","1242423","0.0-82.0","battery-v0.2","","""event"",""trial"",""time""
""fullscreenenter"",""1"",""2030""
","
","
","""event"",""trial"",""time""
""fullscreenenter"",""1"",""2030""
","
","","","738.5","","","15","4556","2599","h","elianto","#f73b6a7A"," "," ","1","-10","[1591.5999999046326]","1","2","","","4556","78","3","3","lose","go","1"
"pit-trial","200","1247288","0.0-83.0","battery-v0.2","","""event"",""trial"",""time""
""fullscreenenter"",""1"",""2030""
","
","
","""event"",""trial"",""time""
""fullscreenenter"",""1"",""2030""
","
","","","-1","","","15","4556","2599","b","elianto","#f73b6a7A","-1","-1","1","0","[]","0","2","","","4556","79","6","4","lose","no-go","0"
"pit-trial","201","1250824","0.0-84.0","battery-v0.2","","""event"",""trial"",""time""
""fullscreenenter"",""1"",""2030""
","
","
","""event"",""trial"",""time""
""fullscreenenter"",""1"",""2030""
","
","","","674.5999999046326","","","15","4556","2599","z","elianto","#3366ff99","-1"," ","0","0","[1528.2999997138977]","1","2","","","4556","80","4","2","win","no-go","0"
"pit-trial","202","1255687","0.0-85.0","battery-v0.2","","""event"",""trial"",""time""
""fullscreenenter"",""1"",""2030""
","
","
","""event"",""trial"",""time""
""fullscreenenter"",""1"",""2030""
","
","","","-1","","","15","4556","2599","b","elianto","#f73b6a7A","-1","-1","1","0","[]","0","2","","","4556","81","6","4","lose","no-go","0"
"pit-trial","203","1259318","0.0-86.0","battery-v0.2","","""event"",""trial"",""time""
""fullscreenenter"",""1"",""2030""
","
","
","""event"",""trial"",""time""
""fullscreenenter"",""1"",""2030""
","
","","","754.3000001907349","","","15","4556","2599","c","elianto","#3366ff99"," "," ","1","+10","[1607.1999998092651]","1","2","","","4556","82","5","1","win","go","0"
"pit-trial","204","1264185","0.0-87.0","battery-v0.2","","""event"",""trial"",""time""
""fullscreenenter"",""1"",""2030""
","
","
","""event"",""trial"",""time""
""fullscreenenter"",""1"",""2030""
","
","","","-1","","","15","4556","2599","t","elianto","#f73b6a7A"," ","-1","0","-10","[]","0","2","","","4556","83","7","3","lose","go","0"
"pit-trial","205","1267631","0.0-88.0","battery-v0.2","","""event"",""trial"",""time""
""fullscreenenter"",""1"",""2030""
","
","
","""event"",""trial"",""time""
""fullscreenenter"",""1"",""2030""
","
","","","587.4000000953674","","","15","4556","2599","z","elianto","#3366ff99","-1"," ","0","+10","[1439.1000003814697]","1","2","","","4556","84","4","2","win","no-go","1"
"pit-trial","206","1271183","0.0-89.0","battery-v0.2","","""event"",""trial"",""time""
""fullscreenenter"",""1"",""2030""
","
","
","""event"",""trial"",""time""
""fullscreenenter"",""1"",""2030""
","
","","","690","","","15","4556","2599","t","elianto","#f73b6a7A"," "," ","1","-10","[1544]","1","2","","","4556","85","7","3","lose","go","1"
"pit-trial","207","1274736","0.0-90.0","battery-v0.2","","""event"",""trial"",""time""
""fullscreenenter"",""1"",""2030""
","
","
","""event"",""trial"",""time""
""fullscreenenter"",""1"",""2030""
","
","","","690.0999999046326","","","15","4556","2599","c","elianto","#3366ff99"," "," ","1","+10","[1543.1999998092651]","1","2","","","4556","86","5","1","win","go","0"
"pit-trial","208","1278167","0.0-91.0","battery-v0.2","","""event"",""trial"",""time""
""fullscreenenter"",""1"",""2030""
","
","
","""event"",""trial"",""time""
""fullscreenenter"",""1"",""2030""
","
","","","571.9000000953674","","","15","4556","2599","z","elianto","#3366ff99","-1"," ","0","0","[1424]","1","2","","","4556","87","4","2","win","no-go","0"
"pit-trial","209","1283040","0.0-92.0","battery-v0.2","","""event"",""trial"",""time""
""fullscreenenter"",""1"",""2030""
","
","
","""event"",""trial"",""time""
""fullscreenenter"",""1"",""2030""
","
","","","-1","","","15","4556","2599","b","elianto","#f73b6a7A","-1","-1","1","-10","[]","0","2","","","4556","88","6","4","lose","no-go","1"
"pit-trial","210","1287903","0.0-93.0","battery-v0.2","","""event"",""trial"",""time""
""fullscreenenter"",""1"",""2030""
","
","
","""event"",""trial"",""time""
""fullscreenenter"",""1"",""2030""
","
","","","-1","","","15","4556","2599","t","elianto","#f73b6a7A"," ","-1","0","-10","[]","0","2","","","4556","89","7","3","lose","go","0"
"pit-trial","211","1291367","0.0-94.0","battery-v0.2","","""event"",""trial"",""time""
""fullscreenenter"",""1"",""2030""
","
","
","""event"",""trial"",""time""
""fullscreenenter"",""1"",""2030""
","
","","","601.9000000953674","","","15","4556","2599","z","elianto","#3366ff99","-1"," ","0","0","[1455.3000001907349]","1","2","","","4556","90","4","2","win","no-go","0"
"pit-trial","212","1296231","0.0-95.0","battery-v0.2","","""event"",""trial"",""time""
""fullscreenenter"",""1"",""2030""
","
","
","""event"",""trial"",""time""
""fullscreenenter"",""1"",""2030""
","
","","","-1","","","15","4556","2599","b","elianto","#f73b6a7A","-1","-1","1","0","[]","0","2","","","4556","91","6","4","lose","no-go","0"
"pit-trial","213","1299776","0.0-96.0","battery-v0.2","","""event"",""trial"",""time""
""fullscreenenter"",""1"",""2030""
","
","
","""event"",""trial"",""time""
""fullscreenenter"",""1"",""2030""
","
","","","681.4000000953674","","","15","4556","2599","c","elianto","#3366ff99"," "," ","1","+10","[1535.5]","1","2","","","4556","92","5","1","win","go","0"
"pit-trial","214","1303423","0.0-97.0","battery-v0.2","","""event"",""trial"",""time""
""fullscreenenter"",""1"",""2030""
","
","
","""event"",""trial"",""time""
""fullscreenenter"",""1"",""2030""
","
","","","790.2000002861023","","","15","4556","2599","t","elianto","#f73b6a7A"," "," ","1","0","[1640.5999999046326]","1","2","","","4556","93","7","3","lose","go","0"
"pit-trial","215","1306935","0.0-98.0","battery-v0.2","","""event"",""trial"",""time""
""fullscreenenter"",""1"",""2030""
","
","
","""event"",""trial"",""time""
""fullscreenenter"",""1"",""2030""
","
","","","650.8000001907349","","","15","4556","2599","f","elianto","#3366ff99","-1"," ","0","0","[1503.9000000953674]","1","2","","","4556","94","8","2","win","no-go","0"
"pit-trial","216","1310513","0.0-99.0","battery-v0.2","","""event"",""trial"",""time""
""fullscreenenter"",""1"",""2030""
","
","
","""event"",""trial"",""time""
""fullscreenenter"",""1"",""2030""
","
","","","713.5","","","15","4556","2599","c","elianto","#3366ff99"," "," ","1","+10","[1566.9000000953674]","1","2","","","4556","95","5","1","win","go","0"
"pit-trial","217","1315376","0.0-100.0","battery-v0.2","","""event"",""trial"",""time""
""fullscreenenter"",""1"",""2030""
","
","
","""event"",""trial"",""time""
""fullscreenenter"",""1"",""2030""
","
","","","-1","","","15","4556","2599","b","elianto","#f73b6a7A","-1","-1","1","-10","[]","0","2","","","4556","96","6","4","lose","no-go","1"
"pit-trial","218","1318937","0.0-101.0","battery-v0.2","","""event"",""trial"",""time""
""fullscreenenter"",""1"",""2030""
","
","
","""event"",""trial"",""time""
""fullscreenenter"",""1"",""2030""
","
","","","702.5999999046326","","","15","4556","2599","f","elianto","#3366ff99","-1"," ","0","0","[1553.2000002861023]","1","2","","","4556","97","8","2","win","no-go","0"
"pit-trial","219","1322568","0.0-102.0","battery-v0.2","","""event"",""trial"",""time""
""fullscreenenter"",""1"",""2030""
","
","
","""event"",""trial"",""time""
""fullscreenenter"",""1"",""2030""
","
","","","769.5","","","15","4556","2599","t","elianto","#f73b6a7A"," "," ","1","0","[1621.5]","1","2","","","4556","98","7","3","lose","go","0"
"pit-trial","220","1326255","0.0-103.0","battery-v0.2","","""event"",""trial"",""time""
""fullscreenenter"",""1"",""2030""
","
","
","""event"",""trial"",""time""
""fullscreenenter"",""1"",""2030""
","
","","","824.5","","","15","4556","2599","b","elianto","#f73b6a7A","-1"," ","0","-10","[1677.6999998092651]","1","2","","","4556","99","6","4","lose","no-go","0"
"pit-trial","221","1329673","0.0-104.0","battery-v0.2","","""event"",""trial"",""time""
""fullscreenenter"",""1"",""2030""
","
","
","""event"",""trial"",""time""
""fullscreenenter"",""1"",""2030""
","
","","","555.1000003814697","","","15","4556","2599","c","elianto","#3366ff99"," "," ","1","+10","[1408.4000000953674]","1","2","","","4556","100","5","1","win","go","0"
"pit-trial","222","1333184","0.0-105.0","battery-v0.2","","""event"",""trial"",""time""
""fullscreenenter"",""1"",""2030""
","
","
","""event"",""trial"",""time""
""fullscreenenter"",""1"",""2030""
","
","","","649.5999999046326","","","15","4556","2599","c","elianto","#3366ff99"," "," ","1","+10","[1501.5]","1","2","","","4556","101","5","1","win","go","0"
"pit-trial","223","1336671","0.0-106.0","battery-v0.2","","""event"",""trial"",""time""
""fullscreenenter"",""1"",""2030""
","
","
","""event"",""trial"",""time""
""fullscreenenter"",""1"",""2030""
","
","","","625.4000000953674","","","15","4556","2599","f","elianto","#3366ff99","-1"," ","0","0","[1479]","1","2","","","4556","102","8","2","win","no-go","0"
"pit-trial","224","1341536","0.0-107.0","battery-v0.2","","""event"",""trial"",""time""
""fullscreenenter"",""1"",""2030""
","
","
","""event"",""trial"",""time""
""fullscreenenter"",""1"",""2030""
","
","","","-1","","","15","4556","2599","b","elianto","#f73b6a7A","-1","-1","1","-10","[]","0","2","","","4556","103","6","4","lose","no-go","1"
"pit-trial","225","1344991","0.0-108.0","battery-v0.2","","""event"",""trial"",""time""
""fullscreenenter"",""1"",""2030""
","
","
","""event"",""trial"",""time""
""fullscreenenter"",""1"",""2030""
","
","","","594.8000001907349","","","15","4556","2599","n","elianto","#3366ff99","-1"," ","0","0","[1448.4000000953674]","1","2","","","4556","104","9","2","win","no-go","0"
"pit-trial","226","1348576","0.0-109.0","battery-v0.2","","""event"",""trial"",""time""
""fullscreenenter"",""1"",""2030""
","
","
","""event"",""trial"",""time""
""fullscreenenter"",""1"",""2030""
","
","","","723.7000002861023","","","15","4556","2599","f","elianto","#3366ff99","-1"," ","0","+10","[1575.3000001907349]","1","2","","","4556","105","8","2","win","no-go","1"
"pit-trial","227","1352584","0.0-110.0","battery-v0.2","","""event"",""trial"",""time""
""fullscreenenter"",""1"",""2030""
","
","
","""event"",""trial"",""time""
""fullscreenenter"",""1"",""2030""
","
","","","1148.5","","","15","4556","2599","b","elianto","#f73b6a7A","-1"," ","0","-10","[1998.5999999046326]","1","2","","","4556","106","6","4","lose","no-go","0"
"pit-trial","228","1356104","0.0-111.0","battery-v0.2","","""event"",""trial"",""time""
""fullscreenenter"",""1"",""2030""
","
","
","""event"",""trial"",""time""
""fullscreenenter"",""1"",""2030""
","
","","","659.0999999046326","","","15","4556","2599","n","elianto","#3366ff99","-1"," ","0","0","[1512.0999999046326]","1","2","","","4556","107","9","2","win","no-go","0"
"pit-trial","229","1359576","0.0-112.0","battery-v0.2","","""event"",""trial"",""time""
""fullscreenenter"",""1"",""2030""
","
","
","""event"",""trial"",""time""
""fullscreenenter"",""1"",""2030""
","
","","","609.9000000953674","","","15","4556","2599","c","elianto","#3366ff99"," "," ","1","+10","[1463]","1","2","","","4556","108","5","1","win","go","0"
"pit-trial","230","1362983","0.0-113.0","battery-v0.2","","""event"",""trial"",""time""
""fullscreenenter"",""1"",""2030""
","
","
","""event"",""trial"",""time""
""fullscreenenter"",""1"",""2030""
","
","","","549.3000001907349","","","15","4556","2599","c","elianto","#3366ff99"," "," ","1","+10","[1399.3999996185303]","1","2","","","4556","109","5","1","win","go","0"
"pit-trial","231","1366456","0.0-114.0","battery-v0.2","","""event"",""trial"",""time""
""fullscreenenter"",""1"",""2030""
","
","
","""event"",""trial"",""time""
""fullscreenenter"",""1"",""2030""
","
","","","611","","","15","4556","2599","f","elianto","#3366ff99","-1"," ","0","0","[1466.5]","1","2","","","4556","110","8","2","win","no-go","0"
"pit-trial","232","1369817","0.0-115.0","battery-v0.2","","""event"",""trial"",""time""
""fullscreenenter"",""1"",""2030""
","
","
","""event"",""trial"",""time""
""fullscreenenter"",""1"",""2030""
","
","","","498","","","15","4556","2599","n","elianto","#3366ff99","-1"," ","0","0","[1351.2999997138977]","1","2","","","4556","111","9","2","win","no-go","0"
"pit-trial","233","1374680","0.0-116.0","battery-v0.2","","""event"",""trial"",""time""
""fullscreenenter"",""1"",""2030""
","
","
","""event"",""trial"",""time""
""fullscreenenter"",""1"",""2030""
","
","","","-1","","","15","4556","2599","b","elianto","#f73b6a7A","-1","-1","1","-10","[]","0","2","","","4556","112","6","4","lose","no-go","1"
"pit-trial","234","1378119","0.0-117.0","battery-v0.2","","""event"",""trial"",""time""
""fullscreenenter"",""1"",""2030""
","
","
","""event"",""trial"",""time""
""fullscreenenter"",""1"",""2030""
","
","","","581.5","","","15","4556","2599","c","elianto","#3366ff99"," "," ","1","+10","[1432.4000000953674]","1","2","","","4556","113","5","1","win","go","0"
"pit-trial","235","1381576","0.0-118.0","battery-v0.2","","""event"",""trial"",""time""
""fullscreenenter"",""1"",""2030""
","
","
","""event"",""trial"",""time""
""fullscreenenter"",""1"",""2030""
","
","","","594.3000001907349","","","15","4556","2599","f","elianto","#3366ff99","-1"," ","0","+10","[1447.5999999046326]","1","2","","","4556","114","8","2","win","no-go","1"
"pit-trial","236","1385255","0.0-119.0","battery-v0.2","","""event"",""trial"",""time""
""fullscreenenter"",""1"",""2030""
","
","
","""event"",""trial"",""time""
""fullscreenenter"",""1"",""2030""
","
","","","820.2999997138977","","","15","4556","2599","t","elianto","#f73b6a7A"," "," ","1","0","[1671.1999998092651]","1","2","","","4556","115","7","3","lose","go","0"
"pit-trial","237","1388695","0.0-120.0","battery-v0.2","","""event"",""trial"",""time""
""fullscreenenter"",""1"",""2030""
","
","
","""event"",""trial"",""time""
""fullscreenenter"",""1"",""2030""
","
","","","579.2000002861023","","","15","4556","2599","n","elianto","#3366ff99","-1"," ","0","0","[1433.5999999046326]","1","2","","","4556","116","9","2","win","no-go","0"
"pit-trial","238","1392904","0.0-121.0","battery-v0.2","","""event"",""trial"",""time""
""fullscreenenter"",""1"",""2030""
","
","
","""event"",""trial"",""time""
""fullscreenenter"",""1"",""2030""
","
","","","1347.5999999046326","","","15","4556","2599","b","elianto","#f73b6a7A","-1"," ","0","-10","[2198.5999999046326]","1","2","","","4556","117","6","4","lose","no-go","0"
"pit-trial","239","1396624","0.0-122.0","battery-v0.2","","""event"",""trial"",""time""
""fullscreenenter"",""1"",""2030""
","
","
","""event"",""trial"",""time""
""fullscreenenter"",""1"",""2030""
","
","","","857","","","15","4556","2599","c","elianto","#3366ff99"," "," ","1","+10","[1711.1999998092651]","1","2","","","4556","118","5","1","win","go","0"
"pit-trial","240","1400047","0.0-123.0","battery-v0.2","","""event"",""trial"",""time""
""fullscreenenter"",""1"",""2030""
","
","
","""event"",""trial"",""time""
""fullscreenenter"",""1"",""2030""
","
","","","564.0999999046326","","","15","4556","2599","f","elianto","#3366ff99","-1"," ","0","+10","[1418.0999999046326]","1","2","","","4556","119","8","2","win","no-go","1"
"pit-trial","241","1403577","0.0-124.0","battery-v0.2","","""event"",""trial"",""time""
""fullscreenenter"",""1"",""2030""
","
","
","""event"",""trial"",""time""
""fullscreenenter"",""1"",""2030""
","
","","","669.2000002861023","","","15","4556","2599","n","elianto","#3366ff99","-1"," ","0","0","[1520.7000002861023]","1","2","","","4556","120","9","2","win","no-go","0"
"pit-trial","242","1408454","0.0-125.0","battery-v0.2","","""event"",""trial"",""time""
""fullscreenenter"",""1"",""2030""
","
","
","""event"",""trial"",""time""
""fullscreenenter"",""1"",""2030""
","
","","","-1","","","15","4556","2599","t","elianto","#f73b6a7A"," ","-1","0","-10","[]","0","2","","","4556","121","7","3","lose","go","0"
"pit-trial","243","1411872","0.0-126.0","battery-v0.2","","""event"",""trial"",""time""
""fullscreenenter"",""1"",""2030""
","
","
","""event"",""trial"",""time""
""fullscreenenter"",""1"",""2030""
","
","","","554.4000000953674","","","15","4556","2599","f","elianto","#3366ff99","-1"," ","0","0","[1410.4000000953674]","1","2","","","4556","122","8","2","win","no-go","0"
"pit-trial","244","1415312","0.0-127.0","battery-v0.2","","""event"",""trial"",""time""
""fullscreenenter"",""1"",""2030""
","
","
","""event"",""trial"",""time""
""fullscreenenter"",""1"",""2030""
","
","","","578.5","","","15","4556","2599","n","elianto","#3366ff99","-1"," ","0","0","[1431.1000003814697]","1","2","","","4556","123","9","2","win","no-go","0"
"pit-trial","245","1418640","0.0-128.0","battery-v0.2","","""event"",""trial"",""time""
""fullscreenenter"",""1"",""2030""
","
","
","""event"",""trial"",""time""
""fullscreenenter"",""1"",""2030""
","
","","","467.3999996185303","","","15","4556","2599","c","elianto","#3366ff99"," "," ","1","+10","[1319.4000000953674]","1","2","","","4556","124","5","1","win","go","0"
"pit-trial","246","1422008","0.0-129.0","battery-v0.2","","""event"",""trial"",""time""
""fullscreenenter"",""1"",""2030""
","
","
","""event"",""trial"",""time""
""fullscreenenter"",""1"",""2030""
","
","","","507.59999990463257","","","15","4556","2599","n","elianto","#3366ff99","-1"," ","0","0","[1360.8000001907349]","1","2","","","4556","125","9","2","win","no-go","0"
"pit-trial","247","1425391","0.0-130.0","battery-v0.2","","""event"",""trial"",""time""
""fullscreenenter"",""1"",""2030""
","
","
","""event"",""trial"",""time""
""fullscreenenter"",""1"",""2030""
","
","","","523.0999999046326","","","15","4556","2599","t","elianto","#f73b6a7A"," "," ","1","0","[1375.1999998092651]","1","2","","","4556","126","7","3","lose","go","0"
"pit-trial","248","1428864","0.0-131.0","battery-v0.2","","""event"",""trial"",""time""
""fullscreenenter"",""1"",""2030""
","
","
","""event"",""trial"",""time""
""fullscreenenter"",""1"",""2030""
","
","","","612.0999999046326","","","15","4556","2599","f","elianto","#3366ff99","-1"," ","0","0","[1463.5]","1","2","","","4556","127","8","2","win","no-go","0"
"pit-trial","249","1432327","0.0-132.0","battery-v0.2","","""event"",""trial"",""time""
""fullscreenenter"",""1"",""2030""
","
","
","""event"",""trial"",""time""
""fullscreenenter"",""1"",""2030""
","
","","","606.0999999046326","","","15","4556","2599","b","elianto","#f73b6a7A","-1"," ","0","-10","[1456.4000000953674]","1","2","","","4556","128","6","4","lose","no-go","0"
"pit-trial","250","1436015","0.0-133.0","battery-v0.2","","""event"",""trial"",""time""
""fullscreenenter"",""1"",""2030""
","
","
","""event"",""trial"",""time""
""fullscreenenter"",""1"",""2030""
","
","","","827.5999999046326","","","15","4556","2599","t","elianto","#f73b6a7A"," "," ","1","0","[1679.8999996185303]","1","2","","","4556","129","7","3","lose","go","0"
"pit-trial","251","1439439","0.0-134.0","battery-v0.2","","""event"",""trial"",""time""
""fullscreenenter"",""1"",""2030""
","
","
","""event"",""trial"",""time""
""fullscreenenter"",""1"",""2030""
","
","","","561","","","15","4556","2599","n","elianto","#3366ff99","-1"," ","0","0","[1414.5]","1","2","","","4556","130","9","2","win","no-go","0"
"pit-trial","252","1442943","0.0-135.0","battery-v0.2","","""event"",""trial"",""time""
""fullscreenenter"",""1"",""2030""
","
","
","""event"",""trial"",""time""
""fullscreenenter"",""1"",""2030""
","
","","","643.6999998092651","","","15","4556","2599","f","elianto","#3366ff99","-1"," ","0","+10","[1497.5]","1","2","","","4556","131","8","2","win","no-go","1"
"pit-trial","253","1447208","0.0-136.0","battery-v0.2","","""event"",""trial"",""time""
""fullscreenenter"",""1"",""2030""
","
","
","""event"",""trial"",""time""
""fullscreenenter"",""1"",""2030""
","
","","","1403.5","","","15","4556","2599","b","elianto","#f73b6a7A","-1"," ","0","-10","[2255.800000190735]","1","2","","","4556","132","6","4","lose","no-go","0"
"pit-trial","254","1450823","0.0-137.0","battery-v0.2","","""event"",""trial"",""time""
""fullscreenenter"",""1"",""2030""
","
","
","""event"",""trial"",""time""
""fullscreenenter"",""1"",""2030""
","
","","","754.8999996185303","","","15","4556","2599","t","elianto","#f73b6a7A"," "," ","1","0","[1606.9000000953674]","1","2","","","4556","133","7","3","lose","go","0"
"pit-trial","255","1455687","0.0-138.0","battery-v0.2","","""event"",""trial"",""time""
""fullscreenenter"",""1"",""2030""
","
","
","""event"",""trial"",""time""
""fullscreenenter"",""1"",""2030""
","
","","","-1","","","15","4556","2599","b","elianto","#f73b6a7A","-1","-1","1","0","[]","0","2","","","4556","134","6","4","lose","no-go","0"
"pit-trial","256","1459327","0.0-139.0","battery-v0.2","","""event"",""trial"",""time""
""fullscreenenter"",""1"",""2030""
","
","
","""event"",""trial"",""time""
""fullscreenenter"",""1"",""2030""
","
","","","779.3000001907349","","","15","4556","2599","f","elianto","#3366ff99","-1"," ","0","0","[1633.0999999046326]","1","2","","","4556","135","8","2","win","no-go","0"
"pit-trial","257","1463008","0.0-140.0","battery-v0.2","","""event"",""trial"",""time""
""fullscreenenter"",""1"",""2030""
","
","
","""event"",""trial"",""time""
""fullscreenenter"",""1"",""2030""
","
","","","821.9000000953674","","","15","4556","2599","n","elianto","#3366ff99","-1"," ","0","0","[1672.4000000953674]","1","2","","","4556","136","9","2","win","no-go","0"
"pit-trial","258","1467871","0.0-141.0","battery-v0.2","","""event"",""trial"",""time""
""fullscreenenter"",""1"",""2030""
","
","
","""event"",""trial"",""time""
""fullscreenenter"",""1"",""2030""
","
","","","-1","","","15","4556","2599","b","elianto","#f73b6a7A","-1","-1","1","0","[]","0","2","","","4556","137","6","4","lose","no-go","0"
"pit-trial","259","1471471","0.0-142.0","battery-v0.2","","""event"",""trial"",""time""
""fullscreenenter"",""1"",""2030""
","
","
","""event"",""trial"",""time""
""fullscreenenter"",""1"",""2030""
","
","","","740.0999999046326","","","15","4556","2599","n","elianto","#3366ff99","-1"," ","0","0","[1593.3999996185303]","1","2","","","4556","138","9","2","win","no-go","0"
"pit-trial","260","1475119","0.0-143.0","battery-v0.2","","""event"",""trial"",""time""
""fullscreenenter"",""1"",""2030""
","
","
","""event"",""trial"",""time""
""fullscreenenter"",""1"",""2030""
","
","","","786.4000000953674","","","15","4556","2599","f","elianto","#3366ff99","-1"," ","0","+10","[1639.5]","1","2","","","4556","139","8","2","win","no-go","1"
"pit-trial","261","1479284","0.0-144.0","battery-v0.2","","""event"",""trial"",""time""
""fullscreenenter"",""1"",""2030""
","
","
","""event"",""trial"",""time""
""fullscreenenter"",""1"",""2030""
","
","","","1289.7000002861023","","","15","4556","2599","t","elianto","#f73b6a7A"," "," ","1","0","[2143.4000000953674]","1","2","","","4556","140","7","3","lose","go","0"
"pit-instructions","262","1500187","0.0-145.0","battery-v0.2","","""event"",""trial"",""time""
""fullscreenenter"",""1"",""2030""
","
","
","""event"",""trial"",""time""
""fullscreenenter"",""1"",""2030""
","
","","[{""page_index"":0,""viewing_time"":9406.400000095367},{""page_index"":1,""viewing_time"":11494}]","20900.699999809265","","","","","","","","","","","","","","","","","","","","","","","",""
"pit-trial","263","1505068","0.0-146.0","battery-v0.2","","""event"",""trial"",""time""
""fullscreenenter"",""1"",""2030""
","
","
","""event"",""trial"",""time""
""fullscreenenter"",""1"",""2030""
","
","","","-1","","","15","4556","2599","e","elianto","#f73b6a7A"," ","-1","0","-10","[]","0","3","","","4556","141","2","3","lose","go","0"
"pit-trial","264","1508958","0.0-147.0","battery-v0.2","","""event"",""trial"",""time""
""fullscreenenter"",""1"",""2030""
","
","
","""event"",""trial"",""time""
""fullscreenenter"",""1"",""2030""
","
","","","1008.0999999046326","","","15","4556","2599","d","elianto","#3366ff99","-1"," ","0","0","[1866.6999998092651]","1","3","","","4556","142","1","2","win","no-go","0"
"pit-trial","265","1513828","0.0-148.0","battery-v0.2","","""event"",""trial"",""time""
""fullscreenenter"",""1"",""2030""
","
","
","""event"",""trial"",""time""
""fullscreenenter"",""1"",""2030""
","
