"trial_type","trial_index","time_elapsed","internal_node_id","task_version","subject_id","interactions","blur_events","focus_events","fullscreenenter_events","fullscreenexit_events","success","view_history","rt","responses","num_errors","age","subject","participantId","rune","rune_set","hex","correct","choice","accuracy","outcome","keys","total_keys","block","practice","value","sub","trial","stimulus","robot","valence","action","sham"
"pavlovia","0","19","0.0-0.0","battery-v0.2","","""event"",""trial"",""time""
""fullscreenenter"",""1"",""1671""
","
","
","""event"",""trial"",""time""
""fullscreenenter"",""1"",""1671""
","
","","","","","","","","","","","","","","","","","","","","","","","","","","",""
"fullscreen","1","2664","0.0-1.0","battery-v0.2","","""event"",""trial"",""time""
""fullscreenenter"",""1"",""1671""
""fullscreenexit"",""2"",""5341""
","
","
","""event"",""trial"",""time""
""fullscreenenter"",""1"",""1671""
","""event"",""trial"",""time""
""fullscreenexit"",""2"",""5341""
","true","","","","","","","","","","","","","","","","","","","","","","","","","",""
"pit-instructions","2","8329","0.0-2.0-0.0","battery-v0.2","","""event"",""trial"",""time""
""fullscreenenter"",""1"",""1671""
""fullscreenexit"",""2"",""5341""
","
","
","""event"",""trial"",""time""
""fullscreenenter"",""1"",""1671""
","""event"",""trial"",""time""
""fullscreenexit"",""2"",""5341""
","","[{""page_index"":0,""viewing_time"":5661.699999988079}]","5662.9000000059605","","","","","","","","","","","","","","","","","","","","","","","",""
"pit-comprehension","3","11228","0.0-2.0-1.0-0.0","battery-v0.2","","""event"",""trial"",""time""
""fullscreenenter"",""1"",""1671""
""fullscreenexit"",""2"",""5341""
","
","
","""event"",""trial"",""time""
""fullscreenenter"",""1"",""1671""
","""event"",""trial"",""time""
""fullscreenexit"",""2"",""5341""
","","","2888.5","[""shark""]","0","21","4100","1267","","","","","","","","","","","","","","","","","","",""
"pit-instructions","4","13691","0.0-2.0-1.0-1.0","battery-v0.2","","""event"",""trial"",""time""
""fullscreenenter"",""1"",""1671""
""fullscreenexit"",""2"",""5341""
","
","
","""event"",""trial"",""time""
""fullscreenenter"",""1"",""1671""
","""event"",""trial"",""time""
""fullscreenexit"",""2"",""5341""
","","[{""page_index"":0,""viewing_time"":2435}]","2435.199999988079","","","","","","","","","","","","","","","","","","","","","","","",""
"pit-comprehension","5","15988","0.0-2.0-2.0-0.0","battery-v0.2","","""event"",""trial"",""time""
""fullscreenenter"",""1"",""1671""
""fullscreenexit"",""2"",""5341""
","
","
","""event"",""trial"",""time""
""fullscreenenter"",""1"",""1671""
","""event"",""trial"",""time""
""fullscreenexit"",""2"",""5341""
","","","2290.0999999940395","[""tiger""]","0","21","4100","1267","","","","","","","","","","","","","","","","","","",""
"pit-instructions","6","20029","0.0-2.0-2.0-1.0","battery-v0.2","","""event"",""trial"",""time""
""fullscreenenter"",""1"",""1671""
""fullscreenexit"",""2"",""5341""
""blur"",""7"",""74685""
""focus"",""7"",""78662""
""blur"",""7"",""81230""
""focus"",""7"",""84176""
""blur"",""7"",""123317""
""focus"",""7"",""125047""
","""event"",""trial"",""time""
""blur"",""7"",""74685""
""blur"",""7"",""81230""
""blur"",""7"",""123317""
","""event"",""trial"",""time""
""focus"",""7"",""78662""
""focus"",""7"",""84176""
""focus"",""7"",""125047""
","""event"",""trial"",""time""
""fullscreenenter"",""1"",""1671""
","""event"",""trial"",""time""
""fullscreenexit"",""2"",""5341""
","","[{""page_index"":0,""viewing_time"":4034.7000000178814}]","4035","","","","","","","","","","","","","","","","","","","","","","","",""
"pit-instructions","7","190977","0.0-2.0-3.0","battery-v0.2","","""event"",""trial"",""time""
""fullscreenenter"",""1"",""1671""
""fullscreenexit"",""2"",""5341""
""blur"",""7"",""74685""
""focus"",""7"",""78662""
""blur"",""7"",""81230""
""focus"",""7"",""84176""
""blur"",""7"",""123317""
""focus"",""7"",""125047""
","""event"",""trial"",""time""
""blur"",""7"",""74685""
""blur"",""7"",""81230""
""blur"",""7"",""123317""
","""event"",""trial"",""time""
""focus"",""7"",""78662""
""focus"",""7"",""84176""
""focus"",""7"",""125047""
","""event"",""trial"",""time""
""fullscreenenter"",""1"",""1671""
","""event"",""trial"",""time""
""fullscreenexit"",""2"",""5341""
","","[{""page_index"":0,""viewing_time"":8900.299999982119},{""page_index"":1,""viewing_time"":6361.5},{""page_index"":2,""viewing_time"":6490.5},{""page_index"":3,""viewing_time"":7133.9000000059605},{""page_index"":4,""viewing_time"":8422.300000011921},{""page_index"":5,""viewing_time"":7339.799999982119},{""page_index"":6,""viewing_time"":7883.9000000059605},{""page_index"":7,""viewing_time"":7402.199999988079},{""page_index"":8,""viewing_time"":7089.800000011921},{""page_index"":9,""viewing_time"":7015.9000000059605},{""page_index"":10,""viewing_time"":7498.9000000059605},{""page_index"":11,""viewing_time"":1520.2999999821186},{""page_index"":10,""viewing_time"":555.8000000119209},{""page_index"":9,""viewing_time"":235.09999999403954},{""page_index"":8,""viewing_time"":185.09999999403954},{""page_index"":7,""viewing_time"":162.2000000178814},{""page_index"":6,""viewing_time"":145.59999999403954},{""page_index"":5,""viewing_time"":210.5},{""page_index"":4,""viewing_time"":1712.5999999940395},{""page_index"":3,""viewing_time"":2546.5},{""page_index"":2,""viewing_time"":2496.800000011921},{""page_index"":3,""viewing_time"":4695.399999976158},{""page_index"":4,""viewing_time"":2868.600000023842},{""page_index"":5,""viewing_time"":8413.199999988079},{""page_index"":4,""viewing_time"":1123.4000000059605},{""page_index"":5,""viewing_time"":5743.5},{""page_index"":6,""viewing_time"":6582.5},{""page_index"":7,""viewing_time"":7743.4000000059605},{""page_index"":8,""viewing_time"":6109.899999976158},{""page_index"":9,""viewing_time"":8963.40000000596},{""page_index"":10,""viewing_time"":7263.0999999940395},{""page_index"":11,""viewing_time"":8381.800000011921},{""page_index"":12,""viewing_time"":6146.699999988079},{""page_index"":13,""viewing_time"":5596.4000000059605}]","170941.19999998808","","","","","","","","","","","","","","","","","","","","","","","",""
"pit-trial","8","193907","0.0-2.0-4.0-0.0","battery-v0.2","","""event"",""trial"",""time""
""fullscreenenter"",""1"",""1671""
""fullscreenexit"",""2"",""5341""
""blur"",""7"",""74685""
""focus"",""7"",""78662""
""blur"",""7"",""81230""
""focus"",""7"",""84176""
""blur"",""7"",""123317""
""focus"",""7"",""125047""
","""event"",""trial"",""time""
""blur"",""7"",""74685""
""blur"",""7"",""81230""
""blur"",""7"",""123317""
","""event"",""trial"",""time""
""focus"",""7"",""78662""
""focus"",""7"",""84176""
""focus"",""7"",""125047""
","""event"",""trial"",""time""
""fullscreenenter"",""1"",""1671""
","""event"",""trial"",""time""
""fullscreenexit"",""2"",""5341""
","","","70.30000001192093","","","21","4100","1267","&#9784;","elianto","#FFFFF080"," "," ","1","&#10004","[921.5]","1","0","0","","","","","","","",""
"pit-trial","9","196782","0.0-2.0-4.1-0.1","battery-v0.2","","""event"",""trial"",""time""
""fullscreenenter"",""1"",""1671""
""fullscreenexit"",""2"",""5341""
""blur"",""7"",""74685""
""focus"",""7"",""78662""
""blur"",""7"",""81230""
""focus"",""7"",""84176""
""blur"",""7"",""123317""
""focus"",""7"",""125047""
","""event"",""trial"",""time""
""blur"",""7"",""74685""
""blur"",""7"",""81230""
""blur"",""7"",""123317""
","""event"",""trial"",""time""
""focus"",""7"",""78662""
""focus"",""7"",""84176""
""focus"",""7"",""125047""
","""event"",""trial"",""time""
""fullscreenenter"",""1"",""1671""
","""event"",""trial"",""time""
""fullscreenexit"",""2"",""5341""
","","","9.400000005960464","","","21","4100","1267","&#9784;","elianto","#FFFFF080"," "," ","1","&#10004","[100.5,862.6999999880791,2775.7999999821186]","3","0","0","","","","","","","",""
"pit-trial","10","199679","0.0-2.0-4.2-0.2","battery-v0.2","","""event"",""trial"",""time""
""fullscreenenter"",""1"",""1671""
""fullscreenexit"",""2"",""5341""
""blur"",""7"",""74685""
""focus"",""7"",""78662""
""blur"",""7"",""81230""
""focus"",""7"",""84176""
""blur"",""7"",""123317""
""focus"",""7"",""125047""
","""event"",""trial"",""time""
""blur"",""7"",""74685""
""blur"",""7"",""81230""
""blur"",""7"",""123317""
","""event"",""trial"",""time""
""focus"",""7"",""78662""
""focus"",""7"",""84176""
""focus"",""7"",""125047""
","""event"",""trial"",""time""
""fullscreenenter"",""1"",""1671""
","""event"",""trial"",""time""
""fullscreenexit"",""2"",""5341""
","","","23.5","","","21","4100","1267","&#9784;","elianto","#FFFFF080"," "," ","1","&#10004","[883.2999999821186,2036.7999999821186,2753.899999976158]","3","0","0","","","","","","","",""
"pit-trial","11","202653","0.0-2.0-4.3-0.3","battery-v0.2","","""event"",""trial"",""time""
""fullscreenenter"",""1"",""1671""
""fullscreenexit"",""2"",""5341""
""blur"",""7"",""74685""
""focus"",""7"",""78662""
""blur"",""7"",""81230""
""focus"",""7"",""84176""
""blur"",""7"",""123317""
""focus"",""7"",""125047""
","""event"",""trial"",""time""
""blur"",""7"",""74685""
""blur"",""7"",""81230""
""blur"",""7"",""123317""
","""event"",""trial"",""time""
""focus"",""7"",""78662""
""focus"",""7"",""84176""
""focus"",""7"",""125047""
","""event"",""trial"",""time""
""fullscreenenter"",""1"",""1671""
","""event"",""trial"",""time""
""fullscreenexit"",""2"",""5341""
","","","104","","","21","4100","1267","&#9784;","elianto","#FFFFF080"," "," ","1","&#10004","[961.9000000059605]","1","0","0","","","","","","","",""
"pit-trial","12","205710","0.0-2.0-4.4-0.4","battery-v0.2","","""event"",""trial"",""time""
""fullscreenenter"",""1"",""1671""
""fullscreenexit"",""2"",""5341""
""blur"",""7"",""74685""
""focus"",""7"",""78662""
""blur"",""7"",""81230""
""focus"",""7"",""84176""
""blur"",""7"",""123317""
""focus"",""7"",""125047""
","""event"",""trial"",""time""
""blur"",""7"",""74685""
""blur"",""7"",""81230""
""blur"",""7"",""123317""
","""event"",""trial"",""time""
""focus"",""7"",""78662""
""focus"",""7"",""84176""
""focus"",""7"",""125047""
","""event"",""trial"",""time""
""fullscreenenter"",""1"",""1671""
","""event"",""trial"",""time""
""fullscreenexit"",""2"",""5341""
","","","180.7000000178814","","","21","4100","1267","&#9784;","elianto","#FFFFF080"," "," ","1","&#10004","[1040]","1","0","0","","","","","","","",""
"pit-instructions","13","225876","0.0-2.0-5.0","battery-v0.2","","""event"",""trial"",""time""
""fullscreenenter"",""1"",""1671""
""fullscreenexit"",""2"",""5341""
""blur"",""7"",""74685""
""focus"",""7"",""78662""
""blur"",""7"",""81230""
""focus"",""7"",""84176""
""blur"",""7"",""123317""
""focus"",""7"",""125047""
","""event"",""trial"",""time""
""blur"",""7"",""74685""
""blur"",""7"",""81230""
""blur"",""7"",""123317""
","""event"",""trial"",""time""
""focus"",""7"",""78662""
""focus"",""7"",""84176""
""focus"",""7"",""125047""
","""event"",""trial"",""time""
""fullscreenenter"",""1"",""1671""
","""event"",""trial"",""time""
""fullscreenexit"",""2"",""5341""
","","[{""page_index"":0,""viewing_time"":4961.5},{""page_index"":1,""viewing_time"":5042.299999982119},{""page_index"":2,""viewing_time"":4678.5},{""page_index"":3,""viewing_time"":5478.4000000059605}]","20161.19999998808","","","","","","","","","","","","","","","","","","","","","","","",""
"pit-trial","14","230739","0.0-2.0-6.0-0.0","battery-v0.2","","""event"",""trial"",""time""
""fullscreenenter"",""1"",""1671""
""fullscreenexit"",""2"",""5341""
""blur"",""7"",""74685""
""focus"",""7"",""78662""
""blur"",""7"",""81230""
""focus"",""7"",""84176""
""blur"",""7"",""123317""
""focus"",""7"",""125047""
","""event"",""trial"",""time""
""blur"",""7"",""74685""
""blur"",""7"",""81230""
""blur"",""7"",""123317""
","""event"",""trial"",""time""
""focus"",""7"",""78662""
""focus"",""7"",""84176""
""focus"",""7"",""125047""
","""event"",""trial"",""time""
""fullscreenenter"",""1"",""1671""
","""event"",""trial"",""time""
""fullscreenexit"",""2"",""5341""
","","","-1","","","21","4100","1267","&#9854;","elianto","#FFFFF080","-1","-1","1","&#10004","[]","0","0","1","","","","","","","",""
"pit-trial","15","235614","0.0-2.0-6.1-0.1","battery-v0.2","","""event"",""trial"",""time""
""fullscreenenter"",""1"",""1671""
""fullscreenexit"",""2"",""5341""
""blur"",""7"",""74685""
""focus"",""7"",""78662""
""blur"",""7"",""81230""
""focus"",""7"",""84176""
""blur"",""7"",""123317""
""focus"",""7"",""125047""
","""event"",""trial"",""time""
""blur"",""7"",""74685""
""blur"",""7"",""81230""
""blur"",""7"",""123317""
","""event"",""trial"",""time""
""focus"",""7"",""78662""
""focus"",""7"",""84176""
""focus"",""7"",""125047""
","""event"",""trial"",""time""
""fullscreenenter"",""1"",""1671""
","""event"",""trial"",""time""
""fullscreenexit"",""2"",""5341""
","","","-1","","","21","4100","1267","&#9854;","elianto","#FFFFF080","-1","-1","1","&#10004","[]","0","0","1","","","","","","","",""
"pit-trial","16","240483","0.0-2.0-6.2-0.2","battery-v0.2","","""event"",""trial"",""time""
""fullscreenenter"",""1"",""1671""
""fullscreenexit"",""2"",""5341""
""blur"",""7"",""74685""
""focus"",""7"",""78662""
""blur"",""7"",""81230""
""focus"",""7"",""84176""
""blur"",""7"",""123317""
""focus"",""7"",""125047""
","""event"",""trial"",""time""
""blur"",""7"",""74685""
""blur"",""7"",""81230""
""blur"",""7"",""123317""
","""event"",""trial"",""time""
""focus"",""7"",""78662""
""focus"",""7"",""84176""
""focus"",""7"",""125047""
","""event"",""trial"",""time""
""fullscreenenter"",""1"",""1671""
","""event"",""trial"",""time""
""fullscreenexit"",""2"",""5341""
","","","-1","","","21","4100","1267","&#9854;","elianto","#FFFFF080","-1","-1","1","&#10004","[]","0","0","1","","","","","","","",""
"pit-trial","17","245348","0.0-2.0-6.3-0.3","battery-v0.2","","""event"",""trial"",""time""
""fullscreenenter"",""1"",""1671""
""fullscreenexit"",""2"",""5341""
""blur"",""7"",""74685""
""focus"",""7"",""78662""
""blur"",""7"",""81230""
""focus"",""7"",""84176""
""blur"",""7"",""123317""
""focus"",""7"",""125047""
","""event"",""trial"",""time""
""blur"",""7"",""74685""
""blur"",""7"",""81230""
""blur"",""7"",""123317""
","""event"",""trial"",""time""
""focus"",""7"",""78662""
""focus"",""7"",""84176""
""focus"",""7"",""125047""
","""event"",""trial"",""time""
""fullscreenenter"",""1"",""1671""
","""event"",""trial"",""time""
""fullscreenexit"",""2"",""5341""
","","","-1","","","21","4100","1267","&#9854;","elianto","#FFFFF080","-1","-1","1","&#10004","[]","0","0","1","","","","","","","",""
"pit-trial","18","250211","0.0-2.0-6.4-0.4","battery-v0.2","","""event"",""trial"",""time""
""fullscreenenter"",""1"",""1671""
""fullscreenexit"",""2"",""5341""
""blur"",""7"",""74685""
""focus"",""7"",""78662""
""blur"",""7"",""81230""
""focus"",""7"",""84176""
""blur"",""7"",""123317""
""focus"",""7"",""125047""
""blur"",""19"",""321791""
""focus"",""19"",""323961""
","""event"",""trial"",""time""
""blur"",""7"",""74685""
""blur"",""7"",""81230""
""blur"",""7"",""123317""
""blur"",""19"",""321791""
","""event"",""trial"",""time""
""focus"",""7"",""78662""
""focus"",""7"",""84176""
""focus"",""7"",""125047""
""focus"",""19"",""323961""
","""event"",""trial"",""time""
""fullscreenenter"",""1"",""1671""
","""event"",""trial"",""time""
""fullscreenexit"",""2"",""5341""
","","","-1","","","21","4100","1267","&#9854;","elianto","#FFFFF080","-1","-1","1","&#10004","[]","0","0","1","","","","","","","",""
"pit-instructions","19","379720","0.0-2.0-7.0","battery-v0.2","","""event"",""trial"",""time""
""fullscreenenter"",""1"",""1671""
""fullscreenexit"",""2"",""5341""
""blur"",""7"",""74685""
""focus"",""7"",""78662""
""blur"",""7"",""81230""
""focus"",""7"",""84176""
""blur"",""7"",""123317""
""focus"",""7"",""125047""
""blur"",""19"",""321791""
""focus"",""19"",""323961""
","""event"",""trial"",""time""
""blur"",""7"",""74685""
""blur"",""7"",""81230""
""blur"",""7"",""123317""
""blur"",""19"",""321791""
","""event"",""trial"",""time""
""focus"",""7"",""78662""
""focus"",""7"",""84176""
""focus"",""7"",""125047""
""focus"",""19"",""323961""
","""event"",""trial"",""time""
""fullscreenenter"",""1"",""1671""
","""event"",""trial"",""time""
""fullscreenexit"",""2"",""5341""
","","[{""page_index"":0,""viewing_time"":6037.200000017881},{""page_index"":1,""viewing_time"":9341.59999999404},{""page_index"":2,""viewing_time"":7246.5},{""page_index"":3,""viewing_time"":7598.4000000059605},{""page_index"":4,""viewing_time"":10994.90000000596},{""page_index"":5,""viewing_time"":7834},{""page_index"":6,""viewing_time"":5335.5},{""page_index"":7,""viewing_time"":7507.799999982119},{""page_index"":8,""viewing_time"":6592.0999999940395},{""page_index"":9,""viewing_time"":6377.4000000059605},{""page_index"":10,""viewing_time"":7105.200000017881},{""page_index"":11,""viewing_time"":4834.199999988079},{""page_index"":12,""viewing_time"":7978.9000000059605},{""page_index"":13,""viewing_time"":6976.5999999940395},{""page_index"":14,""viewing_time"":6787.4000000059605},{""page_index"":15,""viewing_time"":6348.4000000059605},{""page_index"":16,""viewing_time"":6780.699999988079},{""page_index"":17,""viewing_time"":7826.0999999940395}]","129503.30000001192","","","","","","","","","","","","","","","","","","","","","","","",""
"pit-trial","20","383572","0.0-2.0-8.0-0.0","battery-v0.2","","""event"",""trial"",""time""
""fullscreenenter"",""1"",""1671""
""fullscreenexit"",""2"",""5341""
""blur"",""7"",""74685""
""focus"",""7"",""78662""
""blur"",""7"",""81230""
""focus"",""7"",""84176""
""blur"",""7"",""123317""
""focus"",""7"",""125047""
""blur"",""19"",""321791""
""focus"",""19"",""323961""
","""event"",""trial"",""time""
""blur"",""7"",""74685""
""blur"",""7"",""81230""
""blur"",""7"",""123317""
""blur"",""19"",""321791""
","""event"",""trial"",""time""
""focus"",""7"",""78662""
""focus"",""7"",""84176""
""focus"",""7"",""125047""
""focus"",""19"",""323961""
","""event"",""trial"",""time""
""fullscreenenter"",""1"",""1671""
","""event"",""trial"",""time""
""fullscreenexit"",""2"",""5341""
","","","994.7999999821186","","","21","4100","1267","&#9776;","elianto","#3366ff99"," "," ","1","+10","[1847.0999999940395]","1","0","1","","","","","","","",""
"pit-trial","21","387246","0.0-2.0-8.0-1.0","battery-v0.2","","""event"",""trial"",""time""
""fullscreenenter"",""1"",""1671""
""fullscreenexit"",""2"",""5341""
""blur"",""7"",""74685""
""focus"",""7"",""78662""
""blur"",""7"",""81230""
""focus"",""7"",""84176""
""blur"",""7"",""123317""
""focus"",""7"",""125047""
""blur"",""19"",""321791""
""focus"",""19"",""323961""
","""event"",""trial"",""time""
""blur"",""7"",""74685""
""blur"",""7"",""81230""
""blur"",""7"",""123317""
""blur"",""19"",""321791""
","""event"",""trial"",""time""
""focus"",""7"",""78662""
""focus"",""7"",""84176""
""focus"",""7"",""125047""
""focus"",""19"",""323961""
","""event"",""trial"",""time""
""fullscreenenter"",""1"",""1671""
","""event"",""trial"",""time""
""fullscreenexit"",""2"",""5341""
","","","814.9000000059605","","","21","4100","1267","&#9776;","elianto","#3366ff99"," "," ","1","+10","[1664.9000000059605]","1","0","1","","","","","","","",""
"pit-trial","22","390671","0.0-2.0-8.0-2.0","battery-v0.2","","""event"",""trial"",""time""
""fullscreenenter"",""1"",""1671""
""fullscreenexit"",""2"",""5341""
""blur"",""7"",""74685""
""focus"",""7"",""78662""
""blur"",""7"",""81230""
""focus"",""7"",""84176""
""blur"",""7"",""123317""
""focus"",""7"",""125047""
""blur"",""19"",""321791""
""focus"",""19"",""323961""
","""event"",""trial"",""time""
""blur"",""7"",""74685""
""blur"",""7"",""81230""
""blur"",""7"",""123317""
""blur"",""19"",""321791""
","""event"",""trial"",""time""
""focus"",""7"",""78662""
""focus"",""7"",""84176""
""focus"",""7"",""125047""
""focus"",""19"",""323961""
","""event"",""trial"",""time""
""fullscreenenter"",""1"",""1671""
","""event"",""trial"",""time""
""fullscreenexit"",""2"",""5341""
","","","557.6999999880791","","","21","4100","1267","&#9776;","elianto","#3366ff99"," "," ","1","+10","[1415.4000000059605]","1","0","1","","","","","","","",""
"pit-trial","23","393991","0.0-2.0-8.0-3.0","battery-v0.2","","""event"",""trial"",""time""
""fullscreenenter"",""1"",""1671""
""fullscreenexit"",""2"",""5341""
""blur"",""7"",""74685""
""focus"",""7"",""78662""
""blur"",""7"",""81230""
""focus"",""7"",""84176""
""blur"",""7"",""123317""
""focus"",""7"",""125047""
""blur"",""19"",""321791""
""focus"",""19"",""323961""
","""event"",""trial"",""time""
""blur"",""7"",""74685""
""blur"",""7"",""81230""
""blur"",""7"",""123317""
""blur"",""19"",""321791""
","""event"",""trial"",""time""
""focus"",""7"",""78662""
""focus"",""7"",""84176""
""focus"",""7"",""125047""
""focus"",""19"",""323961""
","""event"",""trial"",""time""
""fullscreenenter"",""1"",""1671""
","""event"",""trial"",""time""
""fullscreenexit"",""2"",""5341""
","","","454.5","","","21","4100","1267","&#9776;","elianto","#3366ff99"," "," ","1","0","[1310]","1","0","1","","","","","","","",""
"pit-trial","24","397556","0.0-2.0-8.0-4.0","battery-v0.2","","""event"",""trial"",""time""
""fullscreenenter"",""1"",""1671""
""fullscreenexit"",""2"",""5341""
""blur"",""7"",""74685""
""focus"",""7"",""78662""
""blur"",""7"",""81230""
""focus"",""7"",""84176""
""blur"",""7"",""123317""
""focus"",""7"",""125047""
""blur"",""19"",""321791""
""focus"",""19"",""323961""
","""event"",""trial"",""time""
""blur"",""7"",""74685""
""blur"",""7"",""81230""
""blur"",""7"",""123317""
""blur"",""19"",""321791""
","""event"",""trial"",""time""
""focus"",""7"",""78662""
""focus"",""7"",""84176""
""focus"",""7"",""125047""
""focus"",""19"",""323961""
","""event"",""trial"",""time""
""fullscreenenter"",""1"",""1671""
","""event"",""trial"",""time""
""fullscreenexit"",""2"",""5341""
","","","700.8000000119209","","","21","4100","1267","&#9776;","elianto","#3366ff99"," "," ","1","+10","[1554.5]","1","0","1","","","","","","","",""
"pit-trial","25","401172","0.0-2.0-8.1-0.1","battery-v0.2","","""event"",""trial"",""time""
""fullscreenenter"",""1"",""1671""
""fullscreenexit"",""2"",""5341""
""blur"",""7"",""74685""
""focus"",""7"",""78662""
""blur"",""7"",""81230""
""focus"",""7"",""84176""
""blur"",""7"",""123317""
""focus"",""7"",""125047""
""blur"",""19"",""321791""
""focus"",""19"",""323961""
","""event"",""trial"",""time""
""blur"",""7"",""74685""
""blur"",""7"",""81230""
""blur"",""7"",""123317""
""blur"",""19"",""321791""
","""event"",""trial"",""time""
""focus"",""7"",""78662""
""focus"",""7"",""84176""
""focus"",""7"",""125047""
""focus"",""19"",""323961""
","""event"",""trial"",""time""
""fullscreenenter"",""1"",""1671""
","""event"",""trial"",""time""
""fullscreenexit"",""2"",""5341""
","","","753.0999999940395","","","21","4100","1267","&#9776;","elianto","#3366ff99"," "," ","1","+10","[1605.7999999821186]","1","0","1","","","","","","","",""
"pit-trial","26","404644","0.0-2.0-8.1-1.1","battery-v0.2","","""event"",""trial"",""time""
""fullscreenenter"",""1"",""1671""
""fullscreenexit"",""2"",""5341""
""blur"",""7"",""74685""
""focus"",""7"",""78662""
""blur"",""7"",""81230""
""focus"",""7"",""84176""
""blur"",""7"",""123317""
""focus"",""7"",""125047""
""blur"",""19"",""321791""
""focus"",""19"",""323961""
","""event"",""trial"",""time""
""blur"",""7"",""74685""
""blur"",""7"",""81230""
""blur"",""7"",""123317""
""blur"",""19"",""321791""
","""event"",""trial"",""time""
""focus"",""7"",""78662""
""focus"",""7"",""84176""
""focus"",""7"",""125047""
""focus"",""19"",""323961""
","""event"",""trial"",""time""
""fullscreenenter"",""1"",""1671""
","""event"",""trial"",""time""
""fullscreenexit"",""2"",""5341""
","","","606","","","21","4100","1267","&#9776;","elianto","#3366ff99"," "," ","1","+10","[1461.5]","1","0","1","","","","","","","",""
"pit-trial","27","407941","0.0-2.0-8.1-2.1","battery-v0.2","","""event"",""trial"",""time""
""fullscreenenter"",""1"",""1671""
""fullscreenexit"",""2"",""5341""
""blur"",""7"",""74685""
""focus"",""7"",""78662""
""blur"",""7"",""81230""
""focus"",""7"",""84176""
""blur"",""7"",""123317""
""focus"",""7"",""125047""
""blur"",""19"",""321791""
""focus"",""19"",""323961""
","""event"",""trial"",""time""
""blur"",""7"",""74685""
""blur"",""7"",""81230""
""blur"",""7"",""123317""
""blur"",""19"",""321791""
","""event"",""trial"",""time""
""focus"",""7"",""78662""
""focus"",""7"",""84176""
""focus"",""7"",""125047""
""focus"",""19"",""323961""
","""event"",""trial"",""time""
""fullscreenenter"",""1"",""1671""
","""event"",""trial"",""time""
""fullscreenexit"",""2"",""5341""
","","","431.5","","","21","4100","1267","&#9776;","elianto","#3366ff99"," "," ","1","+10","[1287.0999999940395]","1","0","1","","","","","","","",""
"pit-trial","28","411199","0.0-2.0-8.1-3.1","battery-v0.2","","""event"",""trial"",""time""
""fullscreenenter"",""1"",""1671""
""fullscreenexit"",""2"",""5341""
""blur"",""7"",""74685""
""focus"",""7"",""78662""
""blur"",""7"",""81230""
""focus"",""7"",""84176""
""blur"",""7"",""123317""
""focus"",""7"",""125047""
""blur"",""19"",""321791""
""focus"",""19"",""323961""
","""event"",""trial"",""time""
""blur"",""7"",""74685""
""blur"",""7"",""81230""
""blur"",""7"",""123317""
""blur"",""19"",""321791""
","""event"",""trial"",""time""
""focus"",""7"",""78662""
""focus"",""7"",""84176""
""focus"",""7"",""125047""
""focus"",""19"",""323961""
","""event"",""trial"",""time""
""fullscreenenter"",""1"",""1671""
","""event"",""trial"",""time""
""fullscreenexit"",""2"",""5341""
","","","394.09999999403954","","","21","4100","1267","&#9776;","elianto","#3366ff99"," "," ","1","0","[1247.0999999940395]","1","0","1","","","","","","","",""
"pit-trial","29","414319","0.0-2.0-8.1-4.1","battery-v0.2","","""event"",""trial"",""time""
""fullscreenenter"",""1"",""1671""
""fullscreenexit"",""2"",""5341""
""blur"",""7"",""74685""
""focus"",""7"",""78662""
""blur"",""7"",""81230""
""focus"",""7"",""84176""
""blur"",""7"",""123317""
""focus"",""7"",""125047""
""blur"",""19"",""321791""
""focus"",""19"",""323961""
","""event"",""trial"",""time""
""blur"",""7"",""74685""
""blur"",""7"",""81230""
""blur"",""7"",""123317""
""blur"",""19"",""321791""
","""event"",""trial"",""time""
""focus"",""7"",""78662""
""focus"",""7"",""84176""
""focus"",""7"",""125047""
""focus"",""19"",""323961""
","""event"",""trial"",""time""
""fullscreenenter"",""1"",""1671""
","""event"",""trial"",""time""
""fullscreenexit"",""2"",""5341""
","","","245","","","21","4100","1267","&#9776;","elianto","#3366ff99"," "," ","1","+10","[1103.4000000059605]","1","0","1","","","","","","","",""
"pit-trial","30","417615","0.0-2.0-8.2-0.2","battery-v0.2","","""event"",""trial"",""time""
""fullscreenenter"",""1"",""1671""
""fullscreenexit"",""2"",""5341""
""blur"",""7"",""74685""
""focus"",""7"",""78662""
""blur"",""7"",""81230""
""focus"",""7"",""84176""
""blur"",""7"",""123317""
""focus"",""7"",""125047""
""blur"",""19"",""321791""
""focus"",""19"",""323961""
","""event"",""trial"",""time""
""blur"",""7"",""74685""
""blur"",""7"",""81230""
""blur"",""7"",""123317""
""blur"",""19"",""321791""
","""event"",""trial"",""time""
""focus"",""7"",""78662""
""focus"",""7"",""84176""
""focus"",""7"",""125047""
""focus"",""19"",""323961""
","""event"",""trial"",""time""
""fullscreenenter"",""1"",""1671""
","""event"",""trial"",""time""
""fullscreenexit"",""2"",""5341""
","","","421.09999999403954","","","21","4100","1267","&#9776;","elianto","#3366ff99"," "," ","1","+10","[1280.0999999940395]","1","0","1","","","","","","","",""
"pit-trial","31","420948","0.0-2.0-8.2-1.2","battery-v0.2","","""event"",""trial"",""time""
""fullscreenenter"",""1"",""1671""
""fullscreenexit"",""2"",""5341""
""blur"",""7"",""74685""
""focus"",""7"",""78662""
""blur"",""7"",""81230""
""focus"",""7"",""84176""
""blur"",""7"",""123317""
""focus"",""7"",""125047""
""blur"",""19"",""321791""
""focus"",""19"",""323961""
","""event"",""trial"",""time""
""blur"",""7"",""74685""
""blur"",""7"",""81230""
""blur"",""7"",""123317""
""blur"",""19"",""321791""
","""event"",""trial"",""time""
""focus"",""7"",""78662""
""focus"",""7"",""84176""
""focus"",""7"",""125047""
""focus"",""19"",""323961""
","""event"",""trial"",""time""
""fullscreenenter"",""1"",""1671""
","""event"",""trial"",""time""
""fullscreenexit"",""2"",""5341""
","","","466.5","","","21","4100","1267","&#9776;","elianto","#3366ff99"," "," ","1","+10","[1325.7999999821186]","1","0","1","","","","","","","",""
"pit-trial","32","424340","0.0-2.0-8.2-2.2","battery-v0.2","","""event"",""trial"",""time""
""fullscreenenter"",""1"",""1671""
""fullscreenexit"",""2"",""5341""
""blur"",""7"",""74685""
""focus"",""7"",""78662""
""blur"",""7"",""81230""
""focus"",""7"",""84176""
""blur"",""7"",""123317""
""focus"",""7"",""125047""
""blur"",""19"",""321791""
""focus"",""19"",""323961""
","""event"",""trial"",""time""
""blur"",""7"",""74685""
""blur"",""7"",""81230""
""blur"",""7"",""123317""
""blur"",""19"",""321791""
","""event"",""trial"",""time""
""focus"",""7"",""78662""
""focus"",""7"",""84176""
""focus"",""7"",""125047""
""focus"",""19"",""323961""
","""event"",""trial"",""time""
""fullscreenenter"",""1"",""1671""
","""event"",""trial"",""time""
""fullscreenexit"",""2"",""5341""
","","","529.6000000238419","","","21","4100","1267","&#9776;","elianto","#3366ff99"," "," ","1","+10","[1386.6000000238419]","1","0","1","","","","","","","",""
"pit-trial","33","427572","0.0-2.0-8.2-3.2","battery-v0.2","","""event"",""trial"",""time""
""fullscreenenter"",""1"",""1671""
""fullscreenexit"",""2"",""5341""
""blur"",""7"",""74685""
""focus"",""7"",""78662""
""blur"",""7"",""81230""
""focus"",""7"",""84176""
""blur"",""7"",""123317""
""focus"",""7"",""125047""
""blur"",""19"",""321791""
""focus"",""19"",""323961""
","""event"",""trial"",""time""
""blur"",""7"",""74685""
""blur"",""7"",""81230""
""blur"",""7"",""123317""
""blur"",""19"",""321791""
","""event"",""trial"",""time""
""focus"",""7"",""78662""
""focus"",""7"",""84176""
""focus"",""7"",""125047""
""focus"",""19"",""323961""
","""event"",""trial"",""time""
""fullscreenenter"",""1"",""1671""
","""event"",""trial"",""time""
""fullscreenexit"",""2"",""5341""
","","","372.5","","","21","4100","1267","&#9776;","elianto","#3366ff99"," "," ","1","0","[1226.699999988079]","1","0","1","","","","","","","",""
"pit-trial","34","430885","0.0-2.0-8.2-4.2","battery-v0.2","","""event"",""trial"",""time""
""fullscreenenter"",""1"",""1671""
""fullscreenexit"",""2"",""5341""
""blur"",""7"",""74685""
""focus"",""7"",""78662""
""blur"",""7"",""81230""
""focus"",""7"",""84176""
""blur"",""7"",""123317""
""focus"",""7"",""125047""
""blur"",""19"",""321791""
""focus"",""19"",""323961""
","""event"",""trial"",""time""
""blur"",""7"",""74685""
""blur"",""7"",""81230""
""blur"",""7"",""123317""
""blur"",""19"",""321791""
","""event"",""trial"",""time""
""focus"",""7"",""78662""
""focus"",""7"",""84176""
""focus"",""7"",""125047""
""focus"",""19"",""323961""
","""event"",""trial"",""time""
""fullscreenenter"",""1"",""1671""
","""event"",""trial"",""time""
""fullscreenexit"",""2"",""5341""
","","","454.80000001192093","","","21","4100","1267","&#9776;","elianto","#3366ff99"," "," ","1","+10","[1305.5]","1","0","1","","","","","","","",""
"call-function","35","430888","0.0-2.0-9.0","battery-v0.2","","""event"",""trial"",""time""
""fullscreenenter"",""1"",""1671""
""fullscreenexit"",""2"",""5341""
""blur"",""7"",""74685""
""focus"",""7"",""78662""
""blur"",""7"",""81230""
""focus"",""7"",""84176""
""blur"",""7"",""123317""
""focus"",""7"",""125047""
""blur"",""19"",""321791""
""focus"",""19"",""323961""
","""event"",""trial"",""time""
""blur"",""7"",""74685""
""blur"",""7"",""81230""
""blur"",""7"",""123317""
""blur"",""19"",""321791""
","""event"",""trial"",""time""
""focus"",""7"",""78662""
""focus"",""7"",""84176""
""focus"",""7"",""125047""
""focus"",""19"",""323961""
","""event"",""trial"",""time""
""fullscreenenter"",""1"",""1671""
","""event"",""trial"",""time""
""fullscreenexit"",""2"",""5341""
","","","","","","","","","","","","","","","","","","","","","","","","","","",""
"pit-instructions","36","472666","0.0-2.0-10.0","battery-v0.2","","""event"",""trial"",""time""
""fullscreenenter"",""1"",""1671""
""fullscreenexit"",""2"",""5341""
""blur"",""7"",""74685""
""focus"",""7"",""78662""
""blur"",""7"",""81230""
""focus"",""7"",""84176""
""blur"",""7"",""123317""
""focus"",""7"",""125047""
""blur"",""19"",""321791""
""focus"",""19"",""323961""
","""event"",""trial"",""time""
""blur"",""7"",""74685""
""blur"",""7"",""81230""
""blur"",""7"",""123317""
""blur"",""19"",""321791""
","""event"",""trial"",""time""
""focus"",""7"",""78662""
""focus"",""7"",""84176""
""focus"",""7"",""125047""
""focus"",""19"",""323961""
","""event"",""trial"",""time""
""fullscreenenter"",""1"",""1671""
","""event"",""trial"",""time""
""fullscreenexit"",""2"",""5341""
","","[{""page_index"":0,""viewing_time"":6339},{""page_index"":1,""viewing_time"":6710.699999988079},{""page_index"":2,""viewing_time"":11244.100000023842},{""page_index"":3,""viewing_time"":9250.699999988079},{""page_index"":4,""viewing_time"":8231.40000000596}]","41776.59999999404","","","","","","","","","","","","","","","","","","","","","","","",""
"pit-trial","37","476975","0.0-2.0-11.0-0.0","battery-v0.2","","""event"",""trial"",""time""
""fullscreenenter"",""1"",""1671""
""fullscreenexit"",""2"",""5341""
""blur"",""7"",""74685""
""focus"",""7"",""78662""
""blur"",""7"",""81230""
""focus"",""7"",""84176""
""blur"",""7"",""123317""
""focus"",""7"",""125047""
""blur"",""19"",""321791""
""focus"",""19"",""323961""
","""event"",""trial"",""time""
""blur"",""7"",""74685""
""blur"",""7"",""81230""
""blur"",""7"",""123317""
""blur"",""19"",""321791""
","""event"",""trial"",""time""
""focus"",""7"",""78662""
""focus"",""7"",""84176""
""focus"",""7"",""125047""
""focus"",""19"",""323961""
","""event"",""trial"",""time""
""fullscreenenter"",""1"",""1671""
","""event"",""trial"",""time""
""fullscreenexit"",""2"",""5341""
","","","1441.5999999940395","","","21","4100","1267","&#9761;","elianto","#3366ff99","-1"," ","0","0","[2297]","1","0","2","","","","","","","",""
"pit-trial","38","480063","0.0-2.0-11.0-1.0","battery-v0.2","","""event"",""trial"",""time""
""fullscreenenter"",""1"",""1671""
""fullscreenexit"",""2"",""5341""
""blur"",""7"",""74685""
""focus"",""7"",""78662""
""blur"",""7"",""81230""
""focus"",""7"",""84176""
""blur"",""7"",""123317""
""focus"",""7"",""125047""
""blur"",""19"",""321791""
""focus"",""19"",""323961""
","""event"",""trial"",""time""
""blur"",""7"",""74685""
""blur"",""7"",""81230""
""blur"",""7"",""123317""
""blur"",""19"",""321791""
","""event"",""trial"",""time""
""focus"",""7"",""78662""
""focus"",""7"",""84176""
""focus"",""7"",""125047""
""focus"",""19"",""323961""
","""event"",""trial"",""time""
""fullscreenenter"",""1"",""1671""
","""event"",""trial"",""time""
""fullscreenexit"",""2"",""5341""
","","","224.19999998807907","","","21","4100","1267","&#9761;","elianto","#3366ff99","-1"," ","0","0","[1079.9000000059605]","1","0","2","","","","","","","",""
"pit-trial","39","484936","0.0-2.0-11.0-2.0","battery-v0.2","","""event"",""trial"",""time""
""fullscreenenter"",""1"",""1671""
""fullscreenexit"",""2"",""5341""
""blur"",""7"",""74685""
""focus"",""7"",""78662""
""blur"",""7"",""81230""
""focus"",""7"",""84176""
""blur"",""7"",""123317""
""focus"",""7"",""125047""
""blur"",""19"",""321791""
""focus"",""19"",""323961""
","""event"",""trial"",""time""
""blur"",""7"",""74685""
""blur"",""7"",""81230""
""blur"",""7"",""123317""
""blur"",""19"",""321791""
","""event"",""trial"",""time""
""focus"",""7"",""78662""
""focus"",""7"",""84176""
""focus"",""7"",""125047""
""focus"",""19"",""323961""
","""event"",""trial"",""time""
""fullscreenenter"",""1"",""1671""
","""event"",""trial"",""time""
""fullscreenexit"",""2"",""5341""
","","","-1","","","21","4100","1267","&#9761;","elianto","#3366ff99","-1","-1","1","+10","[]","0","0","2","","","","","","","",""
"pit-trial","40","489804","0.0-2.0-11.0-3.0","battery-v0.2","","""event"",""trial"",""time""
""fullscreenenter"",""1"",""1671""
""fullscreenexit"",""2"",""5341""
""blur"",""7"",""74685""
""focus"",""7"",""78662""
""blur"",""7"",""81230""
""focus"",""7"",""84176""
""blur"",""7"",""123317""
""focus"",""7"",""125047""
""blur"",""19"",""321791""
""focus"",""19"",""323961""
","""event"",""trial"",""time""
""blur"",""7"",""74685""
""blur"",""7"",""81230""
""blur"",""7"",""123317""
""blur"",""19"",""321791""
","""event"",""trial"",""time""
""focus"",""7"",""78662""
""focus"",""7"",""84176""
""focus"",""7"",""125047""
""focus"",""19"",""323961""
","""event"",""trial"",""time""
""fullscreenenter"",""1"",""1671""
","""event"",""trial"",""time""
""fullscreenexit"",""2"",""5341""
","","","-1","","","21","4100","1267","&#9761;","elianto","#3366ff99","-1","-1","1","0","[]","0","0","2","","","","","","","",""
"pit-trial","41","494673","0.0-2.0-11.0-4.0","battery-v0.2","","""event"",""trial"",""time""
""fullscreenenter"",""1"",""1671""
""fullscreenexit"",""2"",""5341""
""blur"",""7"",""74685""
""focus"",""7"",""78662""
""blur"",""7"",""81230""
""focus"",""7"",""84176""
""blur"",""7"",""123317""
""focus"",""7"",""125047""
""blur"",""19"",""321791""
""focus"",""19"",""323961""
","""event"",""trial"",""time""
""blur"",""7"",""74685""
""blur"",""7"",""81230""
""blur"",""7"",""123317""
""blur"",""19"",""321791""
","""event"",""trial"",""time""
""focus"",""7"",""78662""
""focus"",""7"",""84176""
""focus"",""7"",""125047""
""focus"",""19"",""323961""
","""event"",""trial"",""time""
""fullscreenenter"",""1"",""1671""
","""event"",""trial"",""time""
""fullscreenexit"",""2"",""5341""
","","","-1","","","21","4100","1267","&#9761;","elianto","#3366ff99","-1","-1","1","+10","[]","0","0","2","","","","","","","",""
"pit-trial","42","497765","0.0-2.0-11.1-0.1","battery-v0.2","","""event"",""trial"",""time""
""fullscreenenter"",""1"",""1671""
""fullscreenexit"",""2"",""5341""
""blur"",""7"",""74685""
""focus"",""7"",""78662""
""blur"",""7"",""81230""
""focus"",""7"",""84176""
""blur"",""7"",""123317""
""focus"",""7"",""125047""
""blur"",""19"",""321791""
""focus"",""19"",""323961""
","""event"",""trial"",""time""
""blur"",""7"",""74685""
""blur"",""7"",""81230""
""blur"",""7"",""123317""
""blur"",""19"",""321791""
","""event"",""trial"",""time""
""focus"",""7"",""78662""
""focus"",""7"",""84176""
""focus"",""7"",""125047""
""focus"",""19"",""323961""
","""event"",""trial"",""time""
""fullscreenenter"",""1"",""1671""
","""event"",""trial"",""time""
""fullscreenexit"",""2"",""5341""
","","","232","","","21","4100","1267","&#9761;","elianto","#3366ff99","-1"," ","0","0","[1086.0999999940395]","1","0","2","","","","","","","",""
"pit-trial","43","500783","0.0-2.0-11.1-1.1","battery-v0.2","","""event"",""trial"",""time""
""fullscreenenter"",""1"",""1671""
""fullscreenexit"",""2"",""5341""
""blur"",""7"",""74685""
""focus"",""7"",""78662""
""blur"",""7"",""81230""
""focus"",""7"",""84176""
""blur"",""7"",""123317""
""focus"",""7"",""125047""
""blur"",""19"",""321791""
""focus"",""19"",""323961""
","""event"",""trial"",""time""
""blur"",""7"",""74685""
""blur"",""7"",""81230""
""blur"",""7"",""123317""
""blur"",""19"",""321791""
","""event"",""trial"",""time""
""focus"",""7"",""78662""
""focus"",""7"",""84176""
""focus"",""7"",""125047""
""focus"",""19"",""323961""
","""event"",""trial"",""time""
""fullscreenenter"",""1"",""1671""
","""event"",""trial"",""time""
""fullscreenexit"",""2"",""5341""
","","","150.39999997615814","","","21","4100","1267","&#9761;","elianto","#3366ff99","-1"," ","0","0","[1004.5999999940395]","1","0","2","","","","","","","",""
"pit-trial","44","504165","0.0-2.0-11.1-2.1","battery-v0.2","","""event"",""trial"",""time""
""fullscreenenter"",""1"",""1671""
""fullscreenexit"",""2"",""5341""
""blur"",""7"",""74685""
""focus"",""7"",""78662""
""blur"",""7"",""81230""
""focus"",""7"",""84176""
""blur"",""7"",""123317""
""focus"",""7"",""125047""
""blur"",""19"",""321791""
""focus"",""19"",""323961""
","""event"",""trial"",""time""
""blur"",""7"",""74685""
""blur"",""7"",""81230""
""blur"",""7"",""123317""
""blur"",""19"",""321791""
","""event"",""trial"",""time""
""focus"",""7"",""78662""
""focus"",""7"",""84176""
""focus"",""7"",""125047""
""focus"",""19"",""323961""
","""event"",""trial"",""time""
""fullscreenenter"",""1"",""1671""
","""event"",""trial"",""time""
""fullscreenexit"",""2"",""5341""
","","","514.2999999821186","","","21","4100","1267","&#9761;","elianto","#3366ff99","-1"," ","0","0","[1373]","1","0","2","","","","","","","",""
"pit-trial","45","507407","0.0-2.0-11.1-3.1","battery-v0.2","","""event"",""trial"",""time""
""fullscreenenter"",""1"",""1671""
""fullscreenexit"",""2"",""5341""
""blur"",""7"",""74685""
""focus"",""7"",""78662""
""blur"",""7"",""81230""
""focus"",""7"",""84176""
""blur"",""7"",""123317""
""focus"",""7"",""125047""
""blur"",""19"",""321791""
""focus"",""19"",""323961""
","""event"",""trial"",""time""
""blur"",""7"",""74685""
""blur"",""7"",""81230""
""blur"",""7"",""123317""
""blur"",""19"",""321791""
","""event"",""trial"",""time""
""focus"",""7"",""78662""
""focus"",""7"",""84176""
""focus"",""7"",""125047""
""focus"",""19"",""323961""
","""event"",""trial"",""time""
""fullscreenenter"",""1"",""1671""
","""event"",""trial"",""time""
""fullscreenexit"",""2"",""5341""
","","","379.7000000178814","","","21","4100","1267","&#9761;","elianto","#3366ff99","-1"," ","0","+10","[1234.5999999940395]","1","0","2","","","","","","","",""
"pit-trial","46","510549","0.0-2.0-11.1-4.1","battery-v0.2","","""event"",""trial"",""time""
""fullscreenenter"",""1"",""1671""
""fullscreenexit"",""2"",""5341""
""blur"",""7"",""74685""
""focus"",""7"",""78662""
""blur"",""7"",""81230""
""focus"",""7"",""84176""
""blur"",""7"",""123317""
""focus"",""7"",""125047""
""blur"",""19"",""321791""
""focus"",""19"",""323961""
","""event"",""trial"",""time""
""blur"",""7"",""74685""
""blur"",""7"",""81230""
""blur"",""7"",""123317""
""blur"",""19"",""321791""
","""event"",""trial"",""time""
""focus"",""7"",""78662""
""focus"",""7"",""84176""
""focus"",""7"",""125047""
""focus"",""19"",""323961""
","""event"",""trial"",""time""
""fullscreenenter"",""1"",""1671""
","""event"",""trial"",""time""
""fullscreenexit"",""2"",""5341""
","","","279.80000001192093","","","21","4100","1267","&#9761;","elianto","#3366ff99","-1"," ","0","0","[1131.699999988079]","1","0","2","","","","","","","",""
"pit-trial","47","514013","0.0-2.0-11.2-0.2","battery-v0.2","","""event"",""trial"",""time""
""fullscreenenter"",""1"",""1671""
""fullscreenexit"",""2"",""5341""
""blur"",""7"",""74685""
""focus"",""7"",""78662""
""blur"",""7"",""81230""
""focus"",""7"",""84176""
""blur"",""7"",""123317""
""focus"",""7"",""125047""
""blur"",""19"",""321791""
""focus"",""19"",""323961""
","""event"",""trial"",""time""
""blur"",""7"",""74685""
""blur"",""7"",""81230""
""blur"",""7"",""123317""
""blur"",""19"",""321791""
","""event"",""trial"",""time""
""focus"",""7"",""78662""
""focus"",""7"",""84176""
""focus"",""7"",""125047""
""focus"",""19"",""323961""
","""event"",""trial"",""time""
""fullscreenenter"",""1"",""1671""
","""event"",""trial"",""time""
""fullscreenexit"",""2"",""5341""
","","","599.1999999880791","","","21","4100","1267","&#9761;","elianto","#3366ff99","-1"," ","0","0","[1453.8999999761581]","1","0","2","","","","","","","",""
"pit-trial","48","517142","0.0-2.0-11.2-1.2","battery-v0.2","","""event"",""trial"",""time""
""fullscreenenter"",""1"",""1671""
""fullscreenexit"",""2"",""5341""
""blur"",""7"",""74685""
""focus"",""7"",""78662""
""blur"",""7"",""81230""
""focus"",""7"",""84176""
""blur"",""7"",""123317""
""focus"",""7"",""125047""
""blur"",""19"",""321791""
""focus"",""19"",""323961""
","""event"",""trial"",""time""
""blur"",""7"",""74685""
""blur"",""7"",""81230""
""blur"",""7"",""123317""
""blur"",""19"",""321791""
","""event"",""trial"",""time""
""focus"",""7"",""78662""
""focus"",""7"",""84176""
""focus"",""7"",""125047""
""focus"",""19"",""323961""
","""event"",""trial"",""time""
""fullscreenenter"",""1"",""1671""
","""event"",""trial"",""time""
""fullscreenexit"",""2"",""5341""
","","","261.80000001192093","","","21","4100","1267","&#9761;","elianto","#3366ff99","-1"," ","0","0","[1114.6000000238419]","1","0","2","","","","","","","",""
"pit-trial","49","520113","0.0-2.0-11.2-2.2","battery-v0.2","","""event"",""trial"",""time""
""fullscreenenter"",""1"",""1671""
""fullscreenexit"",""2"",""5341""
""blur"",""7"",""74685""
""focus"",""7"",""78662""
""blur"",""7"",""81230""
""focus"",""7"",""84176""
""blur"",""7"",""123317""
""focus"",""7"",""125047""
""blur"",""19"",""321791""
""focus"",""19"",""323961""
","""event"",""trial"",""time""
""blur"",""7"",""74685""
""blur"",""7"",""81230""
""blur"",""7"",""123317""
""blur"",""19"",""321791""
","""event"",""trial"",""time""
""focus"",""7"",""78662""
""focus"",""7"",""84176""
""focus"",""7"",""125047""
""focus"",""19"",""323961""
","""event"",""trial"",""time""
""fullscreenenter"",""1"",""1671""
","""event"",""trial"",""time""
""fullscreenexit"",""2"",""5341""
","","","105.60000002384186","","","21","4100","1267","&#9761;","elianto","#3366ff99","-1"," ","0","0","[958]","1","0","2","","","","","","","",""
"pit-trial","50","523125","0.0-2.0-11.2-3.2","battery-v0.2","","""event"",""trial"",""time""
""fullscreenenter"",""1"",""1671""
""fullscreenexit"",""2"",""5341""
""blur"",""7"",""74685""
""focus"",""7"",""78662""
""blur"",""7"",""81230""
""focus"",""7"",""84176""
""blur"",""7"",""123317""
""focus"",""7"",""125047""
""blur"",""19"",""321791""
""focus"",""19"",""323961""
","""event"",""trial"",""time""
""blur"",""7"",""74685""
""blur"",""7"",""81230""
""blur"",""7"",""123317""
""blur"",""19"",""321791""
","""event"",""trial"",""time""
""focus"",""7"",""78662""
""focus"",""7"",""84176""
""focus"",""7"",""125047""
""focus"",""19"",""323961""
","""event"",""trial"",""time""
""fullscreenenter"",""1"",""1671""
","""event"",""trial"",""time""
""fullscreenexit"",""2"",""5341""
","","","152.59999999403954","","","21","4100","1267","&#9761;","elianto","#3366ff99","-1"," ","0","+10","[1007]","1","0","2","","","","","","","",""
"pit-trial","51","526181","0.0-2.0-11.2-4.2","battery-v0.2","","""event"",""trial"",""time""
""fullscreenenter"",""1"",""1671""
""fullscreenexit"",""2"",""5341""
""blur"",""7"",""74685""
""focus"",""7"",""78662""
""blur"",""7"",""81230""
""focus"",""7"",""84176""
""blur"",""7"",""123317""
""focus"",""7"",""125047""
""blur"",""19"",""321791""
""focus"",""19"",""323961""
","""event"",""trial"",""time""
""blur"",""7"",""74685""
""blur"",""7"",""81230""
""blur"",""7"",""123317""
""blur"",""19"",""321791""
","""event"",""trial"",""time""
""focus"",""7"",""78662""
""focus"",""7"",""84176""
""focus"",""7"",""125047""
""focus"",""19"",""323961""
","""event"",""trial"",""time""
""fullscreenenter"",""1"",""1671""
","""event"",""trial"",""time""
""fullscreenexit"",""2"",""5341""
","","","192.19999998807907","","","21","4100","1267","&#9761;","elianto","#3366ff99","-1"," ","0","0","[1047.5999999940395]","1","0","2","","","","","","","",""
"pit-trial","52","529295","0.0-2.0-11.3-0.3","battery-v0.2","","""event"",""trial"",""time""
""fullscreenenter"",""1"",""1671""
""fullscreenexit"",""2"",""5341""
""blur"",""7"",""74685""
""focus"",""7"",""78662""
""blur"",""7"",""81230""
""focus"",""7"",""84176""
""blur"",""7"",""123317""
""focus"",""7"",""125047""
""blur"",""19"",""321791""
""focus"",""19"",""323961""
","""event"",""trial"",""time""
""blur"",""7"",""74685""
""blur"",""7"",""81230""
""blur"",""7"",""123317""
""blur"",""19"",""321791""
","""event"",""trial"",""time""
""focus"",""7"",""78662""
""focus"",""7"",""84176""
""focus"",""7"",""125047""
""focus"",""19"",""323961""
","""event"",""trial"",""time""
""fullscreenenter"",""1"",""1671""
","""event"",""trial"",""time""
""fullscreenexit"",""2"",""5341""
","","","246.59999999403954","","","21","4100","1267","&#9761;","elianto","#3366ff99","-1"," ","0","0","[1100.4000000059605]","1","0","2","","","","","","","",""
"pit-trial","53","532309","0.0-2.0-11.3-1.3","battery-v0.2","","""event"",""trial"",""time""
""fullscreenenter"",""1"",""1671""
""fullscreenexit"",""2"",""5341""
""blur"",""7"",""74685""
""focus"",""7"",""78662""
""blur"",""7"",""81230""
""focus"",""7"",""84176""
""blur"",""7"",""123317""
""focus"",""7"",""125047""
""blur"",""19"",""321791""
""focus"",""19"",""323961""
","""event"",""trial"",""time""
""blur"",""7"",""74685""
""blur"",""7"",""81230""
""blur"",""7"",""123317""
""blur"",""19"",""321791""
","""event"",""trial"",""time""
""focus"",""7"",""78662""
""focus"",""7"",""84176""
""focus"",""7"",""125047""
""focus"",""19"",""323961""
","""event"",""trial"",""time""
""fullscreenenter"",""1"",""1671""
","""event"",""trial"",""time""
""fullscreenexit"",""2"",""5341""
","","","150.09999999403954","","","21","4100","1267","&#9761;","elianto","#3366ff99","-1"," ","0","0","[1006.3000000119209]","1","0","2","","","","","","","",""
"pit-trial","54","535237","0.0-2.0-11.3-2.3","battery-v0.2","","""event"",""trial"",""time""
""fullscreenenter"",""1"",""1671""
""fullscreenexit"",""2"",""5341""
""blur"",""7"",""74685""
""focus"",""7"",""78662""
""blur"",""7"",""81230""
""focus"",""7"",""84176""
""blur"",""7"",""123317""
""focus"",""7"",""125047""
""blur"",""19"",""321791""
""focus"",""19"",""323961""
","""event"",""trial"",""time""
""blur"",""7"",""74685""
""blur"",""7"",""81230""
""blur"",""7"",""123317""
""blur"",""19"",""321791""
","""event"",""trial"",""time""
""focus"",""7"",""78662""
""focus"",""7"",""84176""
""focus"",""7"",""125047""
""focus"",""19"",""323961""
","""event"",""trial"",""time""
""fullscreenenter"",""1"",""1671""
","""event"",""trial"",""time""
""fullscreenexit"",""2"",""5341""
","","","65.59999999403954","","","21","4100","1267","&#9761;","elianto","#3366ff99","-1"," ","0","0","[918.7999999821186]","1","0","2","","","","","","","",""
"pit-trial","55","538293","0.0-2.0-11.3-3.3","battery-v0.2","","""event"",""trial"",""time""
""fullscreenenter"",""1"",""1671""
""fullscreenexit"",""2"",""5341""
""blur"",""7"",""74685""
""focus"",""7"",""78662""
""blur"",""7"",""81230""
""focus"",""7"",""84176""
""blur"",""7"",""123317""
""focus"",""7"",""125047""
""blur"",""19"",""321791""
""focus"",""19"",""323961""
","""event"",""trial"",""time""
""blur"",""7"",""74685""
""blur"",""7"",""81230""
""blur"",""7"",""123317""
""blur"",""19"",""321791""
","""event"",""trial"",""time""
""focus"",""7"",""78662""
""focus"",""7"",""84176""
""focus"",""7"",""125047""
""focus"",""19"",""323961""
","""event"",""trial"",""time""
""fullscreenenter"",""1"",""1671""
","""event"",""trial"",""time""
""fullscreenexit"",""2"",""5341""
","","","187.59999999403954","","","21","4100","1267","&#9761;","elianto","#3366ff99","-1"," ","0","+10","[1048.5]","1","0","2","","","","","","","",""
"pit-trial","56","541376","0.0-2.0-11.3-4.3","battery-v0.2","","""event"",""trial"",""time""
""fullscreenenter"",""1"",""1671""
""fullscreenexit"",""2"",""5341""
""blur"",""7"",""74685""
""focus"",""7"",""78662""
""blur"",""7"",""81230""
""focus"",""7"",""84176""
""blur"",""7"",""123317""
""focus"",""7"",""125047""
""blur"",""19"",""321791""
""focus"",""19"",""323961""
","""event"",""trial"",""time""
""blur"",""7"",""74685""
""blur"",""7"",""81230""
""blur"",""7"",""123317""
""blur"",""19"",""321791""
","""event"",""trial"",""time""
""focus"",""7"",""78662""
""focus"",""7"",""84176""
""focus"",""7"",""125047""
""focus"",""19"",""323961""
","""event"",""trial"",""time""
""fullscreenenter"",""1"",""1671""
","""event"",""trial"",""time""
""fullscreenexit"",""2"",""5341""
","","","216.90000000596046","","","21","4100","1267","&#9761;","elianto","#3366ff99","-1"," ","0","0","[1072.300000011921]","1","0","2","","","","","","","",""
"call-function","57","541379","0.0-2.0-12.0","battery-v0.2","","""event"",""trial"",""time""
""fullscreenenter"",""1"",""1671""
""fullscreenexit"",""2"",""5341""
""blur"",""7"",""74685""
""focus"",""7"",""78662""
""blur"",""7"",""81230""
""focus"",""7"",""84176""
""blur"",""7"",""123317""
""focus"",""7"",""125047""
""blur"",""19"",""321791""
""focus"",""19"",""323961""
""blur"",""58"",""542618""
""focus"",""58"",""568570""
","""event"",""trial"",""time""
""blur"",""7"",""74685""
""blur"",""7"",""81230""
""blur"",""7"",""123317""
""blur"",""19"",""321791""
""blur"",""58"",""542618""
","""event"",""trial"",""time""
""focus"",""7"",""78662""
""focus"",""7"",""84176""
""focus"",""7"",""125047""
""focus"",""19"",""323961""
""focus"",""58"",""568570""
","""event"",""trial"",""time""
""fullscreenenter"",""1"",""1671""
","""event"",""trial"",""time""
""fullscreenexit"",""2"",""5341""
","","","","","","","","","","","","","","","","","","","","","","","","","","",""
"pit-instructions","58","608663","0.0-2.0-13.0","battery-v0.2","","""event"",""trial"",""time""
""fullscreenenter"",""1"",""1671""
""fullscreenexit"",""2"",""5341""
""blur"",""7"",""74685""
""focus"",""7"",""78662""
""blur"",""7"",""81230""
""focus"",""7"",""84176""
""blur"",""7"",""123317""
""focus"",""7"",""125047""
""blur"",""19"",""321791""
""focus"",""19"",""323961""
""blur"",""58"",""542618""
""focus"",""58"",""568570""
""blur"",""59"",""609665""
""focus"",""59"",""612129""
","""event"",""trial"",""time""
""blur"",""7"",""74685""
""blur"",""7"",""81230""
""blur"",""7"",""123317""
""blur"",""19"",""321791""
""blur"",""58"",""542618""
""blur"",""59"",""609665""
","""event"",""trial"",""time""
""focus"",""7"",""78662""
""focus"",""7"",""84176""
""focus"",""7"",""125047""
""focus"",""19"",""323961""
""focus"",""58"",""568570""
""focus"",""59"",""612129""
","""event"",""trial"",""time""
""fullscreenenter"",""1"",""1671""
","""event"",""trial"",""time""
""fullscreenexit"",""2"",""5341""
","","[{""page_index"":0,""viewing_time"":36375.79999998212},{""page_index"":1,""viewing_time"":9359.59999999404},{""page_index"":2,""viewing_time"":5168.600000023842},{""page_index"":3,""viewing_time"":11361.199999988079},{""page_index"":4,""viewing_time"":5017.4000000059605}]","67282.89999997616","","","","","","","","","","","","","","","","","","","","","","","",""
"pit-trial","59","613526","0.0-2.0-14.0-0.0","battery-v0.2","","""event"",""trial"",""time""
""fullscreenenter"",""1"",""1671""
""fullscreenexit"",""2"",""5341""
""blur"",""7"",""74685""
""focus"",""7"",""78662""
""blur"",""7"",""81230""
""focus"",""7"",""84176""
""blur"",""7"",""123317""
""focus"",""7"",""125047""
""blur"",""19"",""321791""
""focus"",""19"",""323961""
""blur"",""58"",""542618""
""focus"",""58"",""568570""
""blur"",""59"",""609665""
""focus"",""59"",""612129""
","""event"",""trial"",""time""
""blur"",""7"",""74685""
""blur"",""7"",""81230""
""blur"",""7"",""123317""
""blur"",""19"",""321791""
""blur"",""58"",""542618""
""blur"",""59"",""609665""
","""event"",""trial"",""time""
""focus"",""7"",""78662""
""focus"",""7"",""84176""
""focus"",""7"",""125047""
""focus"",""19"",""323961""
""focus"",""58"",""568570""
""focus"",""59"",""612129""
","""event"",""trial"",""time""
""fullscreenenter"",""1"",""1671""
","""event"",""trial"",""time""
""fullscreenexit"",""2"",""5341""
","","","-1","","","21","4100","1267","&#9826;","elianto","#f73b6a7A","-1","-1","1","0","[]","0","0","3","","","","","","","",""
"pit-trial","60","618394","0.0-2.0-14.0-1.0","battery-v0.2","","""event"",""trial"",""time""
""fullscreenenter"",""1"",""1671""
""fullscreenexit"",""2"",""5341""
""blur"",""7"",""74685""
""focus"",""7"",""78662""
""blur"",""7"",""81230""
""focus"",""7"",""84176""
""blur"",""7"",""123317""
""focus"",""7"",""125047""
""blur"",""19"",""321791""
""focus"",""19"",""323961""
""blur"",""58"",""542618""
""focus"",""58"",""568570""
""blur"",""59"",""609665""
""focus"",""59"",""612129""
","""event"",""trial"",""time""
""blur"",""7"",""74685""
""blur"",""7"",""81230""
""blur"",""7"",""123317""
""blur"",""19"",""321791""
""blur"",""58"",""542618""
""blur"",""59"",""609665""
","""event"",""trial"",""time""
""focus"",""7"",""78662""
""focus"",""7"",""84176""
""focus"",""7"",""125047""
""focus"",""19"",""323961""
""focus"",""58"",""568570""
""focus"",""59"",""612129""
","""event"",""trial"",""time""
""fullscreenenter"",""1"",""1671""
","""event"",""trial"",""time""
""fullscreenexit"",""2"",""5341""
","","","-1","","","21","4100","1267","&#9826;","elianto","#f73b6a7A","-1","-1","1","0","[]","0","0","3","","","","","","","",""
"pit-trial","61","623265","0.0-2.0-14.0-2.0","battery-v0.2","","""event"",""trial"",""time""
""fullscreenenter"",""1"",""1671""
""fullscreenexit"",""2"",""5341""
""blur"",""7"",""74685""
""focus"",""7"",""78662""
""blur"",""7"",""81230""
""focus"",""7"",""84176""
""blur"",""7"",""123317""
""focus"",""7"",""125047""
""blur"",""19"",""321791""
""focus"",""19"",""323961""
""blur"",""58"",""542618""
""focus"",""58"",""568570""
""blur"",""59"",""609665""
""focus"",""59"",""612129""
","""event"",""trial"",""time""
""blur"",""7"",""74685""
""blur"",""7"",""81230""
""blur"",""7"",""123317""
""blur"",""19"",""321791""
""blur"",""58"",""542618""
""blur"",""59"",""609665""
","""event"",""trial"",""time""
""focus"",""7"",""78662""
""focus"",""7"",""84176""
""focus"",""7"",""125047""
""focus"",""19"",""323961""
""focus"",""58"",""568570""
""focus"",""59"",""612129""
","""event"",""trial"",""time""
""fullscreenenter"",""1"",""1671""
","""event"",""trial"",""time""
""fullscreenexit"",""2"",""5341""
","","","-1","","","21","4100","1267","&#9826;","elianto","#f73b6a7A","-1","-1","1","0","[]","0","0","3","","","","","","","",""
"pit-trial","62","628134","0.0-2.0-14.0-3.0","battery-v0.2","","""event"",""trial"",""time""
""fullscreenenter"",""1"",""1671""
""fullscreenexit"",""2"",""5341""
""blur"",""7"",""74685""
""focus"",""7"",""78662""
""blur"",""7"",""81230""
""focus"",""7"",""84176""
""blur"",""7"",""123317""
""focus"",""7"",""125047""
""blur"",""19"",""321791""
""focus"",""19"",""323961""
""blur"",""58"",""542618""
""focus"",""58"",""568570""
""blur"",""59"",""609665""
""focus"",""59"",""612129""
","""event"",""trial"",""time""
""blur"",""7"",""74685""
""blur"",""7"",""81230""
""blur"",""7"",""123317""
""blur"",""19"",""321791""
""blur"",""58"",""542618""
""blur"",""59"",""609665""
","""event"",""trial"",""time""
""focus"",""7"",""78662""
""focus"",""7"",""84176""
""focus"",""7"",""125047""
""focus"",""19"",""323961""
""focus"",""58"",""568570""
""focus"",""59"",""612129""
","""event"",""trial"",""time""
""fullscreenenter"",""1"",""1671""
","""event"",""trial"",""time""
""fullscreenexit"",""2"",""5341""
","","","-1","","","21","4100","1267","&#9826;","elianto","#f73b6a7A","-1","-1","1","-10","[]","0","0","3","","","","","","","",""
"pit-trial","63","632998","0.0-2.0-14.0-4.0","battery-v0.2","","""event"",""trial"",""time""
""fullscreenenter"",""1"",""1671""
""fullscreenexit"",""2"",""5341""
""blur"",""7"",""74685""
""focus"",""7"",""78662""
""blur"",""7"",""81230""
""focus"",""7"",""84176""
""blur"",""7"",""123317""
""focus"",""7"",""125047""
""blur"",""19"",""321791""
""focus"",""19"",""323961""
""blur"",""58"",""542618""
""focus"",""58"",""568570""
""blur"",""59"",""609665""
""focus"",""59"",""612129""
","""event"",""trial"",""time""
""blur"",""7"",""74685""
""blur"",""7"",""81230""
""blur"",""7"",""123317""
""blur"",""19"",""321791""
""blur"",""58"",""542618""
""blur"",""59"",""609665""
","""event"",""trial"",""time""
""focus"",""7"",""78662""
""focus"",""7"",""84176""
""focus"",""7"",""125047""
""focus"",""19"",""323961""
""focus"",""58"",""568570""
""focus"",""59"",""612129""
","""event"",""trial"",""time""
""fullscreenenter"",""1"",""1671""
","""event"",""trial"",""time""
""fullscreenexit"",""2"",""5341""
","","","-1","","","21","4100","1267","&#9826;","elianto","#f73b6a7A","-1","-1","1","0","[]","0","0","3","","","","","","","",""
"pit-trial","64","637874","0.0-2.0-14.1-0.1","battery-v0.2","","""event"",""trial"",""time""
""fullscreenenter"",""1"",""1671""
""fullscreenexit"",""2"",""5341""
""blur"",""7"",""74685""
""focus"",""7"",""78662""
""blur"",""7"",""81230""
""focus"",""7"",""84176""
""blur"",""7"",""123317""
""focus"",""7"",""125047""
""blur"",""19"",""321791""
""focus"",""19"",""323961""
""blur"",""58"",""542618""
""focus"",""58"",""568570""
""blur"",""59"",""609665""
""focus"",""59"",""612129""
","""event"",""trial"",""time""
""blur"",""7"",""74685""
""blur"",""7"",""81230""
""blur"",""7"",""123317""
""blur"",""19"",""321791""
""blur"",""58"",""542618""
""blur"",""59"",""609665""
","""event"",""trial"",""time""
""focus"",""7"",""78662""
""focus"",""7"",""84176""
""focus"",""7"",""125047""
""focus"",""19"",""323961""
""focus"",""58"",""568570""
""focus"",""59"",""612129""
","""event"",""trial"",""time""
""fullscreenenter"",""1"",""1671""
","""event"",""trial"",""time""
""fullscreenexit"",""2"",""5341""
","","","-1","","","21","4100","1267","&#9826;","elianto","#f73b6a7A","-1","-1","1","0","[]","0","0","3","","","","","","","",""
"pit-trial","65","642742","0.0-2.0-14.1-1.1","battery-v0.2","","""event"",""trial"",""time""
""fullscreenenter"",""1"",""1671""
""fullscreenexit"",""2"",""5341""
""blur"",""7"",""74685""
""focus"",""7"",""78662""
""blur"",""7"",""81230""
""focus"",""7"",""84176""
""blur"",""7"",""123317""
""focus"",""7"",""125047""
""blur"",""19"",""321791""
""focus"",""19"",""323961""
""blur"",""58"",""542618""
""focus"",""58"",""568570""
""blur"",""59"",""609665""
""focus"",""59"",""612129""
","""event"",""trial"",""time""
""blur"",""7"",""74685""
""blur"",""7"",""81230""
""blur"",""7"",""123317""
""blur"",""19"",""321791""
""blur"",""58"",""542618""
""blur"",""59"",""609665""
","""event"",""trial"",""time""
""focus"",""7"",""78662""
""focus"",""7"",""84176""
""focus"",""7"",""125047""
""focus"",""19"",""323961""
""focus"",""58"",""568570""
""focus"",""59"",""612129""
","""event"",""trial"",""time""
""fullscreenenter"",""1"",""1671""
","""event"",""trial"",""time""
""fullscreenexit"",""2"",""5341""
","","","-1","","","21","4100","1267","&#9826;","elianto","#f73b6a7A","-1","-1","1","0","[]","0","0","3","","","","","","","",""
"pit-trial","66","647606","0.0-2.0-14.1-2.1","battery-v0.2","","""event"",""trial"",""time""
""fullscreenenter"",""1"",""1671""
""fullscreenexit"",""2"",""5341""
""blur"",""7"",""74685""
""focus"",""7"",""78662""
""blur"",""7"",""81230""
""focus"",""7"",""84176""
""blur"",""7"",""123317""
""focus"",""7"",""125047""
""blur"",""19"",""321791""
""focus"",""19"",""323961""
""blur"",""58"",""542618""
""focus"",""58"",""568570""
""blur"",""59"",""609665""
""focus"",""59"",""612129""
","""event"",""trial"",""time""
""blur"",""7"",""74685""
""blur"",""7"",""81230""
""blur"",""7"",""123317""
""blur"",""19"",""321791""
""blur"",""58"",""542618""
""blur"",""59"",""609665""
","""event"",""trial"",""time""
""focus"",""7"",""78662""
""focus"",""7"",""84176""
""focus"",""7"",""125047""
""focus"",""19"",""323961""
""focus"",""58"",""568570""
""focus"",""59"",""612129""
","""event"",""trial"",""time""
""fullscreenenter"",""1"",""1671""
","""event"",""trial"",""time""
""fullscreenexit"",""2"",""5341""
","","","-1","","","21","4100","1267","&#9826;","elianto","#f73b6a7A","-1","-1","1","0","[]","0","0","3","","","","","","","",""
"pit-trial","67","652473","0.0-2.0-14.1-3.1","battery-v0.2","","""event"",""trial"",""time""
""fullscreenenter"",""1"",""1671""
""fullscreenexit"",""2"",""5341""
""blur"",""7"",""74685""
""focus"",""7"",""78662""
""blur"",""7"",""81230""
""focus"",""7"",""84176""
""blur"",""7"",""123317""
""focus"",""7"",""125047""
""blur"",""19"",""321791""
""focus"",""19"",""323961""
""blur"",""58"",""542618""
""focus"",""58"",""568570""
""blur"",""59"",""609665""
""focus"",""59"",""612129""
","""event"",""trial"",""time""
""blur"",""7"",""74685""
""blur"",""7"",""81230""
""blur"",""7"",""123317""
""blur"",""19"",""321791""
""blur"",""58"",""542618""
""blur"",""59"",""609665""
","""event"",""trial"",""time""
""focus"",""7"",""78662""
""focus"",""7"",""84176""
""focus"",""7"",""125047""
""focus"",""19"",""323961""
""focus"",""58"",""568570""
""focus"",""59"",""612129""
","""event"",""trial"",""time""
""fullscreenenter"",""1"",""1671""
","""event"",""trial"",""time""
""fullscreenexit"",""2"",""5341""
","","","-1","","","21","4100","1267","&#9826;","elianto","#f73b6a7A","-1","-1","1","-10","[]","0","0","3","","","","","","","",""
"pit-trial","68","657344","0.0-2.0-14.1-4.1","battery-v0.2","","""event"",""trial"",""time""
""fullscreenenter"",""1"",""1671""
""fullscreenexit"",""2"",""5341""
""blur"",""7"",""74685""
""focus"",""7"",""78662""
""blur"",""7"",""81230""
""focus"",""7"",""84176""
""blur"",""7"",""123317""
""focus"",""7"",""125047""
""blur"",""19"",""321791""
""focus"",""19"",""323961""
""blur"",""58"",""542618""
""focus"",""58"",""568570""
""blur"",""59"",""609665""
""focus"",""59"",""612129""
","""event"",""trial"",""time""
""blur"",""7"",""74685""
""blur"",""7"",""81230""
""blur"",""7"",""123317""
""blur"",""19"",""321791""
""blur"",""58"",""542618""
""blur"",""59"",""609665""
","""event"",""trial"",""time""
""focus"",""7"",""78662""
""focus"",""7"",""84176""
""focus"",""7"",""125047""
""focus"",""19"",""323961""
""focus"",""58"",""568570""
""focus"",""59"",""612129""
","""event"",""trial"",""time""
""fullscreenenter"",""1"",""1671""
","""event"",""trial"",""time""
""fullscreenexit"",""2"",""5341""
","","","-1","","","21","4100","1267","&#9826;","elianto","#f73b6a7A","-1","-1","1","0","[]","0","0","3","","","","","","","",""
"pit-trial","69","662214","0.0-2.0-14.2-0.2","battery-v0.2","","""event"",""trial"",""time""
""fullscreenenter"",""1"",""1671""
""fullscreenexit"",""2"",""5341""
""blur"",""7"",""74685""
""focus"",""7"",""78662""
""blur"",""7"",""81230""
""focus"",""7"",""84176""
""blur"",""7"",""123317""
""focus"",""7"",""125047""
""blur"",""19"",""321791""
""focus"",""19"",""323961""
""blur"",""58"",""542618""
""focus"",""58"",""568570""
""blur"",""59"",""609665""
""focus"",""59"",""612129""
","""event"",""trial"",""time""
""blur"",""7"",""74685""
""blur"",""7"",""81230""
""blur"",""7"",""123317""
""blur"",""19"",""321791""
""blur"",""58"",""542618""
""blur"",""59"",""609665""
","""event"",""trial"",""time""
""focus"",""7"",""78662""
""focus"",""7"",""84176""
""focus"",""7"",""125047""
""focus"",""19"",""323961""
""focus"",""58"",""568570""
""focus"",""59"",""612129""
","""event"",""trial"",""time""
""fullscreenenter"",""1"",""1671""
","""event"",""trial"",""time""
""fullscreenexit"",""2"",""5341""
","","","-1","","","21","4100","1267","&#9826;","elianto","#f73b6a7A","-1","-1","1","0","[]","0","0","3","","","","","","","",""
"pit-trial","70","667078","0.0-2.0-14.2-1.2","battery-v0.2","","""event"",""trial"",""time""
""fullscreenenter"",""1"",""1671""
""fullscreenexit"",""2"",""5341""
""blur"",""7"",""74685""
""focus"",""7"",""78662""
""blur"",""7"",""81230""
""focus"",""7"",""84176""
""blur"",""7"",""123317""
""focus"",""7"",""125047""
""blur"",""19"",""321791""
""focus"",""19"",""323961""
""blur"",""58"",""542618""
""focus"",""58"",""568570""
""blur"",""59"",""609665""
""focus"",""59"",""612129""
","""event"",""trial"",""time""
""blur"",""7"",""74685""
""blur"",""7"",""81230""
""blur"",""7"",""123317""
""blur"",""19"",""321791""
""blur"",""58"",""542618""
""blur"",""59"",""609665""
","""event"",""trial"",""time""
""focus"",""7"",""78662""
""focus"",""7"",""84176""
""focus"",""7"",""125047""
""focus"",""19"",""323961""
""focus"",""58"",""568570""
""focus"",""59"",""612129""
","""event"",""trial"",""time""
""fullscreenenter"",""1"",""1671""
","""event"",""trial"",""time""
""fullscreenexit"",""2"",""5341""
","","","-1","","","21","4100","1267","&#9826;","elianto","#f73b6a7A","-1","-1","1","0","[]","0","0","3","","","","","","","",""
"pit-trial","71","671953","0.0-2.0-14.2-2.2","battery-v0.2","","""event"",""trial"",""time""
""fullscreenenter"",""1"",""1671""
""fullscreenexit"",""2"",""5341""
""blur"",""7"",""74685""
""focus"",""7"",""78662""
""blur"",""7"",""81230""
""focus"",""7"",""84176""
""blur"",""7"",""123317""
""focus"",""7"",""125047""
""blur"",""19"",""321791""
""focus"",""19"",""323961""
""blur"",""58"",""542618""
""focus"",""58"",""568570""
""blur"",""59"",""609665""
""focus"",""59"",""612129""
","""event"",""trial"",""time""
""blur"",""7"",""74685""
""blur"",""7"",""81230""
""blur"",""7"",""123317""
""blur"",""19"",""321791""
""blur"",""58"",""542618""
""blur"",""59"",""609665""
","""event"",""trial"",""time""
""focus"",""7"",""78662""
""focus"",""7"",""84176""
""focus"",""7"",""125047""
""focus"",""19"",""323961""
""focus"",""58"",""568570""
""focus"",""59"",""612129""
","""event"",""trial"",""time""
""fullscreenenter"",""1"",""1671""
","""event"",""trial"",""time""
""fullscreenexit"",""2"",""5341""
","","","-1","","","21","4100","1267","&#9826;","elianto","#f73b6a7A","-1","-1","1","0","[]","0","0","3","","","","","","","",""
"pit-trial","72","676823","0.0-2.0-14.2-3.2","battery-v0.2","","""event"",""trial"",""time""
""fullscreenenter"",""1"",""1671""
""fullscreenexit"",""2"",""5341""
""blur"",""7"",""74685""
""focus"",""7"",""78662""
""blur"",""7"",""81230""
""focus"",""7"",""84176""
""blur"",""7"",""123317""
""focus"",""7"",""125047""
""blur"",""19"",""321791""
""focus"",""19"",""323961""
""blur"",""58"",""542618""
""focus"",""58"",""568570""
""blur"",""59"",""609665""
""focus"",""59"",""612129""
","""event"",""trial"",""time""
""blur"",""7"",""74685""
""blur"",""7"",""81230""
""blur"",""7"",""123317""
""blur"",""19"",""321791""
""blur"",""58"",""542618""
""blur"",""59"",""609665""
","""event"",""trial"",""time""
""focus"",""7"",""78662""
""focus"",""7"",""84176""
""focus"",""7"",""125047""
""focus"",""19"",""323961""
""focus"",""58"",""568570""
""focus"",""59"",""612129""
","""event"",""trial"",""time""
""fullscreenenter"",""1"",""1671""
","""event"",""trial"",""time""
""fullscreenexit"",""2"",""5341""
","","","-1","","","21","4100","1267","&#9826;","elianto","#f73b6a7A","-1","-1","1","-10","[]","0","0","3","","","","","","","",""
"pit-trial","73","681686","0.0-2.0-14.2-4.2","battery-v0.2","","""event"",""trial"",""time""
""fullscreenenter"",""1"",""1671""
""fullscreenexit"",""2"",""5341""
""blur"",""7"",""74685""
""focus"",""7"",""78662""
""blur"",""7"",""81230""
""focus"",""7"",""84176""
""blur"",""7"",""123317""
""focus"",""7"",""125047""
""blur"",""19"",""321791""
""focus"",""19"",""323961""
""blur"",""58"",""542618""
""focus"",""58"",""568570""
""blur"",""59"",""609665""
""focus"",""59"",""612129""
","""event"",""trial"",""time""
""blur"",""7"",""74685""
""blur"",""7"",""81230""
""blur"",""7"",""123317""
""blur"",""19"",""321791""
""blur"",""58"",""542618""
""blur"",""59"",""609665""
","""event"",""trial"",""time""
""focus"",""7"",""78662""
""focus"",""7"",""84176""
""focus"",""7"",""125047""
""focus"",""19"",""323961""
""focus"",""58"",""568570""
""focus"",""59"",""612129""
","""event"",""trial"",""time""
""fullscreenenter"",""1"",""1671""
","""event"",""trial"",""time""
""fullscreenexit"",""2"",""5341""
","","","-1","","","21","4100","1267","&#9826;","elianto","#f73b6a7A","-1","-1","1","0","[]","0","0","3","","","","","","","",""
"pit-trial","74","686554","0.0-2.0-14.3-0.3","battery-v0.2","","""event"",""trial"",""time""
""fullscreenenter"",""1"",""1671""
""fullscreenexit"",""2"",""5341""
""blur"",""7"",""74685""
""focus"",""7"",""78662""
""blur"",""7"",""81230""
""focus"",""7"",""84176""
""blur"",""7"",""123317""
""focus"",""7"",""125047""
""blur"",""19"",""321791""
""focus"",""19"",""323961""
""blur"",""58"",""542618""
""focus"",""58"",""568570""
""blur"",""59"",""609665""
""focus"",""59"",""612129""
","""event"",""trial"",""time""
""blur"",""7"",""74685""
""blur"",""7"",""81230""
""blur"",""7"",""123317""
""blur"",""19"",""321791""
""blur"",""58"",""542618""
""blur"",""59"",""609665""
","""event"",""trial"",""time""
""focus"",""7"",""78662""
""focus"",""7"",""84176""
""focus"",""7"",""125047""
""focus"",""19"",""323961""
""focus"",""58"",""568570""
""focus"",""59"",""612129""
","""event"",""trial"",""time""
""fullscreenenter"",""1"",""1671""
","""event"",""trial"",""time""
""fullscreenexit"",""2"",""5341""
","","","-1","","","21","4100","1267","&#9826;","elianto","#f73b6a7A","-1","-1","1","0","[]","0","0","3","","","","","","","",""
"pit-trial","75","691426","0.0-2.0-14.3-1.3","battery-v0.2","","""event"",""trial"",""time""
""fullscreenenter"",""1"",""1671""
""fullscreenexit"",""2"",""5341""
""blur"",""7"",""74685""
""focus"",""7"",""78662""
""blur"",""7"",""81230""
""focus"",""7"",""84176""
""blur"",""7"",""123317""
""focus"",""7"",""125047""
""blur"",""19"",""321791""
""focus"",""19"",""323961""
""blur"",""58"",""542618""
""focus"",""58"",""568570""
""blur"",""59"",""609665""
""focus"",""59"",""612129""
""blur"",""76"",""694358""
","""event"",""trial"",""time""
""blur"",""7"",""74685""
""blur"",""7"",""81230""
""blur"",""7"",""123317""
""blur"",""19"",""321791""
""blur"",""58"",""542618""
""blur"",""59"",""609665""
""blur"",""76"",""694358""
","""event"",""trial"",""time""
""focus"",""7"",""78662""
""focus"",""7"",""84176""
""focus"",""7"",""125047""
""focus"",""19"",""323961""
""focus"",""58"",""568570""
""focus"",""59"",""612129""
","""event"",""trial"",""time""
""fullscreenenter"",""1"",""1671""
","""event"",""trial"",""time""
""fullscreenexit"",""2"",""5341""
","","","-1","","","21","4100","1267","&#9826;","elianto","#f73b6a7A","-1","-1","1","0","[]","0","0","3","","","","","","","",""
"pit-trial","76","696294","0.0-2.0-14.3-2.3","battery-v0.2","","""event"",""trial"",""time""
""fullscreenenter"",""1"",""1671""
""fullscreenexit"",""2"",""5341""
""blur"",""7"",""74685""
""focus"",""7"",""78662""
""blur"",""7"",""81230""
""focus"",""7"",""84176""
""blur"",""7"",""123317""
""focus"",""7"",""125047""
""blur"",""19"",""321791""
""focus"",""19"",""323961""
""blur"",""58"",""542618""
""focus"",""58"",""568570""
""blur"",""59"",""609665""
""focus"",""59"",""612129""
""blur"",""76"",""694358""
","""event"",""trial"",""time""
""blur"",""7"",""74685""
""blur"",""7"",""81230""
""blur"",""7"",""123317""
""blur"",""19"",""321791""
""blur"",""58"",""542618""
""blur"",""59"",""609665""
""blur"",""76"",""694358""
","""event"",""trial"",""time""
""focus"",""7"",""78662""
""focus"",""7"",""84176""
""focus"",""7"",""125047""
""focus"",""19"",""323961""
""focus"",""58"",""568570""
""focus"",""59"",""612129""
","""event"",""trial"",""time""
""fullscreenenter"",""1"",""1671""
","""event"",""trial"",""time""
""fullscreenexit"",""2"",""5341""
","","","-1","","","21","4100","1267","&#9826;","elianto","#f73b6a7A","-1","-1","1","0","[]","0","0","3","","","","","","","",""
"pit-trial","77","701162","0.0-2.0-14.3-3.3","battery-v0.2","","""event"",""trial"",""time""
""fullscreenenter"",""1"",""1671""
""fullscreenexit"",""2"",""5341""
""blur"",""7"",""74685""
""focus"",""7"",""78662""
""blur"",""7"",""81230""
""focus"",""7"",""84176""
""blur"",""7"",""123317""
""focus"",""7"",""125047""
""blur"",""19"",""321791""
""focus"",""19"",""323961""
""blur"",""58"",""542618""
""focus"",""58"",""568570""
""blur"",""59"",""609665""
""focus"",""59"",""612129""
""blur"",""76"",""694358""
""focus"",""78"",""702432""
","""event"",""trial"",""time""
""blur"",""7"",""74685""
""blur"",""7"",""81230""
""blur"",""7"",""123317""
""blur"",""19"",""321791""
""blur"",""58"",""542618""
""blur"",""59"",""609665""
""blur"",""76"",""694358""
","""event"",""trial"",""time""
""focus"",""7"",""78662""
""focus"",""7"",""84176""
""focus"",""7"",""125047""
""focus"",""19"",""323961""
""focus"",""58"",""568570""
""focus"",""59"",""612129""
""focus"",""78"",""702432""
","""event"",""trial"",""time""
""fullscreenenter"",""1"",""1671""
","""event"",""trial"",""time""
""fullscreenexit"",""2"",""5341""
","","","-1","","","21","4100","1267","&#9826;","elianto","#f73b6a7A","-1","-1","1","-10","[]","0","0","3","","","","","","","",""
"pit-trial","78","706033","0.0-2.0-14.3-4.3","battery-v0.2","","""event"",""trial"",""time""
""fullscreenenter"",""1"",""1671""
""fullscreenexit"",""2"",""5341""
""blur"",""7"",""74685""
""focus"",""7"",""78662""
""blur"",""7"",""81230""
""focus"",""7"",""84176""
""blur"",""7"",""123317""
""focus"",""7"",""125047""
""blur"",""19"",""321791""
""focus"",""19"",""323961""
""blur"",""58"",""542618""
""focus"",""58"",""568570""
""blur"",""59"",""609665""
""focus"",""59"",""612129""
""blur"",""76"",""694358""
""focus"",""78"",""702432""
","""event"",""trial"",""time""
""blur"",""7"",""74685""
""blur"",""7"",""81230""
""blur"",""7"",""123317""
""blur"",""19"",""321791""
""blur"",""58"",""542618""
""blur"",""59"",""609665""
""blur"",""76"",""694358""
","""event"",""trial"",""time""
""focus"",""7"",""78662""
""focus"",""7"",""84176""
""focus"",""7"",""125047""
""focus"",""19"",""323961""
""focus"",""58"",""568570""
""focus"",""59"",""612129""
""focus"",""78"",""702432""
","""event"",""trial"",""time""
""fullscreenenter"",""1"",""1671""
","""event"",""trial"",""time""
""fullscreenexit"",""2"",""5341""
","","","-1","","","21","4100","1267","&#9826;","elianto","#f73b6a7A","-1","-1","1","0","[]","0","0","3","","","","","","","",""
"call-function","79","706037","0.0-2.0-15.0","battery-v0.2","","""event"",""trial"",""time""
""fullscreenenter"",""1"",""1671""
""fullscreenexit"",""2"",""5341""
""blur"",""7"",""74685""
""focus"",""7"",""78662""
""blur"",""7"",""81230""
""focus"",""7"",""84176""
""blur"",""7"",""123317""
""focus"",""7"",""125047""
""blur"",""19"",""321791""
""focus"",""19"",""323961""
""blur"",""58"",""542618""
""focus"",""58"",""568570""
""blur"",""59"",""609665""
""focus"",""59"",""612129""
""blur"",""76"",""694358""
""focus"",""78"",""702432""
""blur"",""80"",""718878""
""focus"",""80"",""723160""
","""event"",""trial"",""time""
""blur"",""7"",""74685""
""blur"",""7"",""81230""
""blur"",""7"",""123317""
""blur"",""19"",""321791""
""blur"",""58"",""542618""
""blur"",""59"",""609665""
""blur"",""76"",""694358""
""blur"",""80"",""718878""
","""event"",""trial"",""time""
""focus"",""7"",""78662""
""focus"",""7"",""84176""
""focus"",""7"",""125047""
""focus"",""19"",""323961""
""focus"",""58"",""568570""
""focus"",""59"",""612129""
""focus"",""78"",""702432""
""focus"",""80"",""723160""
","""event"",""trial"",""time""
""fullscreenenter"",""1"",""1671""
","""event"",""trial"",""time""
""fullscreenexit"",""2"",""5341""
","","","","","","","","","","","","","","","","","","","","","","","","","","",""
"pit-instructions","80","745675","0.0-2.0-16.0","battery-v0.2","","""event"",""trial"",""time""
""fullscreenenter"",""1"",""1671""
""fullscreenexit"",""2"",""5341""
""blur"",""7"",""74685""
""focus"",""7"",""78662""
""blur"",""7"",""81230""
""focus"",""7"",""84176""
""blur"",""7"",""123317""
""focus"",""7"",""125047""
""blur"",""19"",""321791""
""focus"",""19"",""323961""
""blur"",""58"",""542618""
""focus"",""58"",""568570""
""blur"",""59"",""609665""
""focus"",""59"",""612129""
""blur"",""76"",""694358""
""focus"",""78"",""702432""
""blur"",""80"",""718878""
""focus"",""80"",""723160""
","""event"",""trial"",""time""
""blur"",""7"",""74685""
""blur"",""7"",""81230""
""blur"",""7"",""123317""
""blur"",""19"",""321791""
""blur"",""58"",""542618""
""blur"",""59"",""609665""
""blur"",""76"",""694358""
""blur"",""80"",""718878""
","""event"",""trial"",""time""
""focus"",""7"",""78662""
""focus"",""7"",""84176""
""focus"",""7"",""125047""
""focus"",""19"",""323961""
""focus"",""58"",""568570""
""focus"",""59"",""612129""
""focus"",""78"",""702432""
""focus"",""80"",""723160""
","""event"",""trial"",""time""
""fullscreenenter"",""1"",""1671""
","""event"",""trial"",""time""
""fullscreenexit"",""2"",""5341""
","","[{""page_index"":0,""viewing_time"":17771.5},{""page_index"":1,""viewing_time"":10239.40000000596},{""page_index"":2,""viewing_time"":5543.9000000059605},{""page_index"":3,""viewing_time"":6082.199999988079}]","39637.30000001192","","","","","","","","","","","","","","","","","","","","","","","",""
"pit-trial","81","750545","0.0-2.0-17.0-0.0","battery-v0.2","","""event"",""trial"",""time""
""fullscreenenter"",""1"",""1671""
""fullscreenexit"",""2"",""5341""
""blur"",""7"",""74685""
""focus"",""7"",""78662""
""blur"",""7"",""81230""
""focus"",""7"",""84176""
""blur"",""7"",""123317""
""focus"",""7"",""125047""
""blur"",""19"",""321791""
""focus"",""19"",""323961""
""blur"",""58"",""542618""
""focus"",""58"",""568570""
""blur"",""59"",""609665""
""focus"",""59"",""612129""
""blur"",""76"",""694358""
""focus"",""78"",""702432""
""blur"",""80"",""718878""
""focus"",""80"",""723160""
","""event"",""trial"",""time""
""blur"",""7"",""74685""
""blur"",""7"",""81230""
""blur"",""7"",""123317""
""blur"",""19"",""321791""
""blur"",""58"",""542618""
""blur"",""59"",""609665""
""blur"",""76"",""694358""
""blur"",""80"",""718878""
","""event"",""trial"",""time""
""focus"",""7"",""78662""
""focus"",""7"",""84176""
""focus"",""7"",""125047""
""focus"",""19"",""323961""
""focus"",""58"",""568570""
""focus"",""59"",""612129""
""focus"",""78"",""702432""
""focus"",""80"",""723160""
","""event"",""trial"",""time""
""fullscreenenter"",""1"",""1671""
","""event"",""trial"",""time""
""fullscreenexit"",""2"",""5341""
","","","-1","","","21","4100","1267","&#9789;","elianto","#f73b6a7A"," ","-1","0","-10","[]","0","0","4","","","","","","","",""
"pit-trial","82","754264","0.0-2.0-17.0-1.0","battery-v0.2","","""event"",""trial"",""time""
""fullscreenenter"",""1"",""1671""
""fullscreenexit"",""2"",""5341""
""blur"",""7"",""74685""
""focus"",""7"",""78662""
""blur"",""7"",""81230""
""focus"",""7"",""84176""
""blur"",""7"",""123317""
""focus"",""7"",""125047""
""blur"",""19"",""321791""
""focus"",""19"",""323961""
""blur"",""58"",""542618""
""focus"",""58"",""568570""
""blur"",""59"",""609665""
""focus"",""59"",""612129""
""blur"",""76"",""694358""
""focus"",""78"",""702432""
""blur"",""80"",""718878""
""focus"",""80"",""723160""
","""event"",""trial"",""time""
""blur"",""7"",""74685""
""blur"",""7"",""81230""
""blur"",""7"",""123317""
""blur"",""19"",""321791""
""blur"",""58"",""542618""
""blur"",""59"",""609665""
""blur"",""76"",""694358""
""blur"",""80"",""718878""
","""event"",""trial"",""time""
""focus"",""7"",""78662""
""focus"",""7"",""84176""
""focus"",""7"",""125047""
""focus"",""19"",""323961""
""focus"",""58"",""568570""
""focus"",""59"",""612129""
""focus"",""78"",""702432""
""focus"",""80"",""723160""
","""event"",""trial"",""time""
""fullscreenenter"",""1"",""1671""
","""event"",""trial"",""time""
""fullscreenexit"",""2"",""5341""
","","","854.7999999821186","","","21","4100","1267","&#9789;","elianto","#f73b6a7A"," "," ","1","0","[1709.5999999940395]","1","0","4","","","","","","","",""
"pit-trial","83","759057","0.0-2.0-17.0-2.0","battery-v0.2","","""event"",""trial"",""time""
""fullscreenenter"",""1"",""1671""
""fullscreenexit"",""2"",""5341""
""blur"",""7"",""74685""
""focus"",""7"",""78662""
""blur"",""7"",""81230""
""focus"",""7"",""84176""
""blur"",""7"",""123317""
""focus"",""7"",""125047""
""blur"",""19"",""321791""
""focus"",""19"",""323961""
""blur"",""58"",""542618""
""focus"",""58"",""568570""
""blur"",""59"",""609665""
""focus"",""59"",""612129""
""blur"",""76"",""694358""
""focus"",""78"",""702432""
""blur"",""80"",""718878""
""focus"",""80"",""723160""
","""event"",""trial"",""time""
""blur"",""7"",""74685""
""blur"",""7"",""81230""
""blur"",""7"",""123317""
""blur"",""19"",""321791""
""blur"",""58"",""542618""
""blur"",""59"",""609665""
""blur"",""76"",""694358""
""blur"",""80"",""718878""
","""event"",""trial"",""time""
""focus"",""7"",""78662""
""focus"",""7"",""84176""
""focus"",""7"",""125047""
""focus"",""19"",""323961""
""focus"",""58"",""568570""
""focus"",""59"",""612129""
""focus"",""78"",""702432""
""focus"",""80"",""723160""
","""event"",""trial"",""time""
""fullscreenenter"",""1"",""1671""
","""event"",""trial"",""time""
""fullscreenexit"",""2"",""5341""
","","","1926.199999988079","","","21","4100","1267","&#9789;","elianto","#f73b6a7A"," "," ","1","0","[2779]","1","0","4","","","","","","","",""
"pit-trial","84","763926","0.0-2.0-17.0-3.0","battery-v0.2","","""event"",""trial"",""time""
""fullscreenenter"",""1"",""1671""
""fullscreenexit"",""2"",""5341""
""blur"",""7"",""74685""
""focus"",""7"",""78662""
""blur"",""7"",""81230""
""focus"",""7"",""84176""
""blur"",""7"",""123317""
""focus"",""7"",""125047""
""blur"",""19"",""321791""
""focus"",""19"",""323961""
""blur"",""58"",""542618""
""focus"",""58"",""568570""
""blur"",""59"",""609665""
""focus"",""59"",""612129""
""blur"",""76"",""694358""
""focus"",""78"",""702432""
""blur"",""80"",""718878""
""focus"",""80"",""723160""
","""event"",""trial"",""time""
""blur"",""7"",""74685""
""blur"",""7"",""81230""
""blur"",""7"",""123317""
""blur"",""19"",""321791""
""blur"",""58"",""542618""
""blur"",""59"",""609665""
""blur"",""76"",""694358""
""blur"",""80"",""718878""
","""event"",""trial"",""time""
""focus"",""7"",""78662""
""focus"",""7"",""84176""
""focus"",""7"",""125047""
""focus"",""19"",""323961""
""focus"",""58"",""568570""
""focus"",""59"",""612129""
""focus"",""78"",""702432""
""focus"",""80"",""723160""
","""event"",""trial"",""time""
""fullscreenenter"",""1"",""1671""
","""event"",""trial"",""time""
""fullscreenexit"",""2"",""5341""
","","","-1","","","21","4100","1267","&#9789;","elianto","#f73b6a7A"," ","-1","0","0","[]","0","0","4","","","","","","","",""
"pit-trial","85","768791","0.0-2.0-17.0-4.0","battery-v0.2","","""event"",""trial"",""time""
""fullscreenenter"",""1"",""1671""
""fullscreenexit"",""2"",""5341""
""blur"",""7"",""74685""
""focus"",""7"",""78662""
""blur"",""7"",""81230""
""focus"",""7"",""84176""
""blur"",""7"",""123317""
""focus"",""7"",""125047""
""blur"",""19"",""321791""
""focus"",""19"",""323961""
""blur"",""58"",""542618""
""focus"",""58"",""568570""
""blur"",""59"",""609665""
""focus"",""59"",""612129""
""blur"",""76"",""694358""
""focus"",""78"",""702432""
""blur"",""80"",""718878""
""focus"",""80"",""723160""
","""event"",""trial"",""time""
""blur"",""7"",""74685""
""blur"",""7"",""81230""
""blur"",""7"",""123317""
""blur"",""19"",""321791""
""blur"",""58"",""542618""
""blur"",""59"",""609665""
""blur"",""76"",""694358""
""blur"",""80"",""718878""
","""event"",""trial"",""time""
""focus"",""7"",""78662""
""focus"",""7"",""84176""
""focus"",""7"",""125047""
""focus"",""19"",""323961""
""focus"",""58"",""568570""
""focus"",""59"",""612129""
""focus"",""78"",""702432""
""focus"",""80"",""723160""
","""event"",""trial"",""time""
""fullscreenenter"",""1"",""1671""
","""event"",""trial"",""time""
""fullscreenexit"",""2"",""5341""
","","","-1","","","21","4100","1267","&#9789;","elianto","#f73b6a7A"," ","-1","0","-10","[]","0","0","4","","","","","","","",""
"pit-trial","86","772002","0.0-2.0-17.1-0.1","battery-v0.2","","""event"",""trial"",""time""
""fullscreenenter"",""1"",""1671""
""fullscreenexit"",""2"",""5341""
""blur"",""7"",""74685""
""focus"",""7"",""78662""
""blur"",""7"",""81230""
""focus"",""7"",""84176""
""blur"",""7"",""123317""
""focus"",""7"",""125047""
""blur"",""19"",""321791""
""focus"",""19"",""323961""
""blur"",""58"",""542618""
""focus"",""58"",""568570""
""blur"",""59"",""609665""
""focus"",""59"",""612129""
""blur"",""76"",""694358""
""focus"",""78"",""702432""
""blur"",""80"",""718878""
""focus"",""80"",""723160""
","""event"",""trial"",""time""
""blur"",""7"",""74685""
""blur"",""7"",""81230""
""blur"",""7"",""123317""
""blur"",""19"",""321791""
""blur"",""58"",""542618""
""blur"",""59"",""609665""
""blur"",""76"",""694358""
""blur"",""80"",""718878""
","""event"",""trial"",""time""
""focus"",""7"",""78662""
""focus"",""7"",""84176""
""focus"",""7"",""125047""
""focus"",""19"",""323961""
""focus"",""58"",""568570""
""focus"",""59"",""612129""
""focus"",""78"",""702432""
""focus"",""80"",""723160""
","""event"",""trial"",""time""
""fullscreenenter"",""1"",""1671""
","""event"",""trial"",""time""
""fullscreenexit"",""2"",""5341""
","","","347.2000000178814","","","21","4100","1267","&#9789;","elianto","#f73b6a7A"," "," ","1","0","[1201.7999999821186]","1","0","4","","","","","","","",""
"pit-trial","87","776675","0.0-2.0-17.1-1.1","battery-v0.2","","""event"",""trial"",""time""
""fullscreenenter"",""1"",""1671""
""fullscreenexit"",""2"",""5341""
""blur"",""7"",""74685""
""focus"",""7"",""78662""
""blur"",""7"",""81230""
""focus"",""7"",""84176""
""blur"",""7"",""123317""
""focus"",""7"",""125047""
""blur"",""19"",""321791""
""focus"",""19"",""323961""
""blur"",""58"",""542618""
""focus"",""58"",""568570""
""blur"",""59"",""609665""
""focus"",""59"",""612129""
""blur"",""76"",""694358""
""focus"",""78"",""702432""
""blur"",""80"",""718878""
""focus"",""80"",""723160""
","""event"",""trial"",""time""
""blur"",""7"",""74685""
""blur"",""7"",""81230""
""blur"",""7"",""123317""
""blur"",""19"",""321791""
""blur"",""58"",""542618""
""blur"",""59"",""609665""
""blur"",""76"",""694358""
""blur"",""80"",""718878""
","""event"",""trial"",""time""
""focus"",""7"",""78662""
""focus"",""7"",""84176""
""focus"",""7"",""125047""
""focus"",""19"",""323961""
""focus"",""58"",""568570""
""focus"",""59"",""612129""
""focus"",""78"",""702432""
""focus"",""80"",""723160""
","""event"",""trial"",""time""
""fullscreenenter"",""1"",""1671""
","""event"",""trial"",""time""
""fullscreenexit"",""2"",""5341""
","","","1807.2000000178814","","","21","4100","1267","&#9789;","elianto","#f73b6a7A"," "," ","1","0","[2657.5]","1","0","4","","","","","","","",""
"pit-trial","88","780890","0.0-2.0-17.1-2.1","battery-v0.2","","""event"",""trial"",""time""
""fullscreenenter"",""1"",""1671""
""fullscreenexit"",""2"",""5341""
""blur"",""7"",""74685""
""focus"",""7"",""78662""
""blur"",""7"",""81230""
""focus"",""7"",""84176""
""blur"",""7"",""123317""
""focus"",""7"",""125047""
""blur"",""19"",""321791""
""focus"",""19"",""323961""
""blur"",""58"",""542618""
""focus"",""58"",""568570""
""blur"",""59"",""609665""
""focus"",""59"",""612129""
""blur"",""76"",""694358""
""focus"",""78"",""702432""
""blur"",""80"",""718878""
""focus"",""80"",""723160""
","""event"",""trial"",""time""
""blur"",""7"",""74685""
""blur"",""7"",""81230""
""blur"",""7"",""123317""
""blur"",""19"",""321791""
""blur"",""58"",""542618""
""blur"",""59"",""609665""
""blur"",""76"",""694358""
""blur"",""80"",""718878""
","""event"",""trial"",""time""
""focus"",""7"",""78662""
""focus"",""7"",""84176""
""focus"",""7"",""125047""
""focus"",""19"",""323961""
""focus"",""58"",""568570""
""focus"",""59"",""612129""
""focus"",""78"",""702432""
""focus"",""80"",""723160""
","""event"",""trial"",""time""
""fullscreenenter"",""1"",""1671""
","""event"",""trial"",""time""
""fullscreenexit"",""2"",""5341""
","","","1349.300000011921","","","21","4100","1267","&#9789;","elianto","#f73b6a7A"," "," ","1","0","[2202.7000000178814]","1","0","4","","","","","","","",""
"pit-trial","89","784234","0.0-2.0-17.1-3.1","battery-v0.2","","""event"",""trial"",""time""
""fullscreenenter"",""1"",""1671""
""fullscreenexit"",""2"",""5341""
""blur"",""7"",""74685""
""focus"",""7"",""78662""
""blur"",""7"",""81230""
""focus"",""7"",""84176""
""blur"",""7"",""123317""
""focus"",""7"",""125047""
""blur"",""19"",""321791""
""focus"",""19"",""323961""
""blur"",""58"",""542618""
""focus"",""58"",""568570""
""blur"",""59"",""609665""
""focus"",""59"",""612129""
""blur"",""76"",""694358""
""focus"",""78"",""702432""
""blur"",""80"",""718878""
""focus"",""80"",""723160""
","""event"",""trial"",""time""
""blur"",""7"",""74685""
""blur"",""7"",""81230""
""blur"",""7"",""123317""
""blur"",""19"",""321791""
""blur"",""58"",""542618""
""blur"",""59"",""609665""
""blur"",""76"",""694358""
""blur"",""80"",""718878""
","""event"",""trial"",""time""
""focus"",""7"",""78662""
""focus"",""7"",""84176""
""focus"",""7"",""125047""
""focus"",""19"",""323961""
""focus"",""58"",""568570""
""focus"",""59"",""612129""
""focus"",""78"",""702432""
""focus"",""80"",""723160""
","""event"",""trial"",""time""
""fullscreenenter"",""1"",""1671""
","""event"",""trial"",""time""
""fullscreenexit"",""2"",""5341""
","","","476.59999999403954","","","21","4100","1267","&#9789;","elianto","#f73b6a7A"," "," ","1","-10","[1331.4000000059605]","1","0","4","","","","","","","",""
"pit-trial","90","787307","0.0-2.0-17.1-4.1","battery-v0.2","","""event"",""trial"",""time""
""fullscreenenter"",""1"",""1671""
""fullscreenexit"",""2"",""5341""
""blur"",""7"",""74685""
""focus"",""7"",""78662""
""blur"",""7"",""81230""
""focus"",""7"",""84176""
""blur"",""7"",""123317""
""focus"",""7"",""125047""
""blur"",""19"",""321791""
""focus"",""19"",""323961""
""blur"",""58"",""542618""
""focus"",""58"",""568570""
""blur"",""59"",""609665""
""focus"",""59"",""612129""
""blur"",""76"",""694358""
""focus"",""78"",""702432""
""blur"",""80"",""718878""
""focus"",""80"",""723160""
","""event"",""trial"",""time""
""blur"",""7"",""74685""
""blur"",""7"",""81230""
""blur"",""7"",""123317""
""blur"",""19"",""321791""
""blur"",""58"",""542618""
""blur"",""59"",""609665""
""blur"",""76"",""694358""
""blur"",""80"",""718878""
","""event"",""trial"",""time""
""focus"",""7"",""78662""
""focus"",""7"",""84176""
""focus"",""7"",""125047""
""focus"",""19"",""323961""
""focus"",""58"",""568570""
""focus"",""59"",""612129""
""focus"",""78"",""702432""
""focus"",""80"",""723160""
","""event"",""trial"",""time""
""fullscreenenter"",""1"",""1671""
","""event"",""trial"",""time""
""fullscreenexit"",""2"",""5341""
","","","207.19999998807907","","","21","4100","1267","&#9789;","elianto","#f73b6a7A"," "," ","1","0","[1064.699999988079]","1","0","4","","","","","","","",""
"pit-trial","91","790801","0.0-2.0-17.2-0.2","battery-v0.2","","""event"",""trial"",""time""
""fullscreenenter"",""1"",""1671""
""fullscreenexit"",""2"",""5341""
""blur"",""7"",""74685""
""focus"",""7"",""78662""
""blur"",""7"",""81230""
""focus"",""7"",""84176""
""blur"",""7"",""123317""
""focus"",""7"",""125047""
""blur"",""19"",""321791""
""focus"",""19"",""323961""
""blur"",""58"",""542618""
""focus"",""58"",""568570""
""blur"",""59"",""609665""
""focus"",""59"",""612129""
""blur"",""76"",""694358""
""focus"",""78"",""702432""
""blur"",""80"",""718878""
""focus"",""80"",""723160""
","""event"",""trial"",""time""
""blur"",""7"",""74685""
""blur"",""7"",""81230""
""blur"",""7"",""123317""
""blur"",""19"",""321791""
""blur"",""58"",""542618""
""blur"",""59"",""609665""
""blur"",""76"",""694358""
""blur"",""80"",""718878""
","""event"",""trial"",""time""
""focus"",""7"",""78662""
""focus"",""7"",""84176""
""focus"",""7"",""125047""
""focus"",""19"",""323961""
""focus"",""58"",""568570""
""focus"",""59"",""612129""
""focus"",""78"",""702432""
""focus"",""80"",""723160""
","""event"",""trial"",""time""
""fullscreenenter"",""1"",""1671""
","""event"",""trial"",""time""
""fullscreenexit"",""2"",""5341""
","","","626.5","","","21","4100","1267","&#9789;","elianto","#f73b6a7A"," "," ","1","0","[1481]","1","0","4","","","","","","","",""
"pit-trial","92","793762","0.0-2.0-17.2-1.2","battery-v0.2","","""event"",""trial"",""time""
""fullscreenenter"",""1"",""1671""
""fullscreenexit"",""2"",""5341""
""blur"",""7"",""74685""
""focus"",""7"",""78662""
""blur"",""7"",""81230""
""focus"",""7"",""84176""
""blur"",""7"",""123317""
""focus"",""7"",""125047""
""blur"",""19"",""321791""
""focus"",""19"",""323961""
""blur"",""58"",""542618""
""focus"",""58"",""568570""
""blur"",""59"",""609665""
""focus"",""59"",""612129""
""blur"",""76"",""694358""
""focus"",""78"",""702432""
""blur"",""80"",""718878""
""focus"",""80"",""723160""
","""event"",""trial"",""time""
""blur"",""7"",""74685""
""blur"",""7"",""81230""
""blur"",""7"",""123317""
""blur"",""19"",""321791""
""blur"",""58"",""542618""
""blur"",""59"",""609665""
""blur"",""76"",""694358""
""blur"",""80"",""718878""
","""event"",""trial"",""time""
""focus"",""7"",""78662""
""focus"",""7"",""84176""
""focus"",""7"",""125047""
""focus"",""19"",""323961""
""focus"",""58"",""568570""
""focus"",""59"",""612129""
""focus"",""78"",""702432""
""focus"",""80"",""723160""
","""event"",""trial"",""time""
""fullscreenenter"",""1"",""1671""
","""event"",""trial"",""time""
""fullscreenexit"",""2"",""5341""
","","","86.40000000596046","","","21","4100","1267","&#9789;","elianto","#f73b6a7A"," "," ","1","0","[945.7000000178814]","1","0","4","","","","","","","",""
"pit-trial","93","796826","0.0-2.0-17.2-2.2","battery-v0.2","","""event"",""trial"",""time""
""fullscreenenter"",""1"",""1671""
""fullscreenexit"",""2"",""5341""
""blur"",""7"",""74685""
""focus"",""7"",""78662""
""blur"",""7"",""81230""
""focus"",""7"",""84176""
""blur"",""7"",""123317""
""focus"",""7"",""125047""
""blur"",""19"",""321791""
""focus"",""19"",""323961""
""blur"",""58"",""542618""
""focus"",""58"",""568570""
""blur"",""59"",""609665""
""focus"",""59"",""612129""
""blur"",""76"",""694358""
""focus"",""78"",""702432""
""blur"",""80"",""718878""
""focus"",""80"",""723160""
","""event"",""trial"",""time""
""blur"",""7"",""74685""
""blur"",""7"",""81230""
""blur"",""7"",""123317""
""blur"",""19"",""321791""
""blur"",""58"",""542618""
""blur"",""59"",""609665""
""blur"",""76"",""694358""
""blur"",""80"",""718878""
","""event"",""trial"",""time""
