"trial_type","trial_index","time_elapsed","internal_node_id","task_version","subject_id","interactions","blur_events","focus_events","fullscreenenter_events","fullscreenexit_events","success","view_history","rt","responses","num_errors","age","subject","participantId","rune","rune_set","hex","correct","choice","accuracy","outcome","keys","total_keys","block","practice","value","sub","trial","stimulus","robot","valence","action","sham"
"pavlovia","0","15","0.0-0.0","battery-v0.2","","""event"",""trial"",""time""
""fullscreenenter"",""1"",""6433""
","
","
","""event"",""trial"",""time""
""fullscreenenter"",""1"",""6433""
","
","","","","","","","","","","","","","","","","","","","","","","","","","","",""
"fullscreen","1","7397","0.0-1.0","battery-v0.2","","""event"",""trial"",""time""
""fullscreenenter"",""1"",""6433""
","
","
","""event"",""trial"",""time""
""fullscreenenter"",""1"",""6433""
","
","true","","","","","","","","","","","","","","","","","","","","","","","","","",""
"pit-instructions","2","13396","0.0-2.0-0.0","battery-v0.2","","""event"",""trial"",""time""
""fullscreenenter"",""1"",""6433""
","
","
","""event"",""trial"",""time""
""fullscreenenter"",""1"",""6433""
","
","","[{""page_index"":0,""viewing_time"":5985.700000047684}]","5986","","","","","","","","","","","","","","","","","","","","","","","",""
"pit-comprehension","3","16800","0.0-2.0-1.0-0.0","battery-v0.2","","""event"",""trial"",""time""
""fullscreenenter"",""1"",""6433""
","
","
","""event"",""trial"",""time""
""fullscreenenter"",""1"",""6433""
","
","","","3401.2000000476837","[""shark""]","0","12","3512","2086","","","","","","","","","","","","","","","","","","",""
"pit-instructions","4","17936","0.0-2.0-1.0-1.0","battery-v0.2","","""event"",""trial"",""time""
""fullscreenenter"",""1"",""6433""
","
","
","""event"",""trial"",""time""
""fullscreenenter"",""1"",""6433""
","
","","[{""page_index"":0,""viewing_time"":1105.2999999523163}]","1105.6999999284744","","","","","","","","","","","","","","","","","","","","","","","",""
"pit-comprehension","5","20060","0.0-2.0-2.0-0.0","battery-v0.2","","""event"",""trial"",""time""
""fullscreenenter"",""1"",""6433""
","
","
","""event"",""trial"",""time""
""fullscreenenter"",""1"",""6433""
","
","","","2121.1999999284744","[""tiger""]","0","12","3512","2086","","","","","","","","","","","","","","","","","","",""
"pit-instructions","6","23314","0.0-2.0-2.0-1.0","battery-v0.2","","""event"",""trial"",""time""
""fullscreenenter"",""1"",""6433""
","
","
","""event"",""trial"",""time""
""fullscreenenter"",""1"",""6433""
","
","","[{""page_index"":0,""viewing_time"":3249.399999976158}]","3249.7999999523163","","","","","","","","","","","","","","","","","","","","","","","",""
"pit-instructions","7","115187","0.0-2.0-3.0","battery-v0.2","","""event"",""trial"",""time""
""fullscreenenter"",""1"",""6433""
","
","
","""event"",""trial"",""time""
""fullscreenenter"",""1"",""6433""
","
","","[{""page_index"":0,""viewing_time"":7991.100000023842},{""page_index"":1,""viewing_time"":5330},{""page_index"":2,""viewing_time"":6056},{""page_index"":3,""viewing_time"":5180.5},{""page_index"":4,""viewing_time"":5049.5},{""page_index"":5,""viewing_time"":5156.200000047684},{""page_index"":6,""viewing_time"":6033.699999928474},{""page_index"":7,""viewing_time"":6662.100000023842},{""page_index"":8,""viewing_time"":6309.899999976158},{""page_index"":9,""viewing_time"":10183.800000071526},{""page_index"":10,""viewing_time"":7726},{""page_index"":11,""viewing_time"":7582.100000023842},{""page_index"":12,""viewing_time"":7580.699999928474},{""page_index"":13,""viewing_time"":5029.200000047684}]","91871.20000004768","","","","","","","","","","","","","","","","","","","","","","","",""
"pit-trial","8","118875","0.0-2.0-4.0-0.0","battery-v0.2","","""event"",""trial"",""time""
""fullscreenenter"",""1"",""6433""
","
","
","""event"",""trial"",""time""
""fullscreenenter"",""1"",""6433""
","
","","","810.2999999523163","","","12","3512","2086","&#9784;","elianto","#FFFFF080"," "," ","1","&#10004","[1664.4000000953674]","1","0","0","","","","","","","",""
"pit-trial","9","122612","0.0-2.0-4.1-0.1","battery-v0.2","","""event"",""trial"",""time""
""fullscreenenter"",""1"",""6433""
","
","
","""event"",""trial"",""time""
""fullscreenenter"",""1"",""6433""
","
","","","872.8999999761581","","","12","3512","2086","&#9784;","elianto","#FFFFF080"," "," ","1","&#10004","[1725.2000000476837]","1","0","0","","","","","","","",""
"pit-trial","10","126202","0.0-2.0-4.2-0.2","battery-v0.2","","""event"",""trial"",""time""
""fullscreenenter"",""1"",""6433""
","
","
","""event"",""trial"",""time""
""fullscreenenter"",""1"",""6433""
","
","","","713.7999999523163","","","12","3512","2086","&#9784;","elianto","#FFFFF080"," "," ","1","&#10004","[1565.9000000953674]","1","0","0","","","","","","","",""
"pit-trial","11","129320","0.0-2.0-4.3-0.3","battery-v0.2","","""event"",""trial"",""time""
""fullscreenenter"",""1"",""6433""
","
","
","""event"",""trial"",""time""
""fullscreenenter"",""1"",""6433""
","
","","","242.29999995231628","","","12","3512","2086","&#9784;","elianto","#FFFFF080"," "," ","1","&#10004","[831,1095.6000000238419]","2","0","0","","","","","","","",""
"pit-trial","12","132303","0.0-2.0-4.4-0.4","battery-v0.2","","""event"",""trial"",""time""
""fullscreenenter"",""1"",""6433""
","
","
","""event"",""trial"",""time""
""fullscreenenter"",""1"",""6433""
","
","","","117.79999995231628","","","12","3512","2086","&#9784;","elianto","#FFFFF080"," "," ","1","&#10004","[971.1999999284744]","1","0","0","","","","","","","",""
"pit-instructions","13","157455","0.0-2.0-5.0","battery-v0.2","","""event"",""trial"",""time""
""fullscreenenter"",""1"",""6433""
","
","
","""event"",""trial"",""time""
""fullscreenenter"",""1"",""6433""
","
","","[{""page_index"":0,""viewing_time"":4142},{""page_index"":1,""viewing_time"":6071.700000047684},{""page_index"":2,""viewing_time"":4954},{""page_index"":3,""viewing_time"":9977.899999976158}]","25146.100000023842","","","","","","","","","","","","","","","","","","","","","","","",""
"pit-trial","14","162337","0.0-2.0-6.0-0.0","battery-v0.2","","""event"",""trial"",""time""
""fullscreenenter"",""1"",""6433""
","
","
","""event"",""trial"",""time""
""fullscreenenter"",""1"",""6433""
","
","","","-1","","","12","3512","2086","&#9854;","elianto","#FFFFF080","-1","-1","1","&#10004","[]","0","0","1","","","","","","","",""
"pit-trial","15","167221","0.0-2.0-6.1-0.1","battery-v0.2","","""event"",""trial"",""time""
""fullscreenenter"",""1"",""6433""
","
","
","""event"",""trial"",""time""
""fullscreenenter"",""1"",""6433""
","
","","","-1","","","12","3512","2086","&#9854;","elianto","#FFFFF080","-1","-1","1","&#10004","[]","0","0","1","","","","","","","",""
"pit-trial","16","172107","0.0-2.0-6.2-0.2","battery-v0.2","","""event"",""trial"",""time""
""fullscreenenter"",""1"",""6433""
","
","
","""event"",""trial"",""time""
""fullscreenenter"",""1"",""6433""
","
","","","-1","","","12","3512","2086","&#9854;","elianto","#FFFFF080","-1","-1","1","&#10004","[]","0","0","1","","","","","","","",""
"pit-trial","17","176993","0.0-2.0-6.3-0.3","battery-v0.2","","""event"",""trial"",""time""
""fullscreenenter"",""1"",""6433""
","
","
","""event"",""trial"",""time""
""fullscreenenter"",""1"",""6433""
","
","","","-1","","","12","3512","2086","&#9854;","elianto","#FFFFF080","-1","-1","1","&#10004","[]","0","0","1","","","","","","","",""
"pit-trial","18","181883","0.0-2.0-6.4-0.4","battery-v0.2","","""event"",""trial"",""time""
""fullscreenenter"",""1"",""6433""
","
","
","""event"",""trial"",""time""
""fullscreenenter"",""1"",""6433""
","
","","","-1","","","12","3512","2086","&#9854;","elianto","#FFFFF080","-1","-1","1","&#10004","[]","0","0","1","","","","","","","",""
"pit-instructions","19","289562","0.0-2.0-7.0","battery-v0.2","","""event"",""trial"",""time""
""fullscreenenter"",""1"",""6433""
","
","
","""event"",""trial"",""time""
""fullscreenenter"",""1"",""6433""
","
","","[{""page_index"":0,""viewing_time"":5288.5},{""page_index"":1,""viewing_time"":6288.200000047684},{""page_index"":2,""viewing_time"":5699.799999952316},{""page_index"":3,""viewing_time"":6250.100000023842},{""page_index"":4,""viewing_time"":5921.899999976158},{""page_index"":5,""viewing_time"":5491.900000095367},{""page_index"":6,""viewing_time"":4092.0999999046326},{""page_index"":7,""viewing_time"":7460.700000047684},{""page_index"":8,""viewing_time"":7393.200000047684},{""page_index"":9,""viewing_time"":5614},{""page_index"":10,""viewing_time"":6102},{""page_index"":11,""viewing_time"":4453.899999976158},{""page_index"":12,""viewing_time"":6072},{""page_index"":13,""viewing_time"":6154},{""page_index"":14,""viewing_time"":6672.199999928474},{""page_index"":15,""viewing_time"":6421.700000047684},{""page_index"":16,""viewing_time"":6233.899999976158},{""page_index"":17,""viewing_time"":6058}]","107668.5","","","","","","","","","","","","","","","","","","","","","","","",""
"pit-trial","20","293120","0.0-2.0-8.0-0.0","battery-v0.2","","""event"",""trial"",""time""
""fullscreenenter"",""1"",""6433""
","
","
","""event"",""trial"",""time""
""fullscreenenter"",""1"",""6433""
","
","","","690.7000000476837","","","12","3512","2086","&#9776;","elianto","#3366ff99"," "," ","1","+10","[1545.6000000238419]","1","0","1","","","","","","","",""
"pit-trial","21","296532","0.0-2.0-8.0-1.0","battery-v0.2","","""event"",""trial"",""time""
""fullscreenenter"",""1"",""6433""
","
","
","""event"",""trial"",""time""
""fullscreenenter"",""1"",""6433""
","
","","","543.2999999523163","","","12","3512","2086","&#9776;","elianto","#3366ff99"," "," ","1","+10","[1393.6000000238419]","1","0","1","","","","","","","",""
"pit-trial","22","299854","0.0-2.0-8.0-2.0","battery-v0.2","","""event"",""trial"",""time""
""fullscreenenter"",""1"",""6433""
","
","
","""event"",""trial"",""time""
""fullscreenenter"",""1"",""6433""
","
","","","456.8000000715256","","","12","3512","2086","&#9776;","elianto","#3366ff99"," "," ","1","+10","[1310.3000000715256]","1","0","1","","","","","","","",""
"pit-trial","23","303044","0.0-2.0-8.0-3.0","battery-v0.2","","""event"",""trial"",""time""
""fullscreenenter"",""1"",""6433""
","
","
","""event"",""trial"",""time""
""fullscreenenter"",""1"",""6433""
","
","","","318.60000002384186","","","12","3512","2086","&#9776;","elianto","#3366ff99"," "," ","1","0","[1173.2000000476837]","1","0","1","","","","","","","",""
"pit-trial","24","306140","0.0-2.0-8.0-4.0","battery-v0.2","","""event"",""trial"",""time""
""fullscreenenter"",""1"",""6433""
","
","
","""event"",""trial"",""time""
""fullscreenenter"",""1"",""6433""
","
","","","232.60000002384186","","","12","3512","2086","&#9776;","elianto","#3366ff99"," "," ","1","+10","[1085.5]","1","0","1","","","","","","","",""
"pit-trial","25","309136","0.0-2.0-8.1-0.1","battery-v0.2","","""event"",""trial"",""time""
""fullscreenenter"",""1"",""6433""
","
","
","""event"",""trial"",""time""
""fullscreenenter"",""1"",""6433""
","
","","","128.79999995231628","","","12","3512","2086","&#9776;","elianto","#3366ff99"," "," ","1","+10","[979.2000000476837]","1","0","1","","","","","","","",""
"pit-trial","26","312087","0.0-2.0-8.1-1.1","battery-v0.2","","""event"",""trial"",""time""
""fullscreenenter"",""1"",""6433""
","
","
","""event"",""trial"",""time""
""fullscreenenter"",""1"",""6433""
","
","","","74.70000004768372","","","12","3512","2086","&#9776;","elianto","#3366ff99"," "," ","1","+10","[929.7000000476837]","1","0","1","","","","","","","",""
"pit-trial","27","315036","0.0-2.0-8.1-2.1","battery-v0.2","","""event"",""trial"",""time""
""fullscreenenter"",""1"",""6433""
","
","
","""event"",""trial"",""time""
""fullscreenenter"",""1"",""6433""
","
","","","76","","","12","3512","2086","&#9776;","elianto","#3366ff99"," "," ","1","+10","[930.5]","1","0","1","","","","","","","",""
"pit-trial","28","317957","0.0-2.0-8.1-3.1","battery-v0.2","","""event"",""trial"",""time""
""fullscreenenter"",""1"",""6433""
","
","
","""event"",""trial"",""time""
""fullscreenenter"",""1"",""6433""
","
","","","48.200000047683716","","","12","3512","2086","&#9776;","elianto","#3366ff99"," "," ","1","0","[903.1000000238419]","1","0","1","","","","","","","",""
"pit-trial","29","320877","0.0-2.0-8.1-4.1","battery-v0.2","","""event"",""trial"",""time""
""fullscreenenter"",""1"",""6433""
","
","
","""event"",""trial"",""time""
""fullscreenenter"",""1"",""6433""
","
","","","57.39999997615814","","","12","3512","2086","&#9776;","elianto","#3366ff99"," "," ","1","+10","[911.3999999761581]","1","0","1","","","","","","","",""
"pit-trial","30","323853","0.0-2.0-8.2-0.2","battery-v0.2","","""event"",""trial"",""time""
""fullscreenenter"",""1"",""6433""
","
","
","""event"",""trial"",""time""
""fullscreenenter"",""1"",""6433""
","
","","","113.30000007152557","","","12","3512","2086","&#9776;","elianto","#3366ff99"," "," ","1","+10","[964.5]","1","0","1","","","","","","","",""
"pit-trial","31","327532","0.0-2.0-8.2-1.2","battery-v0.2","","""event"",""trial"",""time""
""fullscreenenter"",""1"",""6433""
","
","
","""event"",""trial"",""time""
""fullscreenenter"",""1"",""6433""
","
","","","817.5","","","12","3512","2086","&#9776;","elianto","#3366ff99"," "," ","1","+10","[830.1999999284744,1669.3999999761581]","2","0","1","","","","","","","",""
"pit-trial","32","330484","0.0-2.0-8.2-2.2","battery-v0.2","","""event"",""trial"",""time""
""fullscreenenter"",""1"",""6433""
","
","
","""event"",""trial"",""time""
""fullscreenenter"",""1"",""6433""
","
","","","87.70000004768372","","","12","3512","2086","&#9776;","elianto","#3366ff99"," "," ","1","+10","[941.5]","1","0","1","","","","","","","",""
"pit-trial","33","333462","0.0-2.0-8.2-3.2","battery-v0.2","","""event"",""trial"",""time""
""fullscreenenter"",""1"",""6433""
","
","
","""event"",""trial"",""time""
""fullscreenenter"",""1"",""6433""
","
","","","115","","","12","3512","2086","&#9776;","elianto","#3366ff99"," "," ","1","0","[968.5]","1","0","1","","","","","","","",""
"pit-trial","34","337134","0.0-2.0-8.2-4.2","battery-v0.2","","""event"",""trial"",""time""
""fullscreenenter"",""1"",""6433""
","
","
","""event"",""trial"",""time""
""fullscreenenter"",""1"",""6433""
","
","","","809.3000000715256","","","12","3512","2086","&#9776;","elianto","#3366ff99"," "," ","1","+10","[812.6000000238419,1661.2999999523163]","2","0","1","","","","","","","",""
"call-function","35","337138","0.0-2.0-9.0","battery-v0.2","","""event"",""trial"",""time""
""fullscreenenter"",""1"",""6433""
","
","
","""event"",""trial"",""time""
""fullscreenenter"",""1"",""6433""
","
","","","","","","","","","","","","","","","","","","","","","","","","","","",""
"pit-instructions","36","377921","0.0-2.0-10.0","battery-v0.2","","""event"",""trial"",""time""
""fullscreenenter"",""1"",""6433""
","
","
","""event"",""trial"",""time""
""fullscreenenter"",""1"",""6433""
","
","","[{""page_index"":0,""viewing_time"":9791.5},{""page_index"":1,""viewing_time"":6058},{""page_index"":2,""viewing_time"":9385.800000071526},{""page_index"":3,""viewing_time"":8278.600000023842},{""page_index"":4,""viewing_time"":7267.399999976158}]","40781.800000071526","","","","","","","","","","","","","","","","","","","","","","","",""
"pit-trial","37","382810","0.0-2.0-11.0-0.0","battery-v0.2","","""event"",""trial"",""time""
""fullscreenenter"",""1"",""6433""
","
","
","""event"",""trial"",""time""
""fullscreenenter"",""1"",""6433""
","
","","","-1","","","12","3512","2086","&#9761;","elianto","#3366ff99","-1","-1","1","+10","[]","0","0","2","","","","","","","",""
"pit-trial","38","387703","0.0-2.0-11.0-1.0","battery-v0.2","","""event"",""trial"",""time""
""fullscreenenter"",""1"",""6433""
","
","
","""event"",""trial"",""time""
""fullscreenenter"",""1"",""6433""
","
","","","-1","","","12","3512","2086","&#9761;","elianto","#3366ff99","-1","-1","1","+10","[]","0","0","2","","","","","","","",""
"pit-trial","39","392579","0.0-2.0-11.0-2.0","battery-v0.2","","""event"",""trial"",""time""
""fullscreenenter"",""1"",""6433""
","
","
","""event"",""trial"",""time""
""fullscreenenter"",""1"",""6433""
","
","","","-1","","","12","3512","2086","&#9761;","elianto","#3366ff99","-1","-1","1","+10","[]","0","0","2","","","","","","","",""
"pit-trial","40","397455","0.0-2.0-11.0-3.0","battery-v0.2","","""event"",""trial"",""time""
""fullscreenenter"",""1"",""6433""
","
","
","""event"",""trial"",""time""
""fullscreenenter"",""1"",""6433""
","
","","","-1","","","12","3512","2086","&#9761;","elianto","#3366ff99","-1","-1","1","0","[]","0","0","2","","","","","","","",""
"pit-trial","41","402337","0.0-2.0-11.0-4.0","battery-v0.2","","""event"",""trial"",""time""
""fullscreenenter"",""1"",""6433""
","
","
","""event"",""trial"",""time""
""fullscreenenter"",""1"",""6433""
","
","","","-1","","","12","3512","2086","&#9761;","elianto","#3366ff99","-1","-1","1","+10","[]","0","0","2","","","","","","","",""
"pit-trial","42","407223","0.0-2.0-11.1-0.1","battery-v0.2","","""event"",""trial"",""time""
""fullscreenenter"",""1"",""6433""
","
","
","""event"",""trial"",""time""
""fullscreenenter"",""1"",""6433""
","
","","","-1","","","12","3512","2086","&#9761;","elianto","#3366ff99","-1","-1","1","+10","[]","0","0","2","","","","","","","",""
"pit-trial","43","412085","0.0-2.0-11.1-1.1","battery-v0.2","","""event"",""trial"",""time""
""fullscreenenter"",""1"",""6433""
","
","
","""event"",""trial"",""time""
""fullscreenenter"",""1"",""6433""
","
","","","-1","","","12","3512","2086","&#9761;","elianto","#3366ff99","-1","-1","1","+10","[]","0","0","2","","","","","","","",""
"pit-trial","44","416948","0.0-2.0-11.1-2.1","battery-v0.2","","""event"",""trial"",""time""
""fullscreenenter"",""1"",""6433""
","
","
","""event"",""trial"",""time""
""fullscreenenter"",""1"",""6433""
","
","","","-1","","","12","3512","2086","&#9761;","elianto","#3366ff99","-1","-1","1","+10","[]","0","0","2","","","","","","","",""
"pit-trial","45","421825","0.0-2.0-11.1-3.1","battery-v0.2","","""event"",""trial"",""time""
""fullscreenenter"",""1"",""6433""
","
","
","""event"",""trial"",""time""
""fullscreenenter"",""1"",""6433""
","
","","","-1","","","12","3512","2086","&#9761;","elianto","#3366ff99","-1","-1","1","0","[]","0","0","2","","","","","","","",""
"pit-trial","46","426693","0.0-2.0-11.1-4.1","battery-v0.2","","""event"",""trial"",""time""
""fullscreenenter"",""1"",""6433""
","
","
","""event"",""trial"",""time""
""fullscreenenter"",""1"",""6433""
","
","","","-1","","","12","3512","2086","&#9761;","elianto","#3366ff99","-1","-1","1","+10","[]","0","0","2","","","","","","","",""
"pit-trial","47","431578","0.0-2.0-11.2-0.2","battery-v0.2","","""event"",""trial"",""time""
""fullscreenenter"",""1"",""6433""
","
","
","""event"",""trial"",""time""
""fullscreenenter"",""1"",""6433""
","
","","","-1","","","12","3512","2086","&#9761;","elianto","#3366ff99","-1","-1","1","+10","[]","0","0","2","","","","","","","",""
"pit-trial","48","436445","0.0-2.0-11.2-1.2","battery-v0.2","","""event"",""trial"",""time""
""fullscreenenter"",""1"",""6433""
","
","
","""event"",""trial"",""time""
""fullscreenenter"",""1"",""6433""
","
","","","-1","","","12","3512","2086","&#9761;","elianto","#3366ff99","-1","-1","1","+10","[]","0","0","2","","","","","","","",""
"pit-trial","49","441309","0.0-2.0-11.2-2.2","battery-v0.2","","""event"",""trial"",""time""
""fullscreenenter"",""1"",""6433""
","
","
","""event"",""trial"",""time""
""fullscreenenter"",""1"",""6433""
","
","","","-1","","","12","3512","2086","&#9761;","elianto","#3366ff99","-1","-1","1","+10","[]","0","0","2","","","","","","","",""
"pit-trial","50","446172","0.0-2.0-11.2-3.2","battery-v0.2","","""event"",""trial"",""time""
""fullscreenenter"",""1"",""6433""
","
","
","""event"",""trial"",""time""
""fullscreenenter"",""1"",""6433""
","
","","","-1","","","12","3512","2086","&#9761;","elianto","#3366ff99","-1","-1","1","0","[]","0","0","2","","","","","","","",""
"pit-trial","51","451037","0.0-2.0-11.2-4.2","battery-v0.2","","""event"",""trial"",""time""
""fullscreenenter"",""1"",""6433""
","
","
","""event"",""trial"",""time""
""fullscreenenter"",""1"",""6433""
","
","","","-1","","","12","3512","2086","&#9761;","elianto","#3366ff99","-1","-1","1","+10","[]","0","0","2","","","","","","","",""
"pit-trial","52","455902","0.0-2.0-11.3-0.3","battery-v0.2","","""event"",""trial"",""time""
""fullscreenenter"",""1"",""6433""
","
","
","""event"",""trial"",""time""
""fullscreenenter"",""1"",""6433""
","
","","","-1","","","12","3512","2086","&#9761;","elianto","#3366ff99","-1","-1","1","+10","[]","0","0","2","","","","","","","",""
"pit-trial","53","460764","0.0-2.0-11.3-1.3","battery-v0.2","","""event"",""trial"",""time""
""fullscreenenter"",""1"",""6433""
","
","
","""event"",""trial"",""time""
""fullscreenenter"",""1"",""6433""
","
","","","-1","","","12","3512","2086","&#9761;","elianto","#3366ff99","-1","-1","1","+10","[]","0","0","2","","","","","","","",""
"pit-trial","54","465637","0.0-2.0-11.3-2.3","battery-v0.2","","""event"",""trial"",""time""
""fullscreenenter"",""1"",""6433""
","
","
","""event"",""trial"",""time""
""fullscreenenter"",""1"",""6433""
","
","","","-1","","","12","3512","2086","&#9761;","elianto","#3366ff99","-1","-1","1","+10","[]","0","0","2","","","","","","","",""
"pit-trial","55","470501","0.0-2.0-11.3-3.3","battery-v0.2","","""event"",""trial"",""time""
""fullscreenenter"",""1"",""6433""
","
","
","""event"",""trial"",""time""
""fullscreenenter"",""1"",""6433""
","
","","","-1","","","12","3512","2086","&#9761;","elianto","#3366ff99","-1","-1","1","0","[]","0","0","2","","","","","","","",""
"pit-trial","56","475365","0.0-2.0-11.3-4.3","battery-v0.2","","""event"",""trial"",""time""
""fullscreenenter"",""1"",""6433""
","
","
","""event"",""trial"",""time""
""fullscreenenter"",""1"",""6433""
","
","","","-1","","","12","3512","2086","&#9761;","elianto","#3366ff99","-1","-1","1","+10","[]","0","0","2","","","","","","","",""
"call-function","57","475368","0.0-2.0-12.0","battery-v0.2","","""event"",""trial"",""time""
""fullscreenenter"",""1"",""6433""
","
","
","""event"",""trial"",""time""
""fullscreenenter"",""1"",""6433""
","
","","","","","","","","","","","","","","","","","","","","","","","","","","",""
"pit-instructions","58","519710","0.0-2.0-13.0","battery-v0.2","","""event"",""trial"",""time""
""fullscreenenter"",""1"",""6433""
","
","
","""event"",""trial"",""time""
""fullscreenenter"",""1"",""6433""
","
","","[{""page_index"":0,""viewing_time"":16338.399999976158},{""page_index"":1,""viewing_time"":7595.900000095367},{""page_index"":2,""viewing_time"":4241.899999976158},{""page_index"":3,""viewing_time"":10682.100000023842},{""page_index"":4,""viewing_time"":5481.799999952316}]","44340.60000002384","","","","","","","","","","","","","","","","","","","","","","","",""
"pit-trial","59","523103","0.0-2.0-14.0-0.0","battery-v0.2","","""event"",""trial"",""time""
""fullscreenenter"",""1"",""6433""
","
","
","""event"",""trial"",""time""
""fullscreenenter"",""1"",""6433""
","
","","","521.6999999284744","","","12","3512","2086","&#9826;","elianto","#f73b6a7A","-1"," ","0","-10","[1373.7000000476837]","1","0","3","","","","","","","",""
"pit-trial","60","526246","0.0-2.0-14.0-1.0","battery-v0.2","","""event"",""trial"",""time""
""fullscreenenter"",""1"",""6433""
","
","
","""event"",""trial"",""time""
""fullscreenenter"",""1"",""6433""
","
","","","275.8000000715256","","","12","3512","2086","&#9826;","elianto","#f73b6a7A","-1"," ","0","-10","[1131]","1","0","3","","","","","","","",""
"pit-trial","61","529316","0.0-2.0-14.0-2.0","battery-v0.2","","""event"",""trial"",""time""
""fullscreenenter"",""1"",""6433""
","
","
","""event"",""trial"",""time""
""fullscreenenter"",""1"",""6433""
","
","","","192.09999990463257","","","12","3512","2086","&#9826;","elianto","#f73b6a7A","-1"," ","0","-10","[1043.6000000238419]","1","0","3","","","","","","","",""
"pit-trial","62","534204","0.0-2.0-14.0-3.0","battery-v0.2","","""event"",""trial"",""time""
""fullscreenenter"",""1"",""6433""
","
","
","""event"",""trial"",""time""
""fullscreenenter"",""1"",""6433""
","
","","","-1","","","12","3512","2086","&#9826;","elianto","#f73b6a7A","-1","-1","1","-10","[]","0","0","3","","","","","","","",""
"pit-trial","63","539090","0.0-2.0-14.0-4.0","battery-v0.2","","""event"",""trial"",""time""
""fullscreenenter"",""1"",""6433""
","
","
","""event"",""trial"",""time""
""fullscreenenter"",""1"",""6433""
","
","","","-1","","","12","3512","2086","&#9826;","elianto","#f73b6a7A","-1","-1","1","0","[]","0","0","3","","","","","","","",""
"pit-trial","64","543977","0.0-2.0-14.1-0.1","battery-v0.2","","""event"",""trial"",""time""
""fullscreenenter"",""1"",""6433""
","
","
","""event"",""trial"",""time""
""fullscreenenter"",""1"",""6433""
","
","","","-1","","","12","3512","2086","&#9826;","elianto","#f73b6a7A","-1","-1","1","0","[]","0","0","3","","","","","","","",""
"pit-trial","65","548848","0.0-2.0-14.1-1.1","battery-v0.2","","""event"",""trial"",""time""
""fullscreenenter"",""1"",""6433""
","
","
","""event"",""trial"",""time""
""fullscreenenter"",""1"",""6433""
","
","","","-1","","","12","3512","2086","&#9826;","elianto","#f73b6a7A","-1","-1","1","0","[]","0","0","3","","","","","","","",""
"pit-trial","66","553716","0.0-2.0-14.1-2.1","battery-v0.2","","""event"",""trial"",""time""
""fullscreenenter"",""1"",""6433""
","
","
","""event"",""trial"",""time""
""fullscreenenter"",""1"",""6433""
","
","","","-1","","","12","3512","2086","&#9826;","elianto","#f73b6a7A","-1","-1","1","0","[]","0","0","3","","","","","","","",""
"pit-trial","67","558581","0.0-2.0-14.1-3.1","battery-v0.2","","""event"",""trial"",""time""
""fullscreenenter"",""1"",""6433""
","
","
","""event"",""trial"",""time""
""fullscreenenter"",""1"",""6433""
","
","","","-1","","","12","3512","2086","&#9826;","elianto","#f73b6a7A","-1","-1","1","-10","[]","0","0","3","","","","","","","",""
"pit-trial","68","563445","0.0-2.0-14.1-4.1","battery-v0.2","","""event"",""trial"",""time""
""fullscreenenter"",""1"",""6433""
","
","
","""event"",""trial"",""time""
""fullscreenenter"",""1"",""6433""
","
","","","-1","","","12","3512","2086","&#9826;","elianto","#f73b6a7A","-1","-1","1","0","[]","0","0","3","","","","","","","",""
"pit-trial","69","568310","0.0-2.0-14.2-0.2","battery-v0.2","","""event"",""trial"",""time""
""fullscreenenter"",""1"",""6433""
","
","
","""event"",""trial"",""time""
""fullscreenenter"",""1"",""6433""
","
","","","-1","","","12","3512","2086","&#9826;","elianto","#f73b6a7A","-1","-1","1","0","[]","0","0","3","","","","","","","",""
"pit-trial","70","573173","0.0-2.0-14.2-1.2","battery-v0.2","","""event"",""trial"",""time""
""fullscreenenter"",""1"",""6433""
","
","
","""event"",""trial"",""time""
""fullscreenenter"",""1"",""6433""
","
","","","-1","","","12","3512","2086","&#9826;","elianto","#f73b6a7A","-1","-1","1","0","[]","0","0","3","","","","","","","",""
"pit-trial","71","578037","0.0-2.0-14.2-2.2","battery-v0.2","","""event"",""trial"",""time""
""fullscreenenter"",""1"",""6433""
","
","
","""event"",""trial"",""time""
""fullscreenenter"",""1"",""6433""
","
","","","-1","","","12","3512","2086","&#9826;","elianto","#f73b6a7A","-1","-1","1","0","[]","0","0","3","","","","","","","",""
"pit-trial","72","582901","0.0-2.0-14.2-3.2","battery-v0.2","","""event"",""trial"",""time""
""fullscreenenter"",""1"",""6433""
","
","
","""event"",""trial"",""time""
""fullscreenenter"",""1"",""6433""
","
","","","-1","","","12","3512","2086","&#9826;","elianto","#f73b6a7A","-1","-1","1","-10","[]","0","0","3","","","","","","","",""
"pit-trial","73","587765","0.0-2.0-14.2-4.2","battery-v0.2","","""event"",""trial"",""time""
""fullscreenenter"",""1"",""6433""
","
","
","""event"",""trial"",""time""
""fullscreenenter"",""1"",""6433""
","
","","","-1","","","12","3512","2086","&#9826;","elianto","#f73b6a7A","-1","-1","1","0","[]","0","0","3","","","","","","","",""
"pit-trial","74","592637","0.0-2.0-14.3-0.3","battery-v0.2","","""event"",""trial"",""time""
""fullscreenenter"",""1"",""6433""
","
","
","""event"",""trial"",""time""
""fullscreenenter"",""1"",""6433""
","
","","","-1","","","12","3512","2086","&#9826;","elianto","#f73b6a7A","-1","-1","1","0","[]","0","0","3","","","","","","","",""
"pit-trial","75","597510","0.0-2.0-14.3-1.3","battery-v0.2","","""event"",""trial"",""time""
""fullscreenenter"",""1"",""6433""
","
","
","""event"",""trial"",""time""
""fullscreenenter"",""1"",""6433""
","
","","","-1","","","12","3512","2086","&#9826;","elianto","#f73b6a7A","-1","-1","1","0","[]","0","0","3","","","","","","","",""
"pit-trial","76","602373","0.0-2.0-14.3-2.3","battery-v0.2","","""event"",""trial"",""time""
""fullscreenenter"",""1"",""6433""
","
","
","""event"",""trial"",""time""
""fullscreenenter"",""1"",""6433""
","
","","","-1","","","12","3512","2086","&#9826;","elianto","#f73b6a7A","-1","-1","1","0","[]","0","0","3","","","","","","","",""
"pit-trial","77","607243","0.0-2.0-14.3-3.3","battery-v0.2","","""event"",""trial"",""time""
""fullscreenenter"",""1"",""6433""
","
","
","""event"",""trial"",""time""
""fullscreenenter"",""1"",""6433""
","
","","","-1","","","12","3512","2086","&#9826;","elianto","#f73b6a7A","-1","-1","1","-10","[]","0","0","3","","","","","","","",""
"pit-trial","78","612109","0.0-2.0-14.3-4.3","battery-v0.2","","""event"",""trial"",""time""
""fullscreenenter"",""1"",""6433""
","
","
","""event"",""trial"",""time""
""fullscreenenter"",""1"",""6433""
","
","","","-1","","","12","3512","2086","&#9826;","elianto","#f73b6a7A","-1","-1","1","0","[]","0","0","3","","","","","","","",""
"call-function","79","612113","0.0-2.0-15.0","battery-v0.2","","""event"",""trial"",""time""
""fullscreenenter"",""1"",""6433""
","
","
","""event"",""trial"",""time""
""fullscreenenter"",""1"",""6433""
","
","","","","","","","","","","","","","","","","","","","","","","","","","","",""
"pit-instructions","80","642714","0.0-2.0-16.0","battery-v0.2","","""event"",""trial"",""time""
""fullscreenenter"",""1"",""6433""
","
","
","""event"",""trial"",""time""
""fullscreenenter"",""1"",""6433""
","
","","[{""page_index"":0,""viewing_time"":7121.599999904633},{""page_index"":1,""viewing_time"":13511.900000095367},{""page_index"":2,""viewing_time"":5114},{""page_index"":3,""viewing_time"":4852.099999904633}]","30600","","","","","","","","","","","","","","","","","","","","","","","",""
"pit-trial","81","645837","0.0-2.0-17.0-0.0","battery-v0.2","","""event"",""trial"",""time""
""fullscreenenter"",""1"",""6433""
","
","
","""event"",""trial"",""time""
""fullscreenenter"",""1"",""6433""
","
","","","257.5","","","12","3512","2086","&#9789;","elianto","#f73b6a7A"," "," ","1","0","[1114.0999999046326,1297.1999999284744,1497.1999999284744,1673.0999999046326,2041.5,2209,2585.0999999046326,2777.2999999523163,2937]","9","0","4","","","","","","","",""
"pit-trial","82","648910","0.0-2.0-17.0-1.0","battery-v0.2","","""event"",""trial"",""time""
""fullscreenenter"",""1"",""6433""
","
","
","""event"",""trial"",""time""
""fullscreenenter"",""1"",""6433""
","
","","","207.29999995231628","","","12","3512","2086","&#9789;","elianto","#f73b6a7A"," "," ","1","0","[21.700000047683716,243.89999997615814,1060.3000000715256,1612.5,1772.3999999761581,1980.3999999761581,2172.600000023842,2436.399999976158,2636.3000000715256,2788.5,2972.3000000715256]","11","0","4","","","","","","","",""
"pit-trial","83","652143","0.0-2.0-17.0-2.0","battery-v0.2","","""event"",""trial"",""time""
""fullscreenenter"",""1"",""6433""
","
","
","""event"",""trial"",""time""
""fullscreenenter"",""1"",""6433""
","
","","","367.59999990463257","","","12","3512","2086","&#9789;","elianto","#f73b6a7A"," "," ","1","0","[1219.5]","1","0","4","","","","","","","",""
"pit-trial","84","655672","0.0-2.0-17.0-3.0","battery-v0.2","","""event"",""trial"",""time""
""fullscreenenter"",""1"",""6433""
","
","
","""event"",""trial"",""time""
""fullscreenenter"",""1"",""6433""
","
","","","660.5","","","12","3512","2086","&#9789;","elianto","#f73b6a7A"," "," ","1","-10","[1515.2000000476837]","1","0","4","","","","","","","",""
"pit-trial","85","660090","0.0-2.0-17.0-4.0","battery-v0.2","","""event"",""trial"",""time""
""fullscreenenter"",""1"",""6433""
","
","
","""event"",""trial"",""time""
""fullscreenenter"",""1"",""6433""
","
","","","1537.9000000953674","","","12","3512","2086","&#9789;","elianto","#f73b6a7A"," "," ","1","0","[2393.8000000715256,2610.5,4227.200000047684]","3","0","4","","","","","","","",""
"pit-trial","86","663221","0.0-2.0-17.1-0.1","battery-v0.2","","""event"",""trial"",""time""
""fullscreenenter"",""1"",""6433""
","
","
","""event"",""trial"",""time""
""fullscreenenter"",""1"",""6433""
","
","","","255.79999995231628","","","12","3512","2086","&#9789;","elianto","#f73b6a7A"," "," ","1","0","[1110.6999999284744]","1","0","4","","","","","","","",""
"pit-trial","87","666720","0.0-2.0-17.1-1.1","battery-v0.2","","""event"",""trial"",""time""
""fullscreenenter"",""1"",""6433""
","
","
","""event"",""trial"",""time""
""fullscreenenter"",""1"",""6433""
","
","","","624.9000000953674","","","12","3512","2086","&#9789;","elianto","#f73b6a7A"," "," ","1","0","[1476.7000000476837,1668.3999999761581]","2","0","4","","","","","","","",""
"pit-trial","88","670650","0.0-2.0-17.1-2.1","battery-v0.2","","""event"",""trial"",""time""
""fullscreenenter"",""1"",""6433""
","
","
","""event"",""trial"",""time""
""fullscreenenter"",""1"",""6433""
","
","","","1063.5","","","12","3512","2086","&#9789;","elianto","#f73b6a7A"," "," ","1","0","[1914.6000000238419]","1","0","4","","","","","","","",""
"pit-trial","89","675517","0.0-2.0-17.1-3.1","battery-v0.2","","""event"",""trial"",""time""
""fullscreenenter"",""1"",""6433""
","
","
","""event"",""trial"",""time""
""fullscreenenter"",""1"",""6433""
","
","","","-1","","","12","3512","2086","&#9789;","elianto","#f73b6a7A"," ","-1","0","0","[]","0","0","4","","","","","","","",""
"pit-trial","90","680012","0.0-2.0-17.1-4.1","battery-v0.2","","""event"",""trial"",""time""
""fullscreenenter"",""1"",""6433""
","
","
","""event"",""trial"",""time""
""fullscreenenter"",""1"",""6433""
","
","","","1633.5","","","12","3512","2086","&#9789;","elianto","#f73b6a7A"," "," ","1","0","[2484.5]","1","0","4","","","","","","","",""
"pit-trial","91","684444","0.0-2.0-17.2-0.2","battery-v0.2","","""event"",""trial"",""time""
""fullscreenenter"",""1"",""6433""
","
","
","""event"",""trial"",""time""
""fullscreenenter"",""1"",""6433""
","
","","","1567.7000000476837","","","12","3512","2086","&#9789;","elianto","#f73b6a7A"," "," ","1","0","[2420]","1","0","4","","","","","","","",""
"pit-trial","92","687556","0.0-2.0-17.2-1.2","battery-v0.2","","""event"",""trial"",""time""
""fullscreenenter"",""1"",""6433""
","
","
","""event"",""trial"",""time""
""fullscreenenter"",""1"",""6433""
","
","","","255.60000002384186","","","12","3512","2086","&#9789;","elianto","#f73b6a7A"," "," ","1","0","[1107.6000000238419]","1","0","4","","","","","","","",""
"pit-trial","93","690899","0.0-2.0-17.2-2.2","battery-v0.2","","""event"",""trial"",""time""
""fullscreenenter"",""1"",""6433""
","
","
","""event"",""trial"",""time""
""fullscreenenter"",""1"",""6433""
","
","","","477.40000009536743","","","12","3512","2086","&#9789;","elianto","#f73b6a7A"," "," ","1","0","[1332.2000000476837]","1","0","4","","","","","","","",""
"pit-trial","94","694164","0.0-2.0-17.2-3.2","battery-v0.2","","""event"",""trial"",""time""
""fullscreenenter"",""1"",""6433""
","
","
","""event"",""trial"",""time""
""fullscreenenter"",""1"",""6433""
","
","","","400.39999997615814","","","12","3512","2086","&#9789;","elianto","#f73b6a7A"," "," ","1","-10","[1255.1000000238419]","1","0","4","","","","","","","",""
"pit-trial","95","697315","0.0-2.0-17.2-4.2","battery-v0.2","","""event"",""trial"",""time""
""fullscreenenter"",""1"",""6433""
","
","
","""event"",""trial"",""time""
""fullscreenenter"",""1"",""6433""
","
","","","288.60000002384186","","","12","3512","2086","&#9789;","elianto","#f73b6a7A"," "," ","1","0","[1140.7000000476837]","1","0","4","","","","","","","",""
"pit-trial","96","700508","0.0-2.0-17.3-0.3","battery-v0.2","","""event"",""trial"",""time""
""fullscreenenter"",""1"",""6433""
","
","
","""event"",""trial"",""time""
""fullscreenenter"",""1"",""6433""
","
","","","334.90000009536743","","","12","3512","2086","&#9789;","elianto","#f73b6a7A"," "," ","1","0","[1186.9000000953674]","1","0","4","","","","","","","",""
"pit-trial","97","704444","0.0-2.0-17.3-1.3","battery-v0.2","","""event"",""trial"",""time""
""fullscreenenter"",""1"",""6433""
","
","
","""event"",""trial"",""time""
""fullscreenenter"",""1"",""6433""
","
","","","1072.8000000715256","","","12","3512","2086","&#9789;","elianto","#f73b6a7A"," "," ","1","0","[1924.8999999761581]","1","0","4","","","","","","","",""
"pit-trial","98","707804","0.0-2.0-17.3-2.3","battery-v0.2","","""event"",""trial"",""time""
""fullscreenenter"",""1"",""6433""
","
","
","""event"",""trial"",""time""
""fullscreenenter"",""1"",""6433""
","
","","","497.09999990463257","","","12","3512","2086","&#9789;","elianto","#f73b6a7A"," "," ","1","0","[1347.4000000953674]","1","0","4","","","","","","","",""
"pit-trial","99","711277","0.0-2.0-17.3-3.3","battery-v0.2","","""event"",""trial"",""time""
""fullscreenenter"",""1"",""6433""
","
","
","""event"",""trial"",""time""
""fullscreenenter"",""1"",""6433""
","
","","","608.1000000238419","","","12","3512","2086","&#9789;","elianto","#f73b6a7A"," "," ","1","-10","[1460.7999999523163]","1","0","4","","","","","","","",""
"pit-trial","100","714949","0.0-2.0-17.3-4.3","battery-v0.2","","""event"",""trial"",""time""
""fullscreenenter"",""1"",""6433""
","
","
","""event"",""trial"",""time""
""fullscreenenter"",""1"",""6433""
","
","","","808.5","","","12","3512","2086","&#9789;","elianto","#f73b6a7A"," "," ","1","0","[1659.6000000238419]","1","0","4","","","","","","","",""
"call-function","101","714952","0.0-2.0-18.0","battery-v0.2","","""event"",""trial"",""time""
""fullscreenenter"",""1"",""6433""
","
","
","""event"",""trial"",""time""
""fullscreenenter"",""1"",""6433""
","
","","","","","","","","","","","","","","","","","","","","","","","","","","",""
"pit-instructions","102","793063","0.0-2.0-19.0","battery-v0.2","","""event"",""trial"",""time""
""fullscreenenter"",""1"",""6433""
","
","
","""event"",""trial"",""time""
""fullscreenenter"",""1"",""6433""
","
","","[{""page_index"":0,""viewing_time"":10406.899999976158},{""page_index"":1,""viewing_time"":9673.899999976158},{""page_index"":2,""viewing_time"":16134.300000071526},{""page_index"":3,""viewing_time"":4993.799999952316},{""page_index"":4,""viewing_time"":8473.899999976158},{""page_index"":5,""viewing_time"":8089.700000047684},{""page_index"":6,""viewing_time"":6794.200000047684},{""page_index"":7,""viewing_time"":8156},{""page_index"":8,""viewing_time"":5386.199999928474}]","78109.20000004768","","","","","","","","","","","","","","","","","","","","","","","",""
"pit-comprehension","103","797272","0.0-2.0-20.0-0.0","battery-v0.2","","""event"",""trial"",""time""
""fullscreenenter"",""1"",""6433""
","
","
","""event"",""trial"",""time""
""fullscreenenter"",""1"",""6433""
","
","","","4205.099999904633","[""SPACE""]","0","12","3512","2086","","","","","","","","","","","","","","","","","","",""
"pit-instructions","104","800649","0.0-2.0-20.0-1.0","battery-v0.2","","""event"",""trial"",""time""
""fullscreenenter"",""1"",""6433""
","
","
","""event"",""trial"",""time""
""fullscreenenter"",""1"",""6433""
","
","","[{""page_index"":0,""viewing_time"":3332.4000000953674}]","3332.7000000476837","","","","","","","","","","","","","","","","","","","","","","","",""
"pit-comprehension","105","804725","0.0-2.0-21.0-0.0","battery-v0.2","","""event"",""trial"",""time""
""fullscreenenter"",""1"",""6433""
","
","
","""event"",""trial"",""time""
""fullscreenenter"",""1"",""6433""
","
","","","4073.100000023842","[""10""]","0","12","3512","2086","","","","","","","","","","","","","","","","","","",""
"pit-instructions","106","806193","0.0-2.0-21.0-1.0","battery-v0.2","","""event"",""trial"",""time""
""fullscreenenter"",""1"",""6433""
","
","
","""event"",""trial"",""time""
""fullscreenenter"",""1"",""6433""
","
","","[{""page_index"":0,""viewing_time"":1424.8999999761581}]","1425.1999999284744","","","","","","","","","","","","","","","","","","","","","","","",""
"pit-comprehension","107","812271","0.0-2.0-22.0-0.0","battery-v0.2","","""event"",""trial"",""time""
""fullscreenenter"",""1"",""6433""
","
","
","""event"",""trial"",""time""
""fullscreenenter"",""1"",""6433""
","
","","","6075.299999952316","[""0""]","0","12","3512","2086","","","","","","","","","","","","","","","","","","",""
"pit-instructions","108","813809","0.0-2.0-22.0-1.0","battery-v0.2","","""event"",""trial"",""time""
""fullscreenenter"",""1"",""6433""
","
","
","""event"",""trial"",""time""
""fullscreenenter"",""1"",""6433""
","
","","[{""page_index"":0,""viewing_time"":1486.3999999761581}]","1486.7999999523163","","","","","","","","","","","","","","","","","","","","","","","",""
"pit-comprehension","109","823269","0.0-2.0-23.0-0.0","battery-v0.2","","""event"",""trial"",""time""
""fullscreenenter"",""1"",""6433""
","
","
","""event"",""trial"",""time""
""fullscreenenter"",""1"",""6433""
","
","","","9458.100000023842","[""True""]","0","12","3512","2086","","","","","","","","","","","","","","","","","","",""
"pit-instructions","110","824574","0.0-2.0-23.0-1.0","battery-v0.2","","""event"",""trial"",""time""
""fullscreenenter"",""1"",""6433""
","
","
","""event"",""trial"",""time""
""fullscreenenter"",""1"",""6433""
","
","","[{""page_index"":0,""viewing_time"":1259.2999999523163}]","1259.6000000238419","","","","","","","","","","","","","","","","","","","","","","","",""
"pit-comprehension","111","831617","0.0-2.0-24.0-0.0","battery-v0.2","","""event"",""trial"",""time""
""fullscreenenter"",""1"",""6433""
","
","
","""event"",""trial"",""time""
""fullscreenenter"",""1"",""6433""
","
","","","7040.100000023842","[""True""]","0","12","3512","2086","","","","","","","","","","","","","","","","","","",""
"pit-instructions","112","832817","0.0-2.0-24.0-1.0","battery-v0.2","","""event"",""trial"",""time""
""fullscreenenter"",""1"",""6433""
","
","
","""event"",""trial"",""time""
""fullscreenenter"",""1"",""6433""
","
","","[{""page_index"":0,""viewing_time"":1152.7999999523163}]","1153","","","","","","","","","","","","","","","","","","","","","","","",""
"pit-comprehension","113","838875","0.0-2.0-25.0-0.0","battery-v0.2","","""event"",""trial"",""time""
""fullscreenenter"",""1"",""6433""
","
","
","""event"",""trial"",""time""
""fullscreenenter"",""1"",""6433""
","
","","","6055.900000095367","[""True""]","0","12","3512","2086","","","","","","","","","","","","","","","","","","",""
"pit-instructions","114","840323","0.0-2.0-25.0-1.0","battery-v0.2","","""event"",""trial"",""time""
""fullscreenenter"",""1"",""6433""
","
","
","""event"",""trial"",""time""
""fullscreenenter"",""1"",""6433""
","
","","[{""page_index"":0,""viewing_time"":1403.3999999761581}]","1403.6000000238419","","","","","","","","","","","","","","","","","","","","","","","",""
"pit-comprehension","115","845591","0.0-2.0-26.0-0.0","battery-v0.2","","""event"",""trial"",""time""
""fullscreenenter"",""1"",""6433""
","
","
","""event"",""trial"",""time""
""fullscreenenter"",""1"",""6433""
","
","","","5266.200000047684","[""False""]","0","12","3512","2086","","","","","","","","","","","","","","","","","","",""
"pit-instructions","116","846939","0.0-2.0-26.0-1.0","battery-v0.2","","""event"",""trial"",""time""
""fullscreenenter"",""1"",""6433""
","
","
","""event"",""trial"",""time""
""fullscreenenter"",""1"",""6433""
","
","","[{""page_index"":0,""viewing_time"":1300.8999999761581}]","1301.1000000238419","","","","","","","","","","","","","","","","","","","","","","","",""
"pit-instructions","117","892111","0.0-3.0","battery-v0.2","","""event"",""trial"",""time""
""fullscreenenter"",""1"",""6433""
","
","
","""event"",""trial"",""time""
""fullscreenenter"",""1"",""6433""
","
","","[{""page_index"":0,""viewing_time"":31022.099999904633},{""page_index"":1,""viewing_time"":5623.900000095367},{""page_index"":2,""viewing_time"":8524.099999904633}]","45170.39999997616","","","","","","","","","","","","","","","","","","","","","","","",""
"pit-trial","118","895696","0.0-4.0","battery-v0.2","","""event"",""trial"",""time""
""fullscreenenter"",""1"",""6433""
","
","
","""event"",""trial"",""time""
""fullscreenenter"",""1"",""6433""
","
","","","703","","","12","3512","2086","&#9752;","elianto","#f73b6a7A"," "," ","1","0","[1560.8999999761581]","1","1","","","3512","1","3","3","lose","go","0"
"pit-trial","119","899516","0.0-5.0","battery-v0.2","","""event"",""trial"",""time""
""fullscreenenter"",""1"",""6433""
","
","
","""event"",""trial"",""time""
""fullscreenenter"",""1"",""6433""
","
","","","934.4000000953674","","","12","3512","2086","&#9730;","elianto","#3366ff99"," "," ","1","+10","[1792.6000000238419]","1","1","","","3512","2","1","1","win","go","0"
"pit-trial","120","903006","0.0-6.0","battery-v0.2","","""event"",""trial"",""time""
""fullscreenenter"",""1"",""6433""
","
","
","""event"",""trial"",""time""
""fullscreenenter"",""1"",""6433""
","
","","","623.7999999523163","","","12","3512","2086","&#9728;","elianto","#f73b6a7A","-1"," ","0","0","[1477.7999999523163]","1","1","","","3512","3","0","4","lose","no-go","1"
"pit-trial","121","906486","0.0-7.0","battery-v0.2","","""event"",""trial"",""time""
""fullscreenenter"",""1"",""6433""
","
","
","""event"",""trial"",""time""
""fullscreenenter"",""1"",""6433""
","
","","","615.3999999761581","","","12","3512","2086","&#9733;","elianto","#3366ff99","-1"," ","0","+10","[1467.5999999046326]","1","1","","","3512","4","2","2","win","no-go","1"
"pit-trial","122","910152","0.0-8.0","battery-v0.2","","""event"",""trial"",""time""
""fullscreenenter"",""1"",""6433""
","
","
","""event"",""trial"",""time""
""fullscreenenter"",""1"",""6433""
","
","","","800.0999999046326","","","12","3512","2086","&#9728;","elianto","#f73b6a7A","-1"," ","0","-10","[1650.8999999761581]","1","1","","","3512","5","0","4","lose","no-go","0"
"pit-trial","123","913309","0.0-9.0","battery-v0.2","","""event"",""trial"",""time""
""fullscreenenter"",""1"",""6433""
","
","
","""event"",""trial"",""time""
""fullscreenenter"",""1"",""6433""
","
","","","278.5","","","12","3512","2086","&#9752;","elianto","#f73b6a7A"," "," ","1","0","[1136.8000000715256]","1","1","","","3512","6","3","3","lose","go","0"
"pit-trial","124","916276","0.0-10.0","battery-v0.2","","""event"",""trial"",""time""
""fullscreenenter"",""1"",""6433""
","
","
","""event"",""trial"",""time""
""fullscreenenter"",""1"",""6433""
","
","","","94.5","","","12","3512","2086","&#9730;","elianto","#3366ff99"," "," ","1","+10","[947]","1","1","","","3512","7","1","1","win","go","0"
"pit-trial","125","919884","0.0-11.0","battery-v0.2","","""event"",""trial"",""time""
""fullscreenenter"",""1"",""6433""
","
","
","""event"",""trial"",""time""
""fullscreenenter"",""1"",""6433""
","
","","","735.7999999523163","","","12","3512","2086","&#9733;","elianto","#3366ff99","-1"," ","0","0","[1589.5]","1","1","","","3512","8","2","2","win","no-go","0"
"pit-trial","126","923526","0.0-12.0","battery-v0.2","","""event"",""trial"",""time""
""fullscreenenter"",""1"",""6433""
","
","
","""event"",""trial"",""time""
""fullscreenenter"",""1"",""6433""
","
","","","778.3999999761581","","","12","3512","2086","&#9733;","elianto","#3366ff99","-1"," ","0","0","[1629.3999999761581]","1","1","","","3512","9","2","2","win","no-go","0"
"pit-trial","127","926989","0.0-13.0","battery-v0.2","","""event"",""trial"",""time""
""fullscreenenter"",""1"",""6433""
","
","
","""event"",""trial"",""time""
""fullscreenenter"",""1"",""6433""
","
","","","599.6999999284744","","","12","3512","2086","&#9728;","elianto","#f73b6a7A","-1"," ","0","0","[1451.2999999523163]","1","1","","","3512","10","0","4","lose","no-go","1"
"pit-trial","128","930717","0.0-14.0","battery-v0.2","","""event"",""trial"",""time""
""fullscreenenter"",""1"",""6433""
","
","
","""event"",""trial"",""time""
""fullscreenenter"",""1"",""6433""
","
","","","864.5","","","12","3512","2086","&#9730;","elianto","#3366ff99"," "," ","1","+10","[1715.2999999523163]","1","1","","","3512","11","1","1","win","go","0"
"pit-trial","129","934486","0.0-15.0","battery-v0.2","","""event"",""trial"",""time""
""fullscreenenter"",""1"",""6433""
","
","
","""event"",""trial"",""time""
""fullscreenenter"",""1"",""6433""
","
","","","904.0999999046326","","","12","3512","2086","&#9752;","elianto","#f73b6a7A"," "," ","1","0","[1755.5,3115.6999999284744]","2","1","","","3512","12","3","3","lose","go","0"
"pit-trial","130","939349","0.0-16.0","battery-v0.2","","""event"",""trial"",""time""
""fullscreenenter"",""1"",""6433""
","
","
","""event"",""trial"",""time""
""fullscreenenter"",""1"",""6433""
","
","","","-1","","","12","3512","2086","&#9728;","elianto","#f73b6a7A","-1","-1","1","0","[4427.200000047684]","1","1","","","3512","13","0","4","lose","no-go","0"
"pit-trial","131","943533","0.0-17.0","battery-v0.2","","""event"",""trial"",""time""
""fullscreenenter"",""1"",""6433""
","
","
","""event"",""trial"",""time""
""fullscreenenter"",""1"",""6433""
","
","","","1319.5999999046326","","","12","3512","2086","&#9733;","elianto","#3366ff99","-1"," ","0","0","[2171.7999999523163,4075.7000000476837]","2","1","","","3512","14","2","2","win","no-go","0"
"pit-trial","132","946862","0.0-18.0","battery-v0.2","","""event"",""trial"",""time""
""fullscreenenter"",""1"",""6433""
","
","
","""event"",""trial"",""time""
""fullscreenenter"",""1"",""6433""
","
","","","463.3000000715256","","","12","3512","2086","&#9752;","elianto","#f73b6a7A"," "," ","1","0","[1316]","1","1","","","3512","15","3","3","lose","go","0"
"pit-trial","133","951101","0.0-19.0","battery-v0.2","","""event"",""trial"",""time""
""fullscreenenter"",""1"",""6433""
","
","
","""event"",""trial"",""time""
""fullscreenenter"",""1"",""6433""
","
","","","1376.2000000476837","","","12","3512","2086","&#9730;","elianto","#3366ff99"," "," ","1","0","[2226.5,3378]","2","1","","","3512","16","1","1","win","go","1"
"pit-trial","134","954981","0.0-20.0","battery-v0.2","","""event"",""trial"",""time""
""fullscreenenter"",""1"",""6433""
","
","
","""event"",""trial"",""time""
""fullscreenenter"",""1"",""6433""
","
","","","1014.6999999284744","","","12","3512","2086","&#9733;","elianto","#3366ff99","-1"," ","0","+10","[1867.4000000953674]","1","1","","","3512","17","2","2","win","no-go","1"
"pit-trial","135","958143","0.0-21.0","battery-v0.2","","""event"",""trial"",""time""
""fullscreenenter"",""1"",""6433""
","
","
","""event"",""trial"",""time""
""fullscreenenter"",""1"",""6433""
","
","","","303","","","12","3512","2086","&#9752;","elianto","#f73b6a7A"," "," ","1","0","[1155]","1","1","","","3512","18","3","3","lose","go","0"
"pit-trial","136","963013","0.0-22.0","battery-v0.2","","""event"",""trial"",""time""
""fullscreenenter"",""1"",""6433""
","
","
","""event"",""trial"",""time""
""fullscreenenter"",""1"",""6433""
","
","","","-1","","","12","3512","2086","&#9730;","elianto","#3366ff99"," ","-1","0","0","[2976.9000000953674]","1","1","","","3512","19","1","1","win","go","0"
"pit-trial","137","966124","0.0-23.0","battery-v0.2","","""event"",""trial"",""time""
""fullscreenenter"",""1"",""6433""
","
","
","""event"",""trial"",""time""
""fullscreenenter"",""1"",""6433""
","
","","","255.70000004768372","","","12","3512","2086","&#9728;","elianto","#f73b6a7A","-1"," ","0","-10","[1107.8999999761581,1836]","2","1","","","3512","20","0","4","lose","no-go","0"
"pit-instructions","138","1004026","0.0-24.0","battery-v0.2","","""event"",""trial"",""time""
""fullscreenenter"",""1"",""6433""
","
","
","""event"",""trial"",""time""
""fullscreenenter"",""1"",""6433""
","
","","[{""page_index"":0,""viewing_time"":31731.5},{""page_index"":1,""viewing_time"":6167.899999976158}]","37899.700000047684","","","","","","","","","","","","","","","","","","","","","","","",""
"pit-trial","139","1007252","0.0-25.0","battery-v0.2","","""event"",""trial"",""time""
""fullscreenenter"",""1"",""6433""
","
","
","""event"",""trial"",""time""
""fullscreenenter"",""1"",""6433""
","
","","","344.09999990463257","","","12","3512","2086","y","elianto","#f73b6a7A"," "," ","1","0","[1198.4000000953674]","1","2","","","3512","21","2","3","lose","go","0"
"pit-trial","140","1010194","0.0-26.0","battery-v0.2","","""event"",""trial"",""time""
""fullscreenenter"",""1"",""6433""
","
","
","""event"",""trial"",""time""
""fullscreenenter"",""1"",""6433""
","
","","","72.30000007152557","","","12","3512","2086","r","elianto","#3366ff99","-1"," ","0","0","[922.8000000715256]","1","2","","","3512","22","1","2","win","no-go","0"
"pit-trial","141","1013603","0.0-27.0","battery-v0.2","","""event"",""trial"",""time""
""fullscreenenter"",""1"",""6433""
","
","
","""event"",""trial"",""time""
""fullscreenenter"",""1"",""6433""
","
","","","534.8999999761581","","","12","3512","2086","h","elianto","#f73b6a7A","-1"," ","0","0","[1390.2999999523163]","1","2","","","3512","23","3","4","lose","no-go","1"
"pit-trial","142","1017691","0.0-28.0","battery-v0.2","","""event"",""trial"",""time""
""fullscreenenter"",""1"",""6433""
","
","
","""event"",""trial"",""time""
""fullscreenenter"",""1"",""6433""
","
","","","1217.8000000715256","","","12","3512","2086","m","elianto","#f73b6a7A"," "," ","1","0","[2068.7999999523163]","1","2","","","3512","24","0","3","lose","go","0"
"pit-trial","143","1021541","0.0-29.0","battery-v0.2","","""event"",""trial"",""time""
""fullscreenenter"",""1"",""6433""
","
","
","""event"",""trial"",""time""
""fullscreenenter"",""1"",""6433""
","
","","","983.1000000238419","","","12","3512","2086","r","elianto","#3366ff99","-1"," ","0","0","[1837.7999999523163]","1","2","","","3512","25","1","2","win","no-go","0"
"pit-trial","144","1025235","0.0-30.0","battery-v0.2","","""event"",""trial"",""time""
""fullscreenenter"",""1"",""6433""
","
","
","""event"",""trial"",""time""
""fullscreenenter"",""1"",""6433""
","
","","","824.5","","","12","3512","2086","y","elianto","#f73b6a7A"," "," ","1","0","[1674.7000000476837]","1","2","","","3512","26","2","3","lose","go","0"
"pit-trial","145","1028622","0.0-31.0","battery-v0.2","","""event"",""trial"",""time""
""fullscreenenter"",""1"",""6433""
","
","
","""event"",""trial"",""time""
""fullscreenenter"",""1"",""6433""
","
","","","527.6000000238419","","","12","3512","2086","m","elianto","#f73b6a7A"," "," ","1","0","[1380.1000000238419]","1","2","","","3512","27","0","3","lose","go","0"
"pit-trial","146","1032310","0.0-32.0","battery-v0.2","","""event"",""trial"",""time""
""fullscreenenter"",""1"",""6433""
","
","
","""event"",""trial"",""time""
""fullscreenenter"",""1"",""6433""
","
","","","815.1000000238419","","","12","3512","2086","h","elianto","#f73b6a7A","-1"," ","0","-10","[1666.5]","1","2","","","3512","28","3","4","lose","no-go","0"
"pit-trial","147","1035884","0.0-33.0","battery-v0.2","","""event"",""trial"",""time""
""fullscreenenter"",""1"",""6433""
","
","
","""event"",""trial"",""time""
""fullscreenenter"",""1"",""6433""
","
","","","709.2000000476837","","","12","3512","2086","m","elianto","#f73b6a7A"," "," ","1","0","[1561.8000000715256]","1","2","","","3512","29","0","3","lose","go","0"
"pit-trial","148","1040758","0.0-34.0","battery-v0.2","","""event"",""trial"",""time""
""fullscreenenter"",""1"",""6433""
","
","
","""event"",""trial"",""time""
""fullscreenenter"",""1"",""6433""
","
","","","-1","","","12","3512","2086","r","elianto","#3366ff99","-1","-1","1","+10","[]","0","2","","","3512","30","1","2","win","no-go","0"
"pit-trial","149","1045541","0.0-35.0","battery-v0.2","","""event"",""trial"",""time""
""fullscreenenter"",""1"",""6433""
","
","
","""event"",""trial"",""time""
""fullscreenenter"",""1"",""6433""
","
","","","1926.7999999523163","","","12","3512","2086","y","elianto","#f73b6a7A"," "," ","1","0","[2777.899999976158]","1","2","","","3512","31","2","3","lose","go","0"
"pit-trial","150","1049588","0.0-36.0","battery-v0.2","","""event"",""trial"",""time""
""fullscreenenter"",""1"",""6433""
","
","
","""event"",""trial"",""time""
""fullscreenenter"",""1"",""6433""
","
","","","1191.3999999761581","","","12","3512","2086","h","elianto","#f73b6a7A","-1"," ","0","-10","[2043]","1","2","","","3512","32","3","4","lose","no-go","0"
"pit-trial","151","1053989","0.0-37.0","battery-v0.2","","""event"",""trial"",""time""
""fullscreenenter"",""1"",""6433""
","
","
","""event"",""trial"",""time""
""fullscreenenter"",""1"",""6433""
","
","","","1542.2999999523163","","","12","3512","2086","m","elianto","#f73b6a7A"," "," ","1","-10","[2395.399999976158]","1","2","","","3512","33","0","3","lose","go","1"
"pit-trial","152","1058260","0.0-38.0","battery-v0.2","","""event"",""trial"",""time""
""fullscreenenter"",""1"",""6433""
","
","
","""event"",""trial"",""time""
""fullscreenenter"",""1"",""6433""
","
","","","1415.1999999284744","","","12","3512","2086","h","elianto","#f73b6a7A","-1"," ","0","-10","[2266.1999999284744]","1","2","","","3512","34","3","4","lose","no-go","0"
"pit-trial","153","1062581","0.0-39.0","battery-v0.2","","""event"",""trial"",""time""
""fullscreenenter"",""1"",""6433""
","
","
","""event"",""trial"",""time""
""fullscreenenter"",""1"",""6433""
","
","","","1454.8999999761581","","","12","3512","2086","y","elianto","#f73b6a7A"," "," ","1","0","[2308.6999999284744]","1","2","","","3512","35","2","3","lose","go","0"
"pit-trial","154","1067444","0.0-40.0","battery-v0.2","","""event"",""trial"",""time""
""fullscreenenter"",""1"",""6433""
","
","
","""event"",""trial"",""time""
""fullscreenenter"",""1"",""6433""
","
","","","-1","","","12","3512","2086","r","elianto","#3366ff99","-1","-1","1","0","[]","0","2","","","3512","36","1","2","win","no-go","1"
"pit-trial","155","1072309","0.0-41.0","battery-v0.2","","""event"",""trial"",""time""
""fullscreenenter"",""1"",""6433""
","
","
","""event"",""trial"",""time""
""fullscreenenter"",""1"",""6433""
","
","","","-1","","","12","3512","2086","r","elianto","#3366ff99","-1","-1","1","+10","[]","0","2","","","3512","37","1","2","win","no-go","0"
"pit-trial","156","1076997","0.0-42.0","battery-v0.2","","""event"",""trial"",""time""
""fullscreenenter"",""1"",""6433""
","
","
","""event"",""trial"",""time""
""fullscreenenter"",""1"",""6433""
","
","","","1815.2999999523163","","","12","3512","2086","m","elianto","#f73b6a7A"," "," ","1","0","[2673.100000023842]","1","2","","","3512","38","0","3","lose","go","0"
"pit-trial","157","1080669","0.0-43.0","battery-v0.2","","""event"",""trial"",""time""
""fullscreenenter"",""1"",""6433""
","
","
","""event"",""trial"",""time""
""fullscreenenter"",""1"",""6433""
","
","","","813.2999999523163","","","12","3512","2086","y","elianto","#f73b6a7A"," "," ","1","-10","[1666.2999999523163]","1","2","","","3512","39","2","3","lose","go","1"
"pit-trial","158","1084716","0.0-44.0","battery-v0.2","","""event"",""trial"",""time""
""fullscreenenter"",""1"",""6433""
","
","
","""event"",""trial"",""time""
""fullscreenenter"",""1"",""6433""
","
","","","1190.5999999046326","","","12","3512","2086","h","elianto","#f73b6a7A","-1"," ","0","-10","[2043]","1","2","","","3512","40","3","4","lose","no-go","0"
"pit-trial","159","1089588","0.0-45.0","battery-v0.2","","""event"",""trial"",""time""
""fullscreenenter"",""1"",""6433""
","
","
","""event"",""trial"",""time""
""fullscreenenter"",""1"",""6433""
","
","","","-1","","","12","3512","2086","r","elianto","#3366ff99","-1","-1","1","+10","[]","0","2","","","3512","41","1","2","win","no-go","0"
"pit-trial","160","1093285","0.0-46.0","battery-v0.2","","""event"",""trial"",""time""
""fullscreenenter"",""1"",""6433""
","
","
","""event"",""trial"",""time""
""fullscreenenter"",""1"",""6433""
","
","","","837.7999999523163","","","12","3512","2086","h","elianto","#f73b6a7A","-1"," ","0","-10","[1690.8999999761581]","1","2","","","3512","42","3","4","lose","no-go","0"
"pit-trial","161","1097877","0.0-47.0","battery-v0.2","","""event"",""trial"",""time""
""fullscreenenter"",""1"",""6433""
","
","
","""event"",""trial"",""time""
""fullscreenenter"",""1"",""6433""
","
","","","1734.6999999284744","","","12","3512","2086","m","elianto","#f73b6a7A"," "," ","1","0","[2585.6999999284744]","1","2","","","3512","43","0","3","lose","go","0"
"pit-trial","162","1101668","0.0-48.0","battery-v0.2","","""event"",""trial"",""time""
""fullscreenenter"",""1"",""6433""
","
","
","""event"",""trial"",""time""
""fullscreenenter"",""1"",""6433""
","
","","","934.8999999761581","","","12","3512","2086","y","elianto","#f73b6a7A"," "," ","1","0","[1786.6999999284744]","1","2","","","3512","44","2","3","lose","go","0"
"pit-trial","163","1106532","0.0-49.0","battery-v0.2","","""event"",""trial"",""time""
""fullscreenenter"",""1"",""6433""
","
","
","""event"",""trial"",""time""
""fullscreenenter"",""1"",""6433""
","
","","","-1","","","12","3512","2086","m","elianto","#f73b6a7A"," ","-1","0","-10","[]","0","2","","","3512","45","0","3","lose","go","0"
"pit-trial","164","1110169","0.0-50.0","battery-v0.2","","""event"",""trial"",""time""
""fullscreenenter"",""1"",""6433""
","
","
","""event"",""trial"",""time""
""fullscreenenter"",""1"",""6433""
","
","","","774.1999999284744","","","12","3512","2086","y","elianto","#f73b6a7A"," "," ","1","0","[1628.0999999046326,3115.5]","2","2","","","3512","46","2","3","lose","go","0"
"pit-trial","165","1113901","0.0-51.0","battery-v0.2","","""event"",""trial"",""time""
""fullscreenenter"",""1"",""6433""
","
","
","""event"",""trial"",""time""
""fullscreenenter"",""1"",""6433""
","
","","","873.8000000715256","","","12","3512","2086","h","elianto","#f73b6a7A","-1"," ","0","-10","[1726.4000000953674]","1","2","","","3512","47","3","4","lose","no-go","0"
"pit-trial","166","1118773","0.0-52.0","battery-v0.2","","""event"",""trial"",""time""
""fullscreenenter"",""1"",""6433""
","
","
","""event"",""trial"",""time""
""fullscreenenter"",""1"",""6433""
","
","","","-1","","","12","3512","2086","r","elianto","#3366ff99","-1","-1","1","+10","[]","0","2","","","3512","48","1","2","win","no-go","0"
"pit-trial","167","1122542","0.0-53.0","battery-v0.2","","""event"",""trial"",""time""
""fullscreenenter"",""1"",""6433""
","
","
","""event"",""trial"",""time""
""fullscreenenter"",""1"",""6433""
","
","","","902.7000000476837","","","12","3512","2086","h","elianto","#f73b6a7A","-1"," ","0","0","[1755.5]","1","2","","","3512","49","3","4","lose","no-go","1"
"pit-trial","168","1127418","0.0-54.0","battery-v0.2","","""event"",""trial"",""time""
""fullscreenenter"",""1"",""6433""
","
","
","""event"",""trial"",""time""
""fullscreenenter"",""1"",""6433""
","
","","","-1","","","12","3512","2086","r","elianto","#3366ff99","-1","-1","1","+10","[]","0","2","","","3512","50","1","2","win","no-go","0"
"pit-trial","169","1130957","0.0-55.0","battery-v0.2","","""event"",""trial"",""time""
""fullscreenenter"",""1"",""6433""
","
","
","""event"",""trial"",""time""
""fullscreenenter"",""1"",""6433""
","
","","","678.8999999761581","","","12","3512","2086","m","elianto","#f73b6a7A"," "," ","1","0","[1533.7000000476837]","1","2","","","3512","51","0","3","lose","go","0"
"pit-trial","170","1134390","0.0-56.0","battery-v0.2","","""event"",""trial"",""time""
""fullscreenenter"",""1"",""6433""
","
","
","""event"",""trial"",""time""
""fullscreenenter"",""1"",""6433""
","
","","","567.6000000238419","","","12","3512","2086","y","elianto","#f73b6a7A"," "," ","1","0","[1419.5]","1","2","","","3512","52","2","3","lose","go","0"
"pit-trial","171","1139253","0.0-57.0","battery-v0.2","","""event"",""trial"",""time""
""fullscreenenter"",""1"",""6433""
","
","
","""event"",""trial"",""time""
""fullscreenenter"",""1"",""6433""
","
","","","-1","","","12","3512","2086","r","elianto","#3366ff99","-1","-1","1","+10","[]","0","2","","","3512","53","1","2","win","no-go","0"
"pit-trial","172","1143093","0.0-58.0","battery-v0.2","","""event"",""trial"",""time""
""fullscreenenter"",""1"",""6433""
","
","
","""event"",""trial"",""time""
""fullscreenenter"",""1"",""6433""
","
","","","977","","","12","3512","2086","y","elianto","#f73b6a7A"," "," ","1","0","[1827.1000000238419]","1","2","","","3512","54","2","3","lose","go","0"
"pit-trial","173","1147125","0.0-59.0","battery-v0.2","","""event"",""trial"",""time""
""fullscreenenter"",""1"",""6433""
","
","
","""event"",""trial"",""time""
""fullscreenenter"",""1"",""6433""
","
","","","1165.9000000953674","","","12","3512","2086","h","elianto","#f73b6a7A","-1"," ","0","0","[2019.8000000715256]","1","2","","","3512","55","3","4","lose","no-go","1"
"pit-trial","174","1151989","0.0-60.0","battery-v0.2","","""event"",""trial"",""time""
""fullscreenenter"",""1"",""6433""
","
","
","""event"",""trial"",""time""
""fullscreenenter"",""1"",""6433""
","
","","","-1","","","12","3512","2086","m","elianto","#f73b6a7A"," ","-1","0","-10","[2874.7999999523163]","1","2","","","3512","56","0","3","lose","go","0"
"pit-trial","175","1155629","0.0-61.0","battery-v0.2","","""event"",""trial"",""time""
""fullscreenenter"",""1"",""6433""
","
","
","""event"",""trial"",""time""
""fullscreenenter"",""1"",""6433""
","
","","","765.8999999761581","","","12","3512","2086","y","elianto","#f73b6a7A"," "," ","1","-10","[1619.1000000238419]","1","2","","","3512","57","2","3","lose","go","1"
"pit-trial","176","1160493","0.0-62.0","battery-v0.2","","""event"",""trial"",""time""
""fullscreenenter"",""1"",""6433""
","
","
","""event"",""trial"",""time""
""fullscreenenter"",""1"",""6433""
","
","","","-1","","","12","3512","2086","m","elianto","#f73b6a7A"," ","-1","0","-10","[]","0","2","","","3512","58","0","3","lose","go","0"
"pit-trial","177","1165197","0.0-63.0","battery-v0.2","","""event"",""trial"",""time""
""fullscreenenter"",""1"",""6433""
","
","
","""event"",""trial"",""time""
""fullscreenenter"",""1"",""6433""
","
","","","1838.1000000238419","","","12","3512","2086","z","elianto","#3366ff99"," "," ","1","+10","[2690.5]","1","2","","","3512","59","4","1","win","go","0"
"pit-trial","178","1169261","0.0-64.0","battery-v0.2","","""event"",""trial"",""time""
""fullscreenenter"",""1"",""6433""
","
","
","""event"",""trial"",""time""
""fullscreenenter"",""1"",""6433""
","
","","","1205.7000000476837","","","12","3512","2086","h","elianto","#f73b6a7A","-1"," ","0","-10","[2057.100000023842]","1","2","","","3512","60","3","4","lose","no-go","0"
"pit-trial","179","1172677","0.0-65.0","battery-v0.2","","""event"",""trial"",""time""
""fullscreenenter"",""1"",""6433""
","
","
","""event"",""trial"",""time""
""fullscreenenter"",""1"",""6433""
","
","","","559.8000000715256","","","12","3512","2086","y","elianto","#f73b6a7A"," "," ","1","0","[1410.8999999761581]","1","2","","","3512","61","2","3","lose","go","0"
"pit-trial","180","1176189","0.0-66.0","battery-v0.2","","""event"",""trial"",""time""
""fullscreenenter"",""1"",""6433""
","
","
","""event"",""trial"",""time""
""fullscreenenter"",""1"",""6433""
","
","","","655","","","12","3512","2086","r","elianto","#3366ff99","-1"," ","0","0","[1507.1999999284744]","1","2","","","3512","62","1","2","win","no-go","0"
"pit-trial","181","1179989","0.0-67.0","battery-v0.2","","""event"",""trial"",""time""
""fullscreenenter"",""1"",""6433""
","
","
","""event"",""trial"",""time""
""fullscreenenter"",""1"",""6433""
","
","","","943.1000000238419","","","12","3512","2086","h","elianto","#f73b6a7A","-1"," ","0","0","[1794.8999999761581]","1","2","","","3512","63","3","4","lose","no-go","1"
"pit-trial","182","1183765","0.0-68.0","battery-v0.2","","""event"",""trial"",""time""
""fullscreenenter"",""1"",""6433""
","
","
","""event"",""trial"",""time""
""fullscreenenter"",""1"",""6433""
","
","","","918.6000000238419","","","12","3512","2086","z","elianto","#3366ff99"," "," ","1","+10","[1771.1000000238419]","1","2","","","3512","64","4","1","win","go","0"
"pit-trial","183","1188629","0.0-69.0","battery-v0.2","","""event"",""trial"",""time""
""fullscreenenter"",""1"",""6433""
","
","
","""event"",""trial"",""time""
""fullscreenenter"",""1"",""6433""
","
","","","-1","","","12","3512","2086","r","elianto","#3366ff99","-1","-1","1","+10","[]","0","2","","","3512","65","1","2","win","no-go","0"
"pit-trial","184","1192493","0.0-70.0","battery-v0.2","","""event"",""trial"",""time""
""fullscreenenter"",""1"",""6433""
","
","
","""event"",""trial"",""time""
""fullscreenenter"",""1"",""6433""
","
","","","1006.6000000238419","","","12","3512","2086","z","elianto","#3366ff99"," "," ","1","0","[1858.5,3293.600000023842,3434.600000023842,3658.399999976158,3794.399999976158]","5","2","","","3512","66","4","1","win","go","1"
"pit-trial","185","1195397","0.0-71.0","battery-v0.2","","""event"",""trial"",""time""
""fullscreenenter"",""1"",""6433""
","
","
","""event"",""trial"",""time""
""fullscreenenter"",""1"",""6433""
","
","","","46.700000047683716","","","12","3512","2086","h","elianto","#f73b6a7A","-1"," ","0","-10","[35.799999952316284,241.69999992847443,354,474.09999990463257,579,697.7999999523163,787.5999999046326,898.6999999284744,1017.7999999523163,1122.5999999046326,2347,2426.5999999046326,2538.6999999284744,2746.899999976158,2866.6999999284744]","15","2","","","3512","67","3","4","lose","no-go","0"
"pit-trial","186","1198653","0.0-72.0","battery-v0.2","","""event"",""trial"",""time""
""fullscreenenter"",""1"",""6433""
","
","
","""event"",""trial"",""time""
""fullscreenenter"",""1"",""6433""
","
","","","398.6999999284744","","","12","3512","2086","c","elianto","#3366ff99","-1"," ","0","0","[274,401.90000009536743,546.2000000476837,1250.5]","4","2","","","3512","68","5","2","win","no-go","0"
"pit-trial","187","1203517","0.0-73.0","battery-v0.2","","""event"",""trial"",""time""
""fullscreenenter"",""1"",""6433""
","
","
","""event"",""trial"",""time""
""fullscreenenter"",""1"",""6433""
","
","","","-1","","","12","3512","2086","r","elianto","#3366ff99","-1","-1","1","+10","[]","0","2","","","3512","69","1","2","win","no-go","0"
"pit-trial","188","1207341","0.0-74.0","battery-v0.2","","""event"",""trial"",""time""
""fullscreenenter"",""1"",""6433""
","
","
","""event"",""trial"",""time""
""fullscreenenter"",""1"",""6433""
","
","","","966.6999999284744","","","12","3512","2086","z","elianto","#3366ff99"," "," ","1","+10","[1819.0999999046326]","1","2","","","3512","70","4","1","win","go","0"
"pit-trial","189","1212206","0.0-75.0","battery-v0.2","","""event"",""trial"",""time""
""fullscreenenter"",""1"",""6433""
","
","
","""event"",""trial"",""time""
""fullscreenenter"",""1"",""6433""
","
","","","-1","","","12","3512","2086","c","elianto","#3366ff99","-1","-1","1","+10","[4707.5]","1","2","","","3512","71","5","2","win","no-go","0"
"pit-trial","190","1215245","0.0-76.0","battery-v0.2","","""event"",""trial"",""time""
""fullscreenenter"",""1"",""6433""
","
","
","""event"",""trial"",""time""
""fullscreenenter"",""1"",""6433""
","
","","","182","","","12","3512","2086","y","elianto","#f73b6a7A"," "," ","1","-10","[337,1033.6000000238419,1545.9000000953674,1746.1000000238419,2043.5,2226,2681.9000000953674,2986.3000000715256]","8","2","","","3512","72","2","3","lose","go","1"
"pit-trial","191","1219094","0.0-77.0","battery-v0.2","","""event"",""trial"",""time""
""fullscreenenter"",""1"",""6433""
","
","
","""event"",""trial"",""time""
""fullscreenenter"",""1"",""6433""
","
","","","991.3000000715256","","","12","3512","2086","z","elianto","#3366ff99"," "," ","1","+10","[418.5,1842.8000000715256]","2","2","","","3512","73","4","1","win","go","0"
"pit-trial","192","1223246","0.0-78.0","battery-v0.2","","""event"",""trial"",""time""
""fullscreenenter"",""1"",""6433""
","
","
","""event"",""trial"",""time""
""fullscreenenter"",""1"",""6433""
","
","","","1294.6000000238419","","","12","3512","2086","h","elianto","#f73b6a7A","-1"," ","0","-10","[2145.6999999284744]","1","2","","","3512","74","3","4","lose","no-go","0"
"pit-trial","193","1226958","0.0-79.0","battery-v0.2","","""event"",""trial"",""time""
""fullscreenenter"",""1"",""6433""
","
","
","""event"",""trial"",""time""
""fullscreenenter"",""1"",""6433""
","
","","","854","","","12","3512","2086","r","elianto","#3366ff99","-1"," ","0","0","[1705.6999999284744]","1","2","","","3512","75","1","2","win","no-go","0"
"pit-trial","194","1230766","0.0-80.0","battery-v0.2","","""event"",""trial"",""time""
""fullscreenenter"",""1"",""6433""
","
","
","""event"",""trial"",""time""
""fullscreenenter"",""1"",""6433""
","
","","","949.5999999046326","","","12","3512","2086","c","elianto","#3366ff99","-1"," ","0","0","[1801.7000000476837]","1","2","","","3512","76","5","2","win","no-go","0"
"pit-trial","195","1235629","0.0-81.0","battery-v0.2","","""event"",""trial"",""time""
""fullscreenenter"",""1"",""6433""
","
","
","""event"",""trial"",""time""
""fullscreenenter"",""1"",""6433""
","
","","","-1","","","12","3512","2086","c","elianto","#3366ff99","-1","-1","1","+10","[]","0","2","","","3512","77","5","2","win","no-go","0"
"pit-trial","196","1239277","0.0-82.0","battery-v0.2","","""event"",""trial"",""time""
""fullscreenenter"",""1"",""6433""
","
","
","""event"",""trial"",""time""
""fullscreenenter"",""1"",""6433""
","
","","","789.7999999523163","","","12","3512","2086","z","elianto","#3366ff99"," "," ","1","+10","[1643.2999999523163]","1","2","","","3512","78","4","1","win","go","0"
"pit-trial","197","1243422","0.0-83.0","battery-v0.2","","""event"",""trial"",""time""
""fullscreenenter"",""1"",""6433""
","
","
","""event"",""trial"",""time""
""fullscreenenter"",""1"",""6433""
","
","","","1277.7000000476837","","","12","3512","2086","h","elianto","#f73b6a7A","-1"," ","0","0","[2130.8000000715256]","1","2","","","3512","79","3","4","lose","no-go","1"
"pit-trial","198","1247157","0.0-84.0","battery-v0.2","","""event"",""trial"",""time""
""fullscreenenter"",""1"",""6433""
","
","
","""event"",""trial"",""time""
""fullscreenenter"",""1"",""6433""
","
","","","876.8999999761581","","","12","3512","2086","z","elianto","#3366ff99"," "," ","1","+10","[1728.7000000476837]","1","2","","","3512","80","4","1","win","go","0"
"pit-trial","199","1252022","0.0-85.0","battery-v0.2","","""event"",""trial"",""time""
""fullscreenenter"",""1"",""6433""
","
","
","""event"",""trial"",""time""
""fullscreenenter"",""1"",""6433""
","
","","","-1","","","12","3512","2086","t","elianto","#f73b6a7A","-1","-1","1","0","[]","0","2","","","3512","81","7","4","lose","no-go","0"
"pit-trial","200","1255765","0.0-86.0","battery-v0.2","","""event"",""trial"",""time""
""fullscreenenter"",""1"",""6433""
","
","
","""event"",""trial"",""time""
""fullscreenenter"",""1"",""6433""
","
","","","887.1000000238419","","","12","3512","2086","h","elianto","#f73b6a7A","-1"," ","0","-10","[1738.5999999046326]","1","2","","","3512","82","3","4","lose","no-go","0"
"pit-trial","201","1260629","0.0-87.0","battery-v0.2","","""event"",""trial"",""time""
""fullscreenenter"",""1"",""6433""
","
","
","""event"",""trial"",""time""
""fullscreenenter"",""1"",""6433""
","
","","","-1","","","12","3512","2086","c","elianto","#3366ff99","-1","-1","1","+10","[]","0","2","","","3512","83","5","2","win","no-go","0"
"pit-trial","202","1264420","0.0-88.0","battery-v0.2","","""event"",""trial"",""time""
""fullscreenenter"",""1"",""6433""
","
","
","""event"",""trial"",""time""
""fullscreenenter"",""1"",""6433""
","
","","","934.2000000476837","","","12","3512","2086","z","elianto","#3366ff99"," "," ","1","+10","[1786.6000000238419]","1","2","","","3512","84","4","1","win","go","0"
"pit-trial","203","1269284","0.0-89.0","battery-v0.2","","""event"",""trial"",""time""
""fullscreenenter"",""1"",""6433""
","
","
","""event"",""trial"",""time""
""fullscreenenter"",""1"",""6433""
","
","","","-1","","","12","3512","2086","c","elianto","#3366ff99","-1","-1","1","0","[]","0","2","","","3512","85","5","2","win","no-go","1"
"pit-trial","204","1272916","0.0-90.0","battery-v0.2","","""event"",""trial"",""time""
""fullscreenenter"",""1"",""6433""
","
","
","""event"",""trial"",""time""
""fullscreenenter"",""1"",""6433""
","
","","","777","","","12","3512","2086","z","elianto","#3366ff99"," "," ","1","0","[1629.3999999761581]","1","2","","","3512","86","4","1","win","go","1"
"pit-trial","205","1277780","0.0-91.0","battery-v0.2","","""event"",""trial"",""time""
""fullscreenenter"",""1"",""6433""
","
","
","""event"",""trial"",""time""
""fullscreenenter"",""1"",""6433""
","
","","","-1","","","12","3512","2086","t","elianto","#f73b6a7A","-1","-1","1","0","[]","0","2","","","3512","87","7","4","lose","no-go","0"
"pit-trial","206","1282069","0.0-92.0","battery-v0.2","","""event"",""trial"",""time""
""fullscreenenter"",""1"",""6433""
","
","
","""event"",""trial"",""time""
""fullscreenenter"",""1"",""6433""
","
","","","1430.6000000238419","","","12","3512","2086","b","elianto","#f73b6a7A"," "," ","1","-10","[2282.600000023842]","1","2","","","3512","88","6","3","lose","go","1"
"pit-trial","207","1285853","0.0-93.0","battery-v0.2","","""event"",""trial"",""time""
""fullscreenenter"",""1"",""6433""
","
","
","""event"",""trial"",""time""
""fullscreenenter"",""1"",""6433""
","
","","","925.7999999523163","","","12","3512","2086","z","elianto","#3366ff99"," "," ","1","+10","[1778.2000000476837]","1","2","","","3512","89","4","1","win","go","0"
"pit-trial","208","1290724","0.0-94.0","battery-v0.2","","""event"",""trial"",""time""
""fullscreenenter"",""1"",""6433""
","
","
","""event"",""trial"",""time""
""fullscreenenter"",""1"",""6433""
","
","","","-1","","","12","3512","2086","t","elianto","#f73b6a7A","-1","-1","1","-10","[]","0","2","","","3512","90","7","4","lose","no-go","1"
"pit-trial","209","1294973","0.0-95.0","battery-v0.2","","""event"",""trial"",""time""
""fullscreenenter"",""1"",""6433""
","
","
","""event"",""trial"",""time""
""fullscreenenter"",""1"",""6433""
","
","","","1391.1999999284744","","","12","3512","2086","c","elianto","#3366ff99","-1"," ","0","+10","[2242.8000000715256]","1","2","","","3512","91","5","2","win","no-go","1"
"pit-trial","210","1299837","0.0-96.0","battery-v0.2","","""event"",""trial"",""time""
""fullscreenenter"",""1"",""6433""
","
","
","""event"",""trial"",""time""
""fullscreenenter"",""1"",""6433""
","
","","","-1","","","12","3512","2086","b","elianto","#f73b6a7A"," ","-1","0","-10","[]","0","2","","","3512","92","6","3","lose","go","0"
"pit-trial","211","1303940","0.0-97.0","battery-v0.2","","""event"",""trial"",""time""
""fullscreenenter"",""1"",""6433""
","
","
","""event"",""trial"",""time""
""fullscreenenter"",""1"",""6433""
","
","","","1241.7000000476837","","","12","3512","2086","c","elianto","#3366ff99","-1"," ","0","0","[2093.899999976158]","1","2","","","3512","93","5","2","win","no-go","0"
"pit-trial","212","1308804","0.0-98.0","battery-v0.2","","""event"",""trial"",""time""
""fullscreenenter"",""1"",""6433""
","
","
","""event"",""trial"",""time""
""fullscreenenter"",""1"",""6433""
","
","","","-1","","","12","3512","2086","f","elianto","#3366ff99"," ","-1","0","0","[]","0","2","","","3512","94","8","1","win","go","0"
"pit-trial","213","1313669","0.0-99.0","battery-v0.2","","""event"",""trial"",""time""
""fullscreenenter"",""1"",""6433""
","
","
","""event"",""trial"",""time""
""fullscreenenter"",""1"",""6433""
","
","","","-1","","","12","3512","2086","t","elianto","#f73b6a7A","-1","-1","1","0","[2857.7999999523163]","1","2","","","3512","95","7","4","lose","no-go","0"
"pit-trial","214","1318533","0.0-100.0","battery-v0.2","","""event"",""trial"",""time""
""fullscreenenter"",""1"",""6433""
","
","
","""event"",""trial"",""time""
""fullscreenenter"",""1"",""6433""
","
","","","-1","","","12","3512","2086","b","elianto","#f73b6a7A"," ","-1","0","-10","[]","0","2","","","3512","96","6","3","lose","go","0"
"pit-trial","215","1322765","0.0-101.0","battery-v0.2","","""event"",""trial"",""time""
""fullscreenenter"",""1"",""6433""
","
","
","""event"",""trial"",""time""
""fullscreenenter"",""1"",""6433""
","
","","","1374.1000000238419","","","12","3512","2086","t","elianto","#f73b6a7A","-1"," ","0","0","[2225.7999999523163]","1","2","","","3512","97","7","4","lose","no-go","1"
"pit-trial","216","1327639","0.0-102.0","battery-v0.2","","""event"",""trial"",""time""
""fullscreenenter"",""1"",""6433""
","
","
","""event"",""trial"",""time""
""fullscreenenter"",""1"",""6433""
","
","","","-1","","","12","3512","2086","b","elianto","#f73b6a7A"," ","-1","0","-10","[]","0","2","","","3512","98","6","3","lose","go","0"
"pit-trial","217","1331629","0.0-103.0","battery-v0.2","","""event"",""trial"",""time""
""fullscreenenter"",""1"",""6433""
","
","
","""event"",""trial"",""time""
""fullscreenenter"",""1"",""6433""
","
","","","1132.5","","","12","3512","2086","f","elianto","#3366ff99"," "," ","1","0","[1983.6999999284744]","1","2","","","3512","99","8","1","win","go","1"
"pit-trial","218","1335709","0.0-104.0","battery-v0.2","","""event"",""trial"",""time""
""fullscreenenter"",""1"",""6433""
","
","
","""event"",""trial"",""time""
""fullscreenenter"",""1"",""6433""
","
","","","1223.1000000238419","","","12","3512","2086","c","elianto","#3366ff99","-1"," ","0","0","[2073.899999976158]","1","2","","","3512","100","5","2","win","no-go","0"
"pit-trial","219","1339877","0.0-105.0","battery-v0.2","","""event"",""trial"",""time""
""fullscreenenter"",""1"",""6433""
","
","
","""event"",""trial"",""time""
""fullscreenenter"",""1"",""6433""
","
","","","1310.5","","","12","3512","2086","t","elianto","#f73b6a7A","-1"," ","0","-10","[2160.7000000476837]","1","2","","","3512","101","7","4","lose","no-go","0"
"pit-trial","220","1344740","0.0-106.0","battery-v0.2","","""event"",""trial"",""time""
""fullscreenenter"",""1"",""6433""
","
","
","""event"",""trial"",""time""
""fullscreenenter"",""1"",""6433""
","
","","","-1","","","12","3512","2086","n","elianto","#3366ff99"," ","-1","0","0","[]","0","2","","","3512","102","9","1","win","go","0"
"pit-trial","221","1349604","0.0-107.0","battery-v0.2","","""event"",""trial"",""time""
""fullscreenenter"",""1"",""6433""
","
","
","""event"",""trial"",""time""
""fullscreenenter"",""1"",""6433""
","
","","","-1","","","12","3512","2086","c","elianto","#3366ff99","-1","-1","1","+10","[]","0","2","","","3512","103","5","2","win","no-go","0"
"pit-trial","222","1353892","0.0-108.0","battery-v0.2","","""event"",""trial"",""time""
""fullscreenenter"",""1"",""6433""
","
","
","""event"",""trial"",""time""
""fullscreenenter"",""1"",""6433""
","
","","","1433.6000000238419","","","12","3512","2086","f","elianto","#3366ff99"," "," ","1","+10","[2284.899999976158]","1","2","","","3512","104","8","1","win","go","0"
"pit-trial","223","1358757","0.0-109.0","battery-v0.2","","""event"",""trial"",""time""
""fullscreenenter"",""1"",""6433""
","
","
","""event"",""trial"",""time""
""fullscreenenter"",""1"",""6433""
","
","","","-1","","","12","3512","2086","f","elianto","#3366ff99"," ","-1","0","0","[3082.5]","1","2","","","3512","105","8","1","win","go","0"
"pit-trial","224","1362516","0.0-110.0","battery-v0.2","","""event"",""trial"",""time""
""fullscreenenter"",""1"",""6433""
","
","
","""event"",""trial"",""time""
""fullscreenenter"",""1"",""6433""
","
","","","902.7999999523163","","","12","3512","2086","z","elianto","#3366ff99"," "," ","1","+10","[1754.0999999046326]","1","2","","","3512","106","4","1","win","go","0"
"pit-trial","225","1366717","0.0-111.0","battery-v0.2","","""event"",""trial"",""time""
""fullscreenenter"",""1"",""6433""
","
","
","""event"",""trial"",""time""
""fullscreenenter"",""1"",""6433""
","
","","","1342.1999999284744","","","12","3512","2086","b","elianto","#f73b6a7A"," "," ","1","0","[2194.7999999523163]","1","2","","","3512","107","6","3","lose","go","0"
"pit-trial","226","1370789","0.0-112.0","battery-v0.2","","""event"",""trial"",""time""
""fullscreenenter"",""1"",""6433""
","
","
","""event"",""trial"",""time""
""fullscreenenter"",""1"",""6433""
","
","","","1214.1000000238419","","","12","3512","2086","n","elianto","#3366ff99"," "," ","1","+10","[2067]","1","2","","","3512","108","9","1","win","go","0"
"pit-trial","227","1375653","0.0-113.0","battery-v0.2","","""event"",""trial"",""time""
""fullscreenenter"",""1"",""6433""
","
","
","""event"",""trial"",""time""
""fullscreenenter"",""1"",""6433""
","
","","","-1","","","12","3512","2086","c","elianto","#3366ff99","-1","-1","1","0","[]","0","2","","","3512","109","5","2","win","no-go","1"
"pit-trial","228","1379325","0.0-114.0","battery-v0.2","","""event"",""trial"",""time""
""fullscreenenter"",""1"",""6433""
","
","
","""event"",""trial"",""time""
""fullscreenenter"",""1"",""6433""
","
","","","814.2999999523163","","","12","3512","2086","n","elianto","#3366ff99"," "," ","1","+10","[1667]","1","2","","","3512","110","9","1","win","go","0"
"pit-trial","229","1383021","0.0-115.0","battery-v0.2","","""event"",""trial"",""time""
""fullscreenenter"",""1"",""6433""
","
","
","""event"",""trial"",""time""
""fullscreenenter"",""1"",""6433""
","
","","","837.6999999284744","","","12","3512","2086","f","elianto","#3366ff99"," "," ","1","0","[1691.5]","1","2","","","3512","111","8","1","win","go","1"
"pit-trial","230","1387893","0.0-116.0","battery-v0.2","","""event"",""trial"",""time""
""fullscreenenter"",""1"",""6433""
","
","
","""event"",""trial"",""time""
""fullscreenenter"",""1"",""6433""
","
","","","-1","","","12","3512","2086","b","elianto","#f73b6a7A"," ","-1","0","0","[]","0","2","","","3512","112","6","3","lose","go","1"
"pit-trial","231","1391566","0.0-117.0","battery-v0.2","","""event"",""trial"",""time""
""fullscreenenter"",""1"",""6433""
","
","
","""event"",""trial"",""time""
""fullscreenenter"",""1"",""6433""
","
","","","812.7000000476837","","","12","3512","2086","f","elianto","#3366ff99"," "," ","1","+10","[1666]","1","2","","","3512","113","8","1","win","go","0"
"pit-trial","232","1395181","0.0-118.0","battery-v0.2","","""event"",""trial"",""time""
""fullscreenenter"",""1"",""6433""
","
","
","""event"",""trial"",""time""
""fullscreenenter"",""1"",""6433""
","
","","","754.5","","","12","3512","2086","n","elianto","#3366ff99"," "," ","1","0","[1609.1000000238419]","1","2","","","3512","114","9","1","win","go","1"
"pit-trial","233","1399029","0.0-119.0","battery-v0.2","","""event"",""trial"",""time""
""fullscreenenter"",""1"",""6433""
","
","
","""event"",""trial"",""time""
""fullscreenenter"",""1"",""6433""
","
","","","989.1000000238419","","","12","3512","2086","c","elianto","#3366ff99","-1"," ","0","0","[1840.8000000715256]","1","2","","","3512","115","5","2","win","no-go","0"
"pit-trial","234","1403893","0.0-120.0","battery-v0.2","","""event"",""trial"",""time""
""fullscreenenter"",""1"",""6433""
","
","
","""event"",""trial"",""time""
""fullscreenenter"",""1"",""6433""
","
","","","-1","","","12","3512","2086","b","elianto","#f73b6a7A"," ","-1","0","-10","[]","0","2","","","3512","116","6","3","lose","go","0"
"pit-trial","235","1407333","0.0-121.0","battery-v0.2","","""event"",""trial"",""time""
""fullscreenenter"",""1"",""6433""
","
","
","""event"",""trial"",""time""
""fullscreenenter"",""1"",""6433""
","
","","","582.5","","","12","3512","2086","c","elianto","#3366ff99","-1"," ","0","+10","[1434,1529.3999999761581]","2","2","","","3512","117","5","2","win","no-go","1"
"pit-trial","236","1412197","0.0-122.0","battery-v0.2","","""event"",""trial"",""time""
""fullscreenenter"",""1"",""6433""
","
","
","""event"",""trial"",""time""
""fullscreenenter"",""1"",""6433""
","
","","","-1","","","12","3512","2086","b","elianto","#f73b6a7A"," ","-1","0","-10","[2897.600000023842]","1","2","","","3512","118","6","3","lose","go","0"
"pit-trial","237","1417061","0.0-123.0","battery-v0.2","","""event"",""trial"",""time""
""fullscreenenter"",""1"",""6433""
","
","
","""event"",""trial"",""time""
""fullscreenenter"",""1"",""6433""
","
","","","-1","","","12","3512","2086","f","elianto","#3366ff99"," ","-1","0","0","[]","0","2","","","3512","119","8","1","win","go","0"
"pit-trial","238","1421142","0.0-124.0","battery-v0.2","","""event"",""trial"",""time""
""fullscreenenter"",""1"",""6433""
","
","
","""event"",""trial"",""time""
""fullscreenenter"",""1"",""6433""
","
","","","1222.2000000476837","","","12","3512","2086","n","elianto","#3366ff99"," "," ","1","+10","[2075.2999999523163]","1","2","","","3512","120","9","1","win","go","0"
"pit-trial","239","1424885","0.0-125.0","battery-v0.2","","""event"",""trial"",""time""
""fullscreenenter"",""1"",""6433""
","
","
","""event"",""trial"",""time""
""fullscreenenter"",""1"",""6433""
","
","","","884.5999999046326","","","12","3512","2086","b","elianto","#f73b6a7A"," "," ","1","0","[1736.8000000715256]","1","2","","","3512","121","6","3","lose","go","0"
"pit-trial","240","1429749","0.0-126.0","battery-v0.2","","""event"",""trial"",""time""
""fullscreenenter"",""1"",""6433""
","
","
","""event"",""trial"",""time""
""fullscreenenter"",""1"",""6433""
","
","","","-1","","","12","3512","2086","t","elianto","#f73b6a7A","-1","-1","1","0","[]","0","2","","","3512","122","7","4","lose","no-go","0"
"pit-trial","241","1433484","0.0-127.0","battery-v0.2","","""event"",""trial"",""time""
""fullscreenenter"",""1"",""6433""
","
","
","""event"",""trial"",""time""
""fullscreenenter"",""1"",""6433""
","
","","","878.3000000715256","","","12","3512","2086","f","elianto","#3366ff99"," "," ","1","+10","[1729.6000000238419]","1","2","","","3512","123","8","1","win","go","0"
"pit-trial","242","1437332","0.0-128.0","battery-v0.2","","""event"",""trial"",""time""
""fullscreenenter"",""1"",""6433""
","
","
","""event"",""trial"",""time""
""fullscreenenter"",""1"",""6433""
","
","","","990.1000000238419","","","12","3512","2086","n","elianto","#3366ff99"," "," ","1","+10","[1842.3999999761581]","1","2","","","3512","124","9","1","win","go","0"
"pit-trial","243","1442196","0.0-129.0","battery-v0.2","","""event"",""trial"",""time""
""fullscreenenter"",""1"",""6433""
","
","
","""event"",""trial"",""time""
""fullscreenenter"",""1"",""6433""
","
","","","-1","","","12","3512","2086","b","elianto","#f73b6a7A"," ","-1","0","-10","[]","0","2","","","3512","125","6","3","lose","go","0"
"pit-trial","244","1446420","0.0-130.0","battery-v0.2","","""event"",""trial"",""time""
""fullscreenenter"",""1"",""6433""
","
","
","""event"",""trial"",""time""
""fullscreenenter"",""1"",""6433""
","
","","","1365","","","12","3512","2086","t","elianto","#f73b6a7A","-1"," ","0","-10","[2218.3000000715256]","1","2","","","3512","126","7","4","lose","no-go","0"
"pit-trial","245","1450164","0.0-131.0","battery-v0.2","","""event"",""trial"",""time""
""fullscreenenter"",""1"",""6433""
","
","
","""event"",""trial"",""time""
""fullscreenenter"",""1"",""6433""
","
","","","882.6999999284744","","","12","3512","2086","f","elianto","#3366ff99"," "," ","1","+10","[1737.6999999284744]","1","2","","","3512","127","8","1","win","go","0"
"pit-trial","246","1453812","0.0-132.0","battery-v0.2","","""event"",""trial"",""time""
""fullscreenenter"",""1"",""6433""
","
","
","""event"",""trial"",""time""
""fullscreenenter"",""1"",""6433""
","
","","","790.3000000715256","","","12","3512","2086","n","elianto","#3366ff99"," "," ","1","+10","[1642.6000000238419]","1","2","","","3512","128","9","1","win","go","0"
"pit-trial","247","1457665","0.0-133.0","battery-v0.2","","""event"",""trial"",""time""
""fullscreenenter"",""1"",""6433""
","
","
","""event"",""trial"",""time""
""fullscreenenter"",""1"",""6433""
","
","","","989.6999999284744","","","12","3512","2086","n","elianto","#3366ff99"," "," ","1","+10","[1842.1999999284744]","1","2","","","3512","129","9","1","win","go","0"
"pit-trial","248","1462533","0.0-134.0","battery-v0.2","","""event"",""trial"",""time""
""fullscreenenter"",""1"",""6433""
","
","
","""event"",""trial"",""time""
""fullscreenenter"",""1"",""6433""
","
","","","-1","","","12","3512","2086","t","elianto","#f73b6a7A","-1","-1","1","0","[]","0","2","","","3512","130","7","4","lose","no-go","0"
"pit-trial","249","1467069","0.0-135.0","battery-v0.2","","""event"",""trial"",""time""
""fullscreenenter"",""1"",""6433""
","
","
","""event"",""trial"",""time""
""fullscreenenter"",""1"",""6433""
","
","","","1677.7000000476837","","","12","3512","2086","b","elianto","#f73b6a7A"," "," ","1","-10","[2529.2999999523163]","1","2","","","3512","131","6","3","lose","go","1"
"pit-trial","250","1471860","0.0-136.0","battery-v0.2","","""event"",""trial"",""time""
""fullscreenenter"",""1"",""6433""
","
","
","""event"",""trial"",""time""
""fullscreenenter"",""1"",""6433""
","
","","","1933.6000000238419","","","12","3512","2086","f","elianto","#3366ff99"," "," ","1","+10","[2785.600000023842]","1","2","","","3512","132","8","1","win","go","0"
"pit-trial","251","1476488","0.0-137.0","battery-v0.2","","""event"",""trial"",""time""
""fullscreenenter"",""1"",""6433""
","
","
","""event"",""trial"",""time""
""fullscreenenter"",""1"",""6433""
","
","","","1764.3000000715256","","","12","3512","2086","f","elianto","#3366ff99"," "," ","1","0","[2618.100000023842]","1","2","","","3512","133","8","1","win","go","1"
"pit-trial","252","1481356","0.0-138.0","battery-v0.2","","""event"",""trial"",""time""
""fullscreenenter"",""1"",""6433""
","
","
","""event"",""trial"",""time""
""fullscreenenter"",""1"",""6433""
","
","","","-1","","","12","3512","2086","n","elianto","#3366ff99"," ","-1","0","+10","[3006.600000023842]","1","2","","","3512","134","9","1","win","go","1"
"pit-trial","253","1485189","0.0-139.0","battery-v0.2","","""event"",""trial"",""time""
""fullscreenenter"",""1"",""6433""
","
","
","""event"",""trial"",""time""
""fullscreenenter"",""1"",""6433""
","
","","","972.8999999761581","","","12","3512","2086","b","elianto","#f73b6a7A"," "," ","1","0","[1825.5]","1","2","","","3512","135","6","3","lose","go","0"
"pit-trial","254","1490057","0.0-140.0","battery-v0.2","","""event"",""trial"",""time""
""fullscreenenter"",""1"",""6433""
","
","
","""event"",""trial"",""time""
""fullscreenenter"",""1"",""6433""
","
","","","-1","","","12","3512","2086","t","elianto","#f73b6a7A","-1","-1","1","-10","[]","0","2","","","3512","136","7","4","lose","no-go","1"
"pit-trial","255","1494061","0.0-141.0","battery-v0.2","","""event"",""trial"",""time""
""fullscreenenter"",""1"",""6433""
","
","
","""event"",""trial"",""time""
""fullscreenenter"",""1"",""6433""
","
","","","1144.3000000715256","","","12","3512","2086","f","elianto","#3366ff99"," "," ","1","0","[1997.8000000715256]","1","2","","","3512","137","8","1","win","go","1"
"pit-trial","256","1498429","0.0-142.0","battery-v0.2","","""event"",""trial"",""time""
""fullscreenenter"",""1"",""6433""
","
","
","""event"",""trial"",""time""
""fullscreenenter"",""1"",""6433""
","
","","","1511.3999999761581","","","12","3512","2086","n","elianto","#3366ff99"," "," ","1","+10","[2361.5999999046326]","1","2","","","3512","138","9","1","win","go","0"
"pit-trial","257","1503269","0.0-143.0","battery-v0.2","","""event"",""trial"",""time""
""fullscreenenter"",""1"",""6433""
","
","
","""event"",""trial"",""time""
""fullscreenenter"",""1"",""6433""
","
","","","1981.5","","","12","3512","2086","t","elianto","#f73b6a7A","-1"," ","0","-10","[2833.600000023842]","1","2","","","3512","139","7","4","lose","no-go","0"
"pit-trial","258","1508020","0.0-144.0","battery-v0.2","","""event"",""trial"",""time""
""fullscreenenter"",""1"",""6433""
","
","
","""event"",""trial"",""time""
""fullscreenenter"",""1"",""6433""
","
","","","1893.6000000238419","","","12","3512","2086","b","elianto","#f73b6a7A"," "," ","1","0","[2746.5]","1","2","","","3512","140","6","3","lose","go","0"
"pit-instructions","259","1524457","0.0-145.0","battery-v0.2","","""event"",""trial"",""time""
""fullscreenenter"",""1"",""6433""
","
","
","""event"",""trial"",""time""
""fullscreenenter"",""1"",""6433""
","
","","[{""page_index"":0,""viewing_time"":8407.299999952316},{""page_index"":1,""viewing_time"":8026.100000023842}]","16433.699999928474","","","","","","","","","","","","","","","","","","","","","","","",""
"pit-trial","260","1527847","0.0-146.0","battery-v0.2","","""event"",""trial"",""time""
""fullscreenenter"",""1"",""6433""
","
","
","""event"",""trial"",""time""
""fullscreenenter"",""1"",""6433""
","
","","","525.5","","","12","3512","2086","l","elianto","#3366ff99"," "," ","1","0","[1381.1000000238419]","1","3","","","3512","141","1","1","win","go","1"
"pit-trial","261","1531696","0.0-147.0","battery-v0.2","","""event"",""trial"",""time""
""fullscreenenter"",""1"",""6433""
","
","
","""event"",""trial"",""time""
""fullscreenenter"",""1"",""6433""
","
","","","976.3999999761581","","","12","3512","2086","g","elianto","#f73b6a7A"," "," ","1","0","[1832.1000000238419]","1","3","","","3512","142","3","3","lose","go","0"
"pit-trial","262","1535418","0.0-148.0","battery-v0.2","","""event"",""trial"",""time""
""fullscreenenter"",""1"",""6433""
","
","
","""event"",""trial"",""time""
""fullscreenenter"",""1"",""6433""
","
","","","844.4000000953674","","","12","3512","2086","a","elianto","#f73b6a7A","-1"," ","0","-10","[1702.1000000238419]","1","3","","","3512","143","2","4","lose","no-go","0"
"pit-trial","263","1540263","0.0-149.0","battery-v0.2","","""event"",""trial"",""time""
""fullscreenenter"",""1"",""6433""
","
","
","""event"",""trial"",""time""
""fullscreenenter"",""1"",""6433""
","
