"trial_type","trial_index","time_elapsed","internal_node_id","task_version","subject_id","interactions","blur_events","focus_events","fullscreenenter_events","fullscreenexit_events","success","view_history","rt","responses","num_errors","age","subject","participantId","rune","rune_set","hex","correct","choice","accuracy","outcome","keys","total_keys","block","practice","value","sub","trial","stimulus","robot","valence","action","sham"
"pavlovia","0","62","0.0-0.0","battery-v0.2","","""event"",""trial"",""time""
""fullscreenenter"",""1"",""7547""
","
","
","""event"",""trial"",""time""
""fullscreenenter"",""1"",""7547""
","
","","","","","","","","","","","","","","","","","","","","","","","","","","",""
"fullscreen","1","8534","0.0-1.0","battery-v0.2","","""event"",""trial"",""time""
""fullscreenenter"",""1"",""7547""
","
","
","""event"",""trial"",""time""
""fullscreenenter"",""1"",""7547""
","
","true","","","","","","","","","","","","","","","","","","","","","","","","","",""
"pit-instructions","2","20804","0.0-2.0-0.0","battery-v0.2","","""event"",""trial"",""time""
""fullscreenenter"",""1"",""7547""
","
","
","""event"",""trial"",""time""
""fullscreenenter"",""1"",""7547""
","
","","[{""page_index"":0,""viewing_time"":12251.099999999977}]","12254","","","","","","","","","","","","","","","","","","","","","","","",""
"pit-comprehension","3","27645","0.0-2.0-1.0-0.0","battery-v0.2","","""event"",""trial"",""time""
""fullscreenenter"",""1"",""7547""
","
","
","""event"",""trial"",""time""
""fullscreenenter"",""1"",""7547""
","
","","","6821.899999999965","[""shark""]","0","10","11078","880","","","","","","","","","","","","","","","","","","",""
"pit-instructions","4","29717","0.0-2.0-1.0-1.0","battery-v0.2","","""event"",""trial"",""time""
""fullscreenenter"",""1"",""7547""
","
","
","""event"",""trial"",""time""
""fullscreenenter"",""1"",""7547""
","
","","[{""page_index"":0,""viewing_time"":1988.9000000000233}]","1991.4000000000233","","","","","","","","","","","","","","","","","","","","","","","",""
"pit-comprehension","5","34113","0.0-2.0-2.0-0.0","battery-v0.2","","""event"",""trial"",""time""
""fullscreenenter"",""1"",""7547""
","
","
","""event"",""trial"",""time""
""fullscreenenter"",""1"",""7547""
","
","","","4380.5","[""tiger""]","0","10","11078","880","","","","","","","","","","","","","","","","","","",""
"pit-instructions","6","35442","0.0-2.0-2.0-1.0","battery-v0.2","","""event"",""trial"",""time""
""fullscreenenter"",""1"",""7547""
","
","
","""event"",""trial"",""time""
""fullscreenenter"",""1"",""7547""
","
","","[{""page_index"":0,""viewing_time"":1314.7000000000116}]","1318.2000000000116","","","","","","","","","","","","","","","","","","","","","","","",""
"pit-instructions","7","150530","0.0-2.0-3.0","battery-v0.2","","""event"",""trial"",""time""
""fullscreenenter"",""1"",""7547""
","
","
","""event"",""trial"",""time""
""fullscreenenter"",""1"",""7547""
","
","","[{""page_index"":0,""viewing_time"":13360.200000000012},{""page_index"":1,""viewing_time"":6851.200000000012},{""page_index"":2,""viewing_time"":6860.899999999965},{""page_index"":3,""viewing_time"":5931},{""page_index"":4,""viewing_time"":6627},{""page_index"":5,""viewing_time"":6203.799999999988},{""page_index"":6,""viewing_time"":7537.300000000047},{""page_index"":7,""viewing_time"":7947.799999999988},{""page_index"":8,""viewing_time"":9638.999999999942},{""page_index"":9,""viewing_time"":16365.100000000093},{""page_index"":10,""viewing_time"":7389.79999999993},{""page_index"":11,""viewing_time"":8966.400000000023},{""page_index"":12,""viewing_time"":6065.300000000047},{""page_index"":13,""viewing_time"":5324.899999999907}]","115073.80000000005","","","","","","","","","","","","","","","","","","","","","","","",""
"pit-trial","8","154035","0.0-2.0-4.0-0.0","battery-v0.2","","""event"",""trial"",""time""
""fullscreenenter"",""1"",""7547""
","
","
","""event"",""trial"",""time""
""fullscreenenter"",""1"",""7547""
","
","","","640.5","","","10","11078","880","&#9784;","elianto","#FFFFF080"," "," ","1","&#10004","[1490.8000000000466]","1","0","0","","","","","","","",""
"pit-trial","9","157327","0.0-2.0-4.1-0.1","battery-v0.2","","""event"",""trial"",""time""
""fullscreenenter"",""1"",""7547""
","
","
","""event"",""trial"",""time""
""fullscreenenter"",""1"",""7547""
","
","","","429.20000000006985","","","10","11078","880","&#9784;","elianto","#FFFFF080"," "," ","1","&#10004","[1279.5]","1","0","0","","","","","","","",""
"pit-trial","10","160728","0.0-2.0-4.2-0.2","battery-v0.2","","""event"",""trial"",""time""
""fullscreenenter"",""1"",""7547""
","
","
","""event"",""trial"",""time""
""fullscreenenter"",""1"",""7547""
","
","","","537.2999999999302","","","10","11078","880","&#9784;","elianto","#FFFFF080"," "," ","1","&#10004","[1387.3000000000466]","1","0","0","","","","","","","",""
"pit-trial","11","164028","0.0-2.0-4.3-0.3","battery-v0.2","","""event"",""trial"",""time""
""fullscreenenter"",""1"",""7547""
","
","
","""event"",""trial"",""time""
""fullscreenenter"",""1"",""7547""
","
","","","437.5","","","10","11078","880","&#9784;","elianto","#FFFFF080"," "," ","1","&#10004","[1288.7000000000698]","1","0","0","","","","","","","",""
"pit-trial","12","167363","0.0-2.0-4.4-0.4","battery-v0.2","","""event"",""trial"",""time""
""fullscreenenter"",""1"",""7547""
","
","
","""event"",""trial"",""time""
""fullscreenenter"",""1"",""7547""
","
","","","472.70000000006985","","","10","11078","880","&#9784;","elianto","#FFFFF080"," "," ","1","&#10004","[1322.8999999999069]","1","0","0","","","","","","","",""
"pit-instructions","13","189444","0.0-2.0-5.0","battery-v0.2","","""event"",""trial"",""time""
""fullscreenenter"",""1"",""7547""
","
","
","""event"",""trial"",""time""
""fullscreenenter"",""1"",""7547""
","
","","[{""page_index"":0,""viewing_time"":5073.79999999993},{""page_index"":1,""viewing_time"":6165.400000000023},{""page_index"":2,""viewing_time"":5354.900000000023},{""page_index"":3,""viewing_time"":5471.800000000047}]","22068","","","","","","","","","","","","","","","","","","","","","","","",""
"pit-trial","14","194308","0.0-2.0-6.0-0.0","battery-v0.2","","""event"",""trial"",""time""
""fullscreenenter"",""1"",""7547""
","
","
","""event"",""trial"",""time""
""fullscreenenter"",""1"",""7547""
","
","","","-1","","","10","11078","880","&#9854;","elianto","#FFFFF080","-1","-1","1","&#10004","[]","0","0","1","","","","","","","",""
"pit-trial","15","199172","0.0-2.0-6.1-0.1","battery-v0.2","","""event"",""trial"",""time""
""fullscreenenter"",""1"",""7547""
","
","
","""event"",""trial"",""time""
""fullscreenenter"",""1"",""7547""
","
","","","-1","","","10","11078","880","&#9854;","elianto","#FFFFF080","-1","-1","1","&#10004","[]","0","0","1","","","","","","","",""
"pit-trial","16","204035","0.0-2.0-6.2-0.2","battery-v0.2","","""event"",""trial"",""time""
""fullscreenenter"",""1"",""7547""
","
","
","""event"",""trial"",""time""
""fullscreenenter"",""1"",""7547""
","
","","","-1","","","10","11078","880","&#9854;","elianto","#FFFFF080","-1","-1","1","&#10004","[]","0","0","1","","","","","","","",""
"pit-trial","17","208901","0.0-2.0-6.3-0.3","battery-v0.2","","""event"",""trial"",""time""
""fullscreenenter"",""1"",""7547""
","
","
","""event"",""trial"",""time""
""fullscreenenter"",""1"",""7547""
","
","","","-1","","","10","11078","880","&#9854;","elianto","#FFFFF080","-1","-1","1","&#10004","[]","0","0","1","","","","","","","",""
"pit-trial","18","213768","0.0-2.0-6.4-0.4","battery-v0.2","","""event"",""trial"",""time""
""fullscreenenter"",""1"",""7547""
","
","
","""event"",""trial"",""time""
""fullscreenenter"",""1"",""7547""
","
","","","-1","","","10","11078","880","&#9854;","elianto","#FFFFF080","-1","-1","1","&#10004","[]","0","0","1","","","","","","","",""
"pit-instructions","19","343203","0.0-2.0-7.0","battery-v0.2","","""event"",""trial"",""time""
""fullscreenenter"",""1"",""7547""
","
","
","""event"",""trial"",""time""
""fullscreenenter"",""1"",""7547""
","
","","[{""page_index"":0,""viewing_time"":6174.199999999953},{""page_index"":1,""viewing_time"":8015.800000000047},{""page_index"":2,""viewing_time"":6382.699999999953},{""page_index"":3,""viewing_time"":6685.400000000023},{""page_index"":4,""viewing_time"":6303.70000000007},{""page_index"":5,""viewing_time"":7546.699999999953},{""page_index"":6,""viewing_time"":5884},{""page_index"":7,""viewing_time"":8790.099999999977},{""page_index"":8,""viewing_time"":7907.20000000007},{""page_index"":9,""viewing_time"":7117},{""page_index"":10,""viewing_time"":7514.899999999907},{""page_index"":11,""viewing_time"":5250.20000000007},{""page_index"":12,""viewing_time"":8301.5},{""page_index"":13,""viewing_time"":8495.599999999977},{""page_index"":14,""viewing_time"":7763.300000000047},{""page_index"":15,""viewing_time"":6861.29999999993},{""page_index"":16,""viewing_time"":6396.099999999977},{""page_index"":17,""viewing_time"":8030.800000000047}]","129424","","","","","","","","","","","","","","","","","","","","","","","",""
"pit-trial","20","346367","0.0-2.0-8.0-0.0","battery-v0.2","","""event"",""trial"",""time""
""fullscreenenter"",""1"",""7547""
","
","
","""event"",""trial"",""time""
""fullscreenenter"",""1"",""7547""
","
","","","301.69999999995343","","","10","11078","880","&#9776;","elianto","#3366ff99"," "," ","1","+10","[1155.5]","1","0","1","","","","","","","",""
"pit-trial","21","349577","0.0-2.0-8.0-1.0","battery-v0.2","","""event"",""trial"",""time""
""fullscreenenter"",""1"",""7547""
","
","
","""event"",""trial"",""time""
""fullscreenenter"",""1"",""7547""
","
","","","343.29999999993015","","","10","11078","880","&#9776;","elianto","#3366ff99"," "," ","1","+10","[1197]","1","0","1","","","","","","","",""
"pit-trial","22","352693","0.0-2.0-8.0-2.0","battery-v0.2","","""event"",""trial"",""time""
""fullscreenenter"",""1"",""7547""
","
","
","""event"",""trial"",""time""
""fullscreenenter"",""1"",""7547""
","
","","","256.5999999999767","","","10","11078","880","&#9776;","elianto","#3366ff99"," "," ","1","+10","[1106.7999999999302]","1","0","1","","","","","","","",""
"pit-trial","23","355866","0.0-2.0-8.0-3.0","battery-v0.2","","""event"",""trial"",""time""
""fullscreenenter"",""1"",""7547""
","
","
","""event"",""trial"",""time""
""fullscreenenter"",""1"",""7547""
","
","","","312.5","","","10","11078","880","&#9776;","elianto","#3366ff99"," "," ","1","0","[1162.3999999999069]","1","0","1","","","","","","","",""
"pit-trial","24","358902","0.0-2.0-8.0-4.0","battery-v0.2","","""event"",""trial"",""time""
""fullscreenenter"",""1"",""7547""
","
","
","""event"",""trial"",""time""
""fullscreenenter"",""1"",""7547""
","
","","","176.59999999997672","","","10","11078","880","&#9776;","elianto","#3366ff99"," "," ","1","+10","[1027.2000000000698]","1","0","1","","","","","","","",""
"pit-trial","25","362285","0.0-2.0-8.1-0.1","battery-v0.2","","""event"",""trial"",""time""
""fullscreenenter"",""1"",""7547""
","
","
","""event"",""trial"",""time""
""fullscreenenter"",""1"",""7547""
","
","","","515.6999999999534","","","10","11078","880","&#9776;","elianto","#3366ff99"," "," ","1","+10","[1370.5999999999767]","1","0","1","","","","","","","",""
"pit-trial","26","365585","0.0-2.0-8.1-1.1","battery-v0.2","","""event"",""trial"",""time""
""fullscreenenter"",""1"",""7547""
","
","
","""event"",""trial"",""time""
""fullscreenenter"",""1"",""7547""
","
","","","435.20000000006985","","","10","11078","880","&#9776;","elianto","#3366ff99"," "," ","1","+10","[1286.7000000000698]","1","0","1","","","","","","","",""
"pit-trial","27","368978","0.0-2.0-8.1-2.1","battery-v0.2","","""event"",""trial"",""time""
""fullscreenenter"",""1"",""7547""
","
","
","""event"",""trial"",""time""
""fullscreenenter"",""1"",""7547""
","
","","","529","","","10","11078","880","&#9776;","elianto","#3366ff99"," "," ","1","+10","[1379.5999999999767]","1","0","1","","","","","","","",""
"pit-trial","28","373842","0.0-2.0-8.1-3.1","battery-v0.2","","""event"",""trial"",""time""
""fullscreenenter"",""1"",""7547""
","
","
","""event"",""trial"",""time""
""fullscreenenter"",""1"",""7547""
","
","","","-1","","","10","11078","880","&#9776;","elianto","#3366ff99"," ","-1","0","+10","[]","0","0","1","","","","","","","",""
"pit-trial","29","377151","0.0-2.0-8.1-4.1","battery-v0.2","","""event"",""trial"",""time""
""fullscreenenter"",""1"",""7547""
","
","
","""event"",""trial"",""time""
""fullscreenenter"",""1"",""7547""
","
","","","443.5999999999767","","","10","11078","880","&#9776;","elianto","#3366ff99"," "," ","1","+10","[1294.2999999999302]","1","0","1","","","","","","","",""
"pit-trial","30","380316","0.0-2.0-8.2-0.2","battery-v0.2","","""event"",""trial"",""time""
""fullscreenenter"",""1"",""7547""
","
","
","""event"",""trial"",""time""
""fullscreenenter"",""1"",""7547""
","
","","","299.69999999995343","","","10","11078","880","&#9776;","elianto","#3366ff99"," "," ","1","+10","[1153.3000000000466]","1","0","1","","","","","","","",""
"pit-trial","31","383645","0.0-2.0-8.2-1.2","battery-v0.2","","""event"",""trial"",""time""
""fullscreenenter"",""1"",""7547""
","
","
","""event"",""trial"",""time""
""fullscreenenter"",""1"",""7547""
","
","","","464.9000000000233","","","10","11078","880","&#9776;","elianto","#3366ff99"," "," ","1","+10","[1317.0999999999767]","1","0","1","","","","","","","",""
"pit-trial","32","386811","0.0-2.0-8.2-2.2","battery-v0.2","","""event"",""trial"",""time""
""fullscreenenter"",""1"",""7547""
","
","
","""event"",""trial"",""time""
""fullscreenenter"",""1"",""7547""
","
","","","301","","","10","11078","880","&#9776;","elianto","#3366ff99"," "," ","1","+10","[1151.2999999999302]","1","0","1","","","","","","","",""
"pit-trial","33","389877","0.0-2.0-8.2-3.2","battery-v0.2","","""event"",""trial"",""time""
""fullscreenenter"",""1"",""7547""
","
","
","""event"",""trial"",""time""
""fullscreenenter"",""1"",""7547""
","
","","","207.5","","","10","11078","880","&#9776;","elianto","#3366ff99"," "," ","1","0","[1057.5999999999767]","1","0","1","","","","","","","",""
"pit-trial","34","392951","0.0-2.0-8.2-4.2","battery-v0.2","","""event"",""trial"",""time""
""fullscreenenter"",""1"",""7547""
","
","
","""event"",""trial"",""time""
""fullscreenenter"",""1"",""7547""
","
","","","210.20000000006985","","","10","11078","880","&#9776;","elianto","#3366ff99"," "," ","1","+10","[1060.2999999999302]","1","0","1","","","","","","","",""
"call-function","35","392961","0.0-2.0-9.0","battery-v0.2","","""event"",""trial"",""time""
""fullscreenenter"",""1"",""7547""
","
","
","""event"",""trial"",""time""
""fullscreenenter"",""1"",""7547""
","
","","","","","","","","","","","","","","","","","","","","","","","","","","",""
"pit-instructions","36","436314","0.0-2.0-10.0","battery-v0.2","","""event"",""trial"",""time""
""fullscreenenter"",""1"",""7547""
","
","
","""event"",""trial"",""time""
""fullscreenenter"",""1"",""7547""
","
","","[{""page_index"":0,""viewing_time"":8201.900000000023},{""page_index"":1,""viewing_time"":7565.099999999977},{""page_index"":2,""viewing_time"":10306.400000000023},{""page_index"":3,""viewing_time"":9541.900000000023},{""page_index"":4,""viewing_time"":7731.5}]","43349.90000000002","","","","","","","","","","","","","","","","","","","","","","","",""
"pit-trial","37","441175","0.0-2.0-11.0-0.0","battery-v0.2","","""event"",""trial"",""time""
""fullscreenenter"",""1"",""7547""
","
","
","""event"",""trial"",""time""
""fullscreenenter"",""1"",""7547""
","
","","","-1","","","10","11078","880","&#9761;","elianto","#3366ff99","-1","-1","1","+10","[]","0","0","2","","","","","","","",""
"pit-trial","38","446035","0.0-2.0-11.0-1.0","battery-v0.2","","""event"",""trial"",""time""
""fullscreenenter"",""1"",""7547""
","
","
","""event"",""trial"",""time""
""fullscreenenter"",""1"",""7547""
","
","","","-1","","","10","11078","880","&#9761;","elianto","#3366ff99","-1","-1","1","+10","[]","0","0","2","","","","","","","",""
"pit-trial","39","450900","0.0-2.0-11.0-2.0","battery-v0.2","","""event"",""trial"",""time""
""fullscreenenter"",""1"",""7547""
","
","
","""event"",""trial"",""time""
""fullscreenenter"",""1"",""7547""
","
","","","-1","","","10","11078","880","&#9761;","elianto","#3366ff99","-1","-1","1","+10","[]","0","0","2","","","","","","","",""
"pit-trial","40","455760","0.0-2.0-11.0-3.0","battery-v0.2","","""event"",""trial"",""time""
""fullscreenenter"",""1"",""7547""
","
","
","""event"",""trial"",""time""
""fullscreenenter"",""1"",""7547""
","
","","","-1","","","10","11078","880","&#9761;","elianto","#3366ff99","-1","-1","1","0","[]","0","0","2","","","","","","","",""
"pit-trial","41","460622","0.0-2.0-11.0-4.0","battery-v0.2","","""event"",""trial"",""time""
""fullscreenenter"",""1"",""7547""
","
","
","""event"",""trial"",""time""
""fullscreenenter"",""1"",""7547""
","
","","","-1","","","10","11078","880","&#9761;","elianto","#3366ff99","-1","-1","1","+10","[]","0","0","2","","","","","","","",""
"pit-trial","42","464263","0.0-2.0-11.1-0.1","battery-v0.2","","""event"",""trial"",""time""
""fullscreenenter"",""1"",""7547""
","
","
","""event"",""trial"",""time""
""fullscreenenter"",""1"",""7547""
","
","","","774","","","10","11078","880","&#9761;","elianto","#3366ff99","-1"," ","0","0","[1625]","1","0","2","","","","","","","",""
"pit-trial","43","469127","0.0-2.0-11.1-1.1","battery-v0.2","","""event"",""trial"",""time""
""fullscreenenter"",""1"",""7547""
","
","
","""event"",""trial"",""time""
""fullscreenenter"",""1"",""7547""
","
","","","-1","","","10","11078","880","&#9761;","elianto","#3366ff99","-1","-1","1","+10","[]","0","0","2","","","","","","","",""
"pit-trial","44","473990","0.0-2.0-11.1-2.1","battery-v0.2","","""event"",""trial"",""time""
""fullscreenenter"",""1"",""7547""
","
","
","""event"",""trial"",""time""
""fullscreenenter"",""1"",""7547""
","
","","","-1","","","10","11078","880","&#9761;","elianto","#3366ff99","-1","-1","1","+10","[]","0","0","2","","","","","","","",""
"pit-trial","45","478855","0.0-2.0-11.1-3.1","battery-v0.2","","""event"",""trial"",""time""
""fullscreenenter"",""1"",""7547""
","
","
","""event"",""trial"",""time""
""fullscreenenter"",""1"",""7547""
","
","","","-1","","","10","11078","880","&#9761;","elianto","#3366ff99","-1","-1","1","0","[]","0","0","2","","","","","","","",""
"pit-trial","46","483720","0.0-2.0-11.1-4.1","battery-v0.2","","""event"",""trial"",""time""
""fullscreenenter"",""1"",""7547""
","
","
","""event"",""trial"",""time""
""fullscreenenter"",""1"",""7547""
","
","","","-1","","","10","11078","880","&#9761;","elianto","#3366ff99","-1","-1","1","+10","[]","0","0","2","","","","","","","",""
"pit-trial","47","488583","0.0-2.0-11.2-0.2","battery-v0.2","","""event"",""trial"",""time""
""fullscreenenter"",""1"",""7547""
","
","
","""event"",""trial"",""time""
""fullscreenenter"",""1"",""7547""
","
","","","-1","","","10","11078","880","&#9761;","elianto","#3366ff99","-1","-1","1","+10","[]","0","0","2","","","","","","","",""
"pit-trial","48","493445","0.0-2.0-11.2-1.2","battery-v0.2","","""event"",""trial"",""time""
""fullscreenenter"",""1"",""7547""
","
","
","""event"",""trial"",""time""
""fullscreenenter"",""1"",""7547""
","
","","","-1","","","10","11078","880","&#9761;","elianto","#3366ff99","-1","-1","1","+10","[]","0","0","2","","","","","","","",""
"pit-trial","49","498309","0.0-2.0-11.2-2.2","battery-v0.2","","""event"",""trial"",""time""
""fullscreenenter"",""1"",""7547""
","
","
","""event"",""trial"",""time""
""fullscreenenter"",""1"",""7547""
","
","","","-1","","","10","11078","880","&#9761;","elianto","#3366ff99","-1","-1","1","+10","[]","0","0","2","","","","","","","",""
"pit-trial","50","501731","0.0-2.0-11.2-3.2","battery-v0.2","","""event"",""trial"",""time""
""fullscreenenter"",""1"",""7547""
","
","
","""event"",""trial"",""time""
""fullscreenenter"",""1"",""7547""
","
","","","549.8000000000466","","","10","11078","880","&#9761;","elianto","#3366ff99","-1"," ","0","+10","[1407.4000000000233]","1","0","2","","","","","","","",""
"pit-trial","51","506593","0.0-2.0-11.2-4.2","battery-v0.2","","""event"",""trial"",""time""
""fullscreenenter"",""1"",""7547""
","
","
","""event"",""trial"",""time""
""fullscreenenter"",""1"",""7547""
","
","","","-1","","","10","11078","880","&#9761;","elianto","#3366ff99","-1","-1","1","+10","[]","0","0","2","","","","","","","",""
"pit-trial","52","511457","0.0-2.0-11.3-0.3","battery-v0.2","","""event"",""trial"",""time""
""fullscreenenter"",""1"",""7547""
","
","
","""event"",""trial"",""time""
""fullscreenenter"",""1"",""7547""
","
","","","-1","","","10","11078","880","&#9761;","elianto","#3366ff99","-1","-1","1","+10","[]","0","0","2","","","","","","","",""
"pit-trial","53","516321","0.0-2.0-11.3-1.3","battery-v0.2","","""event"",""trial"",""time""
""fullscreenenter"",""1"",""7547""
","
","
","""event"",""trial"",""time""
""fullscreenenter"",""1"",""7547""
","
","","","-1","","","10","11078","880","&#9761;","elianto","#3366ff99","-1","-1","1","+10","[]","0","0","2","","","","","","","",""
"pit-trial","54","521184","0.0-2.0-11.3-2.3","battery-v0.2","","""event"",""trial"",""time""
""fullscreenenter"",""1"",""7547""
","
","
","""event"",""trial"",""time""
""fullscreenenter"",""1"",""7547""
","
","","","-1","","","10","11078","880","&#9761;","elianto","#3366ff99","-1","-1","1","+10","[]","0","0","2","","","","","","","",""
"pit-trial","55","526048","0.0-2.0-11.3-3.3","battery-v0.2","","""event"",""trial"",""time""
""fullscreenenter"",""1"",""7547""
","
","
","""event"",""trial"",""time""
""fullscreenenter"",""1"",""7547""
","
","","","-1","","","10","11078","880","&#9761;","elianto","#3366ff99","-1","-1","1","0","[]","0","0","2","","","","","","","",""
"pit-trial","56","530913","0.0-2.0-11.3-4.3","battery-v0.2","","""event"",""trial"",""time""
""fullscreenenter"",""1"",""7547""
","
","
","""event"",""trial"",""time""
""fullscreenenter"",""1"",""7547""
","
","","","-1","","","10","11078","880","&#9761;","elianto","#3366ff99","-1","-1","1","+10","[]","0","0","2","","","","","","","",""
"call-function","57","530923","0.0-2.0-12.0","battery-v0.2","","""event"",""trial"",""time""
""fullscreenenter"",""1"",""7547""
","
","
","""event"",""trial"",""time""
""fullscreenenter"",""1"",""7547""
","
","","","","","","","","","","","","","","","","","","","","","","","","","","",""
"pit-instructions","58","570171","0.0-2.0-13.0","battery-v0.2","","""event"",""trial"",""time""
""fullscreenenter"",""1"",""7547""
","
","
","""event"",""trial"",""time""
""fullscreenenter"",""1"",""7547""
","
","","[{""page_index"":0,""viewing_time"":6781.099999999977},{""page_index"":1,""viewing_time"":9122.5},{""page_index"":2,""viewing_time"":5642.099999999977},{""page_index"":3,""viewing_time"":12216.5},{""page_index"":4,""viewing_time"":5480.5}]","39246.30000000005","","","","","","","","","","","","","","","","","","","","","","","",""
"pit-trial","59","575033","0.0-2.0-14.0-0.0","battery-v0.2","","""event"",""trial"",""time""
""fullscreenenter"",""1"",""7547""
","
","
","""event"",""trial"",""time""
""fullscreenenter"",""1"",""7547""
","
","","","-1","","","10","11078","880","&#9826;","elianto","#f73b6a7A","-1","-1","1","0","[]","0","0","3","","","","","","","",""
"pit-trial","60","579895","0.0-2.0-14.0-1.0","battery-v0.2","","""event"",""trial"",""time""
""fullscreenenter"",""1"",""7547""
","
","
","""event"",""trial"",""time""
""fullscreenenter"",""1"",""7547""
","
","","","-1","","","10","11078","880","&#9826;","elianto","#f73b6a7A","-1","-1","1","0","[]","0","0","3","","","","","","","",""
"pit-trial","61","584756","0.0-2.0-14.0-2.0","battery-v0.2","","""event"",""trial"",""time""
""fullscreenenter"",""1"",""7547""
","
","
","""event"",""trial"",""time""
""fullscreenenter"",""1"",""7547""
","
","","","-1","","","10","11078","880","&#9826;","elianto","#f73b6a7A","-1","-1","1","0","[]","0","0","3","","","","","","","",""
"pit-trial","62","589620","0.0-2.0-14.0-3.0","battery-v0.2","","""event"",""trial"",""time""
""fullscreenenter"",""1"",""7547""
","
","
","""event"",""trial"",""time""
""fullscreenenter"",""1"",""7547""
","
","","","-1","","","10","11078","880","&#9826;","elianto","#f73b6a7A","-1","-1","1","-10","[]","0","0","3","","","","","","","",""
"pit-trial","63","594481","0.0-2.0-14.0-4.0","battery-v0.2","","""event"",""trial"",""time""
""fullscreenenter"",""1"",""7547""
","
","
","""event"",""trial"",""time""
""fullscreenenter"",""1"",""7547""
","
","","","-1","","","10","11078","880","&#9826;","elianto","#f73b6a7A","-1","-1","1","0","[]","0","0","3","","","","","","","",""
"pit-trial","64","599344","0.0-2.0-14.1-0.1","battery-v0.2","","""event"",""trial"",""time""
""fullscreenenter"",""1"",""7547""
","
","
","""event"",""trial"",""time""
""fullscreenenter"",""1"",""7547""
","
","","","-1","","","10","11078","880","&#9826;","elianto","#f73b6a7A","-1","-1","1","0","[]","0","0","3","","","","","","","",""
"pit-trial","65","604206","0.0-2.0-14.1-1.1","battery-v0.2","","""event"",""trial"",""time""
""fullscreenenter"",""1"",""7547""
","
","
","""event"",""trial"",""time""
""fullscreenenter"",""1"",""7547""
","
","","","-1","","","10","11078","880","&#9826;","elianto","#f73b6a7A","-1","-1","1","0","[]","0","0","3","","","","","","","",""
"pit-trial","66","609069","0.0-2.0-14.1-2.1","battery-v0.2","","""event"",""trial"",""time""
""fullscreenenter"",""1"",""7547""
","
","
","""event"",""trial"",""time""
""fullscreenenter"",""1"",""7547""
","
","","","-1","","","10","11078","880","&#9826;","elianto","#f73b6a7A","-1","-1","1","0","[]","0","0","3","","","","","","","",""
"pit-trial","67","613931","0.0-2.0-14.1-3.1","battery-v0.2","","""event"",""trial"",""time""
""fullscreenenter"",""1"",""7547""
","
","
","""event"",""trial"",""time""
""fullscreenenter"",""1"",""7547""
","
","","","-1","","","10","11078","880","&#9826;","elianto","#f73b6a7A","-1","-1","1","-10","[]","0","0","3","","","","","","","",""
"pit-trial","68","618794","0.0-2.0-14.1-4.1","battery-v0.2","","""event"",""trial"",""time""
""fullscreenenter"",""1"",""7547""
","
","
","""event"",""trial"",""time""
""fullscreenenter"",""1"",""7547""
","
","","","-1","","","10","11078","880","&#9826;","elianto","#f73b6a7A","-1","-1","1","0","[]","0","0","3","","","","","","","",""
"pit-trial","69","623658","0.0-2.0-14.2-0.2","battery-v0.2","","""event"",""trial"",""time""
""fullscreenenter"",""1"",""7547""
","
","
","""event"",""trial"",""time""
""fullscreenenter"",""1"",""7547""
","
","","","-1","","","10","11078","880","&#9826;","elianto","#f73b6a7A","-1","-1","1","0","[]","0","0","3","","","","","","","",""
"pit-trial","70","628521","0.0-2.0-14.2-1.2","battery-v0.2","","""event"",""trial"",""time""
""fullscreenenter"",""1"",""7547""
","
","
","""event"",""trial"",""time""
""fullscreenenter"",""1"",""7547""
","
","","","-1","","","10","11078","880","&#9826;","elianto","#f73b6a7A","-1","-1","1","0","[]","0","0","3","","","","","","","",""
"pit-trial","71","633382","0.0-2.0-14.2-2.2","battery-v0.2","","""event"",""trial"",""time""
""fullscreenenter"",""1"",""7547""
","
","
","""event"",""trial"",""time""
""fullscreenenter"",""1"",""7547""
","
","","","-1","","","10","11078","880","&#9826;","elianto","#f73b6a7A","-1","-1","1","0","[]","0","0","3","","","","","","","",""
"pit-trial","72","636982","0.0-2.0-14.2-3.2","battery-v0.2","","""event"",""trial"",""time""
""fullscreenenter"",""1"",""7547""
","
","
","""event"",""trial"",""time""
""fullscreenenter"",""1"",""7547""
","
","","","736.6000000000931","","","10","11078","880","&#9826;","elianto","#f73b6a7A","-1"," ","0","0","[1586.6000000000931]","1","0","3","","","","","","","",""
"pit-trial","73","641844","0.0-2.0-14.2-4.2","battery-v0.2","","""event"",""trial"",""time""
""fullscreenenter"",""1"",""7547""
","
","
","""event"",""trial"",""time""
""fullscreenenter"",""1"",""7547""
","
","","","-1","","","10","11078","880","&#9826;","elianto","#f73b6a7A","-1","-1","1","0","[]","0","0","3","","","","","","","",""
"pit-trial","74","646705","0.0-2.0-14.3-0.3","battery-v0.2","","""event"",""trial"",""time""
""fullscreenenter"",""1"",""7547""
","
","
","""event"",""trial"",""time""
""fullscreenenter"",""1"",""7547""
","
","","","-1","","","10","11078","880","&#9826;","elianto","#f73b6a7A","-1","-1","1","0","[]","0","0","3","","","","","","","",""
"pit-trial","75","651566","0.0-2.0-14.3-1.3","battery-v0.2","","""event"",""trial"",""time""
""fullscreenenter"",""1"",""7547""
","
","
","""event"",""trial"",""time""
""fullscreenenter"",""1"",""7547""
","
","","","-1","","","10","11078","880","&#9826;","elianto","#f73b6a7A","-1","-1","1","0","[]","0","0","3","","","","","","","",""
"pit-trial","76","655020","0.0-2.0-14.3-2.3","battery-v0.2","","""event"",""trial"",""time""
""fullscreenenter"",""1"",""7547""
","
","
","""event"",""trial"",""time""
""fullscreenenter"",""1"",""7547""
","
","","","589.1999999999534","","","10","11078","880","&#9826;","elianto","#f73b6a7A","-1"," ","0","-10","[1440.3000000000466]","1","0","3","","","","","","","",""
"pit-trial","77","659884","0.0-2.0-14.3-3.3","battery-v0.2","","""event"",""trial"",""time""
""fullscreenenter"",""1"",""7547""
","
","
","""event"",""trial"",""time""
""fullscreenenter"",""1"",""7547""
","
","","","-1","","","10","11078","880","&#9826;","elianto","#f73b6a7A","-1","-1","1","-10","[]","0","0","3","","","","","","","",""
"pit-trial","78","664749","0.0-2.0-14.3-4.3","battery-v0.2","","""event"",""trial"",""time""
""fullscreenenter"",""1"",""7547""
","
","
","""event"",""trial"",""time""
""fullscreenenter"",""1"",""7547""
","
","","","-1","","","10","11078","880","&#9826;","elianto","#f73b6a7A","-1","-1","1","0","[]","0","0","3","","","","","","","",""
"call-function","79","664759","0.0-2.0-15.0","battery-v0.2","","""event"",""trial"",""time""
""fullscreenenter"",""1"",""7547""
","
","
","""event"",""trial"",""time""
""fullscreenenter"",""1"",""7547""
","
","","","","","","","","","","","","","","","","","","","","","","","","","","",""
"pit-instructions","80","690273","0.0-2.0-16.0","battery-v0.2","","""event"",""trial"",""time""
""fullscreenenter"",""1"",""7547""
","
","
","""event"",""trial"",""time""
""fullscreenenter"",""1"",""7547""
","
","","[{""page_index"":0,""viewing_time"":7012.199999999953},{""page_index"":1,""viewing_time"":8707.40000000014},{""page_index"":2,""viewing_time"":4709},{""page_index"":3,""viewing_time"":5080.300000000047}]","25511.600000000093","","","","","","","","","","","","","","","","","","","","","","","",""
"pit-trial","81","693457","0.0-2.0-17.0-0.0","battery-v0.2","","""event"",""trial"",""time""
""fullscreenenter"",""1"",""7547""
","
","
","""event"",""trial"",""time""
""fullscreenenter"",""1"",""7547""
","
","","","323.9000000001397","","","10","11078","880","&#9789;","elianto","#f73b6a7A"," "," ","1","0","[1174.1000000000931]","1","0","4","","","","","","","",""
"pit-trial","82","696560","0.0-2.0-17.0-1.0","battery-v0.2","","""event"",""trial"",""time""
""fullscreenenter"",""1"",""7547""
","
","
","""event"",""trial"",""time""
""fullscreenenter"",""1"",""7547""
","
","","","241.80000000004657","","","10","11078","880","&#9789;","elianto","#f73b6a7A"," "," ","1","0","[1092.8999999999069]","1","0","4","","","","","","","",""
"pit-trial","83","699622","0.0-2.0-17.0-2.0","battery-v0.2","","""event"",""trial"",""time""
""fullscreenenter"",""1"",""7547""
","
","
","""event"",""trial"",""time""
""fullscreenenter"",""1"",""7547""
","
","","","193.9000000001397","","","10","11078","880","&#9789;","elianto","#f73b6a7A"," "," ","1","0","[542.3000000000466,1050.1000000000931]","2","0","4","","","","","","","",""
"pit-trial","84","703770","0.0-2.0-17.0-3.0","battery-v0.2","","""event"",""trial"",""time""
""fullscreenenter"",""1"",""7547""
","
","
","""event"",""trial"",""time""
""fullscreenenter"",""1"",""7547""
","
","","","1284.4000000001397","","","10","11078","880","&#9789;","elianto","#f73b6a7A"," "," ","1","-10","[2134.5]","1","0","4","","","","","","","",""
"pit-trial","85","707334","0.0-2.0-17.0-4.0","battery-v0.2","","""event"",""trial"",""time""
""fullscreenenter"",""1"",""7547""
","
","
","""event"",""trial"",""time""
""fullscreenenter"",""1"",""7547""
","
","","","701.6000000000931","","","10","11078","880","&#9789;","elianto","#f73b6a7A"," "," ","1","0","[1551.6999999999534]","1","0","4","","","","","","","",""
"pit-trial","86","710374","0.0-2.0-17.1-0.1","battery-v0.2","","""event"",""trial"",""time""
""fullscreenenter"",""1"",""7547""
","
","
","""event"",""trial"",""time""
""fullscreenenter"",""1"",""7547""
","
","","","177.79999999981374","","","10","11078","880","&#9789;","elianto","#f73b6a7A"," "," ","1","0","[1027.9000000001397]","1","0","4","","","","","","","",""
"pit-trial","87","713598","0.0-2.0-17.1-1.1","battery-v0.2","","""event"",""trial"",""time""
""fullscreenenter"",""1"",""7547""
","
","
","""event"",""trial"",""time""
""fullscreenenter"",""1"",""7547""
","
","","","358.20000000018626","","","10","11078","880","&#9789;","elianto","#f73b6a7A"," "," ","1","0","[1211.6000000000931]","1","0","4","","","","","","","",""
"pit-trial","88","716806","0.0-2.0-17.1-2.1","battery-v0.2","","""event"",""trial"",""time""
""fullscreenenter"",""1"",""7547""
","
","
","""event"",""trial"",""time""
""fullscreenenter"",""1"",""7547""
","
","","","346.30000000004657","","","10","11078","880","&#9789;","elianto","#f73b6a7A"," "," ","1","0","[1196.4000000001397]","1","0","4","","","","","","","",""
"pit-trial","89","721670","0.0-2.0-17.1-3.1","battery-v0.2","","""event"",""trial"",""time""
""fullscreenenter"",""1"",""7547""
","
","
","""event"",""trial"",""time""
""fullscreenenter"",""1"",""7547""
","
","","","-1","","","10","11078","880","&#9789;","elianto","#f73b6a7A"," ","-1","0","0","[]","0","0","4","","","","","","","",""
"pit-trial","90","724806","0.0-2.0-17.1-4.1","battery-v0.2","","""event"",""trial"",""time""
""fullscreenenter"",""1"",""7547""
","
","
","""event"",""trial"",""time""
""fullscreenenter"",""1"",""7547""
","
","","","273.5","","","10","11078","880","&#9789;","elianto","#f73b6a7A"," "," ","1","0","[1123.8000000000466]","1","0","4","","","","","","","",""
"pit-trial","91","727743","0.0-2.0-17.2-0.2","battery-v0.2","","""event"",""trial"",""time""
""fullscreenenter"",""1"",""7547""
","
","
","""event"",""trial"",""time""
""fullscreenenter"",""1"",""7547""
","
","","","72","","","10","11078","880","&#9789;","elianto","#f73b6a7A"," "," ","1","0","[923.6999999999534]","1","0","4","","","","","","","",""
"pit-trial","92","730961","0.0-2.0-17.2-1.2","battery-v0.2","","""event"",""trial"",""time""
""fullscreenenter"",""1"",""7547""
","
","
","""event"",""trial"",""time""
""fullscreenenter"",""1"",""7547""
","
","","","353.5","","","10","11078","880","&#9789;","elianto","#f73b6a7A"," "," ","1","0","[1208.3999999999069]","1","0","4","","","","","","","",""
"pit-trial","93","735823","0.0-2.0-17.2-2.2","battery-v0.2","","""event"",""trial"",""time""
""fullscreenenter"",""1"",""7547""
","
","
","""event"",""trial"",""time""
""fullscreenenter"",""1"",""7547""
","
","","","-1","","","10","11078","880","&#9789;","elianto","#f73b6a7A"," ","-1","0","-10","[]","0","0","4","","","","","","","",""
"pit-trial","94","739063","0.0-2.0-17.2-3.2","battery-v0.2","","""event"",""trial"",""time""
""fullscreenenter"",""1"",""7547""
","
","
","""event"",""trial"",""time""
""fullscreenenter"",""1"",""7547""
","
","","","378.19999999995343","","","10","11078","880","&#9789;","elianto","#f73b6a7A"," "," ","1","-10","[1229.4000000001397]","1","0","4","","","","","","","",""
"pit-trial","95","743926","0.0-2.0-17.2-4.2","battery-v0.2","","""event"",""trial"",""time""
""fullscreenenter"",""1"",""7547""
","
","
","""event"",""trial"",""time""
""fullscreenenter"",""1"",""7547""
","
","","","-1","","","10","11078","880","&#9789;","elianto","#f73b6a7A"," ","-1","0","-10","[]","0","0","4","","","","","","","",""
"pit-trial","96","748792","0.0-2.0-17.3-0.3","battery-v0.2","","""event"",""trial"",""time""
""fullscreenenter"",""1"",""7547""
","
","
","""event"",""trial"",""time""
""fullscreenenter"",""1"",""7547""
","
","","","-1","","","10","11078","880","&#9789;","elianto","#f73b6a7A"," ","-1","0","-10","[4285.399999999907]","1","0","4","","","","","","","",""
"pit-trial","97","752130","0.0-2.0-17.3-1.3","battery-v0.2","","""event"",""trial"",""time""
""fullscreenenter"",""1"",""7547""
","
","
","""event"",""trial"",""time""
""fullscreenenter"",""1"",""7547""
","
","","","470.5","","","10","11078","880","&#9789;","elianto","#f73b6a7A"," "," ","1","0","[628,1323.6000000000931]","2","0","4","","","","","","","",""
"pit-trial","98","755451","0.0-2.0-17.3-2.3","battery-v0.2","","""event"",""trial"",""time""
""fullscreenenter"",""1"",""7547""
","
","
","""event"",""trial"",""time""
""fullscreenenter"",""1"",""7547""
","
","","","458.60000000009313","","","10","11078","880","&#9789;","elianto","#f73b6a7A"," "," ","1","0","[1308.6999999999534]","1","0","4","","","","","","","",""
"pit-trial","99","758878","0.0-2.0-17.3-3.3","battery-v0.2","","""event"",""trial"",""time""
""fullscreenenter"",""1"",""7547""
","
","
","""event"",""trial"",""time""
""fullscreenenter"",""1"",""7547""
","
","","","565.1000000000931","","","10","11078","880","&#9789;","elianto","#f73b6a7A"," "," ","1","-10","[1415.0999999998603]","1","0","4","","","","","","","",""
"pit-trial","100","762049","0.0-2.0-17.3-4.3","battery-v0.2","","""event"",""trial"",""time""
""fullscreenenter"",""1"",""7547""
","
","
","""event"",""trial"",""time""
""fullscreenenter"",""1"",""7547""
","
","","","306.80000000004657","","","10","11078","880","&#9789;","elianto","#f73b6a7A"," "," ","1","0","[1158]","1","0","4","","","","","","","",""
"call-function","101","762057","0.0-2.0-18.0","battery-v0.2","","""event"",""trial"",""time""
""fullscreenenter"",""1"",""7547""
","
","
","""event"",""trial"",""time""
""fullscreenenter"",""1"",""7547""
","
","","","","","","","","","","","","","","","","","","","","","","","","","","",""
"pit-instructions","102","826808","0.0-2.0-19.0","battery-v0.2","","""event"",""trial"",""time""
""fullscreenenter"",""1"",""7547""
","
","
","""event"",""trial"",""time""
""fullscreenenter"",""1"",""7547""
","
","","[{""page_index"":0,""viewing_time"":6282.5},{""page_index"":1,""viewing_time"":5587.90000000014},{""page_index"":2,""viewing_time"":11972},{""page_index"":3,""viewing_time"":5030},{""page_index"":4,""viewing_time"":6110.09999999986},{""page_index"":5,""viewing_time"":8410},{""page_index"":6,""viewing_time"":8889.5},{""page_index"":7,""viewing_time"":7627.5},{""page_index"":8,""viewing_time"":4835.90000000014}]","64748","","","","","","","","","","","","","","","","","","","","","","","",""
"pit-comprehension","103","835374","0.0-2.0-20.0-0.0","battery-v0.2","","""event"",""trial"",""time""
""fullscreenenter"",""1"",""7547""
","
","
","""event"",""trial"",""time""
""fullscreenenter"",""1"",""7547""
","
","","","8550.59999999986","[""SPACE""]","0","10","11078","880","","","","","","","","","","","","","","","","","","",""
"pit-instructions","104","839208","0.0-2.0-20.0-1.0","battery-v0.2","","""event"",""trial"",""time""
""fullscreenenter"",""1"",""7547""
","
","
","""event"",""trial"",""time""
""fullscreenenter"",""1"",""7547""
","
","","[{""page_index"":0,""viewing_time"":3733.399999999907}]","3734.5999999998603","","","","","","","","","","","","","","","","","","","","","","","",""
"pit-comprehension","105","850571","0.0-2.0-21.0-0.0","battery-v0.2","","""event"",""trial"",""time""
""fullscreenenter"",""1"",""7547""
","
","
","""event"",""trial"",""time""
""fullscreenenter"",""1"",""7547""
","
","","","11347.699999999953","[""10""]","0","10","11078","880","","","","","","","","","","","","","","","","","","",""
"pit-instructions","106","853054","0.0-2.0-21.0-1.0","battery-v0.2","","""event"",""trial"",""time""
""fullscreenenter"",""1"",""7547""
","
","
","""event"",""trial"",""time""
""fullscreenenter"",""1"",""7547""
","
","","[{""page_index"":0,""viewing_time"":2383}]","2385.399999999907","","","","","","","","","","","","","","","","","","","","","","","",""
"pit-comprehension","107","862322","0.0-2.0-22.0-0.0","battery-v0.2","","""event"",""trial"",""time""
""fullscreenenter"",""1"",""7547""
","
","
","""event"",""trial"",""time""
""fullscreenenter"",""1"",""7547""
","
","","","9251.5","[""0""]","0","10","11078","880","","","","","","","","","","","","","","","","","","",""
"pit-instructions","108","865606","0.0-2.0-22.0-1.0","battery-v0.2","","""event"",""trial"",""time""
""fullscreenenter"",""1"",""7547""
","
","
","""event"",""trial"",""time""
""fullscreenenter"",""1"",""7547""
","
","","[{""page_index"":0,""viewing_time"":3180}]","3182.0999999998603","","","","","","","","","","","","","","","","","","","","","","","",""
"pit-comprehension","109","877486","0.0-2.0-23.0-0.0","battery-v0.2","","""event"",""trial"",""time""
""fullscreenenter"",""1"",""7547""
","
","
","""event"",""trial"",""time""
""fullscreenenter"",""1"",""7547""
","
","","","11861.399999999907","[""True""]","0","10","11078","880","","","","","","","","","","","","","","","","","","",""
"pit-instructions","110","879402","0.0-2.0-23.0-1.0","battery-v0.2","","""event"",""trial"",""time""
""fullscreenenter"",""1"",""7547""
","
","
","""event"",""trial"",""time""
""fullscreenenter"",""1"",""7547""
","
","","[{""page_index"":0,""viewing_time"":1795.6000000000931}]","1797.8999999999069","","","","","","","","","","","","","","","","","","","","","","","",""
"pit-comprehension","111","888464","0.0-2.0-24.0-0.0","battery-v0.2","","""event"",""trial"",""time""
""fullscreenenter"",""1"",""7547""
","
","
","""event"",""trial"",""time""
""fullscreenenter"",""1"",""7547""
","
","","","9045.199999999953","[""True""]","0","10","11078","880","","","","","","","","","","","","","","","","","","",""
"pit-instructions","112","890221","0.0-2.0-24.0-1.0","battery-v0.2","","""event"",""trial"",""time""
""fullscreenenter"",""1"",""7547""
","
","
","""event"",""trial"",""time""
""fullscreenenter"",""1"",""7547""
","
","","[{""page_index"":0,""viewing_time"":1653.3000000000466}]","1655.8000000000466","","","","","","","","","","","","","","","","","","","","","","","",""
"pit-comprehension","113","898701","0.0-2.0-25.0-0.0","battery-v0.2","","""event"",""trial"",""time""
""fullscreenenter"",""1"",""7547""
","
","
","""event"",""trial"",""time""
""fullscreenenter"",""1"",""7547""
","
","","","8464.399999999907","[""True""]","0","10","11078","880","","","","","","","","","","","","","","","","","","",""
"pit-instructions","114","900365","0.0-2.0-25.0-1.0","battery-v0.2","","""event"",""trial"",""time""
""fullscreenenter"",""1"",""7547""
","
","
","""event"",""trial"",""time""
""fullscreenenter"",""1"",""7547""
","
","","[{""page_index"":0,""viewing_time"":1545.9000000001397}]","1549.1000000000931","","","","","","","","","","","","","","","","","","","","","","","",""
"pit-comprehension","115","910135","0.0-2.0-26.0-0.0","battery-v0.2","","""event"",""trial"",""time""
""fullscreenenter"",""1"",""7547""
","
","
","""event"",""trial"",""time""
""fullscreenenter"",""1"",""7547""
","
","","","9755.600000000093","[""False""]","0","10","11078","880","","","","","","","","","","","","","","","","","","",""
"pit-instructions","116","912731","0.0-2.0-26.0-1.0","battery-v0.2","","""event"",""trial"",""time""
""fullscreenenter"",""1"",""7547""
","
","
","""event"",""trial"",""time""
""fullscreenenter"",""1"",""7547""
","
","","[{""page_index"":0,""viewing_time"":2462.1999999999534}]","2464.1999999999534","","","","","","","","","","","","","","","","","","","","","","","",""
"pit-instructions","117","938716","0.0-3.0","battery-v0.2","","""event"",""trial"",""time""
""fullscreenenter"",""1"",""7547""
","
","
","""event"",""trial"",""time""
""fullscreenenter"",""1"",""7547""
","
","","[{""page_index"":0,""viewing_time"":4910.699999999953},{""page_index"":1,""viewing_time"":9005.5},{""page_index"":2,""viewing_time"":12053.399999999907}]","25972.799999999814","","","","","","","","","","","","","","","","","","","","","","","",""
"pit-trial","118","942187","0.0-4.0","battery-v0.2","","""event"",""trial"",""time""
""fullscreenenter"",""1"",""7547""
","
","
","""event"",""trial"",""time""
""fullscreenenter"",""1"",""7547""
","
","","","600.8000000000466","","","10","11078","880","&#9730;","elianto","#3366ff99"," "," ","1","+10","[1451.5999999998603]","1","1","","","11078","1","1","1","win","go","0"
"pit-trial","119","945661","0.0-5.0","battery-v0.2","","""event"",""trial"",""time""
""fullscreenenter"",""1"",""7547""
","
","
","""event"",""trial"",""time""
""fullscreenenter"",""1"",""7547""
","
","","","607.6999999999534","","","10","11078","880","&#9733;","elianto","#3366ff99","-1"," ","0","0","[1461]","1","1","","","11078","2","2","2","win","no-go","0"
"pit-trial","120","950526","0.0-6.0","battery-v0.2","","""event"",""trial"",""time""
""fullscreenenter"",""1"",""7547""
","
","
","""event"",""trial"",""time""
""fullscreenenter"",""1"",""7547""
","
","","","-1","","","10","11078","880","&#9728;","elianto","#f73b6a7A","-1","-1","1","0","[]","0","1","","","11078","3","0","4","lose","no-go","0"
"pit-trial","121","953901","0.0-7.0","battery-v0.2","","""event"",""trial"",""time""
""fullscreenenter"",""1"",""7547""
","
","
","""event"",""trial"",""time""
""fullscreenenter"",""1"",""7547""
","
","","","510","","","10","11078","880","&#9752;","elianto","#f73b6a7A"," "," ","1","0","[1361]","1","1","","","11078","4","3","3","lose","go","0"
"pit-trial","122","957489","0.0-8.0","battery-v0.2","","""event"",""trial"",""time""
""fullscreenenter"",""1"",""7547""
","
","
","""event"",""trial"",""time""
""fullscreenenter"",""1"",""7547""
","
","","","724.6000000000931","","","10","11078","880","&#9728;","elianto","#f73b6a7A","-1"," ","0","-10","[1575.2999999998137]","1","1","","","11078","5","0","4","lose","no-go","0"
"pit-trial","123","961176","0.0-9.0","battery-v0.2","","""event"",""trial"",""time""
""fullscreenenter"",""1"",""7547""
","
","
","""event"",""trial"",""time""
""fullscreenenter"",""1"",""7547""
","
","","","821.6000000000931","","","10","11078","880","&#9733;","elianto","#3366ff99","-1"," ","0","+10","[1672.6000000000931]","1","1","","","11078","6","2","2","win","no-go","1"
"pit-trial","124","964665","0.0-10.0","battery-v0.2","","""event"",""trial"",""time""
""fullscreenenter"",""1"",""7547""
","
","
","""event"",""trial"",""time""
""fullscreenenter"",""1"",""7547""
","
","","","624.6000000000931","","","10","11078","880","&#9752;","elianto","#f73b6a7A"," "," ","1","0","[1474.5999999998603]","1","1","","","11078","7","3","3","lose","go","0"
"pit-trial","125","968255","0.0-11.0","battery-v0.2","","""event"",""trial"",""time""
""fullscreenenter"",""1"",""7547""
","
","
","""event"",""trial"",""time""
""fullscreenenter"",""1"",""7547""
","
","","","726.3999999999069","","","10","11078","880","&#9730;","elianto","#3366ff99"," "," ","1","+10","[1576.3999999999069]","1","1","","","11078","8","1","1","win","go","0"
"pit-trial","126","971803","0.0-12.0","battery-v0.2","","""event"",""trial"",""time""
""fullscreenenter"",""1"",""7547""
","
","
","""event"",""trial"",""time""
""fullscreenenter"",""1"",""7547""
","
","","","682","","","10","11078","880","&#9728;","elianto","#f73b6a7A","-1"," ","0","-10","[1534.1999999999534]","1","1","","","11078","9","0","4","lose","no-go","0"
"pit-trial","127","975260","0.0-13.0","battery-v0.2","","""event"",""trial"",""time""
""fullscreenenter"",""1"",""7547""
","
","
","""event"",""trial"",""time""
""fullscreenenter"",""1"",""7547""
","
","","","590.3000000000466","","","10","11078","880","&#9730;","elianto","#3366ff99"," "," ","1","0","[1443.3999999999069]","1","1","","","11078","10","1","1","win","go","1"
"pit-trial","128","978778","0.0-14.0","battery-v0.2","","""event"",""trial"",""time""
""fullscreenenter"",""1"",""7547""
","
","
","""event"",""trial"",""time""
""fullscreenenter"",""1"",""7547""
","
","","","655.5","","","10","11078","880","&#9733;","elianto","#3366ff99","-1"," ","0","0","[1505.6000000000931]","1","1","","","11078","11","2","2","win","no-go","0"
"pit-trial","129","982377","0.0-15.0","battery-v0.2","","""event"",""trial"",""time""
""fullscreenenter"",""1"",""7547""
","
","
","""event"",""trial"",""time""
""fullscreenenter"",""1"",""7547""
","
","","","733.5","","","10","11078","880","&#9752;","elianto","#f73b6a7A"," "," ","1","0","[1583.3999999999069]","1","1","","","11078","12","3","3","lose","go","0"
"pit-trial","130","987243","0.0-16.0","battery-v0.2","","""event"",""trial"",""time""
""fullscreenenter"",""1"",""7547""
","
","
","""event"",""trial"",""time""
""fullscreenenter"",""1"",""7547""
","
","","","-1","","","10","11078","880","&#9728;","elianto","#f73b6a7A","-1","-1","1","-10","[]","0","1","","","11078","13","0","4","lose","no-go","1"
"pit-trial","131","990921","0.0-17.0","battery-v0.2","","""event"",""trial"",""time""
""fullscreenenter"",""1"",""7547""
","
","
","""event"",""trial"",""time""
""fullscreenenter"",""1"",""7547""
","
","","","814.6999999999534","","","10","11078","880","&#9752;","elianto","#f73b6a7A"," "," ","1","0","[1665]","1","1","","","11078","14","3","3","lose","go","0"
"pit-trial","132","994440","0.0-18.0","battery-v0.2","","""event"",""trial"",""time""
""fullscreenenter"",""1"",""7547""
","
","
","""event"",""trial"",""time""
""fullscreenenter"",""1"",""7547""
","
","","","652.8000000000466","","","10","11078","880","&#9733;","elianto","#3366ff99","-1"," ","0","0","[1504.1999999999534]","1","1","","","11078","15","2","2","win","no-go","0"
"pit-trial","133","998016","0.0-19.0","battery-v0.2","","""event"",""trial"",""time""
""fullscreenenter"",""1"",""7547""
","
","
","""event"",""trial"",""time""
""fullscreenenter"",""1"",""7547""
","
","","","710","","","10","11078","880","&#9730;","elianto","#3366ff99"," "," ","1","+10","[1560,2666]","2","1","","","11078","16","1","1","win","go","0"
"pit-trial","134","1001599","0.0-20.0","battery-v0.2","","""event"",""trial"",""time""
""fullscreenenter"",""1"",""7547""
","
","
","""event"",""trial"",""time""
""fullscreenenter"",""1"",""7547""
","
","","","720.7999999998137","","","10","11078","880","&#9730;","elianto","#3366ff99"," "," ","1","+10","[1571.1999999999534]","1","1","","","11078","17","1","1","win","go","0"
"pit-trial","135","1006461","0.0-21.0","battery-v0.2","","""event"",""trial"",""time""
""fullscreenenter"",""1"",""7547""
","
","
","""event"",""trial"",""time""
""fullscreenenter"",""1"",""7547""
","
","","","-1","","","10","11078","880","&#9733;","elianto","#3366ff99","-1","-1","1","+10","[]","0","1","","","11078","18","2","2","win","no-go","0"
"pit-trial","136","1011325","0.0-22.0","battery-v0.2","","""event"",""trial"",""time""
""fullscreenenter"",""1"",""7547""
","
","
","""event"",""trial"",""time""
""fullscreenenter"",""1"",""7547""
","
","","","-1","","","10","11078","880","&#9728;","elianto","#f73b6a7A","-1","-1","1","0","[]","0","1","","","11078","19","0","4","lose","no-go","0"
"pit-trial","137","1015004","0.0-23.0","battery-v0.2","","""event"",""trial"",""time""
""fullscreenenter"",""1"",""7547""
","
","
","""event"",""trial"",""time""
""fullscreenenter"",""1"",""7547""
","
","","","814.2999999998137","","","10","11078","880","&#9752;","elianto","#f73b6a7A"," "," ","1","0","[1664.3999999999069]","1","1","","","11078","20","3","3","lose","go","0"
"pit-instructions","138","1034277","0.0-24.0","battery-v0.2","","""event"",""trial"",""time""
""fullscreenenter"",""1"",""7547""
","
","
","""event"",""trial"",""time""
""fullscreenenter"",""1"",""7547""
","
","","[{""page_index"":0,""viewing_time"":6240.600000000093},{""page_index"":1,""viewing_time"":13020.299999999814}]","19263.5","","","","","","","","","","","","","","","","","","","","","","","",""
"pit-trial","139","1037656","0.0-25.0","battery-v0.2","","""event"",""trial"",""time""
""fullscreenenter"",""1"",""7547""
","
","
","""event"",""trial"",""time""
""fullscreenenter"",""1"",""7547""
","
","","","518.3000000000466","","","10","11078","880","t","elianto","#f73b6a7A"," "," ","1","0","[1368.5]","1","2","","","11078","21","2","3","lose","go","0"
"pit-trial","140","1041163","0.0-26.0","battery-v0.2","","""event"",""trial"",""time""
""fullscreenenter"",""1"",""7547""
","
","
","""event"",""trial"",""time""
""fullscreenenter"",""1"",""7547""
","
","","","642.4000000001397","","","10","11078","880","f","elianto","#3366ff99","-1"," ","0","0","[1494.3000000000466]","1","2","","","11078","22","1","2","win","no-go","0"
"pit-trial","141","1044697","0.0-27.0","battery-v0.2","","""event"",""trial"",""time""
""fullscreenenter"",""1"",""7547""
","
","
","""event"",""trial"",""time""
""fullscreenenter"",""1"",""7547""
","
","","","671.3999999999069","","","10","11078","880","n","elianto","#f73b6a7A"," "," ","1","0","[1521.6000000000931]","1","2","","","11078","23","0","3","lose","go","0"
"pit-trial","142","1048401","0.0-28.0","battery-v0.2","","""event"",""trial"",""time""
""fullscreenenter"",""1"",""7547""
","
","
","""event"",""trial"",""time""
""fullscreenenter"",""1"",""7547""
","
","","","838.8000000000466","","","10","11078","880","b","elianto","#f73b6a7A","-1"," ","0","0","[1689.5999999998603]","1","2","","","11078","24","3","4","lose","no-go","1"
"pit-trial","143","1051983","0.0-29.0","battery-v0.2","","""event"",""trial"",""time""
""fullscreenenter"",""1"",""7547""
","
","
","""event"",""trial"",""time""
""fullscreenenter"",""1"",""7547""
","
","","","713.5","","","10","11078","880","b","elianto","#f73b6a7A","-1"," ","0","-10","[1567.8000000000466]","1","2","","","11078","25","3","4","lose","no-go","0"
"pit-trial","144","1055575","0.0-30.0","battery-v0.2","","""event"",""trial"",""time""
""fullscreenenter"",""1"",""7547""
","
","
","""event"",""trial"",""time""
""fullscreenenter"",""1"",""7547""
","
","","","731.5","","","10","11078","880","t","elianto","#f73b6a7A"," "," ","1","0","[1580.6000000000931]","1","2","","","11078","26","2","3","lose","go","0"
"pit-trial","145","1059082","0.0-31.0","battery-v0.2","","""event"",""trial"",""time""
""fullscreenenter"",""1"",""7547""
","
","
","""event"",""trial"",""time""
""fullscreenenter"",""1"",""7547""
","
","","","640.5","","","10","11078","880","n","elianto","#f73b6a7A"," "," ","1","0","[1491.1000000000931]","1","2","","","11078","27","0","3","lose","go","0"
"pit-trial","146","1062755","0.0-32.0","battery-v0.2","","""event"",""trial"",""time""
""fullscreenenter"",""1"",""7547""
","
","
","""event"",""trial"",""time""
""fullscreenenter"",""1"",""7547""
","
","","","811.3000000000466","","","10","11078","880","f","elianto","#3366ff99","-1"," ","0","0","[1662]","1","2","","","11078","28","1","2","win","no-go","0"
"pit-trial","147","1066320","0.0-33.0","battery-v0.2","","""event"",""trial"",""time""
""fullscreenenter"",""1"",""7547""
","
","
","""event"",""trial"",""time""
""fullscreenenter"",""1"",""7547""
","
","","","700.1999999999534","","","10","11078","880","t","elianto","#f73b6a7A"," "," ","1","0","[1550.1999999999534]","1","2","","","11078","29","2","3","lose","go","0"
"pit-trial","148","1069805","0.0-34.0","battery-v0.2","","""event"",""trial"",""time""
""fullscreenenter"",""1"",""7547""
","
","
","""event"",""trial"",""time""
""fullscreenenter"",""1"",""7547""
","
","","","618.3999999999069","","","10","11078","880","b","elianto","#f73b6a7A","-1"," ","0","-10","[1470.1999999999534]","1","2","","","11078","30","3","4","lose","no-go","0"
"pit-trial","149","1073515","0.0-35.0","battery-v0.2","","""event"",""trial"",""time""
""fullscreenenter"",""1"",""7547""
","
","
","""event"",""trial"",""time""
""fullscreenenter"",""1"",""7547""
","
","","","845.3000000000466","","","10","11078","880","n","elianto","#f73b6a7A"," "," ","1","0","[1695.6000000000931]","1","2","","","11078","31","0","3","lose","go","0"
"pit-trial","150","1078381","0.0-36.0","battery-v0.2","","""event"",""trial"",""time""
""fullscreenenter"",""1"",""7547""
","
","
","""event"",""trial"",""time""
""fullscreenenter"",""1"",""7547""
","
","","","-1","","","10","11078","880","f","elianto","#3366ff99","-1","-1","1","+10","[]","0","2","","","11078","32","1","2","win","no-go","0"
"pit-trial","151","1082115","0.0-37.0","battery-v0.2","","""event"",""trial"",""time""
""fullscreenenter"",""1"",""7547""
","
","
","""event"",""trial"",""time""
""fullscreenenter"",""1"",""7547""
","
","","","867.5","","","10","11078","880","n","elianto","#f73b6a7A"," "," ","1","-10","[1717.7000000001863]","1","2","","","11078","33","0","3","lose","go","1"
"pit-trial","152","1085779","0.0-38.0","battery-v0.2","","""event"",""trial"",""time""
""fullscreenenter"",""1"",""7547""
","
","
","""event"",""trial"",""time""
""fullscreenenter"",""1"",""7547""
","
","","","799.5","","","10","11078","880","t","elianto","#f73b6a7A"," "," ","1","0","[1649.9000000001397]","1","2","","","11078","34","2","3","lose","go","0"
"pit-trial","153","1089410","0.0-39.0","battery-v0.2","","""event"",""trial"",""time""
""fullscreenenter"",""1"",""7547""
","
","
","""event"",""trial"",""time""
""fullscreenenter"",""1"",""7547""
","
","","","764.6999999999534","","","10","11078","880","b","elianto","#f73b6a7A","-1"," ","0","-10","[1614.8999999999069]","1","2","","","11078","35","3","4","lose","no-go","0"
"pit-trial","154","1093027","0.0-40.0","battery-v0.2","","""event"",""trial"",""time""
""fullscreenenter"",""1"",""7547""
","
","
","""event"",""trial"",""time""
""fullscreenenter"",""1"",""7547""
","
","","","752.0999999998603","","","10","11078","880","f","elianto","#3366ff99","-1"," ","0","0","[1602.1999999999534]","1","2","","","11078","36","1","2","win","no-go","0"
"pit-trial","155","1096621","0.0-41.0","battery-v0.2","","""event"",""trial"",""time""
""fullscreenenter"",""1"",""7547""
","
","
","""event"",""trial"",""time""
""fullscreenenter"",""1"",""7547""
","
","","","730.5","","","10","11078","880","t","elianto","#f73b6a7A"," "," ","1","0","[1580.5]","1","2","","","11078","37","2","3","lose","go","0"
"pit-trial","156","1101486","0.0-42.0","battery-v0.2","","""event"",""trial"",""time""
""fullscreenenter"",""1"",""7547""
","
","
","""event"",""trial"",""time""
""fullscreenenter"",""1"",""7547""
","
","","","-1","","","10","11078","880","f","elianto","#3366ff99","-1","-1","1","+10","[]","0","2","","","11078","38","1","2","win","no-go","0"
"pit-trial","157","1105303","0.0-43.0","battery-v0.2","","""event"",""trial"",""time""
""fullscreenenter"",""1"",""7547""
","
","
","""event"",""trial"",""time""
""fullscreenenter"",""1"",""7547""
","
","","","952","","","10","11078","880","n","elianto","#f73b6a7A"," "," ","1","0","[1803]","1","2","","","11078","39","0","3","lose","go","0"
"pit-trial","158","1110165","0.0-44.0","battery-v0.2","","""event"",""trial"",""time""
""fullscreenenter"",""1"",""7547""
","
","
","""event"",""trial"",""time""
""fullscreenenter"",""1"",""7547""
","
","","","-1","","","10","11078","880","b","elianto","#f73b6a7A","-1","-1","1","0","[]","0","2","","","11078","40","3","4","lose","no-go","0"
"pit-trial","159","1115026","0.0-45.0","battery-v0.2","","""event"",""trial"",""time""
""fullscreenenter"",""1"",""7547""
","
","
","""event"",""trial"",""time""
""fullscreenenter"",""1"",""7547""
","
","","","-1","","","10","11078","880","f","elianto","#3366ff99","-1","-1","1","+10","[]","0","2","","","11078","41","1","2","win","no-go","0"
"pit-trial","160","1118742","0.0-46.0","battery-v0.2","","""event"",""trial"",""time""
""fullscreenenter"",""1"",""7547""
","
","
","""event"",""trial"",""time""
""fullscreenenter"",""1"",""7547""
","
","","","854.6999999999534","","","10","11078","880","t","elianto","#f73b6a7A"," "," ","1","0","[1705]","1","2","","","11078","42","2","3","lose","go","0"
"pit-trial","161","1123604","0.0-47.0","battery-v0.2","","""event"",""trial"",""time""
""fullscreenenter"",""1"",""7547""
","
","
","""event"",""trial"",""time""
""fullscreenenter"",""1"",""7547""
","
","","","-1","","","10","11078","880","b","elianto","#f73b6a7A","-1","-1","1","0","[]","0","2","","","11078","43","3","4","lose","no-go","0"
"pit-trial","162","1127407","0.0-48.0","battery-v0.2","","""event"",""trial"",""time""
""fullscreenenter"",""1"",""7547""
","
","
","""event"",""trial"",""time""
""fullscreenenter"",""1"",""7547""
","
","","","937.5","","","10","11078","880","n","elianto","#f73b6a7A"," "," ","1","0","[1787.9000000001397]","1","2","","","11078","44","0","3","lose","go","0"
"pit-trial","163","1132269","0.0-49.0","battery-v0.2","","""event"",""trial"",""time""
""fullscreenenter"",""1"",""7547""
","
","
","""event"",""trial"",""time""
""fullscreenenter"",""1"",""7547""
","
","","","-1","","","10","11078","880","f","elianto","#3366ff99","-1","-1","1","+10","[]","0","2","","","11078","45","1","2","win","no-go","0"
"pit-trial","164","1136667","0.0-50.0","battery-v0.2","","""event"",""trial"",""time""
""fullscreenenter"",""1"",""7547""
","
","
","""event"",""trial"",""time""
""fullscreenenter"",""1"",""7547""
","
","","","1532.6000000000931","","","10","11078","880","t","elianto","#f73b6a7A"," "," ","1","-10","[2384.5]","1","2","","","11078","46","2","3","lose","go","1"
"pit-trial","165","1141531","0.0-51.0","battery-v0.2","","""event"",""trial"",""time""
""fullscreenenter"",""1"",""7547""
","
","
","""event"",""trial"",""time""
""fullscreenenter"",""1"",""7547""
","
","","","-1","","","10","11078","880","b","elianto","#f73b6a7A","-1","-1","1","0","[]","0","2","","","11078","47","3","4","lose","no-go","0"
"pit-trial","166","1145411","0.0-52.0","battery-v0.2","","""event"",""trial"",""time""
""fullscreenenter"",""1"",""7547""
","
","
","""event"",""trial"",""time""
""fullscreenenter"",""1"",""7547""
","
","","","1008.5","","","10","11078","880","n","elianto","#f73b6a7A"," "," ","1","-10","[1866.6000000000931]","1","2","","","11078","48","0","3","lose","go","1"
"pit-trial","167","1149454","0.0-53.0","battery-v0.2","","""event"",""trial"",""time""
""fullscreenenter"",""1"",""7547""
","
","
","""event"",""trial"",""time""
""fullscreenenter"",""1"",""7547""
","
","","","1180.3000000000466","","","10","11078","880","t","elianto","#f73b6a7A"," "," ","1","0","[2030.8999999999069]","1","2","","","11078","49","2","3","lose","go","0"
"pit-trial","168","1153512","0.0-54.0","battery-v0.2","","""event"",""trial"",""time""
""fullscreenenter"",""1"",""7547""
","
","
","""event"",""trial"",""time""
""fullscreenenter"",""1"",""7547""
","
","","","1192.6999999999534","","","10","11078","880","n","elianto","#f73b6a7A"," "," ","1","0","[2043.7000000001863]","1","2","","","11078","50","0","3","lose","go","0"
"pit-trial","169","1158373","0.0-55.0","battery-v0.2","","""event"",""trial"",""time""
""fullscreenenter"",""1"",""7547""
","
","
","""event"",""trial"",""time""
""fullscreenenter"",""1"",""7547""
","
","","","-1","","","10","11078","880","f","elianto","#3366ff99","-1","-1","1","0","[]","0","2","","","11078","51","1","2","win","no-go","1"
"pit-trial","170","1162502","0.0-56.0","battery-v0.2","","""event"",""trial"",""time""
""fullscreenenter"",""1"",""7547""
","
","
","""event"",""trial"",""time""
""fullscreenenter"",""1"",""7547""
","
","","","1263.8999999999069","","","10","11078","880","b","elianto","#f73b6a7A","-1"," ","0","0","[2114.4000000001397]","1","2","","","11078","52","3","4","lose","no-go","1"
"pit-trial","171","1166291","0.0-57.0","battery-v0.2","","""event"",""trial"",""time""
""fullscreenenter"",""1"",""7547""
","
","
","""event"",""trial"",""time""
""fullscreenenter"",""1"",""7547""
","
","","","921.6000000000931","","","10","11078","880","n","elianto","#f73b6a7A"," "," ","1","0","[1774]","1","2","","","11078","53","0","3","lose","go","0"
"pit-trial","172","1170313","0.0-58.0","battery-v0.2","","""event"",""trial"",""time""
""fullscreenenter"",""1"",""7547""
","
","
","""event"",""trial"",""time""
""fullscreenenter"",""1"",""7547""
","
","","","1155.3000000000466","","","10","11078","880","t","elianto","#f73b6a7A"," "," ","1","0","[2005.5]","1","2","","","11078","54","2","3","lose","go","0"
"pit-trial","173","1175179","0.0-59.0","battery-v0.2","","""event"",""trial"",""time""
""fullscreenenter"",""1"",""7547""
","
","
","""event"",""trial"",""time""
""fullscreenenter"",""1"",""7547""
","
","","","-1","","","10","11078","880","f","elianto","#3366ff99","-1","-1","1","+10","[]","0","2","","","11078","55","1","2","win","no-go","0"
"pit-trial","174","1178851","0.0-60.0","battery-v0.2","","""event"",""trial"",""time""
""fullscreenenter"",""1"",""7547""
","
","
","""event"",""trial"",""time""
""fullscreenenter"",""1"",""7547""
","
","","","807.3000000000466","","","10","11078","880","b","elianto","#f73b6a7A","-1"," ","0","-10","[1657.5]","1","2","","","11078","56","3","4","lose","no-go","0"
"pit-trial","175","1182982","0.0-61.0","battery-v0.2","","""event"",""trial"",""time""
""fullscreenenter"",""1"",""7547""
","
","
","""event"",""trial"",""time""
""fullscreenenter"",""1"",""7547""
","
","","","1263","","","10","11078","880","c","elianto","#3366ff99"," "," ","1","+10","[2114.1999999999534]","1","2","","","11078","57","4","1","win","go","0"
"pit-trial","176","1187030","0.0-62.0","battery-v0.2","","""event"",""trial"",""time""
""fullscreenenter"",""1"",""7547""
","
","
","""event"",""trial"",""time""
""fullscreenenter"",""1"",""7547""
","
","","","1179.3999999999069","","","10","11078","880","n","elianto","#f73b6a7A"," "," ","1","0","[2034.2000000001863]","1","2","","","11078","58","0","3","lose","go","0"
"pit-trial","177","1191354","0.0-63.0","battery-v0.2","","""event"",""trial"",""time""
""fullscreenenter"",""1"",""7547""
","
","
","""event"",""trial"",""time""
""fullscreenenter"",""1"",""7547""
","
","","","1457.3999999999069","","","10","11078","880","b","elianto","#f73b6a7A","-1"," ","0","-10","[2312.100000000093]","1","2","","","11078","59","3","4","lose","no-go","0"
"pit-trial","178","1196218","0.0-64.0","battery-v0.2","","""event"",""trial"",""time""
""fullscreenenter"",""1"",""7547""
","
","
","""event"",""trial"",""time""
""fullscreenenter"",""1"",""7547""
","
","","","-1","","","10","11078","880","t","elianto","#f73b6a7A"," ","-1","0","-10","[]","0","2","","","11078","60","2","3","lose","go","0"
"pit-trial","179","1200472","0.0-65.0","battery-v0.2","","""event"",""trial"",""time""
""fullscreenenter"",""1"",""7547""
","
","
","""event"",""trial"",""time""
""fullscreenenter"",""1"",""7547""
","
","","","1390.3000000000466","","","10","11078","880","t","elianto","#f73b6a7A"," "," ","1","0","[2240.9000000001397]","1","2","","","11078","61","2","3","lose","go","0"
"pit-trial","180","1205336","0.0-66.0","battery-v0.2","","""event"",""trial"",""time""
""fullscreenenter"",""1"",""7547""
","
","
","""event"",""trial"",""time""
""fullscreenenter"",""1"",""7547""
","
","","","-1","","","10","11078","880","b","elianto","#f73b6a7A","-1","-1","1","0","[]","0","2","","","11078","62","3","4","lose","no-go","0"
"pit-trial","181","1210199","0.0-67.0","battery-v0.2","","""event"",""trial"",""time""
""fullscreenenter"",""1"",""7547""
","
","
","""event"",""trial"",""time""
""fullscreenenter"",""1"",""7547""
","
","","","-1","","","10","11078","880","f","elianto","#3366ff99","-1","-1","1","+10","[]","0","2","","","11078","63","1","2","win","no-go","0"
"pit-trial","182","1215059","0.0-68.0","battery-v0.2","","""event"",""trial"",""time""
""fullscreenenter"",""1"",""7547""
","
","
","""event"",""trial"",""time""
""fullscreenenter"",""1"",""7547""
","
","","","-1","","","10","11078","880","c","elianto","#3366ff99"," ","-1","0","0","[]","0","2","","","11078","64","4","1","win","go","0"
"pit-trial","183","1219007","0.0-69.0","battery-v0.2","","""event"",""trial"",""time""
""fullscreenenter"",""1"",""7547""
","
","
","""event"",""trial"",""time""
""fullscreenenter"",""1"",""7547""
","
","","","1083.3000000000466","","","10","11078","880","c","elianto","#3366ff99"," "," ","1","+10","[1933.6999999999534]","1","2","","","11078","65","4","1","win","go","0"
"pit-trial","184","1222974","0.0-70.0","battery-v0.2","","""event"",""trial"",""time""
""fullscreenenter"",""1"",""7547""
","
","
","""event"",""trial"",""time""
""fullscreenenter"",""1"",""7547""
","
","","","1105.5","","","10","11078","880","z","elianto","#3366ff99","-1"," ","0","0","[1956]","1","2","","","11078","66","5","2","win","no-go","0"
"pit-trial","185","1227195","0.0-71.0","battery-v0.2","","""event"",""trial"",""time""
""fullscreenenter"",""1"",""7547""
","
","
","""event"",""trial"",""time""
""fullscreenenter"",""1"",""7547""
","
","","","1358.6999999999534","","","10","11078","880","f","elianto","#3366ff99","-1"," ","0","+10","[2209.600000000093]","1","2","","","11078","67","1","2","win","no-go","1"
"pit-trial","186","1232057","0.0-72.0","battery-v0.2","","""event"",""trial"",""time""
""fullscreenenter"",""1"",""7547""
","
","
","""event"",""trial"",""time""
""fullscreenenter"",""1"",""7547""
","
","","","-1","","","10","11078","880","b","elianto","#f73b6a7A","-1","-1","1","0","[]","0","2","","","11078","68","3","4","lose","no-go","0"
"pit-trial","187","1235960","0.0-73.0","battery-v0.2","","""event"",""trial"",""time""
""fullscreenenter"",""1"",""7547""
","
","
","""event"",""trial"",""time""
""fullscreenenter"",""1"",""7547""
","
","","","1042.8999999999069","","","10","11078","880","c","elianto","#3366ff99"," "," ","1","+10","[1893.5]","1","2","","","11078","69","4","1","win","go","0"
"pit-trial","188","1240822","0.0-74.0","battery-v0.2","","""event"",""trial"",""time""
""fullscreenenter"",""1"",""7547""
","
","
","""event"",""trial"",""time""
""fullscreenenter"",""1"",""7547""
","
","","","-1","","","10","11078","880","f","elianto","#3366ff99","-1","-1","1","+10","[]","0","2","","","11078","70","1","2","win","no-go","0"
"pit-trial","189","1244857","0.0-75.0","battery-v0.2","","""event"",""trial"",""time""
""fullscreenenter"",""1"",""7547""
","
","
","""event"",""trial"",""time""
""fullscreenenter"",""1"",""7547""
","
","","","1168.3000000000466","","","10","11078","880","z","elianto","#3366ff99","-1"," ","0","0","[2018.8000000000466]","1","2","","","11078","71","5","2","win","no-go","0"
"pit-trial","190","1249090","0.0-76.0","battery-v0.2","","""event"",""trial"",""time""
""fullscreenenter"",""1"",""7547""
","
","
","""event"",""trial"",""time""
""fullscreenenter"",""1"",""7547""
","
","","","1368.5","","","10","11078","880","t","elianto","#f73b6a7A"," "," ","1","0","[2219]","1","2","","","11078","72","2","3","lose","go","0"
"pit-trial","191","1253955","0.0-77.0","battery-v0.2","","""event"",""trial"",""time""
""fullscreenenter"",""1"",""7547""
","
","
","""event"",""trial"",""time""
""fullscreenenter"",""1"",""7547""
","
","","","-1","","","10","11078","880","f","elianto","#3366ff99","-1","-1","1","0","[]","0","2","","","11078","73","1","2","win","no-go","1"
"pit-trial","192","1258193","0.0-78.0","battery-v0.2","","""event"",""trial"",""time""
""fullscreenenter"",""1"",""7547""
","
","
","""event"",""trial"",""time""
""fullscreenenter"",""1"",""7547""
","
","","","1372.5999999998603","","","10","11078","880","c","elianto","#3366ff99"," "," ","1","+10","[2222.8000000000466]","1","2","","","11078","74","4","1","win","go","0"
"pit-trial","193","1262913","0.0-79.0","battery-v0.2","","""event"",""trial"",""time""
""fullscreenenter"",""1"",""7547""
","
","
","""event"",""trial"",""time""
""fullscreenenter"",""1"",""7547""
","
","","","1857.8000000000466","","","10","11078","880","z","elianto","#3366ff99","-1"," ","0","0","[2707.899999999907]","1","2","","","11078","75","5","2","win","no-go","0"
"pit-trial","194","1267779","0.0-80.0","battery-v0.2","","""event"",""trial"",""time""
""fullscreenenter"",""1"",""7547""
","
","
","""event"",""trial"",""time""
""fullscreenenter"",""1"",""7547""
","
","","","-1","","","10","11078","880","b","elianto","#f73b6a7A","-1","-1","1","0","[]","0","2","","","11078","76","3","4","lose","no-go","0"
"pit-trial","195","1271764","0.0-81.0","battery-v0.2","","""event"",""trial"",""time""
""fullscreenenter"",""1"",""7547""
","
","
","""event"",""trial"",""time""
""fullscreenenter"",""1"",""7547""
","
","","","1114.9000000001397","","","10","11078","880","c","elianto","#3366ff99"," "," ","1","+10","[1969.9000000001397]","1","2","","","11078","77","4","1","win","go","0"
"pit-trial","196","1275603","0.0-82.0","battery-v0.2","","""event"",""trial"",""time""
""fullscreenenter"",""1"",""7547""
","
","
","""event"",""trial"",""time""
""fullscreenenter"",""1"",""7547""
","
","","","976.5","","","10","11078","880","c","elianto","#3366ff99"," "," ","1","+10","[1826.6000000000931]","1","2","","","11078","78","4","1","win","go","0"
"pit-trial","197","1280469","0.0-83.0","battery-v0.2","","""event"",""trial"",""time""
""fullscreenenter"",""1"",""7547""
","
","
","""event"",""trial"",""time""
""fullscreenenter"",""1"",""7547""
","
","","","-1","","","10","11078","880","b","elianto","#f73b6a7A","-1","-1","1","0","[]","0","2","","","11078","79","3","4","lose","no-go","0"
"pit-trial","198","1284612","0.0-84.0","battery-v0.2","","""event"",""trial"",""time""
""fullscreenenter"",""1"",""7547""
","
","
","""event"",""trial"",""time""
""fullscreenenter"",""1"",""7547""
","
","","","1280.2000000001863","","","10","11078","880","z","elianto","#3366ff99","-1"," ","0","+10","[2130.6999999999534]","1","2","","","11078","80","5","2","win","no-go","1"
"pit-trial","199","1289475","0.0-85.0","battery-v0.2","","""event"",""trial"",""time""
""fullscreenenter"",""1"",""7547""
","
","
","""event"",""trial"",""time""
""fullscreenenter"",""1"",""7547""
","
","","","-1","","","10","11078","880","b","elianto","#f73b6a7A","-1","-1","1","0","[]","0","2","","","11078","81","3","4","lose","no-go","0"
"pit-trial","200","1293549","0.0-86.0","battery-v0.2","","""event"",""trial"",""time""
""fullscreenenter"",""1"",""7547""
","
","
","""event"",""trial"",""time""
""fullscreenenter"",""1"",""7547""
","
","","","1210.3999999999069","","","10","11078","880","z","elianto","#3366ff99","-1"," ","0","0","[2060.5]","1","2","","","11078","82","5","2","win","no-go","0"
"pit-trial","201","1297866","0.0-87.0","battery-v0.2","","""event"",""trial"",""time""
""fullscreenenter"",""1"",""7547""
","
","
","""event"",""trial"",""time""
""fullscreenenter"",""1"",""7547""
","
","","","1452.3000000000466","","","10","11078","880","c","elianto","#3366ff99"," "," ","1","+10","[2306.7000000001863]","1","2","","","11078","83","4","1","win","go","0"
"pit-trial","202","1302065","0.0-88.0","battery-v0.2","","""event"",""trial"",""time""
""fullscreenenter"",""1"",""7547""
","
","
","""event"",""trial"",""time""
""fullscreenenter"",""1"",""7547""
","
","","","1334.8000000000466","","","10","11078","880","y","elianto","#f73b6a7A","-1"," ","0","-10","[2184.899999999907]","1","2","","","11078","84","7","4","lose","no-go","0"
"pit-trial","203","1306928","0.0-89.0","battery-v0.2","","""event"",""trial"",""time""
""fullscreenenter"",""1"",""7547""
","
","
","""event"",""trial"",""time""
""fullscreenenter"",""1"",""7547""
","
","","","-1","","","10","11078","880","y","elianto","#f73b6a7A","-1","-1","1","-10","[]","0","2","","","11078","85","7","4","lose","no-go","1"
"pit-trial","204","1310899","0.0-90.0","battery-v0.2","","""event"",""trial"",""time""
""fullscreenenter"",""1"",""7547""
","
","
","""event"",""trial"",""time""
""fullscreenenter"",""1"",""7547""
","
","","","1105.3000000000466","","","10","11078","880","z","elianto","#3366ff99","-1"," ","0","0","[1958.7999999998137]","1","2","","","11078","86","5","2","win","no-go","0"
"pit-trial","205","1315507","0.0-91.0","battery-v0.2","","""event"",""trial"",""time""
""fullscreenenter"",""1"",""7547""
","
","
","""event"",""trial"",""time""
""fullscreenenter"",""1"",""7547""
","
","","","1742.9000000001397","","","10","11078","880","c","elianto","#3366ff99"," "," ","1","+10","[2596.899999999907]","1","2","","","11078","87","4","1","win","go","0"
"pit-trial","206","1319813","0.0-92.0","battery-v0.2","","""event"",""trial"",""time""
""fullscreenenter"",""1"",""7547""
","
","
","""event"",""trial"",""time""
""fullscreenenter"",""1"",""7547""
","
","","","1443.1999999999534","","","10","11078","880","h","elianto","#f73b6a7A"," "," ","1","-10","[2293]","1","2","","","11078","88","6","3","lose","go","1"
"pit-trial","207","1324676","0.0-93.0","battery-v0.2","","""event"",""trial"",""time""
""fullscreenenter"",""1"",""7547""
","
","
","""event"",""trial"",""time""
""fullscreenenter"",""1"",""7547""
","
","","","-1","","","10","11078","880","h","elianto","#f73b6a7A"," ","-1","0","0","[]","0","2","","","11078","89","6","3","lose","go","1"
"pit-trial","208","1328554","0.0-94.0","battery-v0.2","","""event"",""trial"",""time""
""fullscreenenter"",""1"",""7547""
","
","
","""event"",""trial"",""time""
""fullscreenenter"",""1"",""7547""
","
","","","1008.4000000001397","","","10","11078","880","c","elianto","#3366ff99"," "," ","1","+10","[1863.0999999998603]","1","2","","","11078","90","4","1","win","go","0"
"pit-trial","209","1333420","0.0-95.0","battery-v0.2","","""event"",""trial"",""time""
""fullscreenenter"",""1"",""7547""
","
","
","""event"",""trial"",""time""
""fullscreenenter"",""1"",""7547""
","
","","","-1","","","10","11078","880","y","elianto","#f73b6a7A","-1","-1","1","0","[]","0","2","","","11078","91","7","4","lose","no-go","0"
"pit-trial","210","1337485","0.0-96.0","battery-v0.2","","""event"",""trial"",""time""
""fullscreenenter"",""1"",""7547""
","
","
","""event"",""trial"",""time""
""fullscreenenter"",""1"",""7547""
","
","","","1201.1999999999534","","","10","11078","880","z","elianto","#3366ff99","-1"," ","0","+10","[2051.2000000001863]","1","2","","","11078","92","5","2","win","no-go","1"
"pit-trial","211","1341568","0.0-97.0","battery-v0.2","","""event"",""trial"",""time""
""fullscreenenter"",""1"",""7547""
","
","
","""event"",""trial"",""time""
""fullscreenenter"",""1"",""7547""
","
","","","1217.5999999998603","","","10","11078","880","r","elianto","#3366ff99"," "," ","1","+10","[2068.100000000093]","1","2","","","11078","93","8","1","win","go","0"
"pit-trial","212","1346433","0.0-98.0","battery-v0.2","","""event"",""trial"",""time""
""fullscreenenter"",""1"",""7547""
","
","
","""event"",""trial"",""time""
""fullscreenenter"",""1"",""7547""
","
","","","-1","","","10","11078","880","y","elianto","#f73b6a7A","-1","-1","1","0","[]","0","2","","","11078","94","7","4","lose","no-go","0"
"pit-trial","213","1350423","0.0-99.0","battery-v0.2","","""event"",""trial"",""time""
""fullscreenenter"",""1"",""7547""
","
","
","""event"",""trial"",""time""
""fullscreenenter"",""1"",""7547""
","
","","","1125.3999999999069","","","10","11078","880","z","elianto","#3366ff99","-1"," ","0","0","[1976.8000000000466]","1","2","","","11078","95","5","2","win","no-go","0"
"pit-trial","214","1355288","0.0-100.0","battery-v0.2","","""event"",""trial"",""time""
""fullscreenenter"",""1"",""7547""
","
","
","""event"",""trial"",""time""
""fullscreenenter"",""1"",""7547""
","
","","","-1","","","10","11078","880","h","elianto","#f73b6a7A"," ","-1","0","-10","[]","0","2","","","11078","96","6","3","lose","go","0"
"pit-trial","215","1358875","0.0-101.0","battery-v0.2","","""event"",""trial"",""time""
""fullscreenenter"",""1"",""7547""
","
","
","""event"",""trial"",""time""
""fullscreenenter"",""1"",""7547""
","
","","","720.1999999999534","","","10","11078","880","r","elianto","#3366ff99"," "," ","1","+10","[1570.6000000000931]","1","2","","","11078","97","8","1","win","go","0"
"pit-trial","216","1363019","0.0-102.0","battery-v0.2","","""event"",""trial"",""time""
""fullscreenenter"",""1"",""7547""
","
","
","""event"",""trial"",""time""
""fullscreenenter"",""1"",""7547""
","
","","","1277.8000000000466","","","10","11078","880","h","elianto","#f73b6a7A"," "," ","1","0","[2128.8000000000466]","1","2","","","11078","98","6","3","lose","go","0"
"pit-trial","217","1367886","0.0-103.0","battery-v0.2","","""event"",""trial"",""time""
""fullscreenenter"",""1"",""7547""
","
","
","""event"",""trial"",""time""
""fullscreenenter"",""1"",""7547""
","
","","","-1","","","10","11078","880","y","elianto","#f73b6a7A","-1","-1","1","0","[]","0","2","","","11078","99","7","4","lose","no-go","0"
"pit-trial","218","1371839","0.0-104.0","battery-v0.2","","""event"",""trial"",""time""
""fullscreenenter"",""1"",""7547""
","
","
","""event"",""trial"",""time""
""fullscreenenter"",""1"",""7547""
","
","","","1089.4000000001397","","","10","11078","880","z","elianto","#3366ff99","-1"," ","0","+10","[1939.5]","1","2","","","11078","100","5","2","win","no-go","1"
"pit-trial","219","1375792","0.0-105.0","battery-v0.2","","""event"",""trial"",""time""
""fullscreenenter"",""1"",""7547""
","
","
","""event"",""trial"",""time""
""fullscreenenter"",""1"",""7547""
","
","","","1092.5","","","10","11078","880","m","elianto","#3366ff99"," "," ","1","0","[1942.6999999999534]","1","2","","","11078","101","9","1","win","go","1"
"pit-trial","220","1379895","0.0-106.0","battery-v0.2","","""event"",""trial"",""time""
""fullscreenenter"",""1"",""7547""
","
","
","""event"",""trial"",""time""
""fullscreenenter"",""1"",""7547""
","
","","","1234.1999999999534","","","10","11078","880","r","elianto","#3366ff99"," "," ","1","0","[2089.9000000001397]","1","2","","","11078","102","8","1","win","go","1"
"pit-trial","221","1383883","0.0-107.0","battery-v0.2","","""event"",""trial"",""time""
""fullscreenenter"",""1"",""7547""
","
","
","""event"",""trial"",""time""
""fullscreenenter"",""1"",""7547""
","
","","","1120.6999999999534","","","10","11078","880","z","elianto","#3366ff99","-1"," ","0","0","[1976.8999999999069,2696.5999999998603]","2","2","","","11078","103","5","2","win","no-go","0"
"pit-trial","222","1388748","0.0-108.0","battery-v0.2","","""event"",""trial"",""time""
""fullscreenenter"",""1"",""7547""
","
","
","""event"",""trial"",""time""
""fullscreenenter"",""1"",""7547""
","
","","","-1","","","10","11078","880","y","elianto","#f73b6a7A","-1","-1","1","-10","[]","0","2","","","11078","104","7","4","lose","no-go","1"
"pit-trial","223","1392630","0.0-109.0","battery-v0.2","","""event"",""trial"",""time""
""fullscreenenter"",""1"",""7547""
","
","
","""event"",""trial"",""time""
""fullscreenenter"",""1"",""7547""
","
","","","1018.6999999999534","","","10","11078","880","c","elianto","#3366ff99"," "," ","1","+10","[1868.6999999999534]","1","2","","","11078","105","4","1","win","go","0"
"pit-trial","224","1396287","0.0-110.0","battery-v0.2","","""event"",""trial"",""time""
""fullscreenenter"",""1"",""7547""
","
","
","""event"",""trial"",""time""
""fullscreenenter"",""1"",""7547""
","
","","","800.1000000000931","","","10","11078","880","r","elianto","#3366ff99"," "," ","1","0","[1650]","1","2","","","11078","106","8","1","win","go","1"
"pit-trial","225","1400699","0.0-111.0","battery-v0.2","","""event"",""trial"",""time""
""fullscreenenter"",""1"",""7547""
","
","
","""event"",""trial"",""time""
""fullscreenenter"",""1"",""7547""
","
","","","1551.6999999999534","","","10","11078","880","m","elianto","#3366ff99"," "," ","1","0","[2401.899999999907]","1","2","","","11078","107","9","1","win","go","1"
"pit-trial","226","1404690","0.0-112.0","battery-v0.2","","""event"",""trial"",""time""
""fullscreenenter"",""1"",""7547""
","
","
","""event"",""trial"",""time""
""fullscreenenter"",""1"",""7547""
","
","","","1129.8000000000466","","","10","11078","880","h","elianto","#f73b6a7A"," "," ","1","0","[1980.6999999999534]","1","2","","","11078","108","6","3","lose","go","0"
"pit-trial","227","1409554","0.0-113.0","battery-v0.2","","""event"",""trial"",""time""
""fullscreenenter"",""1"",""7547""
","
","
","""event"",""trial"",""time""
""fullscreenenter"",""1"",""7547""
","
","","","-1","","","10","11078","880","m","elianto","#3366ff99"," ","-1","0","0","[]","0","2","","","11078","109","9","1","win","go","0"
"pit-trial","228","1413663","0.0-114.0","battery-v0.2","","""event"",""trial"",""time""
""fullscreenenter"",""1"",""7547""
","
","
","""event"",""trial"",""time""
""fullscreenenter"",""1"",""7547""
","
","","","1245.7000000001863","","","10","11078","880","z","elianto","#3366ff99","-1"," ","0","0","[2095.7999999998137]","1","2","","","11078","110","5","2","win","no-go","0"
"pit-trial","229","1418528","0.0-115.0","battery-v0.2","","""event"",""trial"",""time""
""fullscreenenter"",""1"",""7547""
","
","
","""event"",""trial"",""time""
""fullscreenenter"",""1"",""7547""
","
","","","-1","","","10","11078","880","h","elianto","#f73b6a7A"," ","-1","0","-10","[]","0","2","","","11078","111","6","3","lose","go","0"
"pit-trial","230","1422509","0.0-116.0","battery-v0.2","","""event"",""trial"",""time""
""fullscreenenter"",""1"",""7547""
","
","
","""event"",""trial"",""time""
""fullscreenenter"",""1"",""7547""
","
","","","1115.6999999999534","","","10","11078","880","r","elianto","#3366ff99"," "," ","1","+10","[1967.1000000000931]","1","2","","","11078","112","8","1","win","go","0"
"pit-trial","231","1427372","0.0-117.0","battery-v0.2","","""event"",""trial"",""time""
""fullscreenenter"",""1"",""7547""
","
","
","""event"",""trial"",""time""
""fullscreenenter"",""1"",""7547""
","
","","","-1","","","10","11078","880","m","elianto","#3366ff99"," ","-1","0","+10","[]","0","2","","","11078","113","9","1","win","go","1"
"pit-trial","232","1431289","0.0-118.0","battery-v0.2","","""event"",""trial"",""time""
""fullscreenenter"",""1"",""7547""
","
","
","""event"",""trial"",""time""
""fullscreenenter"",""1"",""7547""
","
","","","1056.3000000000466","","","10","11078","880","h","elianto","#f73b6a7A"," "," ","1","0","[1906.5]","1","2","","","11078","114","6","3","lose","go","0"
"pit-trial","233","1435427","0.0-119.0","battery-v0.2","","""event"",""trial"",""time""
""fullscreenenter"",""1"",""7547""
","
","
","""event"",""trial"",""time""
""fullscreenenter"",""1"",""7547""
","
","","","1272.8999999999069","","","10","11078","880","r","elianto","#3366ff99"," "," ","1","+10","[2124.4000000001397]","1","2","","","11078","115","8","1","win","go","0"
"pit-trial","234","1439278","0.0-120.0","battery-v0.2","","""event"",""trial"",""time""
""fullscreenenter"",""1"",""7547""
","
","
","""event"",""trial"",""time""
""fullscreenenter"",""1"",""7547""
","
","","","981.6999999999534","","","10","11078","880","z","elianto","#3366ff99","-1"," ","0","0","[1834.3999999999069]","1","2","","","11078","116","5","2","win","no-go","0"
"pit-trial","235","1443222","0.0-121.0","battery-v0.2","","""event"",""trial"",""time""
""fullscreenenter"",""1"",""7547""
","
","
","""event"",""trial"",""time""
""fullscreenenter"",""1"",""7547""
","
","","","1075.3999999999069","","","10","11078","880","m","elianto","#3366ff99"," "," ","1","+10","[1927.8000000000466]","1","2","","","11078","117","9","1","win","go","0"
"pit-trial","236","1447973","0.0-122.0","battery-v0.2","","""event"",""trial"",""time""
""fullscreenenter"",""1"",""7547""
","
","
","""event"",""trial"",""time""
""fullscreenenter"",""1"",""7547""
","
","","","1887.5","","","10","11078","880","h","elianto","#f73b6a7A"," "," ","1","0","[2738]","1","2","","","11078","118","6","3","lose","go","0"
"pit-trial","237","1452338","0.0-123.0","battery-v0.2","","""event"",""trial"",""time""
""fullscreenenter"",""1"",""7547""
","
","
","""event"",""trial"",""time""
""fullscreenenter"",""1"",""7547""
","
","","","1500.3000000000466","","","10","11078","880","r","elianto","#3366ff99"," "," ","1","+10","[2349.8000000000466]","1","2","","","11078","119","8","1","win","go","0"
"pit-trial","238","1456275","0.0-124.0","battery-v0.2","","""event"",""trial"",""time""
""fullscreenenter"",""1"",""7547""
","
","
","""event"",""trial"",""time""
""fullscreenenter"",""1"",""7547""
","
","","","1071.7999999998137","","","10","11078","880","z","elianto","#3366ff99","-1"," ","0","0","[1922]","1","2","","","11078","120","5","2","win","no-go","0"
"pit-trial","239","1460018","0.0-125.0","battery-v0.2","","""event"",""trial"",""time""
""fullscreenenter"",""1"",""7547""
","
","
","""event"",""trial"",""time""
""fullscreenenter"",""1"",""7547""
","
","","","878.5","","","10","11078","880","r","elianto","#3366ff99"," "," ","1","+10","[1728.6000000000931]","1","2","","","11078","121","8","1","win","go","0"
"pit-trial","240","1463877","0.0-126.0","battery-v0.2","","""event"",""trial"",""time""
""fullscreenenter"",""1"",""7547""
","
","
","""event"",""trial"",""time""
""fullscreenenter"",""1"",""7547""
","
","","","995.6999999999534","","","10","11078","880","m","elianto","#3366ff99"," "," ","1","+10","[1845.8999999999069]","1","2","","","11078","122","9","1","win","go","0"
"pit-trial","241","1467991","0.0-127.0","battery-v0.2","","""event"",""trial"",""time""
""fullscreenenter"",""1"",""7547""
","
","
","""event"",""trial"",""time""
""fullscreenenter"",""1"",""7547""
","
","","","1248.0999999998603","","","10","11078","880","y","elianto","#f73b6a7A","-1"," ","0","-10","[2098.1999999999534,2202.1999999999534]","2","2","","","11078","123","7","4","lose","no-go","0"
"pit-trial","242","1472170","0.0-128.0","battery-v0.2","","""event"",""trial"",""time""
""fullscreenenter"",""1"",""7547""
","
","
","""event"",""trial"",""time""
""fullscreenenter"",""1"",""7547""
","
","","","1308.2000000001863","","","10","11078","880","h","elianto","#f73b6a7A"," "," ","1","0","[2158.5999999998603]","1","2","","","11078","124","6","3","lose","go","0"
"pit-trial","243","1475955","0.0-129.0","battery-v0.2","","""event"",""trial"",""time""
""fullscreenenter"",""1"",""7547""
","
","
","""event"",""trial"",""time""
""fullscreenenter"",""1"",""7547""
","
","","","922","","","10","11078","880","m","elianto","#3366ff99"," "," ","1","+10","[1772.1999999999534]","1","2","","","11078","125","9","1","win","go","0"
"pit-trial","244","1479745","0.0-130.0","battery-v0.2","","""event"",""trial"",""time""
""fullscreenenter"",""1"",""7547""
","
","
","""event"",""trial"",""time""
""fullscreenenter"",""1"",""7547""
","
","","","928.4000000001397","","","10","11078","880","r","elianto","#3366ff99"," "," ","1","+10","[1778.8000000000466]","1","2","","","11078","126","8","1","win","go","0"
"pit-trial","245","1483485","0.0-131.0","battery-v0.2","","""event"",""trial"",""time""
""fullscreenenter"",""1"",""7547""
","
","
","""event"",""trial"",""time""
""fullscreenenter"",""1"",""7547""
","
","","","875.8999999999069","","","10","11078","880","h","elianto","#f73b6a7A"," "," ","1","0","[261.60000000009313,1725.8000000000466]","2","2","","","11078","127","6","3","lose","go","0"
"pit-trial","246","1487446","0.0-132.0","battery-v0.2","","""event"",""trial"",""time""
""fullscreenenter"",""1"",""7547""
","
","
","""event"",""trial"",""time""
""fullscreenenter"",""1"",""7547""
","
","","","1097.1999999999534","","","10","11078","880","y","elianto","#f73b6a7A","-1"," ","0","-10","[1947.8000000000466]","1","2","","","11078","128","7","4","lose","no-go","0"
"pit-trial","247","1492308","0.0-133.0","battery-v0.2","","""event"",""trial"",""time""
""fullscreenenter"",""1"",""7547""
","
","
","""event"",""trial"",""time""
""fullscreenenter"",""1"",""7547""
","
","","","-1","","","10","11078","880","y","elianto","#f73b6a7A","-1","-1","1","0","[]","0","2","","","11078","129","7","4","lose","no-go","0"
"pit-trial","248","1496134","0.0-134.0","battery-v0.2","","""event"",""trial"",""time""
""fullscreenenter"",""1"",""7547""
","
","
","""event"",""trial"",""time""
""fullscreenenter"",""1"",""7547""
","
","","","955.6000000000931","","","10","11078","880","m","elianto","#3366ff99"," "," ","1","+10","[1810.3000000000466]","1","2","","","11078","130","9","1","win","go","0"
"pit-trial","249","1499866","0.0-135.0","battery-v0.2","","""event"",""trial"",""time""
""fullscreenenter"",""1"",""7547""
","
","
","""event"",""trial"",""time""
""fullscreenenter"",""1"",""7547""
","
","","","868.5","","","10","11078","880","h","elianto","#f73b6a7A"," "," ","1","0","[1718.8000000000466]","1","2","","","11078","131","6","3","lose","go","0"
"pit-trial","250","1503332","0.0-136.0","battery-v0.2","","""event"",""trial"",""time""
""fullscreenenter"",""1"",""7547""
","
","
","""event"",""trial"",""time""
""fullscreenenter"",""1"",""7547""
","
","","","600.5","","","10","11078","880","r","elianto","#3366ff99"," "," ","1","+10","[1450.6000000000931]","1","2","","","11078","132","8","1","win","go","0"
"pit-trial","251","1506989","0.0-137.0","battery-v0.2","","""event"",""trial"",""time""
""fullscreenenter"",""1"",""7547""
","
","
","""event"",""trial"",""time""
""fullscreenenter"",""1"",""7547""
","
","","","792.1999999999534","","","10","11078","880","h","elianto","#f73b6a7A"," "," ","1","0","[1642.7000000001863]","1","2","","","11078","133","6","3","lose","go","0"
"pit-trial","252","1510544","0.0-138.0","battery-v0.2","","""event"",""trial"",""time""
""fullscreenenter"",""1"",""7547""
","
","
","""event"",""trial"",""time""
""fullscreenenter"",""1"",""7547""
","
","","","690.4000000001397","","","10","11078","880","y","elianto","#f73b6a7A","-1"," ","0","-10","[1541.6000000000931]","1","2","","","11078","134","7","4","lose","no-go","0"
"pit-trial","253","1514447","0.0-139.0","battery-v0.2","","""event"",""trial"",""time""
""fullscreenenter"",""1"",""7547""
","
","
","""event"",""trial"",""time""
""fullscreenenter"",""1"",""7547""
","
","","","1033","","","10","11078","880","m","elianto","#3366ff99"," "," ","1","0","[1886.5]","1","2","","","11078","135","9","1","win","go","1"
"pit-trial","254","1518383","0.0-140.0","battery-v0.2","","""event"",""trial"",""time""
""fullscreenenter"",""1"",""7547""
","
","
","""event"",""trial"",""time""
""fullscreenenter"",""1"",""7547""
","
","","","1068.9000000001397","","","10","11078","880","r","elianto","#3366ff99"," "," ","1","+10","[1919.0999999998603]","1","2","","","11078","136","8","1","win","go","0"
"pit-trial","255","1522510","0.0-141.0","battery-v0.2","","""event"",""trial"",""time""
""fullscreenenter"",""1"",""7547""
","
","
","""event"",""trial"",""time""
""fullscreenenter"",""1"",""7547""
","
","","","1261.8999999999069","","","10","11078","880","h","elianto","#f73b6a7A"," "," ","1","0","[2112.100000000093]","1","2","","","11078","137","6","3","lose","go","0"
"pit-trial","256","1526261","0.0-142.0","battery-v0.2","","""event"",""trial"",""time""
""fullscreenenter"",""1"",""7547""
","
","
","""event"",""trial"",""time""
""fullscreenenter"",""1"",""7547""
","
","","","885.6000000000931","","","10","11078","880","m","elianto","#3366ff99"," "," ","1","+10","[1738]","1","2","","","11078","138","9","1","win","go","0"
"pit-trial","257","1530123","0.0-143.0","battery-v0.2","","""event"",""trial"",""time""
""fullscreenenter"",""1"",""7547""
","
","
","""event"",""trial"",""time""
""fullscreenenter"",""1"",""7547""
","
","","","993.3000000000466","","","10","11078","880","y","elianto","#f73b6a7A","-1"," ","0","-10","[1846]","1","2","","","11078","139","7","4","lose","no-go","0"
"pit-trial","258","1533856","0.0-144.0","battery-v0.2","","""event"",""trial"",""time""
""fullscreenenter"",""1"",""7547""
","
","
","""event"",""trial"",""time""
""fullscreenenter"",""1"",""7547""
","
","","","860.4000000001397","","","10","11078","880","r","elianto","#3366ff99"," "," ","1","+10","[1715.9000000001397]","1","2","","","11078","140","8","1","win","go","0"
"pit-instructions","259","1552768","0.0-145.0","battery-v0.2","","""event"",""trial"",""time""
""fullscreenenter"",""1"",""7547""
","
","
","""event"",""trial"",""time""
""fullscreenenter"",""1"",""7547""
","
","","[{""page_index"":0,""viewing_time"":7978.40000000014},{""page_index"":1,""viewing_time"":10925.899999999907}]","18906.40000000014","","","","","","","","","","","","","","","","","","","","","","","",""
"pit-trial","260","1557247","0.0-146.0","battery-v0.2","","""event"",""trial"",""time""
""fullscreenenter"",""1"",""7547""
","
","
","""event"",""trial"",""time""
""fullscreenenter"",""1"",""7547""
","
","","","1613.2999999998137","","","10","11078","880","j","elianto","#f73b6a7A","-1"," ","0","-10","[2463.9000000001397]","1","3","","","11078","141","0","4","lose","no-go","0"
"pit-trial","261","1561028","0.0-147.0","battery-v0.2","","""event"",""trial"",""time""
""fullscreenenter"",""1"",""7547""
","
","
","""event"",""trial"",""time""
""fullscreenenter"",""1"",""7547""
","
","","","917.6000000000931","","","10","11078","880","d","elianto","#3366ff99"," "," ","1","0","[1767.8000000000466]","1","3","","","11078","142","1","1","win","go","1"
"pit-trial","262","1565242","0.0-148.0","battery-v0.2","","""event"",""trial"",""time""
""fullscreenenter"",""1"",""7547""
","
","
","""event"",""trial"",""time""
""fullscreenenter"",""1"",""7547""
","
","","","1348.7000000001863","","","10","11078","880","w","elianto","#f73b6a7A"," "," ","1","0","[2198.899999999907]","1","3","","","11078","143","3","3","lose","go","0"
"pit-trial","263","1569438","0.0-149.0","battery-v0.2","","""event"",""trial"",""time""
""fullscreenenter"",""1"",""7547""
","
","
","""event"",""trial"",""time""
""fullscreenenter"",""1"",""7547""
","
","","","1329.8000000000466","","","10","11078","880","e","elianto","#f73b6a7A","-1"," ","0","-10","[2184]","1","3","","","11078","144","2","4","lose","no-go","0"
"pit-trial","264","1573458","0.0-150.0","battery-v0.2","","""event"",""trial"",""time""
""fullscreenenter"",""1"",""7547""
","
","
","""event"",""trial"",""time""
""fullscreenenter"",""1"",""7547""
","
","","","1159.1999999999534","","","10","11078","880","w","elianto","#f73b6a7A"," "," ","1","-10","[2009.0999999998603]","1","3","","","11078","145","3","3","lose","go","1"
"pit-trial","265","1577856","0.0-151.0","battery-v0.2","","""event"",""trial"",""time""
""fullscreenenter"",""1"",""7547""
","
","
","""event"",""trial"",""time""
""fullscreenenter"",""1"",""7547""
","
","","","1532.8000000000466","","","10","11078","880","e","elianto","#f73b6a7A","-1"," ","0","-10","[2386]","1","3","","","11078","146","2","4","lose","no-go","0"
