"trial_type","trial_index","time_elapsed","internal_node_id","task_version","subject_id","interactions","blur_events","focus_events","fullscreenenter_events","fullscreenexit_events","success","view_history","rt","responses","num_errors","age","subject","participantId","rune","rune_set","hex","correct","choice","accuracy","outcome","keys","total_keys","block","practice","value","sub","trial","stimulus","robot","valence","action","sham"
"pavlovia","0","11","0.0-0.0","battery-v0.2","","""event"",""trial"",""time""
""fullscreenenter"",""1"",""7650""
","
","
","""event"",""trial"",""time""
""fullscreenenter"",""1"",""7650""
","
","","","","","","","","","","","","","","","","","","","","","","","","","","",""
"fullscreen","1","8648","0.0-1.0","battery-v0.2","","""event"",""trial"",""time""
""fullscreenenter"",""1"",""7650""
","
","
","""event"",""trial"",""time""
""fullscreenenter"",""1"",""7650""
","
","true","","","","","","","","","","","","","","","","","","","","","","","","","",""
"pit-instructions","2","14491","0.0-2.0-0.0","battery-v0.2","","""event"",""trial"",""time""
""fullscreenenter"",""1"",""7650""
","
","
","""event"",""trial"",""time""
""fullscreenenter"",""1"",""7650""
","
","","[{""page_index"":0,""viewing_time"":5838}]","5838.399999856949","","","","","","","","","","","","","","","","","","","","","","","",""
"pit-comprehension","3","23776","0.0-2.0-1.0-0.0","battery-v0.2","","""event"",""trial"",""time""
""fullscreenenter"",""1"",""7650""
","
","
","""event"",""trial"",""time""
""fullscreenenter"",""1"",""7650""
","
","","","9281.700000047684","[""shark""]","0","11","20708","6270","","","","","","","","","","","","","","","","","","",""
"pit-instructions","4","26562","0.0-2.0-1.0-1.0","battery-v0.2","","""event"",""trial"",""time""
""fullscreenenter"",""1"",""7650""
","
","
","""event"",""trial"",""time""
""fullscreenenter"",""1"",""7650""
","
","","[{""page_index"":0,""viewing_time"":2726.5}]","2726.7999999523163","","","","","","","","","","","","","","","","","","","","","","","",""
"pit-comprehension","5","30235","0.0-2.0-2.0-0.0","battery-v0.2","","""event"",""trial"",""time""
""fullscreenenter"",""1"",""7650""
","
","
","""event"",""trial"",""time""
""fullscreenenter"",""1"",""7650""
","
","","","3669.2000000476837","[""tiger""]","0","11","20708","6270","","","","","","","","","","","","","","","","","","",""
"pit-instructions","6","32509","0.0-2.0-2.0-1.0","battery-v0.2","","""event"",""trial"",""time""
""fullscreenenter"",""1"",""7650""
","
","
","""event"",""trial"",""time""
""fullscreenenter"",""1"",""7650""
","
","","[{""page_index"":0,""viewing_time"":2271.0999999046326}]","2271.399999856949","","","","","","","","","","","","","","","","","","","","","","","",""
"pit-instructions","7","143764","0.0-2.0-3.0","battery-v0.2","","""event"",""trial"",""time""
""fullscreenenter"",""1"",""7650""
","
","
","""event"",""trial"",""time""
""fullscreenenter"",""1"",""7650""
","
","","[{""page_index"":0,""viewing_time"":10130.100000143051},{""page_index"":1,""viewing_time"":6445.599999904633},{""page_index"":2,""viewing_time"":7483.600000143051},{""page_index"":3,""viewing_time"":6198.399999856949},{""page_index"":4,""viewing_time"":6732.200000047684},{""page_index"":5,""viewing_time"":6228.200000047684},{""page_index"":6,""viewing_time"":7665.700000047684},{""page_index"":7,""viewing_time"":7118.799999952316},{""page_index"":8,""viewing_time"":6379.5},{""page_index"":9,""viewing_time"":15180.299999952316},{""page_index"":10,""viewing_time"":7681.700000047684},{""page_index"":11,""viewing_time"":7667.599999904633},{""page_index"":12,""viewing_time"":10632.600000143051},{""page_index"":13,""viewing_time"":5707.399999856949}]","111252.10000014305","","","","","","","","","","","","","","","","","","","","","","","",""
"pit-trial","8","147217","0.0-2.0-4.0-0.0","battery-v0.2","","""event"",""trial"",""time""
""fullscreenenter"",""1"",""7650""
","
","
","""event"",""trial"",""time""
""fullscreenenter"",""1"",""7650""
","
","","","575.4000000953674","","","11","20708","6270","&#9784;","elianto","#FFFFF080"," "," ","1","&#10004","[1440.1000001430511]","1","0","0","","","","","","","",""
"pit-trial","9","150171","0.0-2.0-4.1-0.1","battery-v0.2","","""event"",""trial"",""time""
""fullscreenenter"",""1"",""7650""
","
","
","""event"",""trial"",""time""
""fullscreenenter"",""1"",""7650""
","
","","","89.60000014305115","","","11","20708","6270","&#9784;","elianto","#FFFFF080"," "," ","1","&#10004","[939.9000000953674]","1","0","0","","","","","","","",""
"pit-trial","10","153593","0.0-2.0-4.2-0.2","battery-v0.2","","""event"",""trial"",""time""
""fullscreenenter"",""1"",""7650""
","
","
","""event"",""trial"",""time""
""fullscreenenter"",""1"",""7650""
","
","","","556.7999999523163","","","11","20708","6270","&#9784;","elianto","#FFFFF080"," "," ","1","&#10004","[1407]","1","0","0","","","","","","","",""
"pit-trial","11","156990","0.0-2.0-4.3-0.3","battery-v0.2","","""event"",""trial"",""time""
""fullscreenenter"",""1"",""7650""
","
","
","""event"",""trial"",""time""
""fullscreenenter"",""1"",""7650""
","
","","","543.2999999523163","","","11","20708","6270","&#9784;","elianto","#FFFFF080"," "," ","1","&#10004","[1394.9000000953674]","1","0","0","","","","","","","",""
"pit-trial","12","160262","0.0-2.0-4.4-0.4","battery-v0.2","","""event"",""trial"",""time""
""fullscreenenter"",""1"",""7650""
","
","
","""event"",""trial"",""time""
""fullscreenenter"",""1"",""7650""
","
","","","396.40000009536743","","","11","20708","6270","&#9784;","elianto","#FFFFF080"," "," ","1","&#10004","[1256.7999999523163]","1","0","0","","","","","","","",""
"pit-instructions","13","182012","0.0-2.0-5.0","battery-v0.2","","""event"",""trial"",""time""
""fullscreenenter"",""1"",""7650""
","
","
","""event"",""trial"",""time""
""fullscreenenter"",""1"",""7650""
","
","","[{""page_index"":0,""viewing_time"":5573.100000143051},{""page_index"":1,""viewing_time"":5727},{""page_index"":2,""viewing_time"":5424.099999904633},{""page_index"":3,""viewing_time"":5022.600000143051}]","21747","","","","","","","","","","","","","","","","","","","","","","","",""
"pit-trial","14","186882","0.0-2.0-6.0-0.0","battery-v0.2","","""event"",""trial"",""time""
""fullscreenenter"",""1"",""7650""
","
","
","""event"",""trial"",""time""
""fullscreenenter"",""1"",""7650""
","
","","","-1","","","11","20708","6270","&#9854;","elianto","#FFFFF080","-1","-1","1","&#10004","[]","0","0","1","","","","","","","",""
"pit-trial","15","191759","0.0-2.0-6.1-0.1","battery-v0.2","","""event"",""trial"",""time""
""fullscreenenter"",""1"",""7650""
","
","
","""event"",""trial"",""time""
""fullscreenenter"",""1"",""7650""
","
","","","-1","","","11","20708","6270","&#9854;","elianto","#FFFFF080","-1","-1","1","&#10004","[]","0","0","1","","","","","","","",""
"pit-trial","16","196624","0.0-2.0-6.2-0.2","battery-v0.2","","""event"",""trial"",""time""
""fullscreenenter"",""1"",""7650""
","
","
","""event"",""trial"",""time""
""fullscreenenter"",""1"",""7650""
","
","","","-1","","","11","20708","6270","&#9854;","elianto","#FFFFF080","-1","-1","1","&#10004","[]","0","0","1","","","","","","","",""
"pit-trial","17","201505","0.0-2.0-6.3-0.3","battery-v0.2","","""event"",""trial"",""time""
""fullscreenenter"",""1"",""7650""
","
","
","""event"",""trial"",""time""
""fullscreenenter"",""1"",""7650""
","
","","","-1","","","11","20708","6270","&#9854;","elianto","#FFFFF080","-1","-1","1","&#10004","[]","0","0","1","","","","","","","",""
"pit-trial","18","206369","0.0-2.0-6.4-0.4","battery-v0.2","","""event"",""trial"",""time""
""fullscreenenter"",""1"",""7650""
","
","
","""event"",""trial"",""time""
""fullscreenenter"",""1"",""7650""
","
","","","-1","","","11","20708","6270","&#9854;","elianto","#FFFFF080","-1","-1","1","&#10004","[]","0","0","1","","","","","","","",""
"pit-instructions","19","323821","0.0-2.0-7.0","battery-v0.2","","""event"",""trial"",""time""
""fullscreenenter"",""1"",""7650""
","
","
","""event"",""trial"",""time""
""fullscreenenter"",""1"",""7650""
","
","","[{""page_index"":0,""viewing_time"":5663.699999809265},{""page_index"":1,""viewing_time"":10045.5},{""page_index"":2,""viewing_time"":6229},{""page_index"":3,""viewing_time"":6350.800000190735},{""page_index"":4,""viewing_time"":5236.699999809265},{""page_index"":5,""viewing_time"":5308.900000095367},{""page_index"":6,""viewing_time"":5107.700000047684},{""page_index"":7,""viewing_time"":8420.799999952316},{""page_index"":8,""viewing_time"":6515.599999904633},{""page_index"":9,""viewing_time"":5890.900000095367},{""page_index"":10,""viewing_time"":6020.700000047684},{""page_index"":11,""viewing_time"":4360.200000047684},{""page_index"":12,""viewing_time"":7558.5},{""page_index"":13,""viewing_time"":7198.099999904633},{""page_index"":14,""viewing_time"":7094.400000095367},{""page_index"":15,""viewing_time"":6781.899999856949},{""page_index"":16,""viewing_time"":6184},{""page_index"":17,""viewing_time"":7480.200000047684}]","117447.89999985695","","","","","","","","","","","","","","","","","","","","","","","",""
"pit-trial","20","327223","0.0-2.0-8.0-0.0","battery-v0.2","","""event"",""trial"",""time""
""fullscreenenter"",""1"",""7650""
","
","
","""event"",""trial"",""time""
""fullscreenenter"",""1"",""7650""
","
","","","529.0999999046326","","","11","20708","6270","&#9776;","elianto","#3366ff99"," "," ","1","+10","[1389.8999998569489]","1","0","1","","","","","","","",""
"pit-trial","21","330603","0.0-2.0-8.0-1.0","battery-v0.2","","""event"",""trial"",""time""
""fullscreenenter"",""1"",""7650""
","
","
","""event"",""trial"",""time""
""fullscreenenter"",""1"",""7650""
","
","","","519.7000000476837","","","11","20708","6270","&#9776;","elianto","#3366ff99"," "," ","1","+10","[1374.5999999046326]","1","0","1","","","","","","","",""
"pit-trial","22","334166","0.0-2.0-8.0-2.0","battery-v0.2","","""event"",""trial"",""time""
""fullscreenenter"",""1"",""7650""
","
","
","""event"",""trial"",""time""
""fullscreenenter"",""1"",""7650""
","
","","","692.2999999523163","","","11","20708","6270","&#9776;","elianto","#3366ff99"," "," ","1","+10","[1547.2999999523163]","1","0","1","","","","","","","",""
"pit-trial","23","337213","0.0-2.0-8.0-3.0","battery-v0.2","","""event"",""trial"",""time""
""fullscreenenter"",""1"",""7650""
","
","
","""event"",""trial"",""time""
""fullscreenenter"",""1"",""7650""
","
","","","183.89999985694885","","","11","20708","6270","&#9776;","elianto","#3366ff99"," "," ","1","0","[1035.2000000476837]","1","0","1","","","","","","","",""
"pit-trial","24","340152","0.0-2.0-8.0-4.0","battery-v0.2","","""event"",""trial"",""time""
""fullscreenenter"",""1"",""7650""
","
","
","""event"",""trial"",""time""
""fullscreenenter"",""1"",""7650""
","
","","","65.90000009536743","","","11","20708","6270","&#9776;","elianto","#3366ff99"," "," ","1","+10","[922]","1","0","1","","","","","","","",""
"pit-trial","25","343038","0.0-2.0-8.1-0.1","battery-v0.2","","""event"",""trial"",""time""
""fullscreenenter"",""1"",""7650""
","
","
","""event"",""trial"",""time""
""fullscreenenter"",""1"",""7650""
","
","","","18.59999990463257","","","11","20708","6270","&#9776;","elianto","#3366ff99"," "," ","1","+10","[870.4000000953674]","1","0","1","","","","","","","",""
"pit-trial","26","346049","0.0-2.0-8.1-1.1","battery-v0.2","","""event"",""trial"",""time""
""fullscreenenter"",""1"",""7650""
","
","
","""event"",""trial"",""time""
""fullscreenenter"",""1"",""7650""
","
","","","143.89999985694885","","","11","20708","6270","&#9776;","elianto","#3366ff99"," "," ","1","+10","[999.2999999523163]","1","0","1","","","","","","","",""
"pit-trial","27","349070","0.0-2.0-8.1-2.1","battery-v0.2","","""event"",""trial"",""time""
""fullscreenenter"",""1"",""7650""
","
","
","""event"",""trial"",""time""
""fullscreenenter"",""1"",""7650""
","
","","","156.70000004768372","","","11","20708","6270","&#9776;","elianto","#3366ff99"," "," ","1","+10","[1007.7999999523163]","1","0","1","","","","","","","",""
"pit-trial","28","352127","0.0-2.0-8.1-3.1","battery-v0.2","","""event"",""trial"",""time""
""fullscreenenter"",""1"",""7650""
","
","
","""event"",""trial"",""time""
""fullscreenenter"",""1"",""7650""
","
","","","192.40000009536743","","","11","20708","6270","&#9776;","elianto","#3366ff99"," "," ","1","0","[1049.2000000476837]","1","0","1","","","","","","","",""
"pit-trial","29","355059","0.0-2.0-8.1-4.1","battery-v0.2","","""event"",""trial"",""time""
""fullscreenenter"",""1"",""7650""
","
","
","""event"",""trial"",""time""
""fullscreenenter"",""1"",""7650""
","
","","","77.20000004768372","","","11","20708","6270","&#9776;","elianto","#3366ff99"," "," ","1","+10","[928.7000000476837]","1","0","1","","","","","","","",""
"pit-trial","30","358398","0.0-2.0-8.2-0.2","battery-v0.2","","""event"",""trial"",""time""
""fullscreenenter"",""1"",""7650""
","
","
","""event"",""trial"",""time""
""fullscreenenter"",""1"",""7650""
","
","","","486.09999990463257","","","11","20708","6270","&#9776;","elianto","#3366ff99"," "," ","1","+10","[1337.7000000476837]","1","0","1","","","","","","","",""
"pit-trial","31","361313","0.0-2.0-8.2-1.2","battery-v0.2","","""event"",""trial"",""time""
""fullscreenenter"",""1"",""7650""
","
","
","""event"",""trial"",""time""
""fullscreenenter"",""1"",""7650""
","
","","","62","","","11","20708","6270","&#9776;","elianto","#3366ff99"," "," ","1","+10","[912.2000000476837]","1","0","1","","","","","","","",""
"pit-trial","32","364174","0.0-2.0-8.2-2.2","battery-v0.2","","""event"",""trial"",""time""
""fullscreenenter"",""1"",""7650""
","
","
","""event"",""trial"",""time""
""fullscreenenter"",""1"",""7650""
","
","","","7.8999998569488525","","","11","20708","6270","&#9776;","elianto","#3366ff99"," "," ","1","+10","[859.2000000476837]","1","0","1","","","","","","","",""
"pit-trial","33","367082","0.0-2.0-8.2-3.2","battery-v0.2","","""event"",""trial"",""time""
""fullscreenenter"",""1"",""7650""
","
","
","""event"",""trial"",""time""
""fullscreenenter"",""1"",""7650""
","
","","","52.59999990463257","","","11","20708","6270","&#9776;","elianto","#3366ff99"," "," ","1","0","[903.4000000953674]","1","0","1","","","","","","","",""
"pit-trial","34","370026","0.0-2.0-8.2-4.2","battery-v0.2","","""event"",""trial"",""time""
""fullscreenenter"",""1"",""7650""
","
","
","""event"",""trial"",""time""
""fullscreenenter"",""1"",""7650""
","
","","","92.29999995231628","","","11","20708","6270","&#9776;","elianto","#3366ff99"," "," ","1","+10","[942.4000000953674]","1","0","1","","","","","","","",""
"call-function","35","370028","0.0-2.0-9.0","battery-v0.2","","""event"",""trial"",""time""
""fullscreenenter"",""1"",""7650""
","
","
","""event"",""trial"",""time""
""fullscreenenter"",""1"",""7650""
","
","","","","","","","","","","","","","","","","","","","","","","","","","","",""
"pit-instructions","36","410939","0.0-2.0-10.0","battery-v0.2","","""event"",""trial"",""time""
""fullscreenenter"",""1"",""7650""
","
","
","""event"",""trial"",""time""
""fullscreenenter"",""1"",""7650""
","
","","[{""page_index"":0,""viewing_time"":6341.200000047684},{""page_index"":1,""viewing_time"":7450.599999904633},{""page_index"":2,""viewing_time"":9497.299999952316},{""page_index"":3,""viewing_time"":9891.100000143051},{""page_index"":4,""viewing_time"":7730.200000047684}]","40910.799999952316","","","","","","","","","","","","","","","","","","","","","","","",""
"pit-trial","37","414241","0.0-2.0-11.0-0.0","battery-v0.2","","""event"",""trial"",""time""
""fullscreenenter"",""1"",""7650""
","
","
","""event"",""trial"",""time""
""fullscreenenter"",""1"",""7650""
","
","","","440.5","","","11","20708","6270","&#9761;","elianto","#3366ff99","-1"," ","0","0","[1292.6000001430511]","1","0","2","","","","","","","",""
"pit-trial","38","417232","0.0-2.0-11.0-1.0","battery-v0.2","","""event"",""trial"",""time""
""fullscreenenter"",""1"",""7650""
","
","
","""event"",""trial"",""time""
""fullscreenenter"",""1"",""7650""
","
","","","126.60000014305115","","","11","20708","6270","&#9761;","elianto","#3366ff99","-1"," ","0","0","[977.1000001430511]","1","0","2","","","","","","","",""
"pit-trial","39","420374","0.0-2.0-11.0-2.0","battery-v0.2","","""event"",""trial"",""time""
""fullscreenenter"",""1"",""7650""
","
","
","""event"",""trial"",""time""
""fullscreenenter"",""1"",""7650""
","
","","","283.59999990463257","","","11","20708","6270","&#9761;","elianto","#3366ff99","-1"," ","0","0","[1137.8999998569489]","1","0","2","","","","","","","",""
"pit-trial","40","425240","0.0-2.0-11.0-3.0","battery-v0.2","","""event"",""trial"",""time""
""fullscreenenter"",""1"",""7650""
","
","
","""event"",""trial"",""time""
""fullscreenenter"",""1"",""7650""
","
","","","-1","","","11","20708","6270","&#9761;","elianto","#3366ff99","-1","-1","1","0","[]","0","0","2","","","","","","","",""
"pit-trial","41","430101","0.0-2.0-11.0-4.0","battery-v0.2","","""event"",""trial"",""time""
""fullscreenenter"",""1"",""7650""
","
","
","""event"",""trial"",""time""
""fullscreenenter"",""1"",""7650""
","
","","","-1","","","11","20708","6270","&#9761;","elianto","#3366ff99","-1","-1","1","+10","[3543.7000000476837]","1","0","2","","","","","","","",""
"pit-trial","42","433166","0.0-2.0-11.1-0.1","battery-v0.2","","""event"",""trial"",""time""
""fullscreenenter"",""1"",""7650""
","
","
","""event"",""trial"",""time""
""fullscreenenter"",""1"",""7650""
","
","","","206.70000004768372","","","11","20708","6270","&#9761;","elianto","#3366ff99","-1"," ","0","0","[1062.2000000476837]","1","0","2","","","","","","","",""
"pit-trial","43","436321","0.0-2.0-11.1-1.1","battery-v0.2","","""event"",""trial"",""time""
""fullscreenenter"",""1"",""7650""
","
","
","""event"",""trial"",""time""
""fullscreenenter"",""1"",""7650""
","
","","","285.2999999523163","","","11","20708","6270","&#9761;","elianto","#3366ff99","-1"," ","0","0","[712.5,1142.6999998092651]","2","0","2","","","","","","","",""
"pit-trial","44","439313","0.0-2.0-11.1-2.1","battery-v0.2","","""event"",""trial"",""time""
""fullscreenenter"",""1"",""7650""
","
","
","""event"",""trial"",""time""
""fullscreenenter"",""1"",""7650""
","
","","","126","","","11","20708","6270","&#9761;","elianto","#3366ff99","-1"," ","0","0","[987.9000000953674]","1","0","2","","","","","","","",""
"pit-trial","45","442277","0.0-2.0-11.1-3.1","battery-v0.2","","""event"",""trial"",""time""
""fullscreenenter"",""1"",""7650""
","
","
","""event"",""trial"",""time""
""fullscreenenter"",""1"",""7650""
","
","","","108.20000004768372","","","11","20708","6270","&#9761;","elianto","#3366ff99","-1"," ","0","+10","[561,961]","2","0","2","","","","","","","",""
"pit-trial","46","445155","0.0-2.0-11.1-4.1","battery-v0.2","","""event"",""trial"",""time""
""fullscreenenter"",""1"",""7650""
","
","
","""event"",""trial"",""time""
""fullscreenenter"",""1"",""7650""
","
","","","25","","","11","20708","6270","&#9761;","elianto","#3366ff99","-1"," ","0","0","[875.7999999523163]","1","0","2","","","","","","","",""
"pit-trial","47","448481","0.0-2.0-11.2-0.2","battery-v0.2","","""event"",""trial"",""time""
""fullscreenenter"",""1"",""7650""
","
","
","""event"",""trial"",""time""
""fullscreenenter"",""1"",""7650""
","
","","","473","","","11","20708","6270","&#9761;","elianto","#3366ff99","-1"," ","0","0","[696,1324.4000000953674]","2","0","2","","","","","","","",""
"pit-trial","48","452129","0.0-2.0-11.2-1.2","battery-v0.2","","""event"",""trial"",""time""
""fullscreenenter"",""1"",""7650""
","
","
","""event"",""trial"",""time""
""fullscreenenter"",""1"",""7650""
","
","","","793.5","","","11","20708","6270","&#9761;","elianto","#3366ff99","-1"," ","0","0","[1645]","1","0","2","","","","","","","",""
"pit-trial","49","455453","0.0-2.0-11.2-2.2","battery-v0.2","","""event"",""trial"",""time""
""fullscreenenter"",""1"",""7650""
","
","
","""event"",""trial"",""time""
""fullscreenenter"",""1"",""7650""
","
","","","469.2999999523163","","","11","20708","6270","&#9761;","elianto","#3366ff99","-1"," ","0","0","[796.8999998569489,1321]","2","0","2","","","","","","","",""
"pit-trial","50","458358","0.0-2.0-11.2-3.2","battery-v0.2","","""event"",""trial"",""time""
""fullscreenenter"",""1"",""7650""
","
","
","""event"",""trial"",""time""
""fullscreenenter"",""1"",""7650""
","
","","","51.39999985694885","","","11","20708","6270","&#9761;","elianto","#3366ff99","-1"," ","0","+10","[901.5]","1","0","2","","","","","","","",""
"pit-trial","51","463211","0.0-2.0-11.2-4.2","battery-v0.2","","""event"",""trial"",""time""
""fullscreenenter"",""1"",""7650""
","
","
","""event"",""trial"",""time""
""fullscreenenter"",""1"",""7650""
","
","","","-1","","","11","20708","6270","&#9761;","elianto","#3366ff99","-1","-1","1","+10","[3707.7000000476837]","1","0","2","","","","","","","",""
"pit-trial","52","466219","0.0-2.0-11.3-0.3","battery-v0.2","","""event"",""trial"",""time""
""fullscreenenter"",""1"",""7650""
","
","
","""event"",""trial"",""time""
""fullscreenenter"",""1"",""7650""
","
","","","154","","","11","20708","6270","&#9761;","elianto","#3366ff99","-1"," ","0","0","[1004.8999998569489,2311.7999999523163,2550.5,2778,2999.699999809265]","5","0","2","","","","","","","",""
"pit-trial","53","469207","0.0-2.0-11.3-1.3","battery-v0.2","","""event"",""trial"",""time""
""fullscreenenter"",""1"",""7650""
","
","
","""event"",""trial"",""time""
""fullscreenenter"",""1"",""7650""
","
","","","133.90000009536743","","","11","20708","6270","&#9761;","elianto","#3366ff99","-1"," ","0","0","[602,772.5,985.0999999046326,1277.2999999523163]","4","0","2","","","","","","","",""
"pit-trial","54","472218","0.0-2.0-11.3-2.3","battery-v0.2","","""event"",""trial"",""time""
""fullscreenenter"",""1"",""7650""
","
","
","""event"",""trial"",""time""
""fullscreenenter"",""1"",""7650""
","
","","","157.59999990463257","","","11","20708","6270","&#9761;","elianto","#3366ff99","-1"," ","0","0","[1008.5,1194.2000000476837,2957.0999999046326]","3","0","2","","","","","","","",""
"pit-trial","55","475311","0.0-2.0-11.3-3.3","battery-v0.2","","""event"",""trial"",""time""
""fullscreenenter"",""1"",""7650""
","
","
","""event"",""trial"",""time""
""fullscreenenter"",""1"",""7650""
","
","","","239.20000004768372","","","11","20708","6270","&#9761;","elianto","#3366ff99","-1"," ","0","+10","[285.80000019073486,647.7000000476837,1091.7000000476837,1267.3000001907349,3075.100000143051]","5","0","2","","","","","","","",""
"pit-trial","56","478507","0.0-2.0-11.3-4.3","battery-v0.2","","""event"",""trial"",""time""
""fullscreenenter"",""1"",""7650""
","
","
","""event"",""trial"",""time""
""fullscreenenter"",""1"",""7650""
","
","","","344","","","11","20708","6270","&#9761;","elianto","#3366ff99","-1"," ","0","0","[763.5999999046326,1194.0999999046326,1633.8999998569489,2384.5,2991.399999856949]","5","0","2","","","","","","","",""
"call-function","57","478509","0.0-2.0-12.0","battery-v0.2","","""event"",""trial"",""time""
""fullscreenenter"",""1"",""7650""
","
","
","""event"",""trial"",""time""
""fullscreenenter"",""1"",""7650""
","
","","","","","","","","","","","","","","","","","","","","","","","","","","",""
"pit-instructions","58","515320","0.0-2.0-13.0","battery-v0.2","","""event"",""trial"",""time""
""fullscreenenter"",""1"",""7650""
","
","
","""event"",""trial"",""time""
""fullscreenenter"",""1"",""7650""
","
","","[{""page_index"":0,""viewing_time"":6656.200000047684},{""page_index"":1,""viewing_time"":7163.100000143051},{""page_index"":2,""viewing_time"":3102.7999999523163},{""page_index"":3,""viewing_time"":12880.599999904633},{""page_index"":4,""viewing_time"":7007.200000047684}]","36810.200000047684","","","","","","","","","","","","","","","","","","","","","","","",""
"pit-trial","59","520186","0.0-2.0-14.0-0.0","battery-v0.2","","""event"",""trial"",""time""
""fullscreenenter"",""1"",""7650""
","
","
","""event"",""trial"",""time""
""fullscreenenter"",""1"",""7650""
","
","","","-1","","","11","20708","6270","&#9826;","elianto","#f73b6a7A","-1","-1","1","0","[]","0","0","3","","","","","","","",""
"pit-trial","60","525058","0.0-2.0-14.0-1.0","battery-v0.2","","""event"",""trial"",""time""
""fullscreenenter"",""1"",""7650""
","
","
","""event"",""trial"",""time""
""fullscreenenter"",""1"",""7650""
","
","","","-1","","","11","20708","6270","&#9826;","elianto","#f73b6a7A","-1","-1","1","0","[]","0","0","3","","","","","","","",""
"pit-trial","61","529912","0.0-2.0-14.0-2.0","battery-v0.2","","""event"",""trial"",""time""
""fullscreenenter"",""1"",""7650""
","
","
","""event"",""trial"",""time""
""fullscreenenter"",""1"",""7650""
","
","","","-1","","","11","20708","6270","&#9826;","elianto","#f73b6a7A","-1","-1","1","0","[]","0","0","3","","","","","","","",""
"pit-trial","62","534777","0.0-2.0-14.0-3.0","battery-v0.2","","""event"",""trial"",""time""
""fullscreenenter"",""1"",""7650""
","
","
","""event"",""trial"",""time""
""fullscreenenter"",""1"",""7650""
","
","","","-1","","","11","20708","6270","&#9826;","elianto","#f73b6a7A","-1","-1","1","-10","[]","0","0","3","","","","","","","",""
"pit-trial","63","538496","0.0-2.0-14.0-4.0","battery-v0.2","","""event"",""trial"",""time""
""fullscreenenter"",""1"",""7650""
","
","
","""event"",""trial"",""time""
""fullscreenenter"",""1"",""7650""
","
","","","852.3999998569489","","","11","20708","6270","&#9826;","elianto","#f73b6a7A","-1"," ","0","-10","[1707.6000001430511]","1","0","3","","","","","","","",""
"pit-trial","64","543352","0.0-2.0-14.1-0.1","battery-v0.2","","""event"",""trial"",""time""
""fullscreenenter"",""1"",""7650""
","
","
","""event"",""trial"",""time""
""fullscreenenter"",""1"",""7650""
","
","","","-1","","","11","20708","6270","&#9826;","elianto","#f73b6a7A","-1","-1","1","0","[]","0","0","3","","","","","","","",""
"pit-trial","65","548205","0.0-2.0-14.1-1.1","battery-v0.2","","""event"",""trial"",""time""
""fullscreenenter"",""1"",""7650""
","
","
","""event"",""trial"",""time""
""fullscreenenter"",""1"",""7650""
","
","","","-1","","","11","20708","6270","&#9826;","elianto","#f73b6a7A","-1","-1","1","0","[]","0","0","3","","","","","","","",""
"pit-trial","66","553056","0.0-2.0-14.1-2.1","battery-v0.2","","""event"",""trial"",""time""
""fullscreenenter"",""1"",""7650""
","
","
","""event"",""trial"",""time""
""fullscreenenter"",""1"",""7650""
","
","","","-1","","","11","20708","6270","&#9826;","elianto","#f73b6a7A","-1","-1","1","0","[]","0","0","3","","","","","","","",""
"pit-trial","67","556747","0.0-2.0-14.1-3.1","battery-v0.2","","""event"",""trial"",""time""
""fullscreenenter"",""1"",""7650""
","
","
","""event"",""trial"",""time""
""fullscreenenter"",""1"",""7650""
","
","","","836.6999998092651","","","11","20708","6270","&#9826;","elianto","#f73b6a7A","-1"," ","0","0","[1688.5999999046326]","1","0","3","","","","","","","",""
"pit-trial","68","561213","0.0-2.0-14.1-4.1","battery-v0.2","","""event"",""trial"",""time""
""fullscreenenter"",""1"",""7650""
","
","
","""event"",""trial"",""time""
""fullscreenenter"",""1"",""7650""
","
","","","1613.6000001430511","","","11","20708","6270","&#9826;","elianto","#f73b6a7A","-1"," ","0","-10","[2464.2000000476837]","1","0","3","","","","","","","",""
"pit-trial","69","566068","0.0-2.0-14.2-0.2","battery-v0.2","","""event"",""trial"",""time""
""fullscreenenter"",""1"",""7650""
","
","
","""event"",""trial"",""time""
""fullscreenenter"",""1"",""7650""
","
","","","-1","","","11","20708","6270","&#9826;","elianto","#f73b6a7A","-1","-1","1","0","[]","0","0","3","","","","","","","",""
"pit-trial","70","570921","0.0-2.0-14.2-1.2","battery-v0.2","","""event"",""trial"",""time""
""fullscreenenter"",""1"",""7650""
","
","
","""event"",""trial"",""time""
""fullscreenenter"",""1"",""7650""
","
","","","-1","","","11","20708","6270","&#9826;","elianto","#f73b6a7A","-1","-1","1","0","[]","0","0","3","","","","","","","",""
"pit-trial","71","575774","0.0-2.0-14.2-2.2","battery-v0.2","","""event"",""trial"",""time""
""fullscreenenter"",""1"",""7650""
","
","
","""event"",""trial"",""time""
""fullscreenenter"",""1"",""7650""
","
","","","-1","","","11","20708","6270","&#9826;","elianto","#f73b6a7A","-1","-1","1","0","[]","0","0","3","","","","","","","",""
"pit-trial","72","580626","0.0-2.0-14.2-3.2","battery-v0.2","","""event"",""trial"",""time""
""fullscreenenter"",""1"",""7650""
","
","
","""event"",""trial"",""time""
""fullscreenenter"",""1"",""7650""
","
","","","-1","","","11","20708","6270","&#9826;","elianto","#f73b6a7A","-1","-1","1","-10","[]","0","0","3","","","","","","","",""
"pit-trial","73","585480","0.0-2.0-14.2-4.2","battery-v0.2","","""event"",""trial"",""time""
""fullscreenenter"",""1"",""7650""
","
","
","""event"",""trial"",""time""
""fullscreenenter"",""1"",""7650""
","
","","","-1","","","11","20708","6270","&#9826;","elianto","#f73b6a7A","-1","-1","1","0","[]","0","0","3","","","","","","","",""
"pit-trial","74","590334","0.0-2.0-14.3-0.3","battery-v0.2","","""event"",""trial"",""time""
""fullscreenenter"",""1"",""7650""
","
","
","""event"",""trial"",""time""
""fullscreenenter"",""1"",""7650""
","
","","","-1","","","11","20708","6270","&#9826;","elianto","#f73b6a7A","-1","-1","1","0","[]","0","0","3","","","","","","","",""
"pit-trial","75","595187","0.0-2.0-14.3-1.3","battery-v0.2","","""event"",""trial"",""time""
""fullscreenenter"",""1"",""7650""
","
","
","""event"",""trial"",""time""
""fullscreenenter"",""1"",""7650""
","
","","","-1","","","11","20708","6270","&#9826;","elianto","#f73b6a7A","-1","-1","1","0","[]","0","0","3","","","","","","","",""
"pit-trial","76","600040","0.0-2.0-14.3-2.3","battery-v0.2","","""event"",""trial"",""time""
""fullscreenenter"",""1"",""7650""
","
","
","""event"",""trial"",""time""
""fullscreenenter"",""1"",""7650""
","
","","","-1","","","11","20708","6270","&#9826;","elianto","#f73b6a7A","-1","-1","1","0","[]","0","0","3","","","","","","","",""
"pit-trial","77","604892","0.0-2.0-14.3-3.3","battery-v0.2","","""event"",""trial"",""time""
""fullscreenenter"",""1"",""7650""
","
","
","""event"",""trial"",""time""
""fullscreenenter"",""1"",""7650""
","
","","","-1","","","11","20708","6270","&#9826;","elianto","#f73b6a7A","-1","-1","1","-10","[]","0","0","3","","","","","","","",""
"pit-trial","78","609746","0.0-2.0-14.3-4.3","battery-v0.2","","""event"",""trial"",""time""
""fullscreenenter"",""1"",""7650""
","
","
","""event"",""trial"",""time""
""fullscreenenter"",""1"",""7650""
","
","","","-1","","","11","20708","6270","&#9826;","elianto","#f73b6a7A","-1","-1","1","0","[]","0","0","3","","","","","","","",""
"call-function","79","609747","0.0-2.0-15.0","battery-v0.2","","""event"",""trial"",""time""
""fullscreenenter"",""1"",""7650""
","
","
","""event"",""trial"",""time""
""fullscreenenter"",""1"",""7650""
","
","","","","","","","","","","","","","","","","","","","","","","","","","","",""
"pit-instructions","80","637775","0.0-2.0-16.0","battery-v0.2","","""event"",""trial"",""time""
""fullscreenenter"",""1"",""7650""
","
","
","""event"",""trial"",""time""
""fullscreenenter"",""1"",""7650""
","
","","[{""page_index"":0,""viewing_time"":6727.400000095367},{""page_index"":1,""viewing_time"":8334.900000095367},{""page_index"":2,""viewing_time"":7295},{""page_index"":3,""viewing_time"":5669}]","28026.800000190735","","","","","","","","","","","","","","","","","","","","","","","",""
"pit-trial","81","641796","0.0-2.0-17.0-0.0","battery-v0.2","","""event"",""trial"",""time""
""fullscreenenter"",""1"",""7650""
","
","
","""event"",""trial"",""time""
""fullscreenenter"",""1"",""7650""
","
","","","1152.7000000476837","","","11","20708","6270","&#9789;","elianto","#f73b6a7A"," "," ","1","0","[2005.3999998569489]","1","0","4","","","","","","","",""
"pit-trial","82","644801","0.0-2.0-17.0-1.0","battery-v0.2","","""event"",""trial"",""time""
""fullscreenenter"",""1"",""7650""
","
","
","""event"",""trial"",""time""
""fullscreenenter"",""1"",""7650""
","
","","","139.20000004768372","","","11","20708","6270","&#9789;","elianto","#f73b6a7A"," "," ","1","0","[990.8999998569489]","1","0","4","","","","","","","",""
"pit-trial","83","648882","0.0-2.0-17.0-2.0","battery-v0.2","","""event"",""trial"",""time""
""fullscreenenter"",""1"",""7650""
","
","
","""event"",""trial"",""time""
""fullscreenenter"",""1"",""7650""
","
","","","1219","","","11","20708","6270","&#9789;","elianto","#f73b6a7A"," "," ","1","0","[2069.600000143051]","1","0","4","","","","","","","",""
"pit-trial","84","652315","0.0-2.0-17.0-3.0","battery-v0.2","","""event"",""trial"",""time""
""fullscreenenter"",""1"",""7650""
","
","
","""event"",""trial"",""time""
""fullscreenenter"",""1"",""7650""
","
","","","578.7999999523163","","","11","20708","6270","&#9789;","elianto","#f73b6a7A"," "," ","1","-10","[771.5999999046326,1428.8999998569489]","2","0","4","","","","","","","",""
"pit-trial","85","657180","0.0-2.0-17.0-4.0","battery-v0.2","","""event"",""trial"",""time""
""fullscreenenter"",""1"",""7650""
","
","
","""event"",""trial"",""time""
""fullscreenenter"",""1"",""7650""
","
","","","-1","","","11","20708","6270","&#9789;","elianto","#f73b6a7A"," ","-1","0","-10","[]","0","0","4","","","","","","","",""
"pit-trial","86","662048","0.0-2.0-17.1-0.1","battery-v0.2","","""event"",""trial"",""time""
""fullscreenenter"",""1"",""7650""
","
","
","""event"",""trial"",""time""
""fullscreenenter"",""1"",""7650""
","
","","","-1","","","11","20708","6270","&#9789;","elianto","#f73b6a7A"," ","-1","0","-10","[]","0","0","4","","","","","","","",""
"pit-trial","87","666911","0.0-2.0-17.1-1.1","battery-v0.2","","""event"",""trial"",""time""
""fullscreenenter"",""1"",""7650""
","
","
","""event"",""trial"",""time""
""fullscreenenter"",""1"",""7650""
","
","","","-1","","","11","20708","6270","&#9789;","elianto","#f73b6a7A"," ","-1","0","-10","[]","0","0","4","","","","","","","",""
"pit-trial","88","671764","0.0-2.0-17.1-2.1","battery-v0.2","","""event"",""trial"",""time""
""fullscreenenter"",""1"",""7650""
","
","
","""event"",""trial"",""time""
""fullscreenenter"",""1"",""7650""
","
","","","-1","","","11","20708","6270","&#9789;","elianto","#f73b6a7A"," ","-1","0","-10","[]","0","0","4","","","","","","","",""
"pit-trial","89","676618","0.0-2.0-17.1-3.1","battery-v0.2","","""event"",""trial"",""time""
""fullscreenenter"",""1"",""7650""
","
","
","""event"",""trial"",""time""
""fullscreenenter"",""1"",""7650""
","
","","","-1","","","11","20708","6270","&#9789;","elianto","#f73b6a7A"," ","-1","0","0","[]","0","0","4","","","","","","","",""
"pit-trial","90","681470","0.0-2.0-17.1-4.1","battery-v0.2","","""event"",""trial"",""time""
""fullscreenenter"",""1"",""7650""
","
","
","""event"",""trial"",""time""
""fullscreenenter"",""1"",""7650""
","
","","","-1","","","11","20708","6270","&#9789;","elianto","#f73b6a7A"," ","-1","0","-10","[]","0","0","4","","","","","","","",""
"pit-trial","91","686324","0.0-2.0-17.2-0.2","battery-v0.2","","""event"",""trial"",""time""
""fullscreenenter"",""1"",""7650""
","
","
","""event"",""trial"",""time""
""fullscreenenter"",""1"",""7650""
","
","","","-1","","","11","20708","6270","&#9789;","elianto","#f73b6a7A"," ","-1","0","-10","[]","0","0","4","","","","","","","",""
"pit-trial","92","691177","0.0-2.0-17.2-1.2","battery-v0.2","","""event"",""trial"",""time""
""fullscreenenter"",""1"",""7650""
","
","
","""event"",""trial"",""time""
""fullscreenenter"",""1"",""7650""
","
","","","-1","","","11","20708","6270","&#9789;","elianto","#f73b6a7A"," ","-1","0","-10","[]","0","0","4","","","","","","","",""
"pit-trial","93","696031","0.0-2.0-17.2-2.2","battery-v0.2","","""event"",""trial"",""time""
""fullscreenenter"",""1"",""7650""
","
","
","""event"",""trial"",""time""
""fullscreenenter"",""1"",""7650""
","
","","","-1","","","11","20708","6270","&#9789;","elianto","#f73b6a7A"," ","-1","0","-10","[]","0","0","4","","","","","","","",""
"pit-trial","94","700884","0.0-2.0-17.2-3.2","battery-v0.2","","""event"",""trial"",""time""
""fullscreenenter"",""1"",""7650""
","
","
","""event"",""trial"",""time""
""fullscreenenter"",""1"",""7650""
","
","","","-1","","","11","20708","6270","&#9789;","elianto","#f73b6a7A"," ","-1","0","0","[]","0","0","4","","","","","","","",""
"pit-trial","95","705738","0.0-2.0-17.2-4.2","battery-v0.2","","""event"",""trial"",""time""
""fullscreenenter"",""1"",""7650""
","
","
","""event"",""trial"",""time""
""fullscreenenter"",""1"",""7650""
","
","","","-1","","","11","20708","6270","&#9789;","elianto","#f73b6a7A"," ","-1","0","-10","[]","0","0","4","","","","","","","",""
"pit-trial","96","710591","0.0-2.0-17.3-0.3","battery-v0.2","","""event"",""trial"",""time""
""fullscreenenter"",""1"",""7650""
","
","
","""event"",""trial"",""time""
""fullscreenenter"",""1"",""7650""
","
","","","-1","","","11","20708","6270","&#9789;","elianto","#f73b6a7A"," ","-1","0","-10","[]","0","0","4","","","","","","","",""
"pit-trial","97","715444","0.0-2.0-17.3-1.3","battery-v0.2","","""event"",""trial"",""time""
""fullscreenenter"",""1"",""7650""
","
","
","""event"",""trial"",""time""
""fullscreenenter"",""1"",""7650""
","
","","","-1","","","11","20708","6270","&#9789;","elianto","#f73b6a7A"," ","-1","0","-10","[]","0","0","4","","","","","","","",""
"pit-trial","98","720298","0.0-2.0-17.3-2.3","battery-v0.2","","""event"",""trial"",""time""
""fullscreenenter"",""1"",""7650""
","
","
","""event"",""trial"",""time""
""fullscreenenter"",""1"",""7650""
","
","","","-1","","","11","20708","6270","&#9789;","elianto","#f73b6a7A"," ","-1","0","-10","[]","0","0","4","","","","","","","",""
"pit-trial","99","725153","0.0-2.0-17.3-3.3","battery-v0.2","","""event"",""trial"",""time""
""fullscreenenter"",""1"",""7650""
","
","
","""event"",""trial"",""time""
""fullscreenenter"",""1"",""7650""
","
","","","-1","","","11","20708","6270","&#9789;","elianto","#f73b6a7A"," ","-1","0","0","[]","0","0","4","","","","","","","",""
"pit-trial","100","730006","0.0-2.0-17.3-4.3","battery-v0.2","","""event"",""trial"",""time""
""fullscreenenter"",""1"",""7650""
","
","
","""event"",""trial"",""time""
""fullscreenenter"",""1"",""7650""
","
","","","-1","","","11","20708","6270","&#9789;","elianto","#f73b6a7A"," ","-1","0","-10","[]","0","0","4","","","","","","","",""
"call-function","101","730008","0.0-2.0-18.0","battery-v0.2","","""event"",""trial"",""time""
""fullscreenenter"",""1"",""7650""
","
","
","""event"",""trial"",""time""
""fullscreenenter"",""1"",""7650""
","
","","","","","","","","","","","","","","","","","","","","","","","","","","",""
"pit-instructions","102","837768","0.0-2.0-19.0","battery-v0.2","","""event"",""trial"",""time""
""fullscreenenter"",""1"",""7650""
","
","
","""event"",""trial"",""time""
""fullscreenenter"",""1"",""7650""
","
","","[{""page_index"":0,""viewing_time"":6582},{""page_index"":1,""viewing_time"":11194.200000047684},{""page_index"":2,""viewing_time"":20552.700000047684},{""page_index"":3,""viewing_time"":8991.399999856949},{""page_index"":4,""viewing_time"":8786.900000095367},{""page_index"":5,""viewing_time"":15225.599999904633},{""page_index"":6,""viewing_time"":11798.200000047684},{""page_index"":7,""viewing_time"":20536.10000014305},{""page_index"":8,""viewing_time"":4092.5999999046326}]","107760","","","","","","","","","","","","","","","","","","","","","","","",""
"pit-comprehension","103","844112","0.0-2.0-20.0-0.0","battery-v0.2","","""event"",""trial"",""time""
""fullscreenenter"",""1"",""7650""
","
","
","""event"",""trial"",""time""
""fullscreenenter"",""1"",""7650""
","
","","","6342.400000095367","[""SPACE""]","0","11","20708","6270","","","","","","","","","","","","","","","","","","",""
"pit-instructions","104","847065","0.0-2.0-20.0-1.0","battery-v0.2","","""event"",""trial"",""time""
""fullscreenenter"",""1"",""7650""
","
","
","""event"",""trial"",""time""
""fullscreenenter"",""1"",""7650""
","
","","[{""page_index"":0,""viewing_time"":2923.2000000476837}]","2923.5999999046326","","","","","","","","","","","","","","","","","","","","","","","",""
"pit-comprehension","105","853813","0.0-2.0-21.0-0.0","battery-v0.2","","""event"",""trial"",""time""
""fullscreenenter"",""1"",""7650""
","
","
","""event"",""trial"",""time""
""fullscreenenter"",""1"",""7650""
","
","","","6745.099999904633","[""10""]","0","11","20708","6270","","","","","","","","","","","","","","","","","","",""
"pit-instructions","106","857191","0.0-2.0-21.0-1.0","battery-v0.2","","""event"",""trial"",""time""
""fullscreenenter"",""1"",""7650""
","
","
","""event"",""trial"",""time""
""fullscreenenter"",""1"",""7650""
","
","","[{""page_index"":0,""viewing_time"":3349.100000143051}]","3349.5","","","","","","","","","","","","","","","","","","","","","","","",""
"pit-comprehension","107","868462","0.0-2.0-22.0-0.0","battery-v0.2","","""event"",""trial"",""time""
""fullscreenenter"",""1"",""7650""
","
","
","""event"",""trial"",""time""
""fullscreenenter"",""1"",""7650""
","
","","","11268.399999856949","[""0""]","0","11","20708","6270","","","","","","","","","","","","","","","","","","",""
"pit-instructions","108","870989","0.0-2.0-22.0-1.0","battery-v0.2","","""event"",""trial"",""time""
""fullscreenenter"",""1"",""7650""
","
","
","""event"",""trial"",""time""
""fullscreenenter"",""1"",""7650""
","
","","[{""page_index"":0,""viewing_time"":2495.899999856949}]","2496.2000000476837","","","","","","","","","","","","","","","","","","","","","","","",""
"pit-comprehension","109","883829","0.0-2.0-23.0-0.0","battery-v0.2","","""event"",""trial"",""time""
""fullscreenenter"",""1"",""7650""
","
","
","""event"",""trial"",""time""
""fullscreenenter"",""1"",""7650""
","
","","","12837.199999809265","[""True""]","0","11","20708","6270","","","","","","","","","","","","","","","","","","",""
"pit-instructions","110","885190","0.0-2.0-23.0-1.0","battery-v0.2","","""event"",""trial"",""time""
""fullscreenenter"",""1"",""7650""
","
","
","""event"",""trial"",""time""
""fullscreenenter"",""1"",""7650""
","
","","[{""page_index"":0,""viewing_time"":1330.4000000953674}]","1330.7000000476837","","","","","","","","","","","","","","","","","","","","","","","",""
"pit-comprehension","111","892248","0.0-2.0-24.0-0.0","battery-v0.2","","""event"",""trial"",""time""
""fullscreenenter"",""1"",""7650""
","
","
","""event"",""trial"",""time""
""fullscreenenter"",""1"",""7650""
","
","","","7054.299999952316","[""True""]","0","11","20708","6270","","","","","","","","","","","","","","","","","","",""
"pit-instructions","112","895682","0.0-2.0-24.0-1.0","battery-v0.2","","""event"",""trial"",""time""
""fullscreenenter"",""1"",""7650""
","
","
","""event"",""trial"",""time""
""fullscreenenter"",""1"",""7650""
","
","","[{""page_index"":0,""viewing_time"":3405.2999999523163}]","3405.600000143051","","","","","","","","","","","","","","","","","","","","","","","",""
"pit-comprehension","113","902402","0.0-2.0-25.0-0.0","battery-v0.2","","""event"",""trial"",""time""
""fullscreenenter"",""1"",""7650""
","
","
","""event"",""trial"",""time""
""fullscreenenter"",""1"",""7650""
","
","","","6717.399999856949","[""True""]","0","11","20708","6270","","","","","","","","","","","","","","","","","","",""
"pit-instructions","114","908918","0.0-2.0-25.0-1.0","battery-v0.2","","""event"",""trial"",""time""
""fullscreenenter"",""1"",""7650""
","
","
","""event"",""trial"",""time""
""fullscreenenter"",""1"",""7650""
","
","","[{""page_index"":0,""viewing_time"":6486.700000047684}]","6487","","","","","","","","","","","","","","","","","","","","","","","",""
"pit-comprehension","115","914686","0.0-2.0-26.0-0.0","battery-v0.2","","""event"",""trial"",""time""
""fullscreenenter"",""1"",""7650""
","
","
","""event"",""trial"",""time""
""fullscreenenter"",""1"",""7650""
","
","","","5766.299999952316","[""False""]","0","11","20708","6270","","","","","","","","","","","","","","","","","","",""
"pit-instructions","116","918447","0.0-2.0-26.0-1.0","battery-v0.2","","""event"",""trial"",""time""
""fullscreenenter"",""1"",""7650""
","
","
","""event"",""trial"",""time""
""fullscreenenter"",""1"",""7650""
","
","","[{""page_index"":0,""viewing_time"":3723.5}]","3723.7999999523163","","","","","","","","","","","","","","","","","","","","","","","",""
"pit-instructions","117","937529","0.0-3.0","battery-v0.2","","""event"",""trial"",""time""
""fullscreenenter"",""1"",""7650""
","
","
","""event"",""trial"",""time""
""fullscreenenter"",""1"",""7650""
","
","","[{""page_index"":0,""viewing_time"":4635.700000047684},{""page_index"":1,""viewing_time"":6495.299999952316},{""page_index"":2,""viewing_time"":7949.599999904633}]","19080.900000095367","","","","","","","","","","","","","","","","","","","","","","","",""
"pit-trial","118","941020","0.0-4.0","battery-v0.2","","""event"",""trial"",""time""
""fullscreenenter"",""1"",""7650""
","
","
","""event"",""trial"",""time""
""fullscreenenter"",""1"",""7650""
","
","","","626","","","11","20708","6270","&#9730;","elianto","#3366ff99"," "," ","1","+10","[1476.1000001430511]","1","1","","","20708","1","1","1","win","go","0"
"pit-trial","119","945885","0.0-5.0","battery-v0.2","","""event"",""trial"",""time""
""fullscreenenter"",""1"",""7650""
","
","
","""event"",""trial"",""time""
""fullscreenenter"",""1"",""7650""
","
","","","-1","","","11","20708","6270","&#9728;","elianto","#f73b6a7A","-1","-1","1","0","[]","0","1","","","20708","2","0","4","lose","no-go","0"
"pit-trial","120","950741","0.0-6.0","battery-v0.2","","""event"",""trial"",""time""
""fullscreenenter"",""1"",""7650""
","
","
","""event"",""trial"",""time""
""fullscreenenter"",""1"",""7650""
","
","","","-1","","","11","20708","6270","&#9752;","elianto","#f73b6a7A"," ","-1","0","-10","[]","0","1","","","20708","3","3","3","lose","go","0"
"pit-trial","121","954706","0.0-7.0","battery-v0.2","","""event"",""trial"",""time""
""fullscreenenter"",""1"",""7650""
","
","
","""event"",""trial"",""time""
""fullscreenenter"",""1"",""7650""
","
","","","1097.8999998569489","","","11","20708","6270","&#9733;","elianto","#3366ff99","-1"," ","0","+10","[1952.1000001430511,2188.800000190735]","2","1","","","20708","4","2","2","win","no-go","1"
"pit-trial","122","959568","0.0-8.0","battery-v0.2","","""event"",""trial"",""time""
""fullscreenenter"",""1"",""7650""
","
","
","""event"",""trial"",""time""
""fullscreenenter"",""1"",""7650""
","
","","","-1","","","11","20708","6270","&#9752;","elianto","#f73b6a7A"," ","-1","0","-10","[]","0","1","","","20708","5","3","3","lose","go","0"
"pit-trial","123","963890","0.0-9.0","battery-v0.2","","""event"",""trial"",""time""
""fullscreenenter"",""1"",""7650""
","
","
","""event"",""trial"",""time""
""fullscreenenter"",""1"",""7650""
","
","","","1456.2000000476837","","","11","20708","6270","&#9730;","elianto","#3366ff99"," "," ","1","+10","[2312.2000000476837]","1","1","","","20708","6","1","1","win","go","0"
"pit-trial","124","967478","0.0-10.0","battery-v0.2","","""event"",""trial"",""time""
""fullscreenenter"",""1"",""7650""
","
","
","""event"",""trial"",""time""
""fullscreenenter"",""1"",""7650""
","
","","","727.5999999046326","","","11","20708","6270","&#9733;","elianto","#3366ff99","-1"," ","0","0","[1585.4000000953674,2823.2000000476837]","2","1","","","20708","7","2","2","win","no-go","0"
"pit-trial","125","972331","0.0-11.0","battery-v0.2","","""event"",""trial"",""time""
""fullscreenenter"",""1"",""7650""
","
","
","""event"",""trial"",""time""
""fullscreenenter"",""1"",""7650""
","
","","","-1","","","11","20708","6270","&#9728;","elianto","#f73b6a7A","-1","-1","1","0","[]","0","1","","","20708","8","0","4","lose","no-go","0"
"pit-trial","126","975640","0.0-12.0","battery-v0.2","","""event"",""trial"",""time""
""fullscreenenter"",""1"",""7650""
","
","
","""event"",""trial"",""time""
""fullscreenenter"",""1"",""7650""
","
","","","455.59999990463257","","","11","20708","6270","&#9730;","elianto","#3366ff99"," "," ","1","+10","[1305.9000000953674]","1","1","","","20708","9","1","1","win","go","0"
"pit-trial","127","980494","0.0-13.0","battery-v0.2","","""event"",""trial"",""time""
""fullscreenenter"",""1"",""7650""
","
","
","""event"",""trial"",""time""
""fullscreenenter"",""1"",""7650""
","
","","","-1","","","11","20708","6270","&#9752;","elianto","#f73b6a7A"," ","-1","0","-10","[]","0","1","","","20708","10","3","3","lose","go","0"
"pit-trial","128","983515","0.0-14.0","battery-v0.2","","""event"",""trial"",""time""
""fullscreenenter"",""1"",""7650""
","
","
","""event"",""trial"",""time""
""fullscreenenter"",""1"",""7650""
","
","","","167.5","","","11","20708","6270","&#9728;","elianto","#f73b6a7A","-1"," ","0","-10","[1017.7999999523163]","1","1","","","20708","11","0","4","lose","no-go","0"
"pit-trial","129","987109","0.0-15.0","battery-v0.2","","""event"",""trial"",""time""
""fullscreenenter"",""1"",""7650""
","
","
","""event"",""trial"",""time""
""fullscreenenter"",""1"",""7650""
","
","","","741.7000000476837","","","11","20708","6270","&#9733;","elianto","#3366ff99","-1"," ","0","+10","[1592.4000000953674]","1","1","","","20708","12","2","2","win","no-go","1"
"pit-trial","130","991963","0.0-16.0","battery-v0.2","","""event"",""trial"",""time""
""fullscreenenter"",""1"",""7650""
","
","
","""event"",""trial"",""time""
""fullscreenenter"",""1"",""7650""
","
","","","-1","","","11","20708","6270","&#9752;","elianto","#f73b6a7A"," ","-1","0","-10","[]","0","1","","","20708","13","3","3","lose","go","0"
"pit-trial","131","995265","0.0-17.0","battery-v0.2","","""event"",""trial"",""time""
""fullscreenenter"",""1"",""7650""
","
","
","""event"",""trial"",""time""
""fullscreenenter"",""1"",""7650""
","
","","","449.40000009536743","","","11","20708","6270","&#9730;","elianto","#3366ff99"," "," ","1","+10","[1299.7999999523163]","1","1","","","20708","14","1","1","win","go","0"
"pit-trial","132","998745","0.0-18.0","battery-v0.2","","""event"",""trial"",""time""
""fullscreenenter"",""1"",""7650""
","
","
","""event"",""trial"",""time""
""fullscreenenter"",""1"",""7650""
","
","","","624.7000000476837","","","11","20708","6270","&#9733;","elianto","#3366ff99","-1"," ","0","0","[1476.5]","1","1","","","20708","15","2","2","win","no-go","0"
"pit-trial","133","1003598","0.0-19.0","battery-v0.2","","""event"",""trial"",""time""
""fullscreenenter"",""1"",""7650""
","
","
","""event"",""trial"",""time""
""fullscreenenter"",""1"",""7650""
","
","","","-1","","","11","20708","6270","&#9728;","elianto","#f73b6a7A","-1","-1","1","0","[]","0","1","","","20708","16","0","4","lose","no-go","0"
"pit-trial","134","1006883","0.0-20.0","battery-v0.2","","""event"",""trial"",""time""
""fullscreenenter"",""1"",""7650""
","
","
","""event"",""trial"",""time""
""fullscreenenter"",""1"",""7650""
","
","","","433.7999999523163","","","11","20708","6270","&#9733;","elianto","#3366ff99","-1"," ","0","+10","[1283.6999998092651]","1","1","","","20708","17","2","2","win","no-go","1"
"pit-trial","135","1010403","0.0-21.0","battery-v0.2","","""event"",""trial"",""time""
""fullscreenenter"",""1"",""7650""
","
","
","""event"",""trial"",""time""
""fullscreenenter"",""1"",""7650""
","
","","","666.7999999523163","","","11","20708","6270","&#9730;","elianto","#3366ff99"," "," ","1","+10","[1518.7999999523163]","1","1","","","20708","18","1","1","win","go","0"
"pit-trial","136","1015256","0.0-22.0","battery-v0.2","","""event"",""trial"",""time""
""fullscreenenter"",""1"",""7650""
","
","
","""event"",""trial"",""time""
""fullscreenenter"",""1"",""7650""
","
","","","-1","","","11","20708","6270","&#9752;","elianto","#f73b6a7A"," ","-1","0","0","[]","0","1","","","20708","19","3","3","lose","go","1"
"pit-trial","137","1020109","0.0-23.0","battery-v0.2","","""event"",""trial"",""time""
""fullscreenenter"",""1"",""7650""
","
","
","""event"",""trial"",""time""
""fullscreenenter"",""1"",""7650""
","
","","","-1","","","11","20708","6270","&#9728;","elianto","#f73b6a7A","-1","-1","1","0","[]","0","1","","","20708","20","0","4","lose","no-go","0"
"pit-instructions","138","1032969","0.0-24.0","battery-v0.2","","""event"",""trial"",""time""
""fullscreenenter"",""1"",""7650""
","
","
","""event"",""trial"",""time""
""fullscreenenter"",""1"",""7650""
","
","","[{""page_index"":0,""viewing_time"":5871.899999856949},{""page_index"":1,""viewing_time"":6986.900000095367}]","12859","","","","","","","","","","","","","","","","","","","","","","","",""
"pit-trial","139","1037829","0.0-25.0","battery-v0.2","","""event"",""trial"",""time""
""fullscreenenter"",""1"",""7650""
","
","
","""event"",""trial"",""time""
""fullscreenenter"",""1"",""7650""
","
","","","-1","","","11","20708","6270","e","elianto","#f73b6a7A"," ","-1","0","-10","[]","0","2","","","20708","21","2","3","lose","go","0"
"pit-trial","140","1042697","0.0-26.0","battery-v0.2","","""event"",""trial"",""time""
""fullscreenenter"",""1"",""7650""
","
","
","""event"",""trial"",""time""
""fullscreenenter"",""1"",""7650""
","
","","","-1","","","11","20708","6270","j","elianto","#f73b6a7A"," ","-1","0","-10","[]","0","2","","","20708","22","0","3","lose","go","0"
"pit-trial","141","1045947","0.0-27.0","battery-v0.2","","""event"",""trial"",""time""
""fullscreenenter"",""1"",""7650""
","
","
","""event"",""trial"",""time""
""fullscreenenter"",""1"",""7650""
","
","","","378.90000009536743","","","11","20708","6270","d","elianto","#3366ff99","-1"," ","0","0","[1233.2000000476837]","1","2","","","20708","23","1","2","win","no-go","0"
"pit-trial","142","1049220","0.0-28.0","battery-v0.2","","""event"",""trial"",""time""
""fullscreenenter"",""1"",""7650""
","
","
","""event"",""trial"",""time""
""fullscreenenter"",""1"",""7650""
","
","","","414","","","11","20708","6270","w","elianto","#f73b6a7A","-1"," ","0","-10","[1265.5999999046326]","1","2","","","20708","24","3","4","lose","no-go","0"
"pit-trial","143","1054085","0.0-29.0","battery-v0.2","","""event"",""trial"",""time""
""fullscreenenter"",""1"",""7650""
","
","
","""event"",""trial"",""time""
""fullscreenenter"",""1"",""7650""
","
","","","-1","","","11","20708","6270","j","elianto","#f73b6a7A"," ","-1","0","-10","[]","0","2","","","20708","25","0","3","lose","go","0"
"pit-trial","144","1058955","0.0-30.0","battery-v0.2","","""event"",""trial"",""time""
""fullscreenenter"",""1"",""7650""
","
","
","""event"",""trial"",""time""
""fullscreenenter"",""1"",""7650""
","
","","","-1","","","11","20708","6270","e","elianto","#f73b6a7A"," ","-1","0","-10","[]","0","2","","","20708","26","2","3","lose","go","0"
"pit-trial","145","1062620","0.0-31.0","battery-v0.2","","""event"",""trial"",""time""
""fullscreenenter"",""1"",""7650""
","
","
","""event"",""trial"",""time""
""fullscreenenter"",""1"",""7650""
","
","","","808.1999998092651","","","11","20708","6270","d","elianto","#3366ff99","-1"," ","0","0","[1659]","1","2","","","20708","27","1","2","win","no-go","0"
"pit-trial","146","1067473","0.0-32.0","battery-v0.2","","""event"",""trial"",""time""
""fullscreenenter"",""1"",""7650""
","
","
","""event"",""trial"",""time""
""fullscreenenter"",""1"",""7650""
","
","","","-1","","","11","20708","6270","w","elianto","#f73b6a7A","-1","-1","1","0","[]","0","2","","","20708","28","3","4","lose","no-go","0"
"pit-trial","147","1071086","0.0-33.0","battery-v0.2","","""event"",""trial"",""time""
""fullscreenenter"",""1"",""7650""
","
","
","""event"",""trial"",""time""
""fullscreenenter"",""1"",""7650""
","
","","","759.0999999046326","","","11","20708","6270","d","elianto","#3366ff99","-1"," ","0","0","[1610.7999999523163]","1","2","","","20708","29","1","2","win","no-go","0"
"pit-trial","148","1075941","0.0-34.0","battery-v0.2","","""event"",""trial"",""time""
""fullscreenenter"",""1"",""7650""
","
","
","""event"",""trial"",""time""
""fullscreenenter"",""1"",""7650""
","
","","","-1","","","11","20708","6270","j","elianto","#f73b6a7A"," ","-1","0","0","[]","0","2","","","20708","30","0","3","lose","go","1"
"pit-trial","149","1080794","0.0-35.0","battery-v0.2","","""event"",""trial"",""time""
""fullscreenenter"",""1"",""7650""
","
","
","""event"",""trial"",""time""
""fullscreenenter"",""1"",""7650""
","
","","","-1","","","11","20708","6270","e","elianto","#f73b6a7A"," ","-1","0","-10","[]","0","2","","","20708","31","2","3","lose","go","0"
"pit-trial","150","1085649","0.0-36.0","battery-v0.2","","""event"",""trial"",""time""
""fullscreenenter"",""1"",""7650""
","
","
","""event"",""trial"",""time""
""fullscreenenter"",""1"",""7650""
","
","","","-1","","","11","20708","6270","w","elianto","#f73b6a7A","-1","-1","1","0","[]","0","2","","","20708","32","3","4","lose","no-go","0"
"pit-trial","151","1090503","0.0-37.0","battery-v0.2","","""event"",""trial"",""time""
""fullscreenenter"",""1"",""7650""
","
","
","""event"",""trial"",""time""
""fullscreenenter"",""1"",""7650""
","
","","","-1","","","11","20708","6270","e","elianto","#f73b6a7A"," ","-1","0","0","[]","0","2","","","20708","33","2","3","lose","go","1"
"pit-trial","152","1093901","0.0-38.0","battery-v0.2","","""event"",""trial"",""time""
""fullscreenenter"",""1"",""7650""
","
","
","""event"",""trial"",""time""
""fullscreenenter"",""1"",""7650""
","
","","","543.5","","","11","20708","6270","d","elianto","#3366ff99","-1"," ","0","0","[1393.7000000476837]","1","2","","","20708","34","1","2","win","no-go","0"
"pit-trial","153","1098753","0.0-39.0","battery-v0.2","","""event"",""trial"",""time""
""fullscreenenter"",""1"",""7650""
","
","
","""event"",""trial"",""time""
""fullscreenenter"",""1"",""7650""
","
","","","-1","","","11","20708","6270","j","elianto","#f73b6a7A"," ","-1","0","-10","[]","0","2","","","20708","35","0","3","lose","go","0"
"pit-trial","154","1103607","0.0-40.0","battery-v0.2","","""event"",""trial"",""time""
""fullscreenenter"",""1"",""7650""
","
","
","""event"",""trial"",""time""
""fullscreenenter"",""1"",""7650""
","
","","","-1","","","11","20708","6270","w","elianto","#f73b6a7A","-1","-1","1","0","[]","0","2","","","20708","36","3","4","lose","no-go","0"
"pit-trial","155","1108460","0.0-41.0","battery-v0.2","","""event"",""trial"",""time""
""fullscreenenter"",""1"",""7650""
","
","
","""event"",""trial"",""time""
""fullscreenenter"",""1"",""7650""
","
","","","-1","","","11","20708","6270","e","elianto","#f73b6a7A"," ","-1","0","-10","[]","0","2","","","20708","37","2","3","lose","go","0"
"pit-trial","156","1113314","0.0-42.0","battery-v0.2","","""event"",""trial"",""time""
""fullscreenenter"",""1"",""7650""
","
","
","""event"",""trial"",""time""
""fullscreenenter"",""1"",""7650""
","
","","","-1","","","11","20708","6270","w","elianto","#f73b6a7A","-1","-1","1","0","[]","0","2","","","20708","38","3","4","lose","no-go","0"
"pit-trial","157","1118168","0.0-43.0","battery-v0.2","","""event"",""trial"",""time""
""fullscreenenter"",""1"",""7650""
","
","
","""event"",""trial"",""time""
""fullscreenenter"",""1"",""7650""
","
","","","-1","","","11","20708","6270","d","elianto","#3366ff99","-1","-1","1","+10","[]","0","2","","","20708","39","1","2","win","no-go","0"
"pit-trial","158","1123022","0.0-44.0","battery-v0.2","","""event"",""trial"",""time""
""fullscreenenter"",""1"",""7650""
","
","
","""event"",""trial"",""time""
""fullscreenenter"",""1"",""7650""
","
","","","-1","","","11","20708","6270","j","elianto","#f73b6a7A"," ","-1","0","-10","[]","0","2","","","20708","40","0","3","lose","go","0"
"pit-trial","159","1126065","0.0-45.0","battery-v0.2","","""event"",""trial"",""time""
""fullscreenenter"",""1"",""7650""
","
","
","""event"",""trial"",""time""
""fullscreenenter"",""1"",""7650""
","
","","","189.5","","","11","20708","6270","j","elianto","#f73b6a7A"," "," ","1","0","[1041]","1","2","","","20708","41","0","3","lose","go","0"
"pit-trial","160","1129517","0.0-46.0","battery-v0.2","","""event"",""trial"",""time""
""fullscreenenter"",""1"",""7650""
","
","
","""event"",""trial"",""time""
""fullscreenenter"",""1"",""7650""
","
","","","597.3999998569489","","","11","20708","6270","d","elianto","#3366ff99","-1"," ","0","0","[1449.2000000476837]","1","2","","","20708","42","1","2","win","no-go","0"
"pit-trial","161","1134370","0.0-47.0","battery-v0.2","","""event"",""trial"",""time""
""fullscreenenter"",""1"",""7650""
","
","
","""event"",""trial"",""time""
""fullscreenenter"",""1"",""7650""
","
","","","-1","","","11","20708","6270","w","elianto","#f73b6a7A","-1","-1","1","0","[]","0","2","","","20708","43","3","4","lose","no-go","0"
"pit-trial","162","1139223","0.0-48.0","battery-v0.2","","""event"",""trial"",""time""
""fullscreenenter"",""1"",""7650""
","
","
","""event"",""trial"",""time""
""fullscreenenter"",""1"",""7650""
","
","","","-1","","","11","20708","6270","e","elianto","#f73b6a7A"," ","-1","0","-10","[]","0","2","","","20708","44","2","3","lose","go","0"
"pit-trial","163","1144077","0.0-49.0","battery-v0.2","","""event"",""trial"",""time""
""fullscreenenter"",""1"",""7650""
","
","
","""event"",""trial"",""time""
""fullscreenenter"",""1"",""7650""
","
","","","-1","","","11","20708","6270","e","elianto","#f73b6a7A"," ","-1","0","0","[]","0","2","","","20708","45","2","3","lose","go","1"
"pit-trial","164","1148930","0.0-50.0","battery-v0.2","","""event"",""trial"",""time""
""fullscreenenter"",""1"",""7650""
","
","
","""event"",""trial"",""time""
""fullscreenenter"",""1"",""7650""
","
","","","-1","","","11","20708","6270","j","elianto","#f73b6a7A"," ","-1","0","-10","[]","0","2","","","20708","46","0","3","lose","go","0"
"pit-trial","165","1153784","0.0-51.0","battery-v0.2","","""event"",""trial"",""time""
""fullscreenenter"",""1"",""7650""
","
","
","""event"",""trial"",""time""
""fullscreenenter"",""1"",""7650""
","
","","","-1","","","11","20708","6270","w","elianto","#f73b6a7A","-1","-1","1","-10","[]","0","2","","","20708","47","3","4","lose","no-go","1"
"pit-trial","166","1157084","0.0-52.0","battery-v0.2","","""event"",""trial"",""time""
""fullscreenenter"",""1"",""7650""
","
","
","""event"",""trial"",""time""
""fullscreenenter"",""1"",""7650""
","
","","","446.5","","","11","20708","6270","d","elianto","#3366ff99","-1"," ","0","0","[1296.7000000476837]","1","2","","","20708","48","1","2","win","no-go","0"
"pit-trial","167","1161937","0.0-53.0","battery-v0.2","","""event"",""trial"",""time""
""fullscreenenter"",""1"",""7650""
","
","
","""event"",""trial"",""time""
""fullscreenenter"",""1"",""7650""
","
","","","-1","","","11","20708","6270","w","elianto","#f73b6a7A","-1","-1","1","-10","[]","0","2","","","20708","49","3","4","lose","no-go","1"
"pit-trial","168","1165458","0.0-54.0","battery-v0.2","","""event"",""trial"",""time""
""fullscreenenter"",""1"",""7650""
","
","
","""event"",""trial"",""time""
""fullscreenenter"",""1"",""7650""
","
","","","667.7999999523163","","","11","20708","6270","d","elianto","#3366ff99","-1"," ","0","0","[1518.1000001430511]","1","2","","","20708","50","1","2","win","no-go","0"
"pit-trial","169","1170312","0.0-55.0","battery-v0.2","","""event"",""trial"",""time""
""fullscreenenter"",""1"",""7650""
","
","
","""event"",""trial"",""time""
""fullscreenenter"",""1"",""7650""
","
","","","-1","","","11","20708","6270","e","elianto","#f73b6a7A"," ","-1","0","-10","[]","0","2","","","20708","51","2","3","lose","go","0"
"pit-trial","170","1175166","0.0-56.0","battery-v0.2","","""event"",""trial"",""time""
""fullscreenenter"",""1"",""7650""
","
","
","""event"",""trial"",""time""
""fullscreenenter"",""1"",""7650""
","
","","","-1","","","11","20708","6270","j","elianto","#f73b6a7A"," ","-1","0","-10","[]","0","2","","","20708","52","0","3","lose","go","0"
"pit-trial","171","1180019","0.0-57.0","battery-v0.2","","""event"",""trial"",""time""
""fullscreenenter"",""1"",""7650""
","
","
","""event"",""trial"",""time""
""fullscreenenter"",""1"",""7650""
","
","","","-1","","","11","20708","6270","e","elianto","#f73b6a7A"," ","-1","0","-10","[]","0","2","","","20708","53","2","3","lose","go","0"
"pit-trial","172","1184873","0.0-58.0","battery-v0.2","","""event"",""trial"",""time""
""fullscreenenter"",""1"",""7650""
","
","
","""event"",""trial"",""time""
""fullscreenenter"",""1"",""7650""
","
","","","-1","","","11","20708","6270","j","elianto","#f73b6a7A"," ","-1","0","0","[]","0","2","","","20708","54","0","3","lose","go","1"
"pit-trial","173","1189729","0.0-59.0","battery-v0.2","","""event"",""trial"",""time""
""fullscreenenter"",""1"",""7650""
","
","
","""event"",""trial"",""time""
""fullscreenenter"",""1"",""7650""
","
","","","-1","","","11","20708","6270","w","elianto","#f73b6a7A","-1","-1","1","0","[]","0","2","","","20708","55","3","4","lose","no-go","0"
"pit-trial","174","1193170","0.0-60.0","battery-v0.2","","""event"",""trial"",""time""
""fullscreenenter"",""1"",""7650""
","
","
","""event"",""trial"",""time""
""fullscreenenter"",""1"",""7650""
","
","","","587.1999998092651","","","11","20708","6270","d","elianto","#3366ff99","-1"," ","0","0","[1438.8999998569489]","1","2","","","20708","56","1","2","win","no-go","0"
"pit-trial","175","1198024","0.0-61.0","battery-v0.2","","""event"",""trial"",""time""
""fullscreenenter"",""1"",""7650""
","
","
","""event"",""trial"",""time""
""fullscreenenter"",""1"",""7650""
","
","","","-1","","","11","20708","6270","w","elianto","#f73b6a7A","-1","-1","1","0","[]","0","2","","","20708","57","3","4","lose","no-go","0"
"pit-trial","176","1201644","0.0-62.0","battery-v0.2","","""event"",""trial"",""time""
""fullscreenenter"",""1"",""7650""
","
","
","""event"",""trial"",""time""
""fullscreenenter"",""1"",""7650""
","
","","","766.5","","","11","20708","6270","s","elianto","#3366ff99"," "," ","1","+10","[1617.4000000953674]","1","2","","","20708","58","4","1","win","go","0"
"pit-trial","177","1206505","0.0-63.0","battery-v0.2","","""event"",""trial"",""time""
""fullscreenenter"",""1"",""7650""
","
","
","""event"",""trial"",""time""
""fullscreenenter"",""1"",""7650""
","
","","","-1","","","11","20708","6270","j","elianto","#f73b6a7A"," ","-1","0","-10","[]","0","2","","","20708","59","0","3","lose","go","0"
"pit-trial","178","1211359","0.0-64.0","battery-v0.2","","""event"",""trial"",""time""
""fullscreenenter"",""1"",""7650""
","
","
","""event"",""trial"",""time""
""fullscreenenter"",""1"",""7650""
","
","","","-1","","","11","20708","6270","e","elianto","#f73b6a7A"," ","-1","0","-10","[]","0","2","","","20708","60","2","3","lose","go","0"
"pit-trial","179","1214783","0.0-65.0","battery-v0.2","","""event"",""trial"",""time""
""fullscreenenter"",""1"",""7650""
","
","
","""event"",""trial"",""time""
""fullscreenenter"",""1"",""7650""
","
","","","570.4000000953674","","","11","20708","6270","s","elianto","#3366ff99"," "," ","1","0","[1420.9000000953674]","1","2","","","20708","61","4","1","win","go","1"
"pit-trial","180","1218454","0.0-66.0","battery-v0.2","","""event"",""trial"",""time""
""fullscreenenter"",""1"",""7650""
","
","
","""event"",""trial"",""time""
""fullscreenenter"",""1"",""7650""
","
","","","818.0999999046326","","","11","20708","6270","d","elianto","#3366ff99","-1"," ","0","0","[1668.5]","1","2","","","20708","62","1","2","win","no-go","0"
"pit-trial","181","1223307","0.0-67.0","battery-v0.2","","""event"",""trial"",""time""
""fullscreenenter"",""1"",""7650""
","
","
","""event"",""trial"",""time""
""fullscreenenter"",""1"",""7650""
","
","","","-1","","","11","20708","6270","w","elianto","#f73b6a7A","-1","-1","1","0","[]","0","2","","","20708","63","3","4","lose","no-go","0"
"pit-trial","182","1228160","0.0-68.0","battery-v0.2","","""event"",""trial"",""time""
""fullscreenenter"",""1"",""7650""
","
","
","""event"",""trial"",""time""
""fullscreenenter"",""1"",""7650""
","
","","","-1","","","11","20708","6270","e","elianto","#f73b6a7A"," ","-1","0","-10","[]","0","2","","","20708","64","2","3","lose","go","0"
"pit-trial","183","1231744","0.0-69.0","battery-v0.2","","""event"",""trial"",""time""
""fullscreenenter"",""1"",""7650""
","
","
","""event"",""trial"",""time""
""fullscreenenter"",""1"",""7650""
","
","","","731.2000000476837","","","11","20708","6270","d","elianto","#3366ff99","-1"," ","0","0","[1582.4000000953674]","1","2","","","20708","65","1","2","win","no-go","0"
"pit-trial","184","1235058","0.0-70.0","battery-v0.2","","""event"",""trial"",""time""
""fullscreenenter"",""1"",""7650""
","
","
","""event"",""trial"",""time""
""fullscreenenter"",""1"",""7650""
","
","","","460.59999990463257","","","11","20708","6270","s","elianto","#3366ff99"," "," ","1","0","[1311.0999999046326]","1","2","","","20708","66","4","1","win","go","1"
"pit-trial","185","1238108","0.0-71.0","battery-v0.2","","""event"",""trial"",""time""
""fullscreenenter"",""1"",""7650""
","
","
","""event"",""trial"",""time""
""fullscreenenter"",""1"",""7650""
","
","","","197.5","","","11","20708","6270","w","elianto","#f73b6a7A","-1"," ","0","-10","[1047.5]","1","2","","","20708","67","3","4","lose","no-go","0"
"pit-trial","186","1241915","0.0-72.0","battery-v0.2","","""event"",""trial"",""time""
""fullscreenenter"",""1"",""7650""
","
","
","""event"",""trial"",""time""
""fullscreenenter"",""1"",""7650""
","
","","","954","","","11","20708","6270","p","elianto","#3366ff99","-1"," ","0","+10","[1804.3999998569489]","1","2","","","20708","68","5","2","win","no-go","1"
"pit-trial","187","1245323","0.0-73.0","battery-v0.2","","""event"",""trial"",""time""
""fullscreenenter"",""1"",""7650""
","
","
","""event"",""trial"",""time""
""fullscreenenter"",""1"",""7650""
","
","","","555.3999998569489","","","11","20708","6270","s","elianto","#3366ff99"," "," ","1","+10","[1405.7000000476837]","1","2","","","20708","69","4","1","win","go","0"
"pit-trial","188","1248754","0.0-74.0","battery-v0.2","","""event"",""trial"",""time""
""fullscreenenter"",""1"",""7650""
","
","
","""event"",""trial"",""time""
""fullscreenenter"",""1"",""7650""
","
","","","577.2999999523163","","","11","20708","6270","d","elianto","#3366ff99","-1"," ","0","+10","[1428.0999999046326]","1","2","","","20708","70","1","2","win","no-go","1"
"pit-trial","189","1252035","0.0-75.0","battery-v0.2","","""event"",""trial"",""time""
""fullscreenenter"",""1"",""7650""
","
","
","""event"",""trial"",""time""
""fullscreenenter"",""1"",""7650""
","
","","","428.10000014305115","","","11","20708","6270","p","elianto","#3366ff99","-1"," ","0","0","[1278.1000001430511]","1","2","","","20708","71","5","2","win","no-go","0"
"pit-trial","190","1256888","0.0-76.0","battery-v0.2","","""event"",""trial"",""time""
""fullscreenenter"",""1"",""7650""
","
","
","""event"",""trial"",""time""
""fullscreenenter"",""1"",""7650""
","
","","","-1","","","11","20708","6270","e","elianto","#f73b6a7A"," ","-1","0","-10","[]","0","2","","","20708","72","2","3","lose","go","0"
"pit-trial","191","1260668","0.0-77.0","battery-v0.2","","""event"",""trial"",""time""
""fullscreenenter"",""1"",""7650""
","
","
","""event"",""trial"",""time""
""fullscreenenter"",""1"",""7650""
","
","","","925.4000000953674","","","11","20708","6270","p","elianto","#3366ff99","-1"," ","0","+10","[1776.7999999523163]","1","2","","","20708","73","5","2","win","no-go","1"
"pit-trial","192","1264038","0.0-78.0","battery-v0.2","","""event"",""trial"",""time""
""fullscreenenter"",""1"",""7650""
","
","
","""event"",""trial"",""time""
""fullscreenenter"",""1"",""7650""
","
","","","516.0999999046326","","","11","20708","6270","d","elianto","#3366ff99","-1"," ","0","+10","[1367.5999999046326]","1","2","","","20708","74","1","2","win","no-go","1"
"pit-trial","193","1268891","0.0-79.0","battery-v0.2","","""event"",""trial"",""time""
""fullscreenenter"",""1"",""7650""
","
","
","""event"",""trial"",""time""
""fullscreenenter"",""1"",""7650""
","
","","","-1","","","11","20708","6270","w","elianto","#f73b6a7A","-1","-1","1","0","[]","0","2","","","20708","75","3","4","lose","no-go","0"
"pit-trial","194","1272555","0.0-80.0","battery-v0.2","","""event"",""trial"",""time""
""fullscreenenter"",""1"",""7650""
","
","
","""event"",""trial"",""time""
""fullscreenenter"",""1"",""7650""
","
","","","811","","","11","20708","6270","s","elianto","#3366ff99"," "," ","1","+10","[1661,1788.3000001907349]","2","2","","","20708","76","4","1","win","go","0"
"pit-trial","195","1275895","0.0-81.0","battery-v0.2","","""event"",""trial"",""time""
""fullscreenenter"",""1"",""7650""
","
","
","""event"",""trial"",""time""
""fullscreenenter"",""1"",""7650""
","
","","","487.5","","","11","20708","6270","s","elianto","#3366ff99"," "," ","1","+10","[1338.2000000476837]","1","2","","","20708","77","4","1","win","go","0"
"pit-trial","196","1279024","0.0-82.0","battery-v0.2","","""event"",""trial"",""time""
""fullscreenenter"",""1"",""7650""
","
","
","""event"",""trial"",""time""
""fullscreenenter"",""1"",""7650""
","
","","","275.39999985694885","","","11","20708","6270","p","elianto","#3366ff99","-1"," ","0","0","[1126.5]","1","2","","","20708","78","5","2","win","no-go","0"
"pit-trial","197","1281934","0.0-83.0","battery-v0.2","","""event"",""trial"",""time""
""fullscreenenter"",""1"",""7650""
","
","
","""event"",""trial"",""time""
""fullscreenenter"",""1"",""7650""
","
","","","54.90000009536743","","","11","20708","6270","w","elianto","#f73b6a7A","-1"," ","0","-10","[905.7000000476837]","1","2","","","20708","79","3","4","lose","no-go","0"
"pit-trial","198","1285627","0.0-84.0","battery-v0.2","","""event"",""trial"",""time""
""fullscreenenter"",""1"",""7650""
","
","
","""event"",""trial"",""time""
""fullscreenenter"",""1"",""7650""
","
","","","840.2999999523163","","","11","20708","6270","s","elianto","#3366ff99"," "," ","1","+10","[1691.1999998092651]","1","2","","","20708","80","4","1","win","go","0"
"pit-trial","199","1289188","0.0-85.0","battery-v0.2","","""event"",""trial"",""time""
""fullscreenenter"",""1"",""7650""
","
","
","""event"",""trial"",""time""
""fullscreenenter"",""1"",""7650""
","
","","","705.9000000953674","","","11","20708","6270","s","elianto","#3366ff99"," "," ","1","+10","[1557.9000000953674]","1","2","","","20708","81","4","1","win","go","0"
"pit-trial","200","1292598","0.0-86.0","battery-v0.2","","""event"",""trial"",""time""
""fullscreenenter"",""1"",""7650""
","
","
","""event"",""trial"",""time""
""fullscreenenter"",""1"",""7650""
","
","","","556.7999999523163","","","11","20708","6270","p","elianto","#3366ff99","-1"," ","0","0","[1407.4000000953674]","1","2","","","20708","82","5","2","win","no-go","0"
"pit-trial","201","1297452","0.0-87.0","battery-v0.2","","""event"",""trial"",""time""
""fullscreenenter"",""1"",""7650""
","
","
","""event"",""trial"",""time""
""fullscreenenter"",""1"",""7650""
","
","","","-1","","","11","20708","6270","a","elianto","#f73b6a7A","-1","-1","1","-10","[]","0","2","","","20708","83","7","4","lose","no-go","1"
"pit-trial","202","1302306","0.0-88.0","battery-v0.2","","""event"",""trial"",""time""
""fullscreenenter"",""1"",""7650""
","
","
","""event"",""trial"",""time""
""fullscreenenter"",""1"",""7650""
","
","","","-1","","","11","20708","6270","w","elianto","#f73b6a7A","-1","-1","1","0","[]","0","2","","","20708","84","3","4","lose","no-go","0"
"pit-trial","203","1305647","0.0-89.0","battery-v0.2","","""event"",""trial"",""time""
""fullscreenenter"",""1"",""7650""
","
","
","""event"",""trial"",""time""
""fullscreenenter"",""1"",""7650""
","
","","","487.59999990463257","","","11","20708","6270","p","elianto","#3366ff99","-1"," ","0","0","[1338.0999999046326]","1","2","","","20708","85","5","2","win","no-go","0"
"pit-trial","204","1310500","0.0-90.0","battery-v0.2","","""event"",""trial"",""time""
""fullscreenenter"",""1"",""7650""
","
","
","""event"",""trial"",""time""
""fullscreenenter"",""1"",""7650""
","
","","","-1","","","11","20708","6270","g","elianto","#f73b6a7A"," ","-1","0","-10","[]","0","2","","","20708","86","6","3","lose","go","0"
"pit-trial","205","1313858","0.0-91.0","battery-v0.2","","""event"",""trial"",""time""
""fullscreenenter"",""1"",""7650""
","
","
","""event"",""trial"",""time""
""fullscreenenter"",""1"",""7650""
","
","","","504","","","11","20708","6270","s","elianto","#3366ff99"," "," ","1","+10","[1355.7000000476837]","1","2","","","20708","87","4","1","win","go","0"
"pit-trial","206","1318712","0.0-92.0","battery-v0.2","","""event"",""trial"",""time""
""fullscreenenter"",""1"",""7650""
","
","
","""event"",""trial"",""time""
""fullscreenenter"",""1"",""7650""
","
","","","-1","","","11","20708","6270","a","elianto","#f73b6a7A","-1","-1","1","0","[]","0","2","","","20708","88","7","4","lose","no-go","0"
"pit-trial","207","1322132","0.0-93.0","battery-v0.2","","""event"",""trial"",""time""
""fullscreenenter"",""1"",""7650""
","
","
","""event"",""trial"",""time""
""fullscreenenter"",""1"",""7650""
","
","","","566.4000000953674","","","11","20708","6270","a","elianto","#f73b6a7A","-1"," ","0","0","[1416.7000000476837]","1","2","","","20708","89","7","4","lose","no-go","1"
"pit-trial","208","1325776","0.0-94.0","battery-v0.2","","""event"",""trial"",""time""
""fullscreenenter"",""1"",""7650""
","
","
","""event"",""trial"",""time""
""fullscreenenter"",""1"",""7650""
","
","","","789.5999999046326","","","11","20708","6270","g","elianto","#f73b6a7A"," "," ","1","0","[1641.2999999523163]","1","2","","","20708","90","6","3","lose","go","0"
"pit-trial","209","1329225","0.0-95.0","battery-v0.2","","""event"",""trial"",""time""
""fullscreenenter"",""1"",""7650""
","
","
","""event"",""trial"",""time""
""fullscreenenter"",""1"",""7650""
","
","","","596.2999999523163","","","11","20708","6270","s","elianto","#3366ff99"," "," ","1","+10","[1446.5]","1","2","","","20708","91","4","1","win","go","0"
"pit-trial","210","1332496","0.0-96.0","battery-v0.2","","""event"",""trial"",""time""
""fullscreenenter"",""1"",""7650""
","
","
","""event"",""trial"",""time""
""fullscreenenter"",""1"",""7650""
","
","","","417.60000014305115","","","11","20708","6270","p","elianto","#3366ff99","-1"," ","0","0","[1268.1000001430511]","1","2","","","20708","92","5","2","win","no-go","0"
"pit-trial","211","1335576","0.0-97.0","battery-v0.2","","""event"",""trial"",""time""
""fullscreenenter"",""1"",""7650""
","
","
","""event"",""trial"",""time""
""fullscreenenter"",""1"",""7650""
","
","","","226","","","11","20708","6270","l","elianto","#3366ff99"," "," ","1","+10","[1076.7000000476837]","1","2","","","20708","93","8","1","win","go","0"
"pit-trial","212","1339462","0.0-98.0","battery-v0.2","","""event"",""trial"",""time""
""fullscreenenter"",""1"",""7650""
","
","
","""event"",""trial"",""time""
""fullscreenenter"",""1"",""7650""
","
","","","1032.5999999046326","","","11","20708","6270","g","elianto","#f73b6a7A"," "," ","1","-10","[1883.4000000953674]","1","2","","","20708","94","6","3","lose","go","1"
"pit-trial","213","1342961","0.0-99.0","battery-v0.2","","""event"",""trial"",""time""
""fullscreenenter"",""1"",""7650""
","
","
","""event"",""trial"",""time""
""fullscreenenter"",""1"",""7650""
","
","","","645.4000000953674","","","11","20708","6270","p","elianto","#3366ff99","-1"," ","0","0","[1495.9000000953674]","1","2","","","20708","95","5","2","win","no-go","0"
"pit-trial","214","1347813","0.0-100.0","battery-v0.2","","""event"",""trial"",""time""
""fullscreenenter"",""1"",""7650""
","
","
","""event"",""trial"",""time""
""fullscreenenter"",""1"",""7650""
","
","","","-1","","","11","20708","6270","a","elianto","#f73b6a7A","-1","-1","1","0","[]","0","2","","","20708","96","7","4","lose","no-go","0"
"pit-trial","215","1351353","0.0-101.0","battery-v0.2","","""event"",""trial"",""time""
""fullscreenenter"",""1"",""7650""
","
","
","""event"",""trial"",""time""
""fullscreenenter"",""1"",""7650""
","
","","","686.3000001907349","","","11","20708","6270","l","elianto","#3366ff99"," "," ","1","0","[1536.9000000953674]","1","2","","","20708","97","8","1","win","go","1"
"pit-trial","216","1356207","0.0-102.0","battery-v0.2","","""event"",""trial"",""time""
""fullscreenenter"",""1"",""7650""
","
","
","""event"",""trial"",""time""
""fullscreenenter"",""1"",""7650""
","
","","","-1","","","11","20708","6270","a","elianto","#f73b6a7A","-1","-1","1","0","[]","0","2","","","20708","98","7","4","lose","no-go","0"
"pit-trial","217","1360218","0.0-103.0","battery-v0.2","","""event"",""trial"",""time""
""fullscreenenter"",""1"",""7650""
","
","
","""event"",""trial"",""time""
""fullscreenenter"",""1"",""7650""
","
","","","1159.0999999046326","","","11","20708","6270","g","elianto","#f73b6a7A"," "," ","1","0","[2009.6999998092651]","1","2","","","20708","99","6","3","lose","go","0"
"pit-trial","218","1363632","0.0-104.0","battery-v0.2","","""event"",""trial"",""time""
""fullscreenenter"",""1"",""7650""
","
","
","""event"",""trial"",""time""
""fullscreenenter"",""1"",""7650""
","
","","","559.8999998569489","","","11","20708","6270","p","elianto","#3366ff99","-1"," ","0","0","[1411.1000001430511]","1","2","","","20708","100","5","2","win","no-go","0"
"pit-trial","219","1366931","0.0-105.0","battery-v0.2","","""event"",""trial"",""time""
""fullscreenenter"",""1"",""7650""
","
","
","""event"",""trial"",""time""
""fullscreenenter"",""1"",""7650""
","
","","","444.7999999523163","","","11","20708","6270","a","elianto","#f73b6a7A","-1"," ","0","0","[1296.5]","1","2","","","20708","101","7","4","lose","no-go","1"
"pit-trial","220","1370367","0.0-106.0","battery-v0.2","","""event"",""trial"",""time""
""fullscreenenter"",""1"",""7650""
","
","
","""event"",""trial"",""time""
""fullscreenenter"",""1"",""7650""
","
","","","582.9000000953674","","","11","20708","6270","u","elianto","#3366ff99"," "," ","1","+10","[1433]","1","2","","","20708","102","9","1","win","go","0"
"pit-trial","221","1373688","0.0-107.0","battery-v0.2","","""event"",""trial"",""time""
""fullscreenenter"",""1"",""7650""
","
","
","""event"",""trial"",""time""
""fullscreenenter"",""1"",""7650""
","
","","","466.2000000476837","","","11","20708","6270","p","elianto","#3366ff99","-1"," ","0","0","[1317.2999999523163]","1","2","","","20708","103","5","2","win","no-go","0"
"pit-trial","222","1377004","0.0-108.0","battery-v0.2","","""event"",""trial"",""time""
""fullscreenenter"",""1"",""7650""
","
","
","""event"",""trial"",""time""
""fullscreenenter"",""1"",""7650""
","
","","","463.7000000476837","","","11","20708","6270","l","elianto","#3366ff99"," "," ","1","+10","[1313.7999999523163]","1","2","","","20708","104","8","1","win","go","0"
"pit-trial","223","1380323","0.0-109.0","battery-v0.2","","""event"",""trial"",""time""
""fullscreenenter"",""1"",""7650""
","
","
","""event"",""trial"",""time""
""fullscreenenter"",""1"",""7650""
","
","","","466.7999999523163","","","11","20708","6270","l","elianto","#3366ff99"," "," ","1","0","[1316.7999999523163]","1","2","","","20708","105","8","1","win","go","1"
"pit-trial","224","1383328","0.0-110.0","battery-v0.2","","""event"",""trial"",""time""
""fullscreenenter"",""1"",""7650""
","
","
","""event"",""trial"",""time""
""fullscreenenter"",""1"",""7650""
","
","","","152.09999990463257","","","11","20708","6270","g","elianto","#f73b6a7A"," "," ","1","0","[1003.0999999046326]","1","2","","","20708","106","6","3","lose","go","0"
"pit-trial","225","1386822","0.0-111.0","battery-v0.2","","""event"",""trial"",""time""
""fullscreenenter"",""1"",""7650""
","
","
","""event"",""trial"",""time""
""fullscreenenter"",""1"",""7650""
","
","","","641.8000001907349","","","11","20708","6270","s","elianto","#3366ff99"," "," ","1","+10","[783.5,1492.6000001430511]","2","2","","","20708","107","4","1","win","go","0"
"pit-trial","226","1390272","0.0-112.0","battery-v0.2","","""event"",""trial"",""time""
""fullscreenenter"",""1"",""7650""
","
","
","""event"",""trial"",""time""
""fullscreenenter"",""1"",""7650""
","
","","","594.7000000476837","","","11","20708","6270","u","elianto","#3366ff99"," "," ","1","+10","[1446]","1","2","","","20708","108","9","1","win","go","0"
"pit-trial","227","1393570","0.0-113.0","battery-v0.2","","""event"",""trial"",""time""
""fullscreenenter"",""1"",""7650""
","
","
","""event"",""trial"",""time""
""fullscreenenter"",""1"",""7650""
","
","","","445.2999999523163","","","11","20708","6270","p","elianto","#3366ff99","-1"," ","0","0","[1296]","1","2","","","20708","109","5","2","win","no-go","0"
"pit-trial","228","1396431","0.0-114.0","battery-v0.2","","""event"",""trial"",""time""
""fullscreenenter"",""1"",""7650""
","
","
","""event"",""trial"",""time""
""fullscreenenter"",""1"",""7650""
","
","","","7.1000001430511475","","","11","20708","6270","l","elianto","#3366ff99"," "," ","1","+10","[858.6000001430511]","1","2","","","20708","110","8","1","win","go","0"
"pit-trial","229","1399288","0.0-115.0","battery-v0.2","","""event"",""trial"",""time""
""fullscreenenter"",""1"",""7650""
","
","
","""event"",""trial"",""time""
""fullscreenenter"",""1"",""7650""
","
","","","2.799999952316284","","","11","20708","6270","g","elianto","#f73b6a7A"," "," ","1","0","[854.2999999523163]","1","2","","","20708","111","6","3","lose","go","0"
"pit-trial","230","1402216","0.0-116.0","battery-v0.2","","""event"",""trial"",""time""
""fullscreenenter"",""1"",""7650""
","
","
","""event"",""trial"",""time""
""fullscreenenter"",""1"",""7650""
","
","","","61.09999990463257","","","11","20708","6270","u","elianto","#3366ff99"," "," ","1","+10","[912.2999999523163]","1","2","","","20708","112","9","1","win","go","0"
"pit-trial","231","1405224","0.0-117.0","battery-v0.2","","""event"",""trial"",""time""
""fullscreenenter"",""1"",""7650""
","
","
","""event"",""trial"",""time""
""fullscreenenter"",""1"",""7650""
","
","","","153.80000019073486","","","11","20708","6270","g","elianto","#f73b6a7A"," "," ","1","0","[1005.2999999523163]","1","2","","","20708","113","6","3","lose","go","0"
"pit-trial","232","1408432","0.0-118.0","battery-v0.2","","""event"",""trial"",""time""
""fullscreenenter"",""1"",""7650""
","
","
","""event"",""trial"",""time""
""fullscreenenter"",""1"",""7650""
","
","","","353.59999990463257","","","11","20708","6270","l","elianto","#3366ff99"," "," ","1","+10","[1204.3999998569489]","1","2","","","20708","114","8","1","win","go","0"
"pit-trial","233","1411390","0.0-119.0","battery-v0.2","","""event"",""trial"",""time""
""fullscreenenter"",""1"",""7650""
","
","
","""event"",""trial"",""time""
""fullscreenenter"",""1"",""7650""
","
","","","104.79999995231628","","","11","20708","6270","u","elianto","#3366ff99"," "," ","1","+10","[955.0999999046326]","1","2","","","20708","115","9","1","win","go","0"
"pit-trial","234","1414351","0.0-120.0","battery-v0.2","","""event"",""trial"",""time""
""fullscreenenter"",""1"",""7650""
","
","
","""event"",""trial"",""time""
""fullscreenenter"",""1"",""7650""
","
","","","107.40000009536743","","","11","20708","6270","p","elianto","#3366ff99","-1"," ","0","0","[959.2000000476837]","1","2","","","20708","116","5","2","win","no-go","0"
"pit-trial","235","1417416","0.0-121.0","battery-v0.2","","""event"",""trial"",""time""
""fullscreenenter"",""1"",""7650""
","
","
","""event"",""trial"",""time""
""fullscreenenter"",""1"",""7650""
","
","","","211.10000014305115","","","11","20708","6270","l","elianto","#3366ff99"," "," ","1","+10","[1061.5]","1","2","","","20708","117","8","1","win","go","0"
"pit-trial","236","1420695","0.0-122.0","battery-v0.2","","""event"",""trial"",""time""
""fullscreenenter"",""1"",""7650""
","
","
","""event"",""trial"",""time""
""fullscreenenter"",""1"",""7650""
","
","","","426.7999999523163","","","11","20708","6270","u","elianto","#3366ff99"," "," ","1","+10","[1277.5999999046326]","1","2","","","20708","118","9","1","win","go","0"
"pit-trial","237","1424475","0.0-123.0","battery-v0.2","","""event"",""trial"",""time""
""fullscreenenter"",""1"",""7650""
","
","
","""event"",""trial"",""time""
""fullscreenenter"",""1"",""7650""
","
","","","925.8000001907349","","","11","20708","6270","p","elianto","#3366ff99","-1"," ","0","0","[485.7000000476837,1776.7000000476837]","2","2","","","20708","119","5","2","win","no-go","0"
"pit-trial","238","1427717","0.0-124.0","battery-v0.2","","""event"",""trial"",""time""
""fullscreenenter"",""1"",""7650""
","
","
","""event"",""trial"",""time""
""fullscreenenter"",""1"",""7650""
","
","","","387.60000014305115","","","11","20708","6270","g","elianto","#f73b6a7A"," "," ","1","0","[1239.2999999523163]","1","2","","","20708","120","6","3","lose","go","0"
"pit-trial","239","1431303","0.0-125.0","battery-v0.2","","""event"",""trial"",""time""
""fullscreenenter"",""1"",""7650""
","
","
","""event"",""trial"",""time""
""fullscreenenter"",""1"",""7650""
","
","","","731.3000001907349","","","11","20708","6270","a","elianto","#f73b6a7A","-1"," ","0","-10","[1583.2000000476837]","1","2","","","20708","121","7","4","lose","no-go","0"
"pit-trial","240","1434769","0.0-126.0","battery-v0.2","","""event"",""trial"",""time""
""fullscreenenter"",""1"",""7650""
","
","
","""event"",""trial"",""time""
""fullscreenenter"",""1"",""7650""
","
","","","612.5","","","11","20708","6270","u","elianto","#3366ff99"," "," ","1","+10","[1463.4000000953674]","1","2","","","20708","122","9","1","win","go","0"
"pit-trial","241","1438189","0.0-127.0","battery-v0.2","","""event"",""trial"",""time""
""fullscreenenter"",""1"",""7650""
","
","
","""event"",""trial"",""time""
""fullscreenenter"",""1"",""7650""
","
","","","556.6000001430511","","","11","20708","6270","g","elianto","#f73b6a7A"," "," ","1","-10","[1407.4000000953674]","1","2","","","20708","123","6","3","lose","go","1"
"pit-trial","242","1441514","0.0-128.0","battery-v0.2","","""event"",""trial"",""time""
""fullscreenenter"",""1"",""7650""
","
","
","""event"",""trial"",""time""
""fullscreenenter"",""1"",""7650""
","
","","","469.39999985694885","","","11","20708","6270","l","elianto","#3366ff99"," "," ","1","0","[1321]","1","2","","","20708","124","8","1","win","go","1"
"pit-trial","243","1445020","0.0-129.0","battery-v0.2","","""event"",""trial"",""time""
""fullscreenenter"",""1"",""7650""
","
","
","""event"",""trial"",""time""
""fullscreenenter"",""1"",""7650""
","
","","","654.5999999046326","","","11","20708","6270","u","elianto","#3366ff99"," "," ","1","+10","[1504.6000001430511]","1","2","","","20708","125","9","1","win","go","0"
"pit-trial","244","1449874","0.0-130.0","battery-v0.2","","""event"",""trial"",""time""
""fullscreenenter"",""1"",""7650""
","
","
","""event"",""trial"",""time""
""fullscreenenter"",""1"",""7650""
","
","","","-1","","","11","20708","6270","g","elianto","#f73b6a7A"," ","-1","0","-10","[]","0","2","","","20708","126","6","3","lose","go","0"
"pit-trial","245","1453377","0.0-131.0","battery-v0.2","","""event"",""trial"",""time""
""fullscreenenter"",""1"",""7650""
","
","
","""event"",""trial"",""time""
""fullscreenenter"",""1"",""7650""
","
","","","650.0999999046326","","","11","20708","6270","l","elianto","#3366ff99"," "," ","1","0","[1500.2999999523163]","1","2","","","20708","127","8","1","win","go","1"
"pit-trial","246","1458231","0.0-132.0","battery-v0.2","","""event"",""trial"",""time""
""fullscreenenter"",""1"",""7650""
","
","
","""event"",""trial"",""time""
""fullscreenenter"",""1"",""7650""
","
","","","-1","","","11","20708","6270","a","elianto","#f73b6a7A","-1","-1","1","0","[]","0","2","","","20708","128","7","4","lose","no-go","0"
"pit-trial","247","1463084","0.0-133.0","battery-v0.2","","""event"",""trial"",""time""
""fullscreenenter"",""1"",""7650""
","
","
","""event"",""trial"",""time""
""fullscreenenter"",""1"",""7650""
","
","","","-1","","","11","20708","6270","g","elianto","#f73b6a7A"," ","-1","0","-10","[]","0","2","","","20708","129","6","3","lose","go","0"
"pit-trial","248","1466449","0.0-134.0","battery-v0.2","","""event"",""trial"",""time""
""fullscreenenter"",""1"",""7650""
","
","
","""event"",""trial"",""time""
""fullscreenenter"",""1"",""7650""
","
","","","510.59999990463257","","","11","20708","6270","u","elianto","#3366ff99"," "," ","1","0","[1362.3999998569489]","1","2","","","20708","130","9","1","win","go","1"
"pit-trial","249","1469854","0.0-135.0","battery-v0.2","","""event"",""trial"",""time""
""fullscreenenter"",""1"",""7650""
","
","
","""event"",""trial"",""time""
""fullscreenenter"",""1"",""7650""
","
","","","551.5999999046326","","","11","20708","6270","l","elianto","#3366ff99"," "," ","1","+10","[1402.7999999523163]","1","2","","","20708","131","8","1","win","go","0"
"pit-trial","250","1474707","0.0-136.0","battery-v0.2","","""event"",""trial"",""time""
""fullscreenenter"",""1"",""7650""
","
","
","""event"",""trial"",""time""
""fullscreenenter"",""1"",""7650""
","
","","","-1","","","11","20708","6270","a","elianto","#f73b6a7A","-1","-1","1","0","[]","0","2","","","20708","132","7","4","lose","no-go","0"
"pit-trial","251","1479562","0.0-137.0","battery-v0.2","","""event"",""trial"",""time""
""fullscreenenter"",""1"",""7650""
","
","
","""event"",""trial"",""time""
""fullscreenenter"",""1"",""7650""
","
","","","-1","","","11","20708","6270","a","elianto","#f73b6a7A","-1","-1","1","0","[]","0","2","","","20708","133","7","4","lose","no-go","0"
"pit-trial","252","1484415","0.0-138.0","battery-v0.2","","""event"",""trial"",""time""
""fullscreenenter"",""1"",""7650""
","
","
","""event"",""trial"",""time""
""fullscreenenter"",""1"",""7650""
","
","","","-1","","","11","20708","6270","g","elianto","#f73b6a7A"," ","-1","0","0","[]","0","2","","","20708","134","6","3","lose","go","1"
"pit-trial","253","1487956","0.0-139.0","battery-v0.2","","""event"",""trial"",""time""
""fullscreenenter"",""1"",""7650""
","
","
","""event"",""trial"",""time""
""fullscreenenter"",""1"",""7650""
","
","","","687.1000001430511","","","11","20708","6270","l","elianto","#3366ff99"," "," ","1","+10","[1538.1000001430511]","1","2","","","20708","135","8","1","win","go","0"
"pit-trial","254","1491440","0.0-140.0","battery-v0.2","","""event"",""trial"",""time""
""fullscreenenter"",""1"",""7650""
","
","
","""event"",""trial"",""time""
""fullscreenenter"",""1"",""7650""
","
","","","630.7000000476837","","","11","20708","6270","u","elianto","#3366ff99"," "," ","1","+10","[1482]","1","2","","","20708","136","9","1","win","go","0"
"pit-trial","255","1496301","0.0-141.0","battery-v0.2","","""event"",""trial"",""time""
""fullscreenenter"",""1"",""7650""
","
","
","""event"",""trial"",""time""
""fullscreenenter"",""1"",""7650""
","
","","","-1","","","11","20708","6270","g","elianto","#f73b6a7A"," ","-1","0","-10","[]","0","2","","","20708","137","6","3","lose","go","0"
"pit-trial","256","1500004","0.0-142.0","battery-v0.2","","""event"",""trial"",""time""
""fullscreenenter"",""1"",""7650""
","
","
","""event"",""trial"",""time""
""fullscreenenter"",""1"",""7650""
","
","","","848.2999999523163","","","11","20708","6270","u","elianto","#3366ff99"," "," ","1","+10","[1699.3999998569489]","1","2","","","20708","138","9","1","win","go","0"
"pit-trial","257","1503835","0.0-143.0","battery-v0.2","","""event"",""trial"",""time""
""fullscreenenter"",""1"",""7650""
","
","
","""event"",""trial"",""time""
""fullscreenenter"",""1"",""7650""
","
","","","977.2000000476837","","","11","20708","6270","a","elianto","#f73b6a7A","-1"," ","0","0","[813.7999999523163,1828.2999999523163]","2","2","","","20708","139","7","4","lose","no-go","1"
"pit-trial","258","1507152","0.0-144.0","battery-v0.2","","""event"",""trial"",""time""
""fullscreenenter"",""1"",""7650""
","
","
","""event"",""trial"",""time""
""fullscreenenter"",""1"",""7650""
","
","","","462.2999999523163","","","11","20708","6270","l","elianto","#3366ff99"," "," ","1","+10","[1314]","1","2","","","20708","140","8","1","win","go","0"
"pit-instructions","259","1591014","0.0-145.0","battery-v0.2","","""event"",""trial"",""time""
""fullscreenenter"",""1"",""7650""
","
","
","""event"",""trial"",""time""
""fullscreenenter"",""1"",""7650""
","
","","[{""page_index"":0,""viewing_time"":33931},{""page_index"":1,""viewing_time"":49928.59999990463}]","83859.89999985695","","","","","","","","","","","","","","","","","","","","","","","",""
"pit-trial","260","1595869","0.0-146.0","battery-v0.2","","""event"",""trial"",""time""
""fullscreenenter"",""1"",""7650""
","
","
","""event"",""trial"",""time""
""fullscreenenter"",""1"",""7650""
","
","","","-1","","","11","20708","6270","h","elianto","#f73b6a7A"," ","-1","0","-10","[]","0","3","","","20708","141","3","3","lose","go","0"
"pit-trial","261","1600723","0.0-147.0","battery-v0.2","","""event"",""trial"",""time""
""fullscreenenter"",""1"",""7650""
","
","
","""event"",""trial"",""time""
""fullscreenenter"",""1"",""7650""
","
","","","-1","","","11","20708","6270","y","elianto","#f73b6a7A","-1","-1","1","0","[]","0","3","","","20708","142","2","4","lose","no-go","0"
"pit-trial","262","1604428","0.0-148.0","battery-v0.2","","""event"",""trial"",""time""
""fullscreenenter"",""1"",""7650""
","
","
","""event"",""trial"",""time""
""fullscreenenter"",""1"",""7650""
","
","","","851.7999999523163","","","11","20708","6270","r","elianto","#3366ff99"," "," ","1","+10","[1702.5999999046326]","1","3","","","20708","143","1","1","win","go","0"
"pit-trial","263","1609282","0.0-149.0","battery-v0.2","","""event"",""trial"",""time""
""fullscreenenter"",""1"",""7650""
","
","
","""event"",""trial"",""time""
""fullscreenenter"",""1"",""7650""
","
","","","-1","","","11","20708","6270","m","elianto","#f73b6a7A","-1","-1","1","0","[]","0","3","","","20708","144","0","4","lose","no-go","0"
"pit-trial","264","1613122","0.0-150.0","battery-v0.2","","""event"",""trial"",""time""
""fullscreenenter"",""1"",""7650""
","
","
","""event"",""trial"",""time""
""fullscreenenter"",""1"",""7650""
","
","","","988.4000000953674","","","11","20708","6270","h","elianto","#f73b6a7A"," "," ","1","0","[1838.5]","1","3","","","20708","145","3","3","lose","go","0"
"pit-trial","265","1616863","0.0-151.0","battery-v0.2","","""event"",""trial"",""time""
