"trial_type","trial_index","time_elapsed","internal_node_id","task_version","subject_id","interactions","blur_events","focus_events","fullscreenenter_events","fullscreenexit_events","success","view_history","rt","responses","num_errors","age","subject","participantId","rune","rune_set","hex","correct","choice","accuracy","outcome","keys","total_keys","block","practice","value","sub","trial","stimulus","robot","valence","action","sham"
"pavlovia","0","9","0.0-0.0","battery-v0.2","","""event"",""trial"",""time""
""focus"",""1"",""1342""
""fullscreenenter"",""1"",""1870""
","
","""event"",""trial"",""time""
""focus"",""1"",""1342""
","""event"",""trial"",""time""
""fullscreenenter"",""1"",""1870""
","
","","","","","","","","","","","","","","","","","","","","","","","","","","",""
"fullscreen","1","2822","0.0-1.0","battery-v0.2","","""event"",""trial"",""time""
""focus"",""1"",""1342""
""fullscreenenter"",""1"",""1870""
","
","""event"",""trial"",""time""
""focus"",""1"",""1342""
","""event"",""trial"",""time""
""fullscreenenter"",""1"",""1870""
","
","true","","","","","","","","","","","","","","","","","","","","","","","","","",""
"pit-instructions","2","6103","0.0-2.0-0.0","battery-v0.2","","""event"",""trial"",""time""
""focus"",""1"",""1342""
""fullscreenenter"",""1"",""1870""
","
","""event"",""trial"",""time""
""focus"",""1"",""1342""
","""event"",""trial"",""time""
""fullscreenenter"",""1"",""1870""
","
","","[{""page_index"":0,""viewing_time"":3277.900000035763}]","3278.199999988079","","","","","","","","","","","","","","","","","","","","","","","",""
"pit-comprehension","3","8815","0.0-2.0-1.0-0.0","battery-v0.2","","""event"",""trial"",""time""
""focus"",""1"",""1342""
""fullscreenenter"",""1"",""1870""
","
","""event"",""trial"",""time""
""focus"",""1"",""1342""
","""event"",""trial"",""time""
""fullscreenenter"",""1"",""1870""
","
","","","2709.699999988079","[""shark""]","0","19","10130","4704","","","","","","","","","","","","","","","","","","",""
"pit-instructions","4","10166","0.0-2.0-1.0-1.0","battery-v0.2","","""event"",""trial"",""time""
""focus"",""1"",""1342""
""fullscreenenter"",""1"",""1870""
","
","""event"",""trial"",""time""
""focus"",""1"",""1342""
","""event"",""trial"",""time""
""fullscreenenter"",""1"",""1870""
","
","","[{""page_index"":0,""viewing_time"":1336.800000011921}]","1337","","","","","","","","","","","","","","","","","","","","","","","",""
"pit-comprehension","5","12134","0.0-2.0-2.0-0.0","battery-v0.2","","""event"",""trial"",""time""
""focus"",""1"",""1342""
""fullscreenenter"",""1"",""1870""
","
","""event"",""trial"",""time""
""focus"",""1"",""1342""
","""event"",""trial"",""time""
""fullscreenenter"",""1"",""1870""
","
","","","1966.199999988079","[""tiger""]","0","19","10130","4704","","","","","","","","","","","","","","","","","","",""
"pit-instructions","6","13702","0.0-2.0-2.0-1.0","battery-v0.2","","""event"",""trial"",""time""
""focus"",""1"",""1342""
""fullscreenenter"",""1"",""1870""
","
","""event"",""trial"",""time""
""focus"",""1"",""1342""
","""event"",""trial"",""time""
""fullscreenenter"",""1"",""1870""
","
","","[{""page_index"":0,""viewing_time"":1564.800000011921}]","1565","","","","","","","","","","","","","","","","","","","","","","","",""
"pit-instructions","7","113893","0.0-2.0-3.0","battery-v0.2","","""event"",""trial"",""time""
""focus"",""1"",""1342""
""fullscreenenter"",""1"",""1870""
","
","""event"",""trial"",""time""
""focus"",""1"",""1342""
","""event"",""trial"",""time""
""fullscreenenter"",""1"",""1870""
","
","","[{""page_index"":0,""viewing_time"":11414.600000023842},{""page_index"":1,""viewing_time"":6335.399999976158},{""page_index"":2,""viewing_time"":6272.200000047684},{""page_index"":3,""viewing_time"":5727.899999976158},{""page_index"":4,""viewing_time"":5312.399999976158},{""page_index"":5,""viewing_time"":5607.700000047684},{""page_index"":6,""viewing_time"":6376.399999976158},{""page_index"":7,""viewing_time"":7039.699999988079},{""page_index"":8,""viewing_time"":6631.800000011921},{""page_index"":9,""viewing_time"":9320.300000011921},{""page_index"":10,""viewing_time"":8639.300000011921},{""page_index"":11,""viewing_time"":9496.899999976158},{""page_index"":12,""viewing_time"":6431.399999976158},{""page_index"":13,""viewing_time"":5584.100000023842}]","100190.40000003576","","","","","","","","","","","","","","","","","","","","","","","",""
"pit-trial","8","118753","0.0-2.0-4.0-0.0","battery-v0.2","","""event"",""trial"",""time""
""focus"",""1"",""1342""
""fullscreenenter"",""1"",""1870""
","
","""event"",""trial"",""time""
""focus"",""1"",""1342""
","""event"",""trial"",""time""
""fullscreenenter"",""1"",""1870""
","
","","","-1","","","19","10130","4704","&#9784;","elianto","#FFFFF080"," ","-1","0","&#10060","[8.699999988079071,471.69999998807907]","2","0","0","","","","","","","",""
"pit-trial","9","123632","0.0-2.0-4.1-0.1","battery-v0.2","","""event"",""trial"",""time""
""focus"",""1"",""1342""
""fullscreenenter"",""1"",""1870""
","
","""event"",""trial"",""time""
""focus"",""1"",""1342""
","""event"",""trial"",""time""
""fullscreenenter"",""1"",""1870""
","
","","","-1","","","19","10130","4704","&#9784;","elianto","#FFFFF080"," ","-1","0","&#10060","[842.3000000119209]","1","0","0","","","","","","","",""
"pit-trial","10","127071","0.0-2.0-4.2-0.2","battery-v0.2","","""event"",""trial"",""time""
""focus"",""1"",""1342""
""fullscreenenter"",""1"",""1870""
","
","""event"",""trial"",""time""
""focus"",""1"",""1342""
","""event"",""trial"",""time""
""fullscreenenter"",""1"",""1870""
","
","","","574.3000000119209","","","19","10130","4704","&#9784;","elianto","#FFFFF080"," "," ","1","&#10004","[1424.699999988079]","1","0","0","","","","","","","",""
"pit-trial","11","130791","0.0-2.0-4.3-0.3","battery-v0.2","","""event"",""trial"",""time""
""focus"",""1"",""1342""
""fullscreenenter"",""1"",""1870""
","
","""event"",""trial"",""time""
""focus"",""1"",""1342""
","""event"",""trial"",""time""
""fullscreenenter"",""1"",""1870""
","
","","","862.6999999880791","","","19","10130","4704","&#9784;","elianto","#FFFFF080"," "," ","1","&#10004","[1712.6000000238419]","1","0","0","","","","","","","",""
"pit-trial","12","134166","0.0-2.0-4.4-0.4","battery-v0.2","","""event"",""trial"",""time""
""focus"",""1"",""1342""
""fullscreenenter"",""1"",""1870""
","
","""event"",""trial"",""time""
""focus"",""1"",""1342""
","""event"",""trial"",""time""
""fullscreenenter"",""1"",""1870""
","
","","","519.4000000357628","","","19","10130","4704","&#9784;","elianto","#FFFFF080"," "," ","1","&#10004","[1370.699999988079]","1","0","0","","","","","","","",""
"pit-instructions","13","157158","0.0-2.0-5.0","battery-v0.2","","""event"",""trial"",""time""
""focus"",""1"",""1342""
""fullscreenenter"",""1"",""1870""
","
","""event"",""trial"",""time""
""focus"",""1"",""1342""
","""event"",""trial"",""time""
""fullscreenenter"",""1"",""1870""
","
","","[{""page_index"":0,""viewing_time"":5139.800000011921},{""page_index"":1,""viewing_time"":6032.599999964237},{""page_index"":2,""viewing_time"":5392.199999988079},{""page_index"":3,""viewing_time"":6424.400000035763}]","22989.30000001192","","","","","","","","","","","","","","","","","","","","","","","",""
"pit-trial","14","162018","0.0-2.0-6.0-0.0","battery-v0.2","","""event"",""trial"",""time""
""focus"",""1"",""1342""
""fullscreenenter"",""1"",""1870""
","
","""event"",""trial"",""time""
""focus"",""1"",""1342""
","""event"",""trial"",""time""
""fullscreenenter"",""1"",""1870""
","
","","","-1","","","19","10130","4704","&#9854;","elianto","#FFFFF080","-1","-1","1","&#10004","[]","0","0","1","","","","","","","",""
"pit-trial","15","166883","0.0-2.0-6.1-0.1","battery-v0.2","","""event"",""trial"",""time""
""focus"",""1"",""1342""
""fullscreenenter"",""1"",""1870""
","
","""event"",""trial"",""time""
""focus"",""1"",""1342""
","""event"",""trial"",""time""
""fullscreenenter"",""1"",""1870""
","
","","","-1","","","19","10130","4704","&#9854;","elianto","#FFFFF080","-1","-1","1","&#10004","[]","0","0","1","","","","","","","",""
"pit-trial","16","171751","0.0-2.0-6.2-0.2","battery-v0.2","","""event"",""trial"",""time""
""focus"",""1"",""1342""
""fullscreenenter"",""1"",""1870""
","
","""event"",""trial"",""time""
""focus"",""1"",""1342""
","""event"",""trial"",""time""
""fullscreenenter"",""1"",""1870""
","
","","","-1","","","19","10130","4704","&#9854;","elianto","#FFFFF080","-1","-1","1","&#10004","[]","0","0","1","","","","","","","",""
"pit-trial","17","176633","0.0-2.0-6.3-0.3","battery-v0.2","","""event"",""trial"",""time""
""focus"",""1"",""1342""
""fullscreenenter"",""1"",""1870""
","
","""event"",""trial"",""time""
""focus"",""1"",""1342""
","""event"",""trial"",""time""
""fullscreenenter"",""1"",""1870""
","
","","","-1","","","19","10130","4704","&#9854;","elianto","#FFFFF080","-1","-1","1","&#10004","[]","0","0","1","","","","","","","",""
"pit-trial","18","181500","0.0-2.0-6.4-0.4","battery-v0.2","","""event"",""trial"",""time""
""focus"",""1"",""1342""
""fullscreenenter"",""1"",""1870""
","
","""event"",""trial"",""time""
""focus"",""1"",""1342""
","""event"",""trial"",""time""
""fullscreenenter"",""1"",""1870""
","
","","","-1","","","19","10130","4704","&#9854;","elianto","#FFFFF080","-1","-1","1","&#10004","[]","0","0","1","","","","","","","",""
"pit-instructions","19","307325","0.0-2.0-7.0","battery-v0.2","","""event"",""trial"",""time""
""focus"",""1"",""1342""
""fullscreenenter"",""1"",""1870""
","
","""event"",""trial"",""time""
""focus"",""1"",""1342""
","""event"",""trial"",""time""
""fullscreenenter"",""1"",""1870""
","
","","[{""page_index"":0,""viewing_time"":6087.600000023842},{""page_index"":1,""viewing_time"":7407.899999976158},{""page_index"":2,""viewing_time"":5216.100000023842},{""page_index"":3,""viewing_time"":6464.699999988079},{""page_index"":4,""viewing_time"":5048.100000023842},{""page_index"":5,""viewing_time"":6496.099999964237},{""page_index"":6,""viewing_time"":5328},{""page_index"":7,""viewing_time"":7671.800000011921},{""page_index"":8,""viewing_time"":6295.900000035763},{""page_index"":9,""viewing_time"":7487.399999976158},{""page_index"":10,""viewing_time"":8848.600000023842},{""page_index"":11,""viewing_time"":5759.799999952316},{""page_index"":12,""viewing_time"":6960.400000035763},{""page_index"":13,""viewing_time"":9560.699999988079},{""page_index"":14,""viewing_time"":8503.300000011921},{""page_index"":15,""viewing_time"":7607.800000011921},{""page_index"":16,""viewing_time"":7736.299999952316},{""page_index"":17,""viewing_time"":7342.700000047684}]","125823.5","","","","","","","","","","","","","","","","","","","","","","","",""
"pit-trial","20","310357","0.0-2.0-8.0-0.0","battery-v0.2","","""event"",""trial"",""time""
""focus"",""1"",""1342""
""fullscreenenter"",""1"",""1870""
","
","""event"",""trial"",""time""
""focus"",""1"",""1342""
","""event"",""trial"",""time""
""fullscreenenter"",""1"",""1870""
","
","","","175.80000001192093","","","19","10130","4704","&#9776;","elianto","#3366ff99"," "," ","1","+10","[7.600000023841858,1026.199999988079]","2","0","1","","","","","","","",""
"pit-trial","21","313656","0.0-2.0-8.0-1.0","battery-v0.2","","""event"",""trial"",""time""
""focus"",""1"",""1342""
""fullscreenenter"",""1"",""1870""
","
","""event"",""trial"",""time""
""focus"",""1"",""1342""
","""event"",""trial"",""time""
""fullscreenenter"",""1"",""1870""
","
","","","440.60000002384186","","","19","10130","4704","&#9776;","elianto","#3366ff99"," "," ","1","+10","[1292.2000000476837]","1","0","1","","","","","","","",""
"pit-trial","22","316894","0.0-2.0-8.0-2.0","battery-v0.2","","""event"",""trial"",""time""
""focus"",""1"",""1342""
""fullscreenenter"",""1"",""1870""
","
","""event"",""trial"",""time""
""focus"",""1"",""1342""
","""event"",""trial"",""time""
""fullscreenenter"",""1"",""1870""
","
","","","380.60000002384186","","","19","10130","4704","&#9776;","elianto","#3366ff99"," "," ","1","+10","[1233.2999999523163]","1","0","1","","","","","","","",""
"pit-trial","23","320150","0.0-2.0-8.0-3.0","battery-v0.2","","""event"",""trial"",""time""
""focus"",""1"",""1342""
""fullscreenenter"",""1"",""1870""
","
","""event"",""trial"",""time""
""focus"",""1"",""1342""
","""event"",""trial"",""time""
""fullscreenenter"",""1"",""1870""
","
","","","394.60000002384186","","","19","10130","4704","&#9776;","elianto","#3366ff99"," "," ","1","0","[1245.7000000476837]","1","0","1","","","","","","","",""
"pit-trial","24","323234","0.0-2.0-8.0-4.0","battery-v0.2","","""event"",""trial"",""time""
""focus"",""1"",""1342""
""fullscreenenter"",""1"",""1870""
","
","""event"",""trial"",""time""
""focus"",""1"",""1342""
","""event"",""trial"",""time""
""fullscreenenter"",""1"",""1870""
","
","","","229","","","19","10130","4704","&#9776;","elianto","#3366ff99"," "," ","1","+10","[1079.1000000238419]","1","0","1","","","","","","","",""
"pit-trial","25","326227","0.0-2.0-8.1-0.1","battery-v0.2","","""event"",""trial"",""time""
""focus"",""1"",""1342""
""fullscreenenter"",""1"",""1870""
","
","""event"",""trial"",""time""
""focus"",""1"",""1342""
","""event"",""trial"",""time""
""fullscreenenter"",""1"",""1870""
","
","","","134.60000002384186","","","19","10130","4704","&#9776;","elianto","#3366ff99"," "," ","1","+10","[990.1999999880791]","1","0","1","","","","","","","",""
"pit-trial","26","329179","0.0-2.0-8.1-1.1","battery-v0.2","","""event"",""trial"",""time""
""focus"",""1"",""1342""
""fullscreenenter"",""1"",""1870""
","
","""event"",""trial"",""time""
""focus"",""1"",""1342""
","""event"",""trial"",""time""
""fullscreenenter"",""1"",""1870""
","
","","","93.80000001192093","","","19","10130","4704","&#9776;","elianto","#3366ff99"," "," ","1","+10","[944.3999999761581]","1","0","1","","","","","","","",""
"pit-trial","27","332165","0.0-2.0-8.1-2.1","battery-v0.2","","""event"",""trial"",""time""
""focus"",""1"",""1342""
""fullscreenenter"",""1"",""1870""
","
","""event"",""trial"",""time""
""focus"",""1"",""1342""
","""event"",""trial"",""time""
""fullscreenenter"",""1"",""1870""
","
","","","132.9000000357628","","","19","10130","4704","&#9776;","elianto","#3366ff99"," "," ","1","+10","[982.8999999761581]","1","0","1","","","","","","","",""
"pit-trial","28","335123","0.0-2.0-8.1-3.1","battery-v0.2","","""event"",""trial"",""time""
""focus"",""1"",""1342""
""fullscreenenter"",""1"",""1870""
","
","""event"",""trial"",""time""
""focus"",""1"",""1342""
","""event"",""trial"",""time""
""fullscreenenter"",""1"",""1870""
","
","","","93.60000002384186","","","19","10130","4704","&#9776;","elianto","#3366ff99"," "," ","1","0","[944.6999999880791]","1","0","1","","","","","","","",""
"pit-trial","29","338042","0.0-2.0-8.1-4.1","battery-v0.2","","""event"",""trial"",""time""
""focus"",""1"",""1342""
""fullscreenenter"",""1"",""1870""
","
","""event"",""trial"",""time""
""focus"",""1"",""1342""
","""event"",""trial"",""time""
""fullscreenenter"",""1"",""1870""
","
","","","65.39999997615814","","","19","10130","4704","&#9776;","elianto","#3366ff99"," "," ","1","+10","[915.4000000357628]","1","0","1","","","","","","","",""
"pit-trial","30","340925","0.0-2.0-8.2-0.2","battery-v0.2","","""event"",""trial"",""time""
""focus"",""1"",""1342""
""fullscreenenter"",""1"",""1870""
","
","""event"",""trial"",""time""
""focus"",""1"",""1342""
","""event"",""trial"",""time""
""fullscreenenter"",""1"",""1870""
","
","","","28.80000001192093","","","19","10130","4704","&#9776;","elianto","#3366ff99"," "," ","1","+10","[880.5]","1","0","1","","","","","","","",""
"pit-trial","31","343852","0.0-2.0-8.2-1.2","battery-v0.2","","""event"",""trial"",""time""
""focus"",""1"",""1342""
""fullscreenenter"",""1"",""1870""
","
","""event"",""trial"",""time""
""focus"",""1"",""1342""
","""event"",""trial"",""time""
""fullscreenenter"",""1"",""1870""
","
","","","73.5","","","19","10130","4704","&#9776;","elianto","#3366ff99"," "," ","1","+10","[924.2000000476837]","1","0","1","","","","","","","",""
"pit-trial","32","346848","0.0-2.0-8.2-2.2","battery-v0.2","","""event"",""trial"",""time""
""focus"",""1"",""1342""
""fullscreenenter"",""1"",""1870""
","
","""event"",""trial"",""time""
""focus"",""1"",""1342""
","""event"",""trial"",""time""
""fullscreenenter"",""1"",""1870""
","
","","","141.89999997615814","","","19","10130","4704","&#9776;","elianto","#3366ff99"," "," ","1","+10","[991.8999999761581]","1","0","1","","","","","","","",""
"pit-trial","33","349724","0.0-2.0-8.2-3.2","battery-v0.2","","""event"",""trial"",""time""
""focus"",""1"",""1342""
""fullscreenenter"",""1"",""1870""
","
","""event"",""trial"",""time""
""focus"",""1"",""1342""
","""event"",""trial"",""time""
""fullscreenenter"",""1"",""1870""
","
","","","22.600000023841858","","","19","10130","4704","&#9776;","elianto","#3366ff99"," "," ","1","0","[873.1999999880791]","1","0","1","","","","","","","",""
"pit-trial","34","354576","0.0-2.0-8.2-4.2","battery-v0.2","","""event"",""trial"",""time""
""focus"",""1"",""1342""
""fullscreenenter"",""1"",""1870""
","
","""event"",""trial"",""time""
""focus"",""1"",""1342""
","""event"",""trial"",""time""
""fullscreenenter"",""1"",""1870""
","
","","","-1","","","19","10130","4704","&#9776;","elianto","#3366ff99"," ","-1","0","0","[828.8999999761581,4320.699999988079]","2","0","1","","","","","","","",""
"call-function","35","354579","0.0-2.0-9.0","battery-v0.2","","""event"",""trial"",""time""
""focus"",""1"",""1342""
""fullscreenenter"",""1"",""1870""
","
","""event"",""trial"",""time""
""focus"",""1"",""1342""
","""event"",""trial"",""time""
""fullscreenenter"",""1"",""1870""
","
","","","","","","","","","","","","","","","","","","","","","","","","","","",""
"pit-instructions","36","395886","0.0-2.0-10.0","battery-v0.2","","""event"",""trial"",""time""
""focus"",""1"",""1342""
""fullscreenenter"",""1"",""1870""
","
","""event"",""trial"",""time""
""focus"",""1"",""1342""
","""event"",""trial"",""time""
""fullscreenenter"",""1"",""1870""
","
","","[{""page_index"":0,""viewing_time"":6282},{""page_index"":1,""viewing_time"":7071.599999964237},{""page_index"":2,""viewing_time"":9247.900000035763},{""page_index"":3,""viewing_time"":10296.5},{""page_index"":4,""viewing_time"":8407.699999988079}]","41306","","","","","","","","","","","","","","","","","","","","","","","",""
"pit-trial","37","399094","0.0-2.0-11.0-0.0","battery-v0.2","","""event"",""trial"",""time""
""focus"",""1"",""1342""
""fullscreenenter"",""1"",""1870""
","
","""event"",""trial"",""time""
""focus"",""1"",""1342""
","""event"",""trial"",""time""
""fullscreenenter"",""1"",""1870""
","
","","","338.39999997615814","","","19","10130","4704","&#9761;","elianto","#3366ff99","-1"," ","0","0","[1194.199999988079]","1","0","2","","","","","","","",""
"pit-trial","38","402269","0.0-2.0-11.0-1.0","battery-v0.2","","""event"",""trial"",""time""
""focus"",""1"",""1342""
""fullscreenenter"",""1"",""1870""
","
","""event"",""trial"",""time""
""focus"",""1"",""1342""
","""event"",""trial"",""time""
""fullscreenenter"",""1"",""1870""
","
","","","314.9000000357628","","","19","10130","4704","&#9761;","elianto","#3366ff99","-1"," ","0","0","[1166.699999988079]","1","0","2","","","","","","","",""
"pit-trial","39","407128","0.0-2.0-11.0-2.0","battery-v0.2","","""event"",""trial"",""time""
""focus"",""1"",""1342""
""fullscreenenter"",""1"",""1870""
","
","""event"",""trial"",""time""
""focus"",""1"",""1342""
","""event"",""trial"",""time""
""fullscreenenter"",""1"",""1870""
","
","","","-1","","","19","10130","4704","&#9761;","elianto","#3366ff99","-1","-1","1","+10","[]","0","0","2","","","","","","","",""
"pit-trial","40","410250","0.0-2.0-11.0-3.0","battery-v0.2","","""event"",""trial"",""time""
""focus"",""1"",""1342""
""fullscreenenter"",""1"",""1870""
","
","""event"",""trial"",""time""
""focus"",""1"",""1342""
","""event"",""trial"",""time""
""fullscreenenter"",""1"",""1870""
","
","","","260.5","","","19","10130","4704","&#9761;","elianto","#3366ff99","-1"," ","0","+10","[1111]","1","0","2","","","","","","","",""
"pit-trial","41","413506","0.0-2.0-11.0-4.0","battery-v0.2","","""event"",""trial"",""time""
""focus"",""1"",""1342""
""fullscreenenter"",""1"",""1870""
","
","""event"",""trial"",""time""
""focus"",""1"",""1342""
","""event"",""trial"",""time""
""fullscreenenter"",""1"",""1870""
","
","","","390.60000002384186","","","19","10130","4704","&#9761;","elianto","#3366ff99","-1"," ","0","0","[1243.199999988079]","1","0","2","","","","","","","",""
"pit-trial","42","418388","0.0-2.0-11.1-0.1","battery-v0.2","","""event"",""trial"",""time""
""focus"",""1"",""1342""
""fullscreenenter"",""1"",""1870""
","
","""event"",""trial"",""time""
""focus"",""1"",""1342""
","""event"",""trial"",""time""
""fullscreenenter"",""1"",""1870""
","
","","","2009.3999999761581","","","19","10130","4704","&#9761;","elianto","#3366ff99","-1"," ","0","0","[2861.800000011921]","1","0","2","","","","","","","",""
"pit-trial","43","421864","0.0-2.0-11.1-1.1","battery-v0.2","","""event"",""trial"",""time""
""focus"",""1"",""1342""
""fullscreenenter"",""1"",""1870""
","
","""event"",""trial"",""time""
""focus"",""1"",""1342""
","""event"",""trial"",""time""
""fullscreenenter"",""1"",""1870""
","
","","","618.3000000119209","","","19","10130","4704","&#9761;","elianto","#3366ff99","-1"," ","0","0","[1470.9000000357628]","1","0","2","","","","","","","",""
"pit-trial","44","426722","0.0-2.0-11.1-2.1","battery-v0.2","","""event"",""trial"",""time""
""focus"",""1"",""1342""
""fullscreenenter"",""1"",""1870""
","
","""event"",""trial"",""time""
""focus"",""1"",""1342""
","""event"",""trial"",""time""
""fullscreenenter"",""1"",""1870""
","
","","","-1","","","19","10130","4704","&#9761;","elianto","#3366ff99","-1","-1","1","+10","[]","0","0","2","","","","","","","",""
"pit-trial","45","430146","0.0-2.0-11.1-3.1","battery-v0.2","","""event"",""trial"",""time""
""focus"",""1"",""1342""
""fullscreenenter"",""1"",""1870""
","
","""event"",""trial"",""time""
""focus"",""1"",""1342""
","""event"",""trial"",""time""
""fullscreenenter"",""1"",""1870""
","
","","","571.5999999642372","","","19","10130","4704","&#9761;","elianto","#3366ff99","-1"," ","0","+10","[1421.8999999761581]","1","0","2","","","","","","","",""
"pit-trial","46","433335","0.0-2.0-11.1-4.1","battery-v0.2","","""event"",""trial"",""time""
""focus"",""1"",""1342""
""fullscreenenter"",""1"",""1870""
","
","""event"",""trial"",""time""
""focus"",""1"",""1342""
","""event"",""trial"",""time""
""fullscreenenter"",""1"",""1870""
","
","","","336.30000001192093","","","19","10130","4704","&#9761;","elianto","#3366ff99","-1"," ","0","0","[1186.3999999761581]","1","0","2","","","","","","","",""
"pit-trial","47","436355","0.0-2.0-11.2-0.2","battery-v0.2","","""event"",""trial"",""time""
""focus"",""1"",""1342""
""fullscreenenter"",""1"",""1870""
","
","""event"",""trial"",""time""
""focus"",""1"",""1342""
","""event"",""trial"",""time""
""fullscreenenter"",""1"",""1870""
","
","","","167.39999997615814","","","19","10130","4704","&#9761;","elianto","#3366ff99","-1"," ","0","0","[1017.5]","1","0","2","","","","","","","",""
"pit-trial","48","439322","0.0-2.0-11.2-1.2","battery-v0.2","","""event"",""trial"",""time""
""focus"",""1"",""1342""
""fullscreenenter"",""1"",""1870""
","
","""event"",""trial"",""time""
""focus"",""1"",""1342""
","""event"",""trial"",""time""
""fullscreenenter"",""1"",""1870""
","
","","","111.60000002384186","","","19","10130","4704","&#9761;","elianto","#3366ff99","-1"," ","0","0","[964]","1","0","2","","","","","","","",""
"pit-trial","49","442781","0.0-2.0-11.2-2.2","battery-v0.2","","""event"",""trial"",""time""
""focus"",""1"",""1342""
""fullscreenenter"",""1"",""1870""
","
","""event"",""trial"",""time""
""focus"",""1"",""1342""
","""event"",""trial"",""time""
""fullscreenenter"",""1"",""1870""
","
","","","605.8000000119209","","","19","10130","4704","&#9761;","elianto","#3366ff99","-1"," ","0","0","[1456.699999988079]","1","0","2","","","","","","","",""
"pit-trial","50","447118","0.0-2.0-11.2-3.2","battery-v0.2","","""event"",""trial"",""time""
""focus"",""1"",""1342""
""fullscreenenter"",""1"",""1870""
","
","""event"",""trial"",""time""
""focus"",""1"",""1342""
","""event"",""trial"",""time""
""fullscreenenter"",""1"",""1870""
","
","","","1482.800000011921","","","19","10130","4704","&#9761;","elianto","#3366ff99","-1"," ","0","+10","[2334.2000000476837]","1","0","2","","","","","","","",""
"pit-trial","51","450132","0.0-2.0-11.2-4.2","battery-v0.2","","""event"",""trial"",""time""
""focus"",""1"",""1342""
""fullscreenenter"",""1"",""1870""
","
","""event"",""trial"",""time""
""focus"",""1"",""1342""
","""event"",""trial"",""time""
""fullscreenenter"",""1"",""1870""
","
","","","159.80000001192093","","","19","10130","4704","&#9761;","elianto","#3366ff99","-1"," ","0","0","[1010.3999999761581]","1","0","2","","","","","","","",""
"pit-trial","52","454986","0.0-2.0-11.3-0.3","battery-v0.2","","""event"",""trial"",""time""
""focus"",""1"",""1342""
""fullscreenenter"",""1"",""1870""
","
","""event"",""trial"",""time""
""focus"",""1"",""1342""
","""event"",""trial"",""time""
""fullscreenenter"",""1"",""1870""
","
","","","-1","","","19","10130","4704","&#9761;","elianto","#3366ff99","-1","-1","1","+10","[]","0","0","2","","","","","","","",""
"pit-trial","53","457941","0.0-2.0-11.3-1.3","battery-v0.2","","""event"",""trial"",""time""
""focus"",""1"",""1342""
""fullscreenenter"",""1"",""1870""
","
","""event"",""trial"",""time""
""focus"",""1"",""1342""
","""event"",""trial"",""time""
""fullscreenenter"",""1"",""1870""
","
","","","100.90000003576279","","","19","10130","4704","&#9761;","elianto","#3366ff99","-1"," ","0","0","[952]","1","0","2","","","","","","","",""
"pit-trial","54","460925","0.0-2.0-11.3-2.3","battery-v0.2","","""event"",""trial"",""time""
""focus"",""1"",""1342""
""fullscreenenter"",""1"",""1870""
","
","""event"",""trial"",""time""
""focus"",""1"",""1342""
","""event"",""trial"",""time""
""fullscreenenter"",""1"",""1870""
","
","","","131.4000000357628","","","19","10130","4704","&#9761;","elianto","#3366ff99","-1"," ","0","0","[982.1999999880791]","1","0","2","","","","","","","",""
"pit-trial","55","465778","0.0-2.0-11.3-3.3","battery-v0.2","","""event"",""trial"",""time""
""focus"",""1"",""1342""
""fullscreenenter"",""1"",""1870""
","
","""event"",""trial"",""time""
""focus"",""1"",""1342""
","""event"",""trial"",""time""
""fullscreenenter"",""1"",""1870""
","
","","","-1","","","19","10130","4704","&#9761;","elianto","#3366ff99","-1","-1","1","0","[]","0","0","2","","","","","","","",""
"pit-trial","56","470632","0.0-2.0-11.3-4.3","battery-v0.2","","""event"",""trial"",""time""
""focus"",""1"",""1342""
""fullscreenenter"",""1"",""1870""
","
","""event"",""trial"",""time""
""focus"",""1"",""1342""
","""event"",""trial"",""time""
""fullscreenenter"",""1"",""1870""
","
","","","-1","","","19","10130","4704","&#9761;","elianto","#3366ff99","-1","-1","1","+10","[]","0","0","2","","","","","","","",""
"call-function","57","470633","0.0-2.0-12.0","battery-v0.2","","""event"",""trial"",""time""
""focus"",""1"",""1342""
""fullscreenenter"",""1"",""1870""
","
","""event"",""trial"",""time""
""focus"",""1"",""1342""
","""event"",""trial"",""time""
""fullscreenenter"",""1"",""1870""
","
","","","","","","","","","","","","","","","","","","","","","","","","","","",""
"pit-instructions","58","507262","0.0-2.0-13.0","battery-v0.2","","""event"",""trial"",""time""
""focus"",""1"",""1342""
""fullscreenenter"",""1"",""1870""
","
","""event"",""trial"",""time""
""focus"",""1"",""1342""
","""event"",""trial"",""time""
""fullscreenenter"",""1"",""1870""
","
","","[{""page_index"":0,""viewing_time"":5636.400000035763},{""page_index"":1,""viewing_time"":10736},{""page_index"":2,""viewing_time"":4583.799999952316},{""page_index"":3,""viewing_time"":11064},{""page_index"":4,""viewing_time"":4608.200000047684}]","36628.5","","","","","","","","","","","","","","","","","","","","","","","",""
"pit-trial","59","510647","0.0-2.0-14.0-0.0","battery-v0.2","","""event"",""trial"",""time""
""focus"",""1"",""1342""
""fullscreenenter"",""1"",""1870""
","
","""event"",""trial"",""time""
""focus"",""1"",""1342""
","""event"",""trial"",""time""
""fullscreenenter"",""1"",""1870""
","
","","","526.9000000357628","","","19","10130","4704","&#9826;","elianto","#f73b6a7A","-1"," ","0","-10","[1380.300000011921]","1","0","3","","","","","","","",""
"pit-trial","60","515508","0.0-2.0-14.0-1.0","battery-v0.2","","""event"",""trial"",""time""
""focus"",""1"",""1342""
""fullscreenenter"",""1"",""1870""
","
","""event"",""trial"",""time""
""focus"",""1"",""1342""
","""event"",""trial"",""time""
""fullscreenenter"",""1"",""1870""
","
","","","-1","","","19","10130","4704","&#9826;","elianto","#f73b6a7A","-1","-1","1","0","[]","0","0","3","","","","","","","",""
"pit-trial","61","519416","0.0-2.0-14.0-2.0","battery-v0.2","","""event"",""trial"",""time""
""focus"",""1"",""1342""
""fullscreenenter"",""1"",""1870""
","
","""event"",""trial"",""time""
""focus"",""1"",""1342""
","""event"",""trial"",""time""
""fullscreenenter"",""1"",""1870""
","
","","","1038.3999999761581","","","19","10130","4704","&#9826;","elianto","#f73b6a7A","-1"," ","0","-10","[1893.5]","1","0","3","","","","","","","",""
"pit-trial","62","524283","0.0-2.0-14.0-3.0","battery-v0.2","","""event"",""trial"",""time""
""focus"",""1"",""1342""
""fullscreenenter"",""1"",""1870""
","
","""event"",""trial"",""time""
""focus"",""1"",""1342""
","""event"",""trial"",""time""
""fullscreenenter"",""1"",""1870""
","
","","","-1","","","19","10130","4704","&#9826;","elianto","#f73b6a7A","-1","-1","1","-10","[]","0","0","3","","","","","","","",""
"pit-trial","63","529158","0.0-2.0-14.0-4.0","battery-v0.2","","""event"",""trial"",""time""
""focus"",""1"",""1342""
""fullscreenenter"",""1"",""1870""
","
","""event"",""trial"",""time""
""focus"",""1"",""1342""
","""event"",""trial"",""time""
""fullscreenenter"",""1"",""1870""
","
","","","-1","","","19","10130","4704","&#9826;","elianto","#f73b6a7A","-1","-1","1","0","[]","0","0","3","","","","","","","",""
"pit-trial","64","532772","0.0-2.0-14.1-0.1","battery-v0.2","","""event"",""trial"",""time""
""focus"",""1"",""1342""
""fullscreenenter"",""1"",""1870""
","
","""event"",""trial"",""time""
""focus"",""1"",""1342""
","""event"",""trial"",""time""
""fullscreenenter"",""1"",""1870""
","
","","","751.5","","","19","10130","4704","&#9826;","elianto","#f73b6a7A","-1"," ","0","-10","[1603.1000000238419]","1","0","3","","","","","","","",""
"pit-trial","65","536209","0.0-2.0-14.1-1.1","battery-v0.2","","""event"",""trial"",""time""
""focus"",""1"",""1342""
""fullscreenenter"",""1"",""1870""
","
","""event"",""trial"",""time""
""focus"",""1"",""1342""
","""event"",""trial"",""time""
""fullscreenenter"",""1"",""1870""
","
","","","574.1000000238419","","","19","10130","4704","&#9826;","elianto","#f73b6a7A","-1"," ","0","-10","[1424.9000000357628]","1","0","3","","","","","","","",""
"pit-trial","66","541062","0.0-2.0-14.1-2.1","battery-v0.2","","""event"",""trial"",""time""
""focus"",""1"",""1342""
""fullscreenenter"",""1"",""1870""
","
","""event"",""trial"",""time""
""focus"",""1"",""1342""
","""event"",""trial"",""time""
""fullscreenenter"",""1"",""1870""
","
","","","-1","","","19","10130","4704","&#9826;","elianto","#f73b6a7A","-1","-1","1","0","[]","0","0","3","","","","","","","",""
"pit-trial","67","544772","0.0-2.0-14.1-3.1","battery-v0.2","","""event"",""trial"",""time""
""focus"",""1"",""1342""
""fullscreenenter"",""1"",""1870""
","
","""event"",""trial"",""time""
""focus"",""1"",""1342""
","""event"",""trial"",""time""
""fullscreenenter"",""1"",""1870""
","
","","","856.8999999761581","","","19","10130","4704","&#9826;","elianto","#f73b6a7A","-1"," ","0","0","[1708.300000011921]","1","0","3","","","","","","","",""
"pit-trial","68","548268","0.0-2.0-14.1-4.1","battery-v0.2","","""event"",""trial"",""time""
""focus"",""1"",""1342""
""fullscreenenter"",""1"",""1870""
","
","""event"",""trial"",""time""
""focus"",""1"",""1342""
","""event"",""trial"",""time""
""fullscreenenter"",""1"",""1870""
","
","","","643.6000000238419","","","19","10130","4704","&#9826;","elianto","#f73b6a7A","-1"," ","0","-10","[1494.0999999642372]","1","0","3","","","","","","","",""
"pit-trial","69","553123","0.0-2.0-14.2-0.2","battery-v0.2","","""event"",""trial"",""time""
""focus"",""1"",""1342""
""fullscreenenter"",""1"",""1870""
","
","""event"",""trial"",""time""
""focus"",""1"",""1342""
","""event"",""trial"",""time""
""fullscreenenter"",""1"",""1870""
","
","","","-1","","","19","10130","4704","&#9826;","elianto","#f73b6a7A","-1","-1","1","0","[]","0","0","3","","","","","","","",""
"pit-trial","70","557980","0.0-2.0-14.2-1.2","battery-v0.2","","""event"",""trial"",""time""
""focus"",""1"",""1342""
""fullscreenenter"",""1"",""1870""
","
","""event"",""trial"",""time""
""focus"",""1"",""1342""
","""event"",""trial"",""time""
""fullscreenenter"",""1"",""1870""
","
","","","-1","","","19","10130","4704","&#9826;","elianto","#f73b6a7A","-1","-1","1","0","[]","0","0","3","","","","","","","",""
"pit-trial","71","562834","0.0-2.0-14.2-2.2","battery-v0.2","","""event"",""trial"",""time""
""focus"",""1"",""1342""
""fullscreenenter"",""1"",""1870""
","
","""event"",""trial"",""time""
""focus"",""1"",""1342""
","""event"",""trial"",""time""
""fullscreenenter"",""1"",""1870""
","
","","","-1","","","19","10130","4704","&#9826;","elianto","#f73b6a7A","-1","-1","1","0","[]","0","0","3","","","","","","","",""
"pit-trial","72","566889","0.0-2.0-14.2-3.2","battery-v0.2","","""event"",""trial"",""time""
""focus"",""1"",""1342""
""fullscreenenter"",""1"",""1870""
","
","""event"",""trial"",""time""
""focus"",""1"",""1342""
","""event"",""trial"",""time""
""fullscreenenter"",""1"",""1870""
","
","","","1202.300000011921","","","19","10130","4704","&#9826;","elianto","#f73b6a7A","-1"," ","0","0","[2052.399999976158]","1","0","3","","","","","","","",""
"pit-trial","73","570366","0.0-2.0-14.2-4.2","battery-v0.2","","""event"",""trial"",""time""
""focus"",""1"",""1342""
""fullscreenenter"",""1"",""1870""
","
","""event"",""trial"",""time""
""focus"",""1"",""1342""
","""event"",""trial"",""time""
""fullscreenenter"",""1"",""1870""
","
","","","621.8000000119209","","","19","10130","4704","&#9826;","elianto","#f73b6a7A","-1"," ","0","-10","[1473.0999999642372]","1","0","3","","","","","","","",""
"pit-trial","74","575220","0.0-2.0-14.3-0.3","battery-v0.2","","""event"",""trial"",""time""
""focus"",""1"",""1342""
""fullscreenenter"",""1"",""1870""
","
","""event"",""trial"",""time""
""focus"",""1"",""1342""
","""event"",""trial"",""time""
""fullscreenenter"",""1"",""1870""
","
","","","-1","","","19","10130","4704","&#9826;","elianto","#f73b6a7A","-1","-1","1","0","[]","0","0","3","","","","","","","",""
"pit-trial","75","580074","0.0-2.0-14.3-1.3","battery-v0.2","","""event"",""trial"",""time""
""focus"",""1"",""1342""
""fullscreenenter"",""1"",""1870""
","
","""event"",""trial"",""time""
""focus"",""1"",""1342""
","""event"",""trial"",""time""
""fullscreenenter"",""1"",""1870""
","
","","","-1","","","19","10130","4704","&#9826;","elianto","#f73b6a7A","-1","-1","1","0","[2956.399999976158]","1","0","3","","","","","","","",""
"pit-trial","76","583705","0.0-2.0-14.3-2.3","battery-v0.2","","""event"",""trial"",""time""
""focus"",""1"",""1342""
""fullscreenenter"",""1"",""1870""
","
","""event"",""trial"",""time""
""focus"",""1"",""1342""
","""event"",""trial"",""time""
""fullscreenenter"",""1"",""1870""
","
","","","778.5","","","19","10130","4704","&#9826;","elianto","#f73b6a7A","-1"," ","0","-10","[1629.1000000238419]","1","0","3","","","","","","","",""
"pit-trial","77","588164","0.0-2.0-14.3-3.3","battery-v0.2","","""event"",""trial"",""time""
""focus"",""1"",""1342""
""fullscreenenter"",""1"",""1870""
","
","""event"",""trial"",""time""
""focus"",""1"",""1342""
","""event"",""trial"",""time""
""fullscreenenter"",""1"",""1870""
","
","","","1606","","","19","10130","4704","&#9826;","elianto","#f73b6a7A","-1"," ","0","0","[2457.099999964237]","1","0","3","","","","","","","",""
"pit-trial","78","593019","0.0-2.0-14.3-4.3","battery-v0.2","","""event"",""trial"",""time""
""focus"",""1"",""1342""
""fullscreenenter"",""1"",""1870""
","
","""event"",""trial"",""time""
""focus"",""1"",""1342""
","""event"",""trial"",""time""
""fullscreenenter"",""1"",""1870""
","
","","","-1","","","19","10130","4704","&#9826;","elianto","#f73b6a7A","-1","-1","1","0","[]","0","0","3","","","","","","","",""
"call-function","79","593020","0.0-2.0-15.0","battery-v0.2","","""event"",""trial"",""time""
""focus"",""1"",""1342""
""fullscreenenter"",""1"",""1870""
","
","""event"",""trial"",""time""
""focus"",""1"",""1342""
","""event"",""trial"",""time""
""fullscreenenter"",""1"",""1870""
","
","","","","","","","","","","","","","","","","","","","","","","","","","","",""
"pit-instructions","80","655159","0.0-2.0-16.0","battery-v0.2","","""event"",""trial"",""time""
""focus"",""1"",""1342""
""fullscreenenter"",""1"",""1870""
","
","""event"",""trial"",""time""
""focus"",""1"",""1342""
","""event"",""trial"",""time""
""fullscreenenter"",""1"",""1870""
","
","","[{""page_index"":0,""viewing_time"":14776.5},{""page_index"":1,""viewing_time"":21335.900000035763},{""page_index"":2,""viewing_time"":18688.5},{""page_index"":3,""viewing_time"":7336.199999988079}]","62137.30000001192","","","","","","","","","","","","","","","","","","","","","","","",""
"pit-trial","81","658994","0.0-2.0-17.0-0.0","battery-v0.2","","""event"",""trial"",""time""
""focus"",""1"",""1342""
""fullscreenenter"",""1"",""1870""
","
","""event"",""trial"",""time""
""focus"",""1"",""1342""
","""event"",""trial"",""time""
""fullscreenenter"",""1"",""1870""
","
","","","972.8000000119209","","","19","10130","4704","&#9789;","elianto","#f73b6a7A"," "," ","1","0","[1822.800000011921]","1","0","4","","","","","","","",""
"pit-trial","82","663593","0.0-2.0-17.0-1.0","battery-v0.2","","""event"",""trial"",""time""
""focus"",""1"",""1342""
""fullscreenenter"",""1"",""1870""
","
","""event"",""trial"",""time""
""focus"",""1"",""1342""
","""event"",""trial"",""time""
""fullscreenenter"",""1"",""1870""
","
","","","1734.9000000357628","","","19","10130","4704","&#9789;","elianto","#f73b6a7A"," "," ","1","0","[2587.2999999523163]","1","0","4","","","","","","","",""
"pit-trial","83","668460","0.0-2.0-17.0-2.0","battery-v0.2","","""event"",""trial"",""time""
""focus"",""1"",""1342""
""fullscreenenter"",""1"",""1870""
","
","""event"",""trial"",""time""
""focus"",""1"",""1342""
","""event"",""trial"",""time""
""fullscreenenter"",""1"",""1870""
","
","","","-1","","","19","10130","4704","&#9789;","elianto","#f73b6a7A"," ","-1","0","-10","[2909.5]","1","0","4","","","","","","","",""
"pit-trial","84","673337","0.0-2.0-17.0-3.0","battery-v0.2","","""event"",""trial"",""time""
""focus"",""1"",""1342""
""fullscreenenter"",""1"",""1870""
","
","""event"",""trial"",""time""
""focus"",""1"",""1342""
","""event"",""trial"",""time""
""fullscreenenter"",""1"",""1870""
","
","","","-1","","","19","10130","4704","&#9789;","elianto","#f73b6a7A"," ","-1","0","0","[]","0","0","4","","","","","","","",""
"pit-trial","85","678204","0.0-2.0-17.0-4.0","battery-v0.2","","""event"",""trial"",""time""
""focus"",""1"",""1342""
""fullscreenenter"",""1"",""1870""
","
","""event"",""trial"",""time""
""focus"",""1"",""1342""
","""event"",""trial"",""time""
""fullscreenenter"",""1"",""1870""
","
","","","-1","","","19","10130","4704","&#9789;","elianto","#f73b6a7A"," ","-1","0","-10","[]","0","0","4","","","","","","","",""
"pit-trial","86","683075","0.0-2.0-17.1-0.1","battery-v0.2","","""event"",""trial"",""time""
""focus"",""1"",""1342""
""fullscreenenter"",""1"",""1870""
","
","""event"",""trial"",""time""
""focus"",""1"",""1342""
","""event"",""trial"",""time""
""fullscreenenter"",""1"",""1870""
","
","","","-1","","","19","10130","4704","&#9789;","elianto","#f73b6a7A"," ","-1","0","-10","[]","0","0","4","","","","","","","",""
"pit-trial","87","686485","0.0-2.0-17.1-1.1","battery-v0.2","","""event"",""trial"",""time""
""focus"",""1"",""1342""
""fullscreenenter"",""1"",""1870""
","
","""event"",""trial"",""time""
""focus"",""1"",""1342""
","""event"",""trial"",""time""
""fullscreenenter"",""1"",""1870""
","
","","","556.8999999761581","","","19","10130","4704","&#9789;","elianto","#f73b6a7A"," "," ","1","0","[1407.199999988079]","1","0","4","","","","","","","",""
"pit-trial","88","690767","0.0-2.0-17.1-2.1","battery-v0.2","","""event"",""trial"",""time""
""focus"",""1"",""1342""
""fullscreenenter"",""1"",""1870""
","
","""event"",""trial"",""time""
""focus"",""1"",""1342""
","""event"",""trial"",""time""
""fullscreenenter"",""1"",""1870""
","
","","","1428.3999999761581","","","19","10130","4704","&#9789;","elianto","#f73b6a7A"," "," ","1","0","[2279.400000035763]","1","0","4","","","","","","","",""
"pit-trial","89","694458","0.0-2.0-17.1-3.1","battery-v0.2","","""event"",""trial"",""time""
""focus"",""1"",""1342""
""fullscreenenter"",""1"",""1870""
","
","""event"",""trial"",""time""
""focus"",""1"",""1342""
","""event"",""trial"",""time""
""fullscreenenter"",""1"",""1870""
","
","","","834.1999999880791","","","19","10130","4704","&#9789;","elianto","#f73b6a7A"," "," ","1","-10","[1685.5]","1","0","4","","","","","","","",""
"pit-trial","90","699312","0.0-2.0-17.1-4.1","battery-v0.2","","""event"",""trial"",""time""
""focus"",""1"",""1342""
""fullscreenenter"",""1"",""1870""
","
","""event"",""trial"",""time""
""focus"",""1"",""1342""
","""event"",""trial"",""time""
""fullscreenenter"",""1"",""1870""
","
","","","-1","","","19","10130","4704","&#9789;","elianto","#f73b6a7A"," ","-1","0","-10","[]","0","0","4","","","","","","","",""
"pit-trial","91","704166","0.0-2.0-17.2-0.2","battery-v0.2","","""event"",""trial"",""time""
""focus"",""1"",""1342""
""fullscreenenter"",""1"",""1870""
","
","""event"",""trial"",""time""
""focus"",""1"",""1342""
","""event"",""trial"",""time""
""fullscreenenter"",""1"",""1870""
","
","","","-1","","","19","10130","4704","&#9789;","elianto","#f73b6a7A"," ","-1","0","-10","[3032.199999988079]","1","0","4","","","","","","","",""
"pit-trial","92","708453","0.0-2.0-17.2-1.2","battery-v0.2","","""event"",""trial"",""time""
""focus"",""1"",""1342""
""fullscreenenter"",""1"",""1870""
","
","""event"",""trial"",""time""
""focus"",""1"",""1342""
","""event"",""trial"",""time""
""fullscreenenter"",""1"",""1870""
","
","","","1433.4000000357628","","","19","10130","4704","&#9789;","elianto","#f73b6a7A"," "," ","1","0","[2283.600000023842]","1","0","4","","","","","","","",""
"pit-trial","93","712848","0.0-2.0-17.2-2.2","battery-v0.2","","""event"",""trial"",""time""
""focus"",""1"",""1342""
""fullscreenenter"",""1"",""1870""
","
","""event"",""trial"",""time""
""focus"",""1"",""1342""
","""event"",""trial"",""time""
""fullscreenenter"",""1"",""1870""
","
","","","1543.300000011921","","","19","10130","4704","&#9789;","elianto","#f73b6a7A"," "," ","1","0","[2393]","1","0","4","","","","","","","",""
"pit-trial","94","717702","0.0-2.0-17.2-3.2","battery-v0.2","","""event"",""trial"",""time""
""focus"",""1"",""1342""
""fullscreenenter"",""1"",""1870""
","
","""event"",""trial"",""time""
""focus"",""1"",""1342""
","""event"",""trial"",""time""
""fullscreenenter"",""1"",""1870""
","
","","","-1","","","19","10130","4704","&#9789;","elianto","#f73b6a7A"," ","-1","0","0","[]","0","0","4","","","","","","","",""
"pit-trial","95","722040","0.0-2.0-17.2-4.2","battery-v0.2","","""event"",""trial"",""time""
""focus"",""1"",""1342""
""fullscreenenter"",""1"",""1870""
","
","""event"",""trial"",""time""
""focus"",""1"",""1342""
","""event"",""trial"",""time""
""fullscreenenter"",""1"",""1870""
","
","","","1485","","","19","10130","4704","&#9789;","elianto","#f73b6a7A"," "," ","1","0","[2335.300000011921]","1","0","4","","","","","","","",""
"pit-trial","96","726894","0.0-2.0-17.3-0.3","battery-v0.2","","""event"",""trial"",""time""
""focus"",""1"",""1342""
""fullscreenenter"",""1"",""1870""
","
","""event"",""trial"",""time""
""focus"",""1"",""1342""
","""event"",""trial"",""time""
""fullscreenenter"",""1"",""1870""
","
","","","-1","","","19","10130","4704","&#9789;","elianto","#f73b6a7A"," ","-1","0","-10","[]","0","0","4","","","","","","","",""
"pit-trial","97","731749","0.0-2.0-17.3-1.3","battery-v0.2","","""event"",""trial"",""time""
""focus"",""1"",""1342""
""fullscreenenter"",""1"",""1870""
","
","""event"",""trial"",""time""
""focus"",""1"",""1342""
","""event"",""trial"",""time""
""fullscreenenter"",""1"",""1870""
","
","","","-1","","","19","10130","4704","&#9789;","elianto","#f73b6a7A"," ","-1","0","-10","[]","0","0","4","","","","","","","",""
"pit-trial","98","736602","0.0-2.0-17.3-2.3","battery-v0.2","","""event"",""trial"",""time""
""focus"",""1"",""1342""
""fullscreenenter"",""1"",""1870""
","
","""event"",""trial"",""time""
""focus"",""1"",""1342""
","""event"",""trial"",""time""
""fullscreenenter"",""1"",""1870""
","
","","","-1","","","19","10130","4704","&#9789;","elianto","#f73b6a7A"," ","-1","0","-10","[]","0","0","4","","","","","","","",""
"pit-trial","99","741455","0.0-2.0-17.3-3.3","battery-v0.2","","""event"",""trial"",""time""
""focus"",""1"",""1342""
""fullscreenenter"",""1"",""1870""
","
","""event"",""trial"",""time""
""focus"",""1"",""1342""
","""event"",""trial"",""time""
""fullscreenenter"",""1"",""1870""
","
","","","-1","","","19","10130","4704","&#9789;","elianto","#f73b6a7A"," ","-1","0","0","[]","0","0","4","","","","","","","",""
"pit-trial","100","744924","0.0-2.0-17.3-4.3","battery-v0.2","","""event"",""trial"",""time""
""focus"",""1"",""1342""
""fullscreenenter"",""1"",""1870""
","
","""event"",""trial"",""time""
""focus"",""1"",""1342""
","""event"",""trial"",""time""
""fullscreenenter"",""1"",""1870""
","
","","","615.5999999642372","","","19","10130","4704","&#9789;","elianto","#f73b6a7A"," "," ","1","0","[1466.5999999642372,3125.300000011921]","2","0","4","","","","","","","",""
"call-function","101","744926","0.0-2.0-18.0","battery-v0.2","","""event"",""trial"",""time""
""focus"",""1"",""1342""
""fullscreenenter"",""1"",""1870""
","
","""event"",""trial"",""time""
""focus"",""1"",""1342""
","""event"",""trial"",""time""
""fullscreenenter"",""1"",""1870""
","
","","","","","","","","","","","","","","","","","","","","","","","","","","",""
"pit-instructions","102","812310","0.0-2.0-19.0","battery-v0.2","","""event"",""trial"",""time""
""focus"",""1"",""1342""
""fullscreenenter"",""1"",""1870""
","
","""event"",""trial"",""time""
""focus"",""1"",""1342""
","""event"",""trial"",""time""
""fullscreenenter"",""1"",""1870""
","
","","[{""page_index"":0,""viewing_time"":6534.599999964237},{""page_index"":1,""viewing_time"":5696},{""page_index"":2,""viewing_time"":14223.300000011921},{""page_index"":3,""viewing_time"":7657.300000011921},{""page_index"":4,""viewing_time"":8678.800000011921},{""page_index"":5,""viewing_time"":8376.5},{""page_index"":6,""viewing_time"":6488},{""page_index"":7,""viewing_time"":5344.199999988079},{""page_index"":8,""viewing_time"":4383.899999976158}]","67382.89999997616","","","","","","","","","","","","","","","","","","","","","","","",""
"pit-comprehension","103","816999","0.0-2.0-20.0-0.0","battery-v0.2","","""event"",""trial"",""time""
""focus"",""1"",""1342""
""fullscreenenter"",""1"",""1870""
","
","""event"",""trial"",""time""
""focus"",""1"",""1342""
","""event"",""trial"",""time""
""fullscreenenter"",""1"",""1870""
","
","","","4686.300000011921","[""SPACE""]","0","19","10130","4704","","","","","","","","","","","","","","","","","","",""
"pit-instructions","104","820438","0.0-2.0-20.0-1.0","battery-v0.2","","""event"",""trial"",""time""
""focus"",""1"",""1342""
""fullscreenenter"",""1"",""1870""
","
","""event"",""trial"",""time""
""focus"",""1"",""1342""
","""event"",""trial"",""time""
""fullscreenenter"",""1"",""1870""
","
","","[{""page_index"":0,""viewing_time"":3409.699999988079}]","3409.899999976158","","","","","","","","","","","","","","","","","","","","","","","",""
"pit-comprehension","105","827311","0.0-2.0-21.0-0.0","battery-v0.2","","""event"",""trial"",""time""
""focus"",""1"",""1342""
""fullscreenenter"",""1"",""1870""
","
","""event"",""trial"",""time""
""focus"",""1"",""1342""
","""event"",""trial"",""time""
""fullscreenenter"",""1"",""1870""
","
","","","6870.399999976158","[""10""]","0","19","10130","4704","","","","","","","","","","","","","","","","","","",""
"pit-instructions","106","830119","0.0-2.0-21.0-1.0","battery-v0.2","","""event"",""trial"",""time""
""focus"",""1"",""1342""
""fullscreenenter"",""1"",""1870""
","
","""event"",""trial"",""time""
""focus"",""1"",""1342""
","""event"",""trial"",""time""
""fullscreenenter"",""1"",""1870""
","
","","[{""page_index"":0,""viewing_time"":2781.699999988079}]","2781.899999976158","","","","","","","","","","","","","","","","","","","","","","","",""
"pit-comprehension","107","838583","0.0-2.0-22.0-0.0","battery-v0.2","","""event"",""trial"",""time""
""focus"",""1"",""1342""
""fullscreenenter"",""1"",""1870""
","
","""event"",""trial"",""time""
""focus"",""1"",""1342""
","""event"",""trial"",""time""
""fullscreenenter"",""1"",""1870""
","
","","","8461.800000011921","[""0""]","0","19","10130","4704","","","","","","","","","","","","","","","","","","",""
"pit-instructions","108","841990","0.0-2.0-22.0-1.0","battery-v0.2","","""event"",""trial"",""time""
""focus"",""1"",""1342""
""fullscreenenter"",""1"",""1870""
","
","""event"",""trial"",""time""
""focus"",""1"",""1342""
","""event"",""trial"",""time""
""fullscreenenter"",""1"",""1870""
","
","","[{""page_index"":0,""viewing_time"":3385}]","3385.100000023842","","","","","","","","","","","","","","","","","","","","","","","",""
"pit-comprehension","109","858039","0.0-2.0-23.0-0.0","battery-v0.2","","""event"",""trial"",""time""
""focus"",""1"",""1342""
""fullscreenenter"",""1"",""1870""
","
","""event"",""trial"",""time""
""focus"",""1"",""1342""
","""event"",""trial"",""time""
""fullscreenenter"",""1"",""1870""
","
","","","16046.399999976158","[""True""]","0","19","10130","4704","","","","","","","","","","","","","","","","","","",""
"pit-instructions","110","863919","0.0-2.0-23.0-1.0","battery-v0.2","","""event"",""trial"",""time""
""focus"",""1"",""1342""
""fullscreenenter"",""1"",""1870""
","
","""event"",""trial"",""time""
""focus"",""1"",""1342""
","""event"",""trial"",""time""
""fullscreenenter"",""1"",""1870""
","
","","[{""page_index"":0,""viewing_time"":5858.600000023842}]","5858.699999988079","","","","","","","","","","","","","","","","","","","","","","","",""
"pit-comprehension","111","871511","0.0-2.0-24.0-0.0","battery-v0.2","","""event"",""trial"",""time""
""focus"",""1"",""1342""
""fullscreenenter"",""1"",""1870""
","
","""event"",""trial"",""time""
""focus"",""1"",""1342""
","""event"",""trial"",""time""
""fullscreenenter"",""1"",""1870""
","
","","","7589.600000023842","[""True""]","0","19","10130","4704","","","","","","","","","","","","","","","","","","",""
"pit-instructions","112","873887","0.0-2.0-24.0-1.0","battery-v0.2","","""event"",""trial"",""time""
""focus"",""1"",""1342""
""fullscreenenter"",""1"",""1870""
","
","""event"",""trial"",""time""
""focus"",""1"",""1342""
","""event"",""trial"",""time""
""fullscreenenter"",""1"",""1870""
","
","","[{""page_index"":0,""viewing_time"":2350.400000035763}]","2350.600000023842","","","","","","","","","","","","","","","","","","","","","","","",""
"pit-comprehension","113","880351","0.0-2.0-25.0-0.0","battery-v0.2","","""event"",""trial"",""time""
""focus"",""1"",""1342""
""fullscreenenter"",""1"",""1870""
","
","""event"",""trial"",""time""
""focus"",""1"",""1342""
","""event"",""trial"",""time""
""fullscreenenter"",""1"",""1870""
","
","","","6462.199999988079","[""True""]","0","19","10130","4704","","","","","","","","","","","","","","","","","","",""
"pit-instructions","114","882919","0.0-2.0-25.0-1.0","battery-v0.2","","""event"",""trial"",""time""
""focus"",""1"",""1342""
""fullscreenenter"",""1"",""1870""
","
","""event"",""trial"",""time""
""focus"",""1"",""1342""
","""event"",""trial"",""time""
""fullscreenenter"",""1"",""1870""
","
","","[{""page_index"":0,""viewing_time"":2544.5}]","2544.599999964237","","","","","","","","","","","","","","","","","","","","","","","",""
"pit-comprehension","115","888559","0.0-2.0-26.0-0.0","battery-v0.2","","""event"",""trial"",""time""
""focus"",""1"",""1342""
""fullscreenenter"",""1"",""1870""
","
","""event"",""trial"",""time""
""focus"",""1"",""1342""
","""event"",""trial"",""time""
""fullscreenenter"",""1"",""1870""
","
","","","5637.600000023842","[""False""]","0","19","10130","4704","","","","","","","","","","","","","","","","","","",""
"pit-instructions","116","890422","0.0-2.0-26.0-1.0","battery-v0.2","","""event"",""trial"",""time""
""focus"",""1"",""1342""
""fullscreenenter"",""1"",""1870""
","
","""event"",""trial"",""time""
""focus"",""1"",""1342""
","""event"",""trial"",""time""
""fullscreenenter"",""1"",""1870""
","
","","[{""page_index"":0,""viewing_time"":1842.0999999642372}]","1842.2999999523163","","","","","","","","","","","","","","","","","","","","","","","",""
"pit-instructions","117","909134","0.0-3.0","battery-v0.2","","""event"",""trial"",""time""
""focus"",""1"",""1342""
""fullscreenenter"",""1"",""1870""
","
","""event"",""trial"",""time""
""focus"",""1"",""1342""
","""event"",""trial"",""time""
""fullscreenenter"",""1"",""1870""
","
","","[{""page_index"":0,""viewing_time"":4927.100000023842},{""page_index"":1,""viewing_time"":6791.799999952316},{""page_index"":2,""viewing_time"":6991.800000011921}]","18710.899999976158","","","","","","","","","","","","","","","","","","","","","","","",""
"pit-trial","118","912355","0.0-4.0","battery-v0.2","","""event"",""trial"",""time""
""focus"",""1"",""1342""
""fullscreenenter"",""1"",""1870""
","
","""event"",""trial"",""time""
""focus"",""1"",""1342""
","""event"",""trial"",""time""
""fullscreenenter"",""1"",""1870""
","
","","","352.10000002384186","","","19","10130","4704","&#9730;","elianto","#3366ff99"," "," ","1","+10","[1203.5999999642372]","1","1","","","10130","1","1","1","win","go","0"
"pit-trial","119","915549","0.0-5.0","battery-v0.2","","""event"",""trial"",""time""
""focus"",""1"",""1342""
""fullscreenenter"",""1"",""1870""
","
","""event"",""trial"",""time""
""focus"",""1"",""1342""
","""event"",""trial"",""time""
""fullscreenenter"",""1"",""1870""
","
","","","336","","","19","10130","4704","&#9752;","elianto","#f73b6a7A"," "," ","1","0","[1189.0999999642372]","1","1","","","10130","2","3","3","lose","go","0"
"pit-trial","120","918573","0.0-6.0","battery-v0.2","","""event"",""trial"",""time""
""focus"",""1"",""1342""
""fullscreenenter"",""1"",""1870""
","
","""event"",""trial"",""time""
""focus"",""1"",""1342""
","""event"",""trial"",""time""
""fullscreenenter"",""1"",""1870""
","
","","","159.20000004768372","","","19","10130","4704","&#9728;","elianto","#f73b6a7A","-1"," ","0","-10","[1011.4000000357628]","1","1","","","10130","3","0","4","lose","no-go","0"
"pit-trial","121","921876","0.0-7.0","battery-v0.2","","""event"",""trial"",""time""
""focus"",""1"",""1342""
""fullscreenenter"",""1"",""1870""
","
","""event"",""trial"",""time""
""focus"",""1"",""1342""
","""event"",""trial"",""time""
""fullscreenenter"",""1"",""1870""
","
","","","442.39999997615814","","","19","10130","4704","&#9733;","elianto","#3366ff99","-1"," ","0","0","[1294.199999988079]","1","1","","","10130","4","2","2","win","no-go","0"
"pit-trial","122","925418","0.0-8.0","battery-v0.2","","""event"",""trial"",""time""
""focus"",""1"",""1342""
""fullscreenenter"",""1"",""1870""
","
","""event"",""trial"",""time""
""focus"",""1"",""1342""
","""event"",""trial"",""time""
""fullscreenenter"",""1"",""1870""
","
","","","676.3999999761581","","","19","10130","4704","&#9728;","elianto","#f73b6a7A","-1"," ","0","-10","[1529.5999999642372]","1","1","","","10130","5","0","4","lose","no-go","0"
"pit-trial","123","928728","0.0-9.0","battery-v0.2","","""event"",""trial"",""time""
""focus"",""1"",""1342""
""fullscreenenter"",""1"",""1870""
","
","""event"",""trial"",""time""
""focus"",""1"",""1342""
","""event"",""trial"",""time""
""fullscreenenter"",""1"",""1870""
","
","","","441.5","","","19","10130","4704","&#9733;","elianto","#3366ff99","-1"," ","0","0","[1293.5999999642372]","1","1","","","10130","6","2","2","win","no-go","0"
"pit-trial","124","932364","0.0-10.0","battery-v0.2","","""event"",""trial"",""time""
""focus"",""1"",""1342""
""fullscreenenter"",""1"",""1870""
","
","""event"",""trial"",""time""
""focus"",""1"",""1342""
","""event"",""trial"",""time""
""fullscreenenter"",""1"",""1870""
","
","","","776.3999999761581","","","19","10130","4704","&#9752;","elianto","#f73b6a7A"," "," ","1","0","[1627]","1","1","","","10130","7","3","3","lose","go","0"
"pit-trial","125","935644","0.0-11.0","battery-v0.2","","""event"",""trial"",""time""
""focus"",""1"",""1342""
""fullscreenenter"",""1"",""1870""
","
","""event"",""trial"",""time""
""focus"",""1"",""1342""
","""event"",""trial"",""time""
""fullscreenenter"",""1"",""1870""
","
","","","423.0999999642372","","","19","10130","4704","&#9730;","elianto","#3366ff99"," "," ","1","+10","[1274.5]","1","1","","","10130","8","1","1","win","go","0"
"pit-trial","126","939201","0.0-12.0","battery-v0.2","","""event"",""trial"",""time""
""focus"",""1"",""1342""
""fullscreenenter"",""1"",""1870""
","
","""event"",""trial"",""time""
""focus"",""1"",""1342""
","""event"",""trial"",""time""
""fullscreenenter"",""1"",""1870""
","
","","","695.4000000357628","","","19","10130","4704","&#9733;","elianto","#3366ff99","-1"," ","0","0","[1545.800000011921]","1","1","","","10130","9","2","2","win","no-go","0"
"pit-trial","127","942807","0.0-13.0","battery-v0.2","","""event"",""trial"",""time""
""focus"",""1"",""1342""
""fullscreenenter"",""1"",""1870""
","
","""event"",""trial"",""time""
""focus"",""1"",""1342""
","""event"",""trial"",""time""
""fullscreenenter"",""1"",""1870""
","
","","","751","","","19","10130","4704","&#9752;","elianto","#f73b6a7A"," "," ","1","0","[1602.3999999761581]","1","1","","","10130","10","3","3","lose","go","0"
"pit-trial","128","947660","0.0-14.0","battery-v0.2","","""event"",""trial"",""time""
""focus"",""1"",""1342""
""fullscreenenter"",""1"",""1870""
","
","""event"",""trial"",""time""
""focus"",""1"",""1342""
","""event"",""trial"",""time""
""fullscreenenter"",""1"",""1870""
","
","","","-1","","","19","10130","4704","&#9728;","elianto","#f73b6a7A","-1","-1","1","0","[]","0","1","","","10130","11","0","4","lose","no-go","0"
"pit-trial","129","951065","0.0-15.0","battery-v0.2","","""event"",""trial"",""time""
""focus"",""1"",""1342""
""fullscreenenter"",""1"",""1870""
","
","""event"",""trial"",""time""
""focus"",""1"",""1342""
","""event"",""trial"",""time""
""fullscreenenter"",""1"",""1870""
","
","","","551.7999999523163","","","19","10130","4704","&#9730;","elianto","#3366ff99"," "," ","1","+10","[1402.5999999642372]","1","1","","","10130","12","1","1","win","go","0"
"pit-trial","130","954535","0.0-16.0","battery-v0.2","","""event"",""trial"",""time""
""focus"",""1"",""1342""
""fullscreenenter"",""1"",""1870""
","
","""event"",""trial"",""time""
""focus"",""1"",""1342""
","""event"",""trial"",""time""
""fullscreenenter"",""1"",""1870""
","
","","","617","","","19","10130","4704","&#9730;","elianto","#3366ff99"," "," ","1","+10","[1468.0999999642372]","1","1","","","10130","13","1","1","win","go","0"
"pit-trial","131","958289","0.0-17.0","battery-v0.2","","""event"",""trial"",""time""
""focus"",""1"",""1342""
""fullscreenenter"",""1"",""1870""
","
","""event"",""trial"",""time""
""focus"",""1"",""1342""
","""event"",""trial"",""time""
""fullscreenenter"",""1"",""1870""
","
","","","899.7999999523163","","","19","10130","4704","&#9752;","elianto","#f73b6a7A"," "," ","1","0","[1751.3999999761581]","1","1","","","10130","14","3","3","lose","go","0"
"pit-trial","132","961844","0.0-18.0","battery-v0.2","","""event"",""trial"",""time""
""focus"",""1"",""1342""
""fullscreenenter"",""1"",""1870""
","
","""event"",""trial"",""time""
""focus"",""1"",""1342""
","""event"",""trial"",""time""
""fullscreenenter"",""1"",""1870""
","
","","","701.5999999642372","","","19","10130","4704","&#9733;","elianto","#3366ff99","-1"," ","0","0","[1552.3999999761581]","1","1","","","10130","15","2","2","win","no-go","0"
"pit-trial","133","966698","0.0-19.0","battery-v0.2","","""event"",""trial"",""time""
""focus"",""1"",""1342""
""fullscreenenter"",""1"",""1870""
","
","""event"",""trial"",""time""
""focus"",""1"",""1342""
","""event"",""trial"",""time""
""fullscreenenter"",""1"",""1870""
","
","","","-1","","","19","10130","4704","&#9728;","elianto","#f73b6a7A","-1","-1","1","0","[]","0","1","","","10130","16","0","4","lose","no-go","0"
"pit-trial","134","970176","0.0-20.0","battery-v0.2","","""event"",""trial"",""time""
""focus"",""1"",""1342""
""fullscreenenter"",""1"",""1870""
","
","""event"",""trial"",""time""
""focus"",""1"",""1342""
","""event"",""trial"",""time""
""fullscreenenter"",""1"",""1870""
","
","","","624.1999999880791","","","19","10130","4704","&#9730;","elianto","#3366ff99"," "," ","1","+10","[1475.1000000238419]","1","1","","","10130","17","1","1","win","go","0"
"pit-trial","135","973697","0.0-21.0","battery-v0.2","","""event"",""trial"",""time""
""focus"",""1"",""1342""
""fullscreenenter"",""1"",""1870""
","
","""event"",""trial"",""time""
""focus"",""1"",""1342""
","""event"",""trial"",""time""
""fullscreenenter"",""1"",""1870""
","
","","","666.6999999880791","","","19","10130","4704","&#9733;","elianto","#3366ff99","-1"," ","0","+10","[1516.7999999523163]","1","1","","","10130","18","2","2","win","no-go","1"
"pit-trial","136","977858","0.0-22.0","battery-v0.2","","""event"",""trial"",""time""
""focus"",""1"",""1342""
""fullscreenenter"",""1"",""1870""
","
","""event"",""trial"",""time""
""focus"",""1"",""1342""
","""event"",""trial"",""time""
""fullscreenenter"",""1"",""1870""
","
","","","1307.699999988079","","","19","10130","4704","&#9728;","elianto","#f73b6a7A","-1"," ","0","-10","[2158.5]","1","1","","","10130","19","0","4","lose","no-go","0"
"pit-trial","137","981646","0.0-23.0","battery-v0.2","","""event"",""trial"",""time""
""focus"",""1"",""1342""
""fullscreenenter"",""1"",""1870""
","
","""event"",""trial"",""time""
""focus"",""1"",""1342""
","""event"",""trial"",""time""
""fullscreenenter"",""1"",""1870""
","
","","","935.7999999523163","","","19","10130","4704","&#9752;","elianto","#f73b6a7A"," "," ","1","0","[1785.9000000357628]","1","1","","","10130","20","3","3","lose","go","0"
"pit-instructions","138","993093","0.0-24.0","battery-v0.2","","""event"",""trial"",""time""
""focus"",""1"",""1342""
""fullscreenenter"",""1"",""1870""
","
","""event"",""trial"",""time""
""focus"",""1"",""1342""
","""event"",""trial"",""time""
""fullscreenenter"",""1"",""1870""
","
","","[{""page_index"":0,""viewing_time"":5431.100000023842},{""page_index"":1,""viewing_time"":6015}]","11446.300000011921","","","","","","","","","","","","","","","","","","","","","","","",""
"pit-trial","139","996412","0.0-25.0","battery-v0.2","","""event"",""trial"",""time""
""focus"",""1"",""1342""
""fullscreenenter"",""1"",""1870""
","
","""event"",""trial"",""time""
""focus"",""1"",""1342""
","""event"",""trial"",""time""
""fullscreenenter"",""1"",""1870""
","
","","","464.10000002384186","","","19","10130","4704","r","elianto","#3366ff99"," "," ","1","+10","[1314.199999988079]","1","2","","","10130","21","1","1","win","go","0"
"pit-trial","140","1000768","0.0-26.0","battery-v0.2","","""event"",""trial"",""time""
""focus"",""1"",""1342""
""fullscreenenter"",""1"",""1870""
","
","""event"",""trial"",""time""
""focus"",""1"",""1342""
","""event"",""trial"",""time""
""fullscreenenter"",""1"",""1870""
","
","","","1490.199999988079","","","19","10130","4704","m","elianto","#f73b6a7A","-1"," ","0","-10","[2341]","1","2","","","10130","22","0","4","lose","no-go","0"
"pit-trial","141","1005639","0.0-27.0","battery-v0.2","","""event"",""trial"",""time""
""focus"",""1"",""1342""
""fullscreenenter"",""1"",""1870""
","
","""event"",""trial"",""time""
""focus"",""1"",""1342""
","""event"",""trial"",""time""
""fullscreenenter"",""1"",""1870""
","
","","","-1","","","19","10130","4704","y","elianto","#f73b6a7A","-1","-1","1","0","[]","0","2","","","10130","23","2","4","lose","no-go","0"
"pit-trial","142","1010289","0.0-28.0","battery-v0.2","","""event"",""trial"",""time""
""focus"",""1"",""1342""
""fullscreenenter"",""1"",""1870""
","
","""event"",""trial"",""time""
""focus"",""1"",""1342""
","""event"",""trial"",""time""
""fullscreenenter"",""1"",""1870""
","
","","","1782.5999999642372","","","19","10130","4704","h","elianto","#f73b6a7A"," "," ","1","0","[2634.5]","1","2","","","10130","24","3","3","lose","go","0"
"pit-trial","143","1014358","0.0-29.0","battery-v0.2","","""event"",""trial"",""time""
""focus"",""1"",""1342""
""fullscreenenter"",""1"",""1870""
","
","""event"",""trial"",""time""
""focus"",""1"",""1342""
","""event"",""trial"",""time""
""fullscreenenter"",""1"",""1870""
","
","","","1210.5","","","19","10130","4704","y","elianto","#f73b6a7A","-1"," ","0","-10","[2065.399999976158]","1","2","","","10130","25","2","4","lose","no-go","0"
"pit-trial","144","1019231","0.0-30.0","battery-v0.2","","""event"",""trial"",""time""
""focus"",""1"",""1342""
""fullscreenenter"",""1"",""1870""
","
","""event"",""trial"",""time""
""focus"",""1"",""1342""
","""event"",""trial"",""time""
""fullscreenenter"",""1"",""1870""
","
","","","-1","","","19","10130","4704","h","elianto","#f73b6a7A"," ","-1","0","-10","[]","0","2","","","10130","26","3","3","lose","go","0"
"pit-trial","145","1022555","0.0-31.0","battery-v0.2","","""event"",""trial"",""time""
""focus"",""1"",""1342""
""fullscreenenter"",""1"",""1870""
","
","""event"",""trial"",""time""
""focus"",""1"",""1342""
","""event"",""trial"",""time""
""fullscreenenter"",""1"",""1870""
","
","","","463","","","19","10130","4704","r","elianto","#3366ff99"," "," ","1","+10","[1313.800000011921]","1","2","","","10130","27","1","1","win","go","0"
"pit-trial","146","1027415","0.0-32.0","battery-v0.2","","""event"",""trial"",""time""
""focus"",""1"",""1342""
""fullscreenenter"",""1"",""1870""
","
","""event"",""trial"",""time""
""focus"",""1"",""1342""
","""event"",""trial"",""time""
""fullscreenenter"",""1"",""1870""
","
","","","-1","","","19","10130","4704","m","elianto","#f73b6a7A","-1","-1","1","-10","[]","0","2","","","10130","28","0","4","lose","no-go","1"
"pit-trial","147","1030765","0.0-33.0","battery-v0.2","","""event"",""trial"",""time""
""focus"",""1"",""1342""
""fullscreenenter"",""1"",""1870""
","
","""event"",""trial"",""time""
""focus"",""1"",""1342""
","""event"",""trial"",""time""
""fullscreenenter"",""1"",""1870""
","
","","","495.60000002384186","","","19","10130","4704","r","elianto","#3366ff99"," "," ","1","+10","[1345.5999999642372]","1","2","","","10130","29","1","1","win","go","0"
"pit-trial","148","1035623","0.0-34.0","battery-v0.2","","""event"",""trial"",""time""
""focus"",""1"",""1342""
""fullscreenenter"",""1"",""1870""
","
","""event"",""trial"",""time""
""focus"",""1"",""1342""
","""event"",""trial"",""time""
""fullscreenenter"",""1"",""1870""
","
","","","-1","","","19","10130","4704","m","elianto","#f73b6a7A","-1","-1","1","0","[]","0","2","","","10130","30","0","4","lose","no-go","0"
"pit-trial","149","1040216","0.0-35.0","battery-v0.2","","""event"",""trial"",""time""
""focus"",""1"",""1342""
""fullscreenenter"",""1"",""1870""
","
","""event"",""trial"",""time""
""focus"",""1"",""1342""
","""event"",""trial"",""time""
""fullscreenenter"",""1"",""1870""
","
","","","1725.5","","","19","10130","4704","h","elianto","#f73b6a7A"," "," ","1","0","[2576.399999976158]","1","2","","","10130","31","3","3","lose","go","0"
"pit-trial","150","1045070","0.0-36.0","battery-v0.2","","""event"",""trial"",""time""
""focus"",""1"",""1342""
""fullscreenenter"",""1"",""1870""
","
","""event"",""trial"",""time""
""focus"",""1"",""1342""
","""event"",""trial"",""time""
""fullscreenenter"",""1"",""1870""
","
","","","-1","","","19","10130","4704","y","elianto","#f73b6a7A","-1","-1","1","0","[2863.400000035763]","1","2","","","10130","32","2","4","lose","no-go","0"
"pit-trial","151","1049924","0.0-37.0","battery-v0.2","","""event"",""trial"",""time""
""focus"",""1"",""1342""
""fullscreenenter"",""1"",""1870""
","
","""event"",""trial"",""time""
""focus"",""1"",""1342""
","""event"",""trial"",""time""
""fullscreenenter"",""1"",""1870""
","
","","","-1","","","19","10130","4704","m","elianto","#f73b6a7A","-1","-1","1","0","[]","0","2","","","10130","33","0","4","lose","no-go","0"
"pit-trial","152","1053361","0.0-38.0","battery-v0.2","","""event"",""trial"",""time""
""focus"",""1"",""1342""
""fullscreenenter"",""1"",""1870""
","
","""event"",""trial"",""time""
""focus"",""1"",""1342""
","""event"",""trial"",""time""
""fullscreenenter"",""1"",""1870""
","
","","","584.6999999880791","","","19","10130","4704","r","elianto","#3366ff99"," "," ","1","+10","[1434.800000011921]","1","2","","","10130","34","1","1","win","go","0"
"pit-trial","153","1057721","0.0-39.0","battery-v0.2","","""event"",""trial"",""time""
""focus"",""1"",""1342""
""fullscreenenter"",""1"",""1870""
","
","""event"",""trial"",""time""
""focus"",""1"",""1342""
","""event"",""trial"",""time""
""fullscreenenter"",""1"",""1870""
","
","","","1505.8999999761581","","","19","10130","4704","y","elianto","#f73b6a7A","-1"," ","0","-10","[2356.5]","1","2","","","10130","35","2","4","lose","no-go","0"
"pit-trial","154","1061423","0.0-40.0","battery-v0.2","","""event"",""trial"",""time""
""focus"",""1"",""1342""
""fullscreenenter"",""1"",""1870""
","
","""event"",""trial"",""time""
""focus"",""1"",""1342""
","""event"",""trial"",""time""
""fullscreenenter"",""1"",""1870""
","
","","","847.9000000357628","","","19","10130","4704","h","elianto","#f73b6a7A"," "," ","1","-10","[1698.8999999761581]","1","2","","","10130","36","3","3","lose","go","1"
"pit-trial","155","1066280","0.0-41.0","battery-v0.2","","""event"",""trial"",""time""
""focus"",""1"",""1342""
""fullscreenenter"",""1"",""1870""
","
","""event"",""trial"",""time""
""focus"",""1"",""1342""
","""event"",""trial"",""time""
""fullscreenenter"",""1"",""1870""
","
","","","-1","","","19","10130","4704","h","elianto","#f73b6a7A"," ","-1","0","-10","[]","0","2","","","10130","37","3","3","lose","go","0"
"pit-trial","156","1071133","0.0-42.0","battery-v0.2","","""event"",""trial"",""time""
""focus"",""1"",""1342""
""fullscreenenter"",""1"",""1870""
","
","""event"",""trial"",""time""
""focus"",""1"",""1342""
","""event"",""trial"",""time""
""fullscreenenter"",""1"",""1870""
","
","","","-1","","","19","10130","4704","m","elianto","#f73b6a7A","-1","-1","1","0","[]","0","2","","","10130","38","0","4","lose","no-go","0"
"pit-trial","157","1075988","0.0-43.0","battery-v0.2","","""event"",""trial"",""time""
""focus"",""1"",""1342""
""fullscreenenter"",""1"",""1870""
","
","""event"",""trial"",""time""
""focus"",""1"",""1342""
","""event"",""trial"",""time""
""fullscreenenter"",""1"",""1870""
","
","","","-1","","","19","10130","4704","y","elianto","#f73b6a7A","-1","-1","1","0","[]","0","2","","","10130","39","2","4","lose","no-go","0"
"pit-trial","158","1079358","0.0-44.0","battery-v0.2","","""event"",""trial"",""time""
""focus"",""1"",""1342""
""fullscreenenter"",""1"",""1870""
","
","""event"",""trial"",""time""
""focus"",""1"",""1342""
","""event"",""trial"",""time""
""fullscreenenter"",""1"",""1870""
","
","","","516.0999999642372","","","19","10130","4704","r","elianto","#3366ff99"," "," ","1","+10","[1366.7999999523163]","1","2","","","10130","40","1","1","win","go","0"
"pit-trial","159","1084143","0.0-45.0","battery-v0.2","","""event"",""trial"",""time""
""focus"",""1"",""1342""
""fullscreenenter"",""1"",""1870""
","
","""event"",""trial"",""time""
""focus"",""1"",""1342""
","""event"",""trial"",""time""
""fullscreenenter"",""1"",""1870""
","
","","","1933.199999988079","","","19","10130","4704","m","elianto","#f73b6a7A","-1"," ","0","0","[2783.199999988079]","1","2","","","10130","41","0","4","lose","no-go","1"
"pit-trial","160","1087723","0.0-46.0","battery-v0.2","","""event"",""trial"",""time""
""focus"",""1"",""1342""
""fullscreenenter"",""1"",""1870""
","
","""event"",""trial"",""time""
""focus"",""1"",""1342""
","""event"",""trial"",""time""
""fullscreenenter"",""1"",""1870""
","
","","","727","","","19","10130","4704","r","elianto","#3366ff99"," "," ","1","+10","[1577]","1","2","","","10130","42","1","1","win","go","0"
"pit-trial","161","1092576","0.0-47.0","battery-v0.2","","""event"",""trial"",""time""
""focus"",""1"",""1342""
""fullscreenenter"",""1"",""1870""
","
","""event"",""trial"",""time""
""focus"",""1"",""1342""
","""event"",""trial"",""time""
""fullscreenenter"",""1"",""1870""
","
","","","-1","","","19","10130","4704","y","elianto","#f73b6a7A","-1","-1","1","0","[3045]","1","2","","","10130","43","2","4","lose","no-go","0"
"pit-trial","162","1097428","0.0-48.0","battery-v0.2","","""event"",""trial"",""time""
""focus"",""1"",""1342""
""fullscreenenter"",""1"",""1870""
","
","""event"",""trial"",""time""
""focus"",""1"",""1342""
","""event"",""trial"",""time""
""fullscreenenter"",""1"",""1870""
","
","","","-1","","","19","10130","4704","h","elianto","#f73b6a7A"," ","-1","0","-10","[]","0","2","","","10130","44","3","3","lose","go","0"
"pit-trial","163","1101777","0.0-49.0","battery-v0.2","","""event"",""trial"",""time""
""focus"",""1"",""1342""
""fullscreenenter"",""1"",""1870""
","
","""event"",""trial"",""time""
""focus"",""1"",""1342""
","""event"",""trial"",""time""
""fullscreenenter"",""1"",""1870""
","
","","","1496.199999988079","","","19","10130","4704","h","elianto","#f73b6a7A"," "," ","1","0","[2346.900000035763]","1","2","","","10130","45","3","3","lose","go","0"
"pit-trial","164","1106630","0.0-50.0","battery-v0.2","","""event"",""trial"",""time""
""focus"",""1"",""1342""
""fullscreenenter"",""1"",""1870""
","
","""event"",""trial"",""time""
""focus"",""1"",""1342""
","""event"",""trial"",""time""
""fullscreenenter"",""1"",""1870""
","
","","","-1","","","19","10130","4704","y","elianto","#f73b6a7A","-1","-1","1","0","[]","0","2","","","10130","46","2","4","lose","no-go","0"
"pit-trial","165","1110056","0.0-51.0","battery-v0.2","","""event"",""trial"",""time""
""focus"",""1"",""1342""
""fullscreenenter"",""1"",""1870""
","
","""event"",""trial"",""time""
""focus"",""1"",""1342""
","""event"",""trial"",""time""
""fullscreenenter"",""1"",""1870""
","
","","","572.5","","","19","10130","4704","z","elianto","#3366ff99","-1"," ","0","0","[1422.800000011921]","1","2","","","10130","47","4","2","win","no-go","0"
"pit-trial","166","1114913","0.0-52.0","battery-v0.2","","""event"",""trial"",""time""
""focus"",""1"",""1342""
""fullscreenenter"",""1"",""1870""
","
","""event"",""trial"",""time""
""focus"",""1"",""1342""
","""event"",""trial"",""time""
""fullscreenenter"",""1"",""1870""
","
","","","-1","","","19","10130","4704","m","elianto","#f73b6a7A","-1","-1","1","0","[]","0","2","","","10130","48","0","4","lose","no-go","0"
"pit-trial","167","1118544","0.0-53.0","battery-v0.2","","""event"",""trial"",""time""
""focus"",""1"",""1342""
""fullscreenenter"",""1"",""1870""
","
","""event"",""trial"",""time""
""focus"",""1"",""1342""
","""event"",""trial"",""time""
""fullscreenenter"",""1"",""1870""
","
","","","776.8000000119209","","","19","10130","4704","h","elianto","#f73b6a7A"," "," ","1","0","[1627.5]","1","2","","","10130","49","3","3","lose","go","0"
"pit-trial","168","1122032","0.0-54.0","battery-v0.2","","""event"",""trial"",""time""
""focus"",""1"",""1342""
""fullscreenenter"",""1"",""1870""
","
","""event"",""trial"",""time""
""focus"",""1"",""1342""
","""event"",""trial"",""time""
""fullscreenenter"",""1"",""1870""
","
","","","635.1000000238419","","","19","10130","4704","z","elianto","#3366ff99","-1"," ","0","0","[1485.5]","1","2","","","10130","50","4","2","win","no-go","0"
"pit-trial","169","1126887","0.0-55.0","battery-v0.2","","""event"",""trial"",""time""
""focus"",""1"",""1342""
""fullscreenenter"",""1"",""1870""
","
","""event"",""trial"",""time""
""focus"",""1"",""1342""
","""event"",""trial"",""time""
""fullscreenenter"",""1"",""1870""
","
","","","-1","","","19","10130","4704","m","elianto","#f73b6a7A","-1","-1","1","0","[]","0","2","","","10130","51","0","4","lose","no-go","0"
"pit-trial","170","1130275","0.0-56.0","battery-v0.2","","""event"",""trial"",""time""
""focus"",""1"",""1342""
""fullscreenenter"",""1"",""1870""
","
","""event"",""trial"",""time""
""focus"",""1"",""1342""
","""event"",""trial"",""time""
""fullscreenenter"",""1"",""1870""
","
","","","533.0999999642372","","","19","10130","4704","r","elianto","#3366ff99"," "," ","1","+10","[1383.2000000476837]","1","2","","","10130","52","1","1","win","go","0"
"pit-trial","171","1133570","0.0-57.0","battery-v0.2","","""event"",""trial"",""time""
""focus"",""1"",""1342""
""fullscreenenter"",""1"",""1870""
","
","""event"",""trial"",""time""
""focus"",""1"",""1342""
","""event"",""trial"",""time""
""fullscreenenter"",""1"",""1870""
","
","","","442.10000002384186","","","19","10130","4704","z","elianto","#3366ff99","-1"," ","0","0","[1292.699999988079]","1","2","","","10130","53","4","2","win","no-go","0"
"pit-trial","172","1136973","0.0-58.0","battery-v0.2","","""event"",""trial"",""time""
""focus"",""1"",""1342""
""fullscreenenter"",""1"",""1870""
","
","""event"",""trial"",""time""
""focus"",""1"",""1342""
","""event"",""trial"",""time""
""fullscreenenter"",""1"",""1870""
","
","","","547.3000000119209","","","19","10130","4704","r","elianto","#3366ff99"," "," ","1","0","[1397.800000011921]","1","2","","","10130","54","1","1","win","go","1"
"pit-trial","173","1140735","0.0-59.0","battery-v0.2","","""event"",""trial"",""time""
""focus"",""1"",""1342""
""fullscreenenter"",""1"",""1870""
","
","""event"",""trial"",""time""
""focus"",""1"",""1342""
","""event"",""trial"",""time""
""fullscreenenter"",""1"",""1870""
","
","","","909","","","19","10130","4704","m","elianto","#f73b6a7A","-1"," ","0","-10","[1759.8999999761581]","1","2","","","10130","55","0","4","lose","no-go","0"
"pit-trial","174","1144130","0.0-60.0","battery-v0.2","","""event"",""trial"",""time""
""focus"",""1"",""1342""
""fullscreenenter"",""1"",""1870""
","
","""event"",""trial"",""time""
""focus"",""1"",""1342""
","""event"",""trial"",""time""
""fullscreenenter"",""1"",""1870""
","
","","","542.2999999523163","","","19","10130","4704","y","elianto","#f73b6a7A","-1"," ","0","-10","[1392.8999999761581]","1","2","","","10130","56","2","4","lose","no-go","0"
"pit-trial","175","1148991","0.0-61.0","battery-v0.2","","""event"",""trial"",""time""
""focus"",""1"",""1342""
""fullscreenenter"",""1"",""1870""
","
","""event"",""trial"",""time""
""focus"",""1"",""1342""
","""event"",""trial"",""time""
""fullscreenenter"",""1"",""1870""
","
","","","-1","","","19","10130","4704","m","elianto","#f73b6a7A","-1","-1","1","0","[]","0","2","","","10130","57","0","4","lose","no-go","0"
"pit-trial","176","1152372","0.0-62.0","battery-v0.2","","""event"",""trial"",""time""
""focus"",""1"",""1342""
""fullscreenenter"",""1"",""1870""
","
","""event"",""trial"",""time""
""focus"",""1"",""1342""
","""event"",""trial"",""time""
""fullscreenenter"",""1"",""1870""
","
","","","525","","","19","10130","4704","r","elianto","#3366ff99"," "," ","1","+10","[1377.2999999523163,3019.099999964237]","2","2","","","10130","58","1","1","win","go","0"
"pit-trial","177","1155651","0.0-63.0","battery-v0.2","","""event"",""trial"",""time""
""focus"",""1"",""1342""
""fullscreenenter"",""1"",""1870""
","
","""event"",""trial"",""time""
""focus"",""1"",""1342""
","""event"",""trial"",""time""
""fullscreenenter"",""1"",""1870""
","
","","","425.39999997615814","","","19","10130","4704","z","elianto","#3366ff99","-1"," ","0","0","[1275.800000011921]","1","2","","","10130","59","4","2","win","no-go","0"
"pit-trial","178","1160468","0.0-64.0","battery-v0.2","","""event"",""trial"",""time""
""focus"",""1"",""1342""
""fullscreenenter"",""1"",""1870""
","
","""event"",""trial"",""time""
""focus"",""1"",""1342""
","""event"",""trial"",""time""
""fullscreenenter"",""1"",""1870""
","
","","","1963","","","19","10130","4704","h","elianto","#f73b6a7A"," "," ","1","0","[2813.100000023842]","1","2","","","10130","60","3","3","lose","go","0"
"pit-trial","179","1163999","0.0-65.0","battery-v0.2","","""event"",""trial"",""time""
""focus"",""1"",""1342""
""fullscreenenter"",""1"",""1870""
","
","""event"",""trial"",""time""
""focus"",""1"",""1342""
","""event"",""trial"",""time""
""fullscreenenter"",""1"",""1870""
","
","","","678.6000000238419","","","19","10130","4704","z","elianto","#3366ff99","-1"," ","0","0","[1529.6000000238419]","1","2","","","10130","61","4","2","win","no-go","0"
"pit-trial","180","1167217","0.0-66.0","battery-v0.2","","""event"",""trial"",""time""
""focus"",""1"",""1342""
""fullscreenenter"",""1"",""1870""
","
","""event"",""trial"",""time""
""focus"",""1"",""1342""
","""event"",""trial"",""time""
""fullscreenenter"",""1"",""1870""
","
","","","364.19999998807907","","","19","10130","4704","h","elianto","#f73b6a7A"," "," ","1","0","[1215.5]","1","2","","","10130","62","3","3","lose","go","0"
"pit-trial","181","1170556","0.0-67.0","battery-v0.2","","""event"",""trial"",""time""
""focus"",""1"",""1342""
""fullscreenenter"",""1"",""1870""
","
","""event"",""trial"",""time""
""focus"",""1"",""1342""
","""event"",""trial"",""time""
""fullscreenenter"",""1"",""1870""
","
","","","483.30000001192093","","","19","10130","4704","r","elianto","#3366ff99"," "," ","1","+10","[1334.699999988079]","1","2","","","10130","63","1","1","win","go","0"
"pit-trial","182","1175411","0.0-68.0","battery-v0.2","","""event"",""trial"",""time""
""focus"",""1"",""1342""
""fullscreenenter"",""1"",""1870""
","
","""event"",""trial"",""time""
""focus"",""1"",""1342""
","""event"",""trial"",""time""
""fullscreenenter"",""1"",""1870""
","
","","","-1","","","19","10130","4704","y","elianto","#f73b6a7A","-1","-1","1","-10","[]","0","2","","","10130","64","2","4","lose","no-go","1"
"pit-trial","183","1178899","0.0-69.0","battery-v0.2","","""event"",""trial"",""time""
""focus"",""1"",""1342""
""fullscreenenter"",""1"",""1870""
","
","""event"",""trial"",""time""
""focus"",""1"",""1342""
","""event"",""trial"",""time""
""fullscreenenter"",""1"",""1870""
","
","","","632.6000000238419","","","19","10130","4704","z","elianto","#3366ff99","-1"," ","0","0","[1484.6000000238419]","1","2","","","10130","65","4","2","win","no-go","0"
"pit-trial","184","1183752","0.0-70.0","battery-v0.2","","""event"",""trial"",""time""
""focus"",""1"",""1342""
""fullscreenenter"",""1"",""1870""
","
","""event"",""trial"",""time""
""focus"",""1"",""1342""
","""event"",""trial"",""time""
""fullscreenenter"",""1"",""1870""
","
","","","-1","","","19","10130","4704","h","elianto","#f73b6a7A"," ","-1","0","0","[]","0","2","","","10130","66","3","3","lose","go","1"
"pit-trial","185","1188605","0.0-71.0","battery-v0.2","","""event"",""trial"",""time""
""focus"",""1"",""1342""
""fullscreenenter"",""1"",""1870""
","
","""event"",""trial"",""time""
""focus"",""1"",""1342""
","""event"",""trial"",""time""
""fullscreenenter"",""1"",""1870""
","
","","","-1","","","19","10130","4704","y","elianto","#f73b6a7A","-1","-1","1","0","[]","0","2","","","10130","67","2","4","lose","no-go","0"
"pit-trial","186","1192079","0.0-72.0","battery-v0.2","","""event"",""trial"",""time""
""focus"",""1"",""1342""
""fullscreenenter"",""1"",""1870""
","
","""event"",""trial"",""time""
""focus"",""1"",""1342""
","""event"",""trial"",""time""
""fullscreenenter"",""1"",""1870""
","
","","","621.3000000119209","","","19","10130","4704","r","elianto","#3366ff99"," "," ","1","+10","[1471.5]","1","2","","","10130","68","1","1","win","go","0"
"pit-trial","187","1195467","0.0-73.0","battery-v0.2","","""event"",""trial"",""time""
""focus"",""1"",""1342""
""fullscreenenter"",""1"",""1870""
","
","""event"",""trial"",""time""
""focus"",""1"",""1342""
","""event"",""trial"",""time""
""fullscreenenter"",""1"",""1870""
","
","","","536.1999999880791","","","19","10130","4704","c","elianto","#3366ff99"," "," ","1","+10","[1386.5999999642372]","1","2","","","10130","69","5","1","win","go","0"
"pit-trial","188","1198786","0.0-74.0","battery-v0.2","","""event"",""trial"",""time""
""focus"",""1"",""1342""
""fullscreenenter"",""1"",""1870""
","
","""event"",""trial"",""time""
""focus"",""1"",""1342""
","""event"",""trial"",""time""
""fullscreenenter"",""1"",""1870""
","
","","","466.80000001192093","","","19","10130","4704","z","elianto","#3366ff99","-1"," ","0","0","[1317.5999999642372]","1","2","","","10130","70","4","2","win","no-go","0"
"pit-trial","189","1202183","0.0-75.0","battery-v0.2","","""event"",""trial"",""time""
""focus"",""1"",""1342""
""fullscreenenter"",""1"",""1870""
","
","""event"",""trial"",""time""
""focus"",""1"",""1342""
","""event"",""trial"",""time""
""fullscreenenter"",""1"",""1870""
","
","","","542.3000000119209","","","19","10130","4704","r","elianto","#3366ff99"," "," ","1","+10","[1393.199999988079]","1","2","","","10130","71","1","1","win","go","0"
"pit-trial","190","1206037","0.0-76.0","battery-v0.2","","""event"",""trial"",""time""
""focus"",""1"",""1342""
""fullscreenenter"",""1"",""1870""
","
","""event"",""trial"",""time""
""focus"",""1"",""1342""
","""event"",""trial"",""time""
""fullscreenenter"",""1"",""1870""
","
","","","999.3999999761581","","","19","10130","4704","h","elianto","#f73b6a7A"," "," ","1","0","[1851]","1","2","","","10130","72","3","3","lose","go","0"
"pit-trial","191","1209461","0.0-77.0","battery-v0.2","","""event"",""trial"",""time""
""focus"",""1"",""1342""
""fullscreenenter"",""1"",""1870""
","
","""event"",""trial"",""time""
""focus"",""1"",""1342""
","""event"",""trial"",""time""
""fullscreenenter"",""1"",""1870""
","
","","","570.5","","","19","10130","4704","r","elianto","#3366ff99"," "," ","1","+10","[1421.300000011921,2610.699999988079]","2","2","","","10130","73","1","1","win","go","0"
"pit-trial","192","1213144","0.0-78.0","battery-v0.2","","""event"",""trial"",""time""
""focus"",""1"",""1342""
""fullscreenenter"",""1"",""1870""
","
","""event"",""trial"",""time""
""focus"",""1"",""1342""
","""event"",""trial"",""time""
""fullscreenenter"",""1"",""1870""
","
","","","829.1000000238419","","","19","10130","4704","h","elianto","#f73b6a7A"," "," ","1","0","[1679.4000000357628]","1","2","","","10130","74","3","3","lose","go","0"
"pit-trial","193","1216619","0.0-79.0","battery-v0.2","","""event"",""trial"",""time""
""focus"",""1"",""1342""
""fullscreenenter"",""1"",""1870""
","
","""event"",""trial"",""time""
""focus"",""1"",""1342""
","""event"",""trial"",""time""
""fullscreenenter"",""1"",""1870""
","
","","","621.2000000476837","","","19","10130","4704","c","elianto","#3366ff99"," "," ","1","+10","[1472.1000000238419]","1","2","","","10130","75","5","1","win","go","0"
"pit-trial","194","1220026","0.0-80.0","battery-v0.2","","""event"",""trial"",""time""
""focus"",""1"",""1342""
""fullscreenenter"",""1"",""1870""
","
","""event"",""trial"",""time""
""focus"",""1"",""1342""
","""event"",""trial"",""time""
""fullscreenenter"",""1"",""1870""
","
","","","553.2000000476837","","","19","10130","4704","z","elianto","#3366ff99","-1"," ","0","0","[1403.2000000476837]","1","2","","","10130","76","4","2","win","no-go","0"
"pit-trial","195","1223377","0.0-81.0","battery-v0.2","","""event"",""trial"",""time""
""focus"",""1"",""1342""
""fullscreenenter"",""1"",""1870""
","
","""event"",""trial"",""time""
""focus"",""1"",""1342""
","""event"",""trial"",""time""
""fullscreenenter"",""1"",""1870""
","
","","","497.19999998807907","","","19","10130","4704","c","elianto","#3366ff99"," "," ","1","+10","[1348]","1","2","","","10130","77","5","1","win","go","0"
"pit-trial","196","1226723","0.0-82.0","battery-v0.2","","""event"",""trial"",""time""
""focus"",""1"",""1342""
""fullscreenenter"",""1"",""1870""
","
","""event"",""trial"",""time""
""focus"",""1"",""1342""
","""event"",""trial"",""time""
""fullscreenenter"",""1"",""1870""
","
","","","493.80000001192093","","","19","10130","4704","z","elianto","#3366ff99","-1"," ","0","+10","[1344.3999999761581]","1","2","","","10130","78","4","2","win","no-go","1"
"pit-trial","197","1229953","0.0-83.0","battery-v0.2","","""event"",""trial"",""time""
""focus"",""1"",""1342""
""fullscreenenter"",""1"",""1870""
","
","""event"",""trial"",""time""
""focus"",""1"",""1342""
","""event"",""trial"",""time""
""fullscreenenter"",""1"",""1870""
","
","","","376.4000000357628","","","19","10130","4704","b","elianto","#f73b6a7A","-1"," ","0","-10","[1227.1000000238419]","1","2","","","10130","79","6","4","lose","no-go","0"
"pit-trial","198","1234807","0.0-84.0","battery-v0.2","","""event"",""trial"",""time""
""focus"",""1"",""1342""
""fullscreenenter"",""1"",""1870""
","
","""event"",""trial"",""time""
""focus"",""1"",""1342""
","""event"",""trial"",""time""
""fullscreenenter"",""1"",""1870""
","
","","","-1","","","19","10130","4704","h","elianto","#f73b6a7A"," ","-1","0","-10","[]","0","2","","","10130","80","3","3","lose","go","0"
"pit-trial","199","1239660","0.0-85.0","battery-v0.2","","""event"",""trial"",""time""
""focus"",""1"",""1342""
""fullscreenenter"",""1"",""1870""
","
","""event"",""trial"",""time""
""focus"",""1"",""1342""
","""event"",""trial"",""time""
""fullscreenenter"",""1"",""1870""
","
","","","-1","","","19","10130","4704","b","elianto","#f73b6a7A","-1","-1","1","-10","[]","0","2","","","10130","81","6","4","lose","no-go","1"
"pit-trial","200","1243536","0.0-86.0","battery-v0.2","","""event"",""trial"",""time""
""focus"",""1"",""1342""
""fullscreenenter"",""1"",""1870""
","
","""event"",""trial"",""time""
""focus"",""1"",""1342""
","""event"",""trial"",""time""
""fullscreenenter"",""1"",""1870""
","
","","","1019.6999999880791","","","19","10130","4704","t","elianto","#f73b6a7A"," "," ","1","0","[1870]","1","2","","","10130","82","7","3","lose","go","0"
"pit-trial","201","1247412","0.0-87.0","battery-v0.2","","""event"",""trial"",""time""
""focus"",""1"",""1342""
""fullscreenenter"",""1"",""1870""
","
","""event"",""trial"",""time""
""focus"",""1"",""1342""
","""event"",""trial"",""time""
""fullscreenenter"",""1"",""1870""
","
","","","1019.8999999761581","","","19","10130","4704","z","elianto","#3366ff99","-1"," ","0","0","[1871.6000000238419]","1","2","","","10130","83","4","2","win","no-go","0"
"pit-trial","202","1250846","0.0-88.0","battery-v0.2","","""event"",""trial"",""time""
""focus"",""1"",""1342""
""fullscreenenter"",""1"",""1870""
","
","""event"",""trial"",""time""
""focus"",""1"",""1342""
","""event"",""trial"",""time""
""fullscreenenter"",""1"",""1870""
","
","","","581.6999999880791","","","19","10130","4704","c","elianto","#3366ff99"," "," ","1","+10","[1431.800000011921]","1","2","","","10130","84","5","1","win","go","0"
"pit-trial","203","1254346","0.0-89.0","battery-v0.2","","""event"",""trial"",""time""
""focus"",""1"",""1342""
""fullscreenenter"",""1"",""1870""
","
","""event"",""trial"",""time""
""focus"",""1"",""1342""
","""event"",""trial"",""time""
""fullscreenenter"",""1"",""1870""
","
","","","646.0999999642372","","","19","10130","4704","c","elianto","#3366ff99"," "," ","1","+10","[1496.4000000357628]","1","2","","","10130","85","5","1","win","go","0"
"pit-trial","204","1259201","0.0-90.0","battery-v0.2","","""event"",""trial"",""time""
""focus"",""1"",""1342""
""fullscreenenter"",""1"",""1870""
","
","""event"",""trial"",""time""
""focus"",""1"",""1342""
","""event"",""trial"",""time""
""fullscreenenter"",""1"",""1870""
","
","","","-1","","","19","10130","4704","b","elianto","#f73b6a7A","-1","-1","1","0","[]","0","2","","","10130","86","6","4","lose","no-go","0"
"pit-trial","205","1262780","0.0-91.0","battery-v0.2","","""event"",""trial"",""time""
""focus"",""1"",""1342""
""fullscreenenter"",""1"",""1870""
","
","""event"",""trial"",""time""
""focus"",""1"",""1342""
","""event"",""trial"",""time""
""fullscreenenter"",""1"",""1870""
","
","","","726.1000000238419","","","19","10130","4704","z","elianto","#3366ff99","-1"," ","0","0","[1576.6000000238419]","1","2","","","10130","87","4","2","win","no-go","0"
"pit-trial","206","1267635","0.0-92.0","battery-v0.2","","""event"",""trial"",""time""
""focus"",""1"",""1342""
""fullscreenenter"",""1"",""1870""
","
","""event"",""trial"",""time""
""focus"",""1"",""1342""
","""event"",""trial"",""time""
""fullscreenenter"",""1"",""1870""
","
","","","-1","","","19","10130","4704","t","elianto","#f73b6a7A"," ","-1","0","-10","[]","0","2","","","10130","88","7","3","lose","go","0"
"pit-trial","207","1272490","0.0-93.0","battery-v0.2","","""event"",""trial"",""time""
""focus"",""1"",""1342""
""fullscreenenter"",""1"",""1870""
","
","""event"",""trial"",""time""
""focus"",""1"",""1342""
","""event"",""trial"",""time""
""fullscreenenter"",""1"",""1870""
","
","","","-1","","","19","10130","4704","t","elianto","#f73b6a7A"," ","-1","0","0","[]","0","2","","","10130","89","7","3","lose","go","1"
"pit-trial","208","1276061","0.0-94.0","battery-v0.2","","""event"",""trial"",""time""
""focus"",""1"",""1342""
""fullscreenenter"",""1"",""1870""
","
","""event"",""trial"",""time""
""focus"",""1"",""1342""
","""event"",""trial"",""time""
""fullscreenenter"",""1"",""1870""
","
","","","717.8999999761581","","","19","10130","4704","c","elianto","#3366ff99"," "," ","1","+10","[1569.1000000238419]","1","2","","","10130","90","5","1","win","go","0"
"pit-trial","209","1279770","0.0-95.0","battery-v0.2","","""event"",""trial"",""time""
""focus"",""1"",""1342""
""fullscreenenter"",""1"",""1870""
","
","""event"",""trial"",""time""
""focus"",""1"",""1342""
","""event"",""trial"",""time""
""fullscreenenter"",""1"",""1870""
","
","","","853.3999999761581","","","19","10130","4704","z","elianto","#3366ff99","-1"," ","0","0","[1703.800000011921]","1","2","","","10130","91","4","2","win","no-go","0"
"pit-trial","210","1284624","0.0-96.0","battery-v0.2","","""event"",""trial"",""time""
""focus"",""1"",""1342""
""fullscreenenter"",""1"",""1870""
","
","""event"",""trial"",""time""
""focus"",""1"",""1342""
","""event"",""trial"",""time""
""fullscreenenter"",""1"",""1870""
","
","","","-1","","","19","10130","4704","b","elianto","#f73b6a7A","-1","-1","1","0","[]","0","2","","","10130","92","6","4","lose","no-go","0"
"pit-trial","211","1289480","0.0-97.0","battery-v0.2","","""event"",""trial"",""time""
""focus"",""1"",""1342""
""fullscreenenter"",""1"",""1870""
","
","""event"",""trial"",""time""
""focus"",""1"",""1342""
","""event"",""trial"",""time""
""fullscreenenter"",""1"",""1870""
","
","","","-1","","","19","10130","4704","t","elianto","#f73b6a7A"," ","-1","0","-10","[]","0","2","","","10130","93","7","3","lose","go","0"
"pit-trial","212","1293441","0.0-98.0","battery-v0.2","","""event"",""trial"",""time""
""focus"",""1"",""1342""
""fullscreenenter"",""1"",""1870""
","
","""event"",""trial"",""time""
""focus"",""1"",""1342""
","""event"",""trial"",""time""
""fullscreenenter"",""1"",""1870""
","
","","","1108","","","19","10130","4704","c","elianto","#3366ff99"," "," ","1","+10","[1958.2000000476837]","1","2","","","10130","94","5","1","win","go","0"
"pit-trial","213","1297768","0.0-99.0","battery-v0.2","","""event"",""trial"",""time""
""focus"",""1"",""1342""
""fullscreenenter"",""1"",""1870""
","
","""event"",""trial"",""time""
""focus"",""1"",""1342""
","""event"",""trial"",""time""
""fullscreenenter"",""1"",""1870""
","
","","","1474.3999999761581","","","19","10130","4704","f","elianto","#3366ff99","-1"," ","0","0","[2325]","1","2","","","10130","95","8","2","win","no-go","0"
"pit-trial","214","1302623","0.0-100.0","battery-v0.2","","""event"",""trial"",""time""
""focus"",""1"",""1342""
""fullscreenenter"",""1"",""1870""
","
","""event"",""trial"",""time""
""focus"",""1"",""1342""
","""event"",""trial"",""time""
""fullscreenenter"",""1"",""1870""
","
","","","-1","","","19","10130","4704","b","elianto","#f73b6a7A","-1","-1","1","0","[]","0","2","","","10130","96","6","4","lose","no-go","0"
"pit-trial","215","1306130","0.0-101.0","battery-v0.2","","""event"",""trial"",""time""
""focus"",""1"",""1342""
""fullscreenenter"",""1"",""1870""
","
","""event"",""trial"",""time""
""focus"",""1"",""1342""
","""event"",""trial"",""time""
""fullscreenenter"",""1"",""1870""
","
","","","653.7999999523163","","","19","10130","4704","c","elianto","#3366ff99"," "," ","1","+10","[1504]","1","2","","","10130","97","5","1","win","go","0"
"pit-trial","216","1309665","0.0-102.0","battery-v0.2","","""event"",""trial"",""time""
""focus"",""1"",""1342""
""fullscreenenter"",""1"",""1870""
","
","""event"",""trial"",""time""
""focus"",""1"",""1342""
","""event"",""trial"",""time""
""fullscreenenter"",""1"",""1870""
","
","","","681.1999999880791","","","19","10130","4704","f","elianto","#3366ff99","-1"," ","0","0","[1533.0999999642372]","1","2","","","10130","98","8","2","win","no-go","0"
"pit-trial","217","1312586","0.0-103.0","battery-v0.2","","""event"",""trial"",""time""
""focus"",""1"",""1342""
""fullscreenenter"",""1"",""1870""
","
","""event"",""trial"",""time""
""focus"",""1"",""1342""
