"trial_type","trial_index","time_elapsed","internal_node_id","task_version","subject_id","interactions","blur_events","focus_events","fullscreenenter_events","fullscreenexit_events","success","view_history","rt","responses","num_errors","age","subject","participantId","rune","rune_set","hex","correct","choice","accuracy","outcome","keys","total_keys","block","practice","value","sub","trial","stimulus","robot","valence","action","sham"
"pavlovia","0","12","0.0-0.0","battery-v0.2","","""event"",""trial"",""time""
""fullscreenenter"",""1"",""1551""
","
","
","""event"",""trial"",""time""
""fullscreenenter"",""1"",""1551""
","
","","","","","","","","","","","","","","","","","","","","","","","","","","",""
"fullscreen","1","2535","0.0-1.0","battery-v0.2","","""event"",""trial"",""time""
""fullscreenenter"",""1"",""1551""
","
","
","""event"",""trial"",""time""
""fullscreenenter"",""1"",""1551""
","
","true","","","","","","","","","","","","","","","","","","","","","","","","","",""
"pit-instructions","2","6065","0.0-2.0-0.0","battery-v0.2","","""event"",""trial"",""time""
""fullscreenenter"",""1"",""1551""
","
","
","""event"",""trial"",""time""
""fullscreenenter"",""1"",""1551""
","
","","[{""page_index"":0,""viewing_time"":3526.100000023842}]","3526.600000023842","","","","","","","","","","","","","","","","","","","","","","","",""
"pit-comprehension","3","9420","0.0-2.0-1.0-0.0","battery-v0.2","","""event"",""trial"",""time""
""fullscreenenter"",""1"",""1551""
","
","
","""event"",""trial"",""time""
""fullscreenenter"",""1"",""1551""
","
","","","3349.7000000476837","[""shark""]","0","19","17723","6592","","","","","","","","","","","","","","","","","","",""
"pit-instructions","4","10328","0.0-2.0-1.0-1.0","battery-v0.2","","""event"",""trial"",""time""
""fullscreenenter"",""1"",""1551""
","
","
","""event"",""trial"",""time""
""fullscreenenter"",""1"",""1551""
","
","","[{""page_index"":0,""viewing_time"":895.6999999284744}]","896.0999999046326","","","","","","","","","","","","","","","","","","","","","","","",""
"pit-comprehension","5","12973","0.0-2.0-2.0-0.0","battery-v0.2","","""event"",""trial"",""time""
""fullscreenenter"",""1"",""1551""
","
","
","""event"",""trial"",""time""
""fullscreenenter"",""1"",""1551""
","
","","","2640.0999999046326","[""tiger""]","0","19","17723","6592","","","","","","","","","","","","","","","","","","",""
"pit-instructions","6","13977","0.0-2.0-2.0-1.0","battery-v0.2","","""event"",""trial"",""time""
""fullscreenenter"",""1"",""1551""
","
","
","""event"",""trial"",""time""
""fullscreenenter"",""1"",""1551""
","
","","[{""page_index"":0,""viewing_time"":1000.3000000715256}]","1000.8999999761581","","","","","","","","","","","","","","","","","","","","","","","",""
"pit-instructions","7","111629","0.0-2.0-3.0","battery-v0.2","","""event"",""trial"",""time""
""fullscreenenter"",""1"",""1551""
","
","
","""event"",""trial"",""time""
""fullscreenenter"",""1"",""1551""
","
","","[{""page_index"":0,""viewing_time"":7832.5},{""page_index"":1,""viewing_time"":6206.099999904633},{""page_index"":2,""viewing_time"":8581.600000023842},{""page_index"":3,""viewing_time"":5264.700000047684},{""page_index"":4,""viewing_time"":5619},{""page_index"":5,""viewing_time"":6293.899999976158},{""page_index"":6,""viewing_time"":8525.399999976158},{""page_index"":7,""viewing_time"":6651.300000071526},{""page_index"":8,""viewing_time"":6158.799999952316},{""page_index"":9,""viewing_time"":8280.799999952316},{""page_index"":10,""viewing_time"":7667.900000095367},{""page_index"":11,""viewing_time"":7581.899999976158},{""page_index"":12,""viewing_time"":7955.600000023842},{""page_index"":13,""viewing_time"":5028.199999928474}]","97647.89999997616","","","","","","","","","","","","","","","","","","","","","","","",""
"pit-trial","8","115082","0.0-2.0-4.0-0.0","battery-v0.2","","""event"",""trial"",""time""
""fullscreenenter"",""1"",""1551""
","
","
","""event"",""trial"",""time""
""fullscreenenter"",""1"",""1551""
","
","","","597.4000000953674","","","19","17723","6592","&#9784;","elianto","#FFFFF080"," "," ","1","&#10004","[1449.1000000238419]","1","0","0","","","","","","","",""
"pit-trial","9","118366","0.0-2.0-4.1-0.1","battery-v0.2","","""event"",""trial"",""time""
""fullscreenenter"",""1"",""1551""
","
","
","""event"",""trial"",""time""
""fullscreenenter"",""1"",""1551""
","
","","","428.40000009536743","","","19","17723","6592","&#9784;","elianto","#FFFFF080"," "," ","1","&#10004","[1278.9000000953674]","1","0","0","","","","","","","",""
"pit-trial","10","121699","0.0-2.0-4.2-0.2","battery-v0.2","","""event"",""trial"",""time""
""fullscreenenter"",""1"",""1551""
","
","
","""event"",""trial"",""time""
""fullscreenenter"",""1"",""1551""
","
","","","476.2999999523163","","","19","17723","6592","&#9784;","elianto","#FFFFF080"," "," ","1","&#10004","[1327.8000000715256]","1","0","0","","","","","","","",""
"pit-trial","11","124993","0.0-2.0-4.3-0.3","battery-v0.2","","""event"",""trial"",""time""
""fullscreenenter"",""1"",""1551""
","
","
","""event"",""trial"",""time""
""fullscreenenter"",""1"",""1551""
","
","","","438.5","","","19","17723","6592","&#9784;","elianto","#FFFFF080"," "," ","1","&#10004","[1288.6999999284744]","1","0","0","","","","","","","",""
"pit-trial","12","128392","0.0-2.0-4.4-0.4","battery-v0.2","","""event"",""trial"",""time""
""fullscreenenter"",""1"",""1551""
","
","
","""event"",""trial"",""time""
""fullscreenenter"",""1"",""1551""
","
","","","541.2000000476837","","","19","17723","6592","&#9784;","elianto","#FFFFF080"," "," ","1","&#10004","[1392.8999999761581]","1","0","0","","","","","","","",""
"pit-instructions","13","151327","0.0-2.0-5.0","battery-v0.2","","""event"",""trial"",""time""
""fullscreenenter"",""1"",""1551""
","
","
","""event"",""trial"",""time""
""fullscreenenter"",""1"",""1551""
","
","","[{""page_index"":0,""viewing_time"":5800.899999976158},{""page_index"":1,""viewing_time"":5240},{""page_index"":2,""viewing_time"":5209},{""page_index"":3,""viewing_time"":6680.199999928474}]","22930.599999904633","","","","","","","","","","","","","","","","","","","","","","","",""
"pit-trial","14","156183","0.0-2.0-6.0-0.0","battery-v0.2","","""event"",""trial"",""time""
""fullscreenenter"",""1"",""1551""
","
","
","""event"",""trial"",""time""
""fullscreenenter"",""1"",""1551""
","
","","","-1","","","19","17723","6592","&#9854;","elianto","#FFFFF080","-1","-1","1","&#10004","[]","0","0","1","","","","","","","",""
"pit-trial","15","161041","0.0-2.0-6.1-0.1","battery-v0.2","","""event"",""trial"",""time""
""fullscreenenter"",""1"",""1551""
","
","
","""event"",""trial"",""time""
""fullscreenenter"",""1"",""1551""
","
","","","-1","","","19","17723","6592","&#9854;","elianto","#FFFFF080","-1","-1","1","&#10004","[]","0","0","1","","","","","","","",""
"pit-trial","16","165898","0.0-2.0-6.2-0.2","battery-v0.2","","""event"",""trial"",""time""
""fullscreenenter"",""1"",""1551""
","
","
","""event"",""trial"",""time""
""fullscreenenter"",""1"",""1551""
","
","","","-1","","","19","17723","6592","&#9854;","elianto","#FFFFF080","-1","-1","1","&#10004","[]","0","0","1","","","","","","","",""
"pit-trial","17","170755","0.0-2.0-6.3-0.3","battery-v0.2","","""event"",""trial"",""time""
""fullscreenenter"",""1"",""1551""
","
","
","""event"",""trial"",""time""
""fullscreenenter"",""1"",""1551""
","
","","","-1","","","19","17723","6592","&#9854;","elianto","#FFFFF080","-1","-1","1","&#10004","[]","0","0","1","","","","","","","",""
"pit-trial","18","175612","0.0-2.0-6.4-0.4","battery-v0.2","","""event"",""trial"",""time""
""fullscreenenter"",""1"",""1551""
","
","
","""event"",""trial"",""time""
""fullscreenenter"",""1"",""1551""
","
","","","-1","","","19","17723","6592","&#9854;","elianto","#FFFFF080","-1","-1","1","&#10004","[]","0","0","1","","","","","","","",""
"pit-instructions","19","305448","0.0-2.0-7.0","battery-v0.2","","""event"",""trial"",""time""
""fullscreenenter"",""1"",""1551""
","
","
","""event"",""trial"",""time""
""fullscreenenter"",""1"",""1551""
","
","","[{""page_index"":0,""viewing_time"":6922.900000095367},{""page_index"":1,""viewing_time"":8526.199999928474},{""page_index"":2,""viewing_time"":7018.100000023842},{""page_index"":3,""viewing_time"":7496.299999952316},{""page_index"":4,""viewing_time"":6143.200000047684},{""page_index"":5,""viewing_time"":6359.299999952316},{""page_index"":6,""viewing_time"":4789.600000023842},{""page_index"":7,""viewing_time"":8590.700000047684},{""page_index"":8,""viewing_time"":7258.100000023842},{""page_index"":9,""viewing_time"":6326.5},{""page_index"":10,""viewing_time"":7124.099999904633},{""page_index"":11,""viewing_time"":5588.5},{""page_index"":12,""viewing_time"":8200},{""page_index"":13,""viewing_time"":8033.100000023842},{""page_index"":14,""viewing_time"":6962.300000071526},{""page_index"":15,""viewing_time"":9135.5},{""page_index"":16,""viewing_time"":7020.099999904633},{""page_index"":17,""viewing_time"":8336.100000023842}]","129831.10000002384","","","","","","","","","","","","","","","","","","","","","","","",""
"pit-trial","20","310305","0.0-2.0-8.0-0.0","battery-v0.2","","""event"",""trial"",""time""
""fullscreenenter"",""1"",""1551""
","
","
","""event"",""trial"",""time""
""fullscreenenter"",""1"",""1551""
","
","","","-1","","","19","17723","6592","&#9776;","elianto","#3366ff99"," ","-1","0","0","[]","0","0","1","","","","","","","",""
"pit-trial","21","314003","0.0-2.0-8.0-1.0","battery-v0.2","","""event"",""trial"",""time""
""fullscreenenter"",""1"",""1551""
","
","
","""event"",""trial"",""time""
""fullscreenenter"",""1"",""1551""
","
","","","843.4000000953674","","","19","17723","6592","&#9776;","elianto","#3366ff99"," "," ","1","+10","[1693.8999999761581]","1","0","1","","","","","","","",""
"pit-trial","22","317432","0.0-2.0-8.0-2.0","battery-v0.2","","""event"",""trial"",""time""
""fullscreenenter"",""1"",""1551""
","
","
","""event"",""trial"",""time""
""fullscreenenter"",""1"",""1551""
","
","","","575","","","19","17723","6592","&#9776;","elianto","#3366ff99"," "," ","1","+10","[1425.3999999761581]","1","0","1","","","","","","","",""
"pit-trial","23","320854","0.0-2.0-8.0-3.0","battery-v0.2","","""event"",""trial"",""time""
""fullscreenenter"",""1"",""1551""
","
","
","""event"",""trial"",""time""
""fullscreenenter"",""1"",""1551""
","
","","","567.2000000476837","","","19","17723","6592","&#9776;","elianto","#3366ff99"," "," ","1","0","[1418.5]","1","0","1","","","","","","","",""
"pit-trial","24","324210","0.0-2.0-8.0-4.0","battery-v0.2","","""event"",""trial"",""time""
""fullscreenenter"",""1"",""1551""
","
","
","""event"",""trial"",""time""
""fullscreenenter"",""1"",""1551""
","
","","","501.6999999284744","","","19","17723","6592","&#9776;","elianto","#3366ff99"," "," ","1","+10","[1352.1999999284744]","1","0","1","","","","","","","",""
"pit-trial","25","327825","0.0-2.0-8.1-0.1","battery-v0.2","","""event"",""trial"",""time""
""fullscreenenter"",""1"",""1551""
","
","
","""event"",""trial"",""time""
""fullscreenenter"",""1"",""1551""
","
","","","757.0999999046326","","","19","17723","6592","&#9776;","elianto","#3366ff99"," "," ","1","+10","[1608.7000000476837]","1","0","1","","","","","","","",""
"pit-trial","26","331007","0.0-2.0-8.1-1.1","battery-v0.2","","""event"",""trial"",""time""
""fullscreenenter"",""1"",""1551""
","
","
","""event"",""trial"",""time""
""fullscreenenter"",""1"",""1551""
","
","","","326.89999997615814","","","19","17723","6592","&#9776;","elianto","#3366ff99"," "," ","1","+10","[1178.3000000715256]","1","0","1","","","","","","","",""
"pit-trial","27","334139","0.0-2.0-8.1-2.1","battery-v0.2","","""event"",""trial"",""time""
""fullscreenenter"",""1"",""1551""
","
","
","""event"",""trial"",""time""
""fullscreenenter"",""1"",""1551""
","
","","","275.7000000476837","","","19","17723","6592","&#9776;","elianto","#3366ff99"," "," ","1","+10","[1127.5,1494.5]","2","0","1","","","","","","","",""
"pit-trial","28","337175","0.0-2.0-8.1-3.1","battery-v0.2","","""event"",""trial"",""time""
""fullscreenenter"",""1"",""1551""
","
","
","""event"",""trial"",""time""
""fullscreenenter"",""1"",""1551""
","
","","","180.60000002384186","","","19","17723","6592","&#9776;","elianto","#3366ff99"," "," ","1","0","[1031.2999999523163]","1","0","1","","","","","","","",""
"pit-trial","29","340444","0.0-2.0-8.1-4.1","battery-v0.2","","""event"",""trial"",""time""
""fullscreenenter"",""1"",""1551""
","
","
","""event"",""trial"",""time""
""fullscreenenter"",""1"",""1551""
","
","","","415.10000002384186","","","19","17723","6592","&#9776;","elianto","#3366ff99"," "," ","1","+10","[1265.6000000238419]","1","0","1","","","","","","","",""
"pit-trial","30","343745","0.0-2.0-8.2-0.2","battery-v0.2","","""event"",""trial"",""time""
""fullscreenenter"",""1"",""1551""
","
","
","""event"",""trial"",""time""
""fullscreenenter"",""1"",""1551""
","
","","","443.89999997615814","","","19","17723","6592","&#9776;","elianto","#3366ff99"," "," ","1","+10","[1295]","1","0","1","","","","","","","",""
"pit-trial","31","346944","0.0-2.0-8.2-1.2","battery-v0.2","","""event"",""trial"",""time""
""fullscreenenter"",""1"",""1551""
","
","
","""event"",""trial"",""time""
""fullscreenenter"",""1"",""1551""
","
","","","343.60000002384186","","","19","17723","6592","&#9776;","elianto","#3366ff99"," "," ","1","+10","[1194.8999999761581]","1","0","1","","","","","","","",""
"pit-trial","32","349992","0.0-2.0-8.2-2.2","battery-v0.2","","""event"",""trial"",""time""
""fullscreenenter"",""1"",""1551""
","
","
","""event"",""trial"",""time""
""fullscreenenter"",""1"",""1551""
","
","","","191.30000007152557","","","19","17723","6592","&#9776;","elianto","#3366ff99"," "," ","1","+10","[1042.8999999761581]","1","0","1","","","","","","","",""
"pit-trial","33","353435","0.0-2.0-8.2-3.2","battery-v0.2","","""event"",""trial"",""time""
""fullscreenenter"",""1"",""1551""
","
","
","""event"",""trial"",""time""
""fullscreenenter"",""1"",""1551""
","
","","","588.2000000476837","","","19","17723","6592","&#9776;","elianto","#3366ff99"," "," ","1","0","[1438.8999999761581]","1","0","1","","","","","","","",""
"pit-trial","34","356840","0.0-2.0-8.2-4.2","battery-v0.2","","""event"",""trial"",""time""
""fullscreenenter"",""1"",""1551""
","
","
","""event"",""trial"",""time""
""fullscreenenter"",""1"",""1551""
","
","","","550.2999999523163","","","19","17723","6592","&#9776;","elianto","#3366ff99"," "," ","1","+10","[1401.5999999046326]","1","0","1","","","","","","","",""
"call-function","35","356843","0.0-2.0-9.0","battery-v0.2","","""event"",""trial"",""time""
""fullscreenenter"",""1"",""1551""
","
","
","""event"",""trial"",""time""
""fullscreenenter"",""1"",""1551""
","
","","","","","","","","","","","","","","","","","","","","","","","","","","",""
"pit-instructions","36","401256","0.0-2.0-10.0","battery-v0.2","","""event"",""trial"",""time""
""fullscreenenter"",""1"",""1551""
","
","
","""event"",""trial"",""time""
""fullscreenenter"",""1"",""1551""
","
","","[{""page_index"":0,""viewing_time"":6720.700000047684},{""page_index"":1,""viewing_time"":7243.5},{""page_index"":2,""viewing_time"":12215},{""page_index"":3,""viewing_time"":11168.899999976158},{""page_index"":4,""viewing_time"":7062.600000023842}]","44411.200000047684","","","","","","","","","","","","","","","","","","","","","","","",""
"pit-trial","37","406111","0.0-2.0-11.0-0.0","battery-v0.2","","""event"",""trial"",""time""
""fullscreenenter"",""1"",""1551""
","
","
","""event"",""trial"",""time""
""fullscreenenter"",""1"",""1551""
","
","","","-1","","","19","17723","6592","&#9761;","elianto","#3366ff99","-1","-1","1","+10","[]","0","0","2","","","","","","","",""
"pit-trial","38","410967","0.0-2.0-11.0-1.0","battery-v0.2","","""event"",""trial"",""time""
""fullscreenenter"",""1"",""1551""
","
","
","""event"",""trial"",""time""
""fullscreenenter"",""1"",""1551""
","
","","","-1","","","19","17723","6592","&#9761;","elianto","#3366ff99","-1","-1","1","+10","[]","0","0","2","","","","","","","",""
"pit-trial","39","415824","0.0-2.0-11.0-2.0","battery-v0.2","","""event"",""trial"",""time""
""fullscreenenter"",""1"",""1551""
","
","
","""event"",""trial"",""time""
""fullscreenenter"",""1"",""1551""
","
","","","-1","","","19","17723","6592","&#9761;","elianto","#3366ff99","-1","-1","1","+10","[]","0","0","2","","","","","","","",""
"pit-trial","40","420680","0.0-2.0-11.0-3.0","battery-v0.2","","""event"",""trial"",""time""
""fullscreenenter"",""1"",""1551""
","
","
","""event"",""trial"",""time""
""fullscreenenter"",""1"",""1551""
","
","","","-1","","","19","17723","6592","&#9761;","elianto","#3366ff99","-1","-1","1","0","[]","0","0","2","","","","","","","",""
"pit-trial","41","425536","0.0-2.0-11.0-4.0","battery-v0.2","","""event"",""trial"",""time""
""fullscreenenter"",""1"",""1551""
","
","
","""event"",""trial"",""time""
""fullscreenenter"",""1"",""1551""
","
","","","-1","","","19","17723","6592","&#9761;","elianto","#3366ff99","-1","-1","1","+10","[]","0","0","2","","","","","","","",""
"pit-trial","42","430394","0.0-2.0-11.1-0.1","battery-v0.2","","""event"",""trial"",""time""
""fullscreenenter"",""1"",""1551""
","
","
","""event"",""trial"",""time""
""fullscreenenter"",""1"",""1551""
","
","","","-1","","","19","17723","6592","&#9761;","elianto","#3366ff99","-1","-1","1","+10","[]","0","0","2","","","","","","","",""
"pit-trial","43","435248","0.0-2.0-11.1-1.1","battery-v0.2","","""event"",""trial"",""time""
""fullscreenenter"",""1"",""1551""
","
","
","""event"",""trial"",""time""
""fullscreenenter"",""1"",""1551""
","
","","","-1","","","19","17723","6592","&#9761;","elianto","#3366ff99","-1","-1","1","+10","[]","0","0","2","","","","","","","",""
"pit-trial","44","440103","0.0-2.0-11.1-2.1","battery-v0.2","","""event"",""trial"",""time""
""fullscreenenter"",""1"",""1551""
","
","
","""event"",""trial"",""time""
""fullscreenenter"",""1"",""1551""
","
","","","-1","","","19","17723","6592","&#9761;","elianto","#3366ff99","-1","-1","1","+10","[]","0","0","2","","","","","","","",""
"pit-trial","45","444958","0.0-2.0-11.1-3.1","battery-v0.2","","""event"",""trial"",""time""
""fullscreenenter"",""1"",""1551""
","
","
","""event"",""trial"",""time""
""fullscreenenter"",""1"",""1551""
","
","","","-1","","","19","17723","6592","&#9761;","elianto","#3366ff99","-1","-1","1","0","[]","0","0","2","","","","","","","",""
"pit-trial","46","449814","0.0-2.0-11.1-4.1","battery-v0.2","","""event"",""trial"",""time""
""fullscreenenter"",""1"",""1551""
","
","
","""event"",""trial"",""time""
""fullscreenenter"",""1"",""1551""
","
","","","-1","","","19","17723","6592","&#9761;","elianto","#3366ff99","-1","-1","1","+10","[]","0","0","2","","","","","","","",""
"pit-trial","47","454670","0.0-2.0-11.2-0.2","battery-v0.2","","""event"",""trial"",""time""
""fullscreenenter"",""1"",""1551""
","
","
","""event"",""trial"",""time""
""fullscreenenter"",""1"",""1551""
","
","","","-1","","","19","17723","6592","&#9761;","elianto","#3366ff99","-1","-1","1","+10","[]","0","0","2","","","","","","","",""
"pit-trial","48","459525","0.0-2.0-11.2-1.2","battery-v0.2","","""event"",""trial"",""time""
""fullscreenenter"",""1"",""1551""
","
","
","""event"",""trial"",""time""
""fullscreenenter"",""1"",""1551""
","
","","","-1","","","19","17723","6592","&#9761;","elianto","#3366ff99","-1","-1","1","+10","[]","0","0","2","","","","","","","",""
"pit-trial","49","464381","0.0-2.0-11.2-2.2","battery-v0.2","","""event"",""trial"",""time""
""fullscreenenter"",""1"",""1551""
","
","
","""event"",""trial"",""time""
""fullscreenenter"",""1"",""1551""
","
","","","-1","","","19","17723","6592","&#9761;","elianto","#3366ff99","-1","-1","1","+10","[]","0","0","2","","","","","","","",""
"pit-trial","50","469237","0.0-2.0-11.2-3.2","battery-v0.2","","""event"",""trial"",""time""
""fullscreenenter"",""1"",""1551""
","
","
","""event"",""trial"",""time""
""fullscreenenter"",""1"",""1551""
","
","","","-1","","","19","17723","6592","&#9761;","elianto","#3366ff99","-1","-1","1","0","[]","0","0","2","","","","","","","",""
"pit-trial","51","474093","0.0-2.0-11.2-4.2","battery-v0.2","","""event"",""trial"",""time""
""fullscreenenter"",""1"",""1551""
","
","
","""event"",""trial"",""time""
""fullscreenenter"",""1"",""1551""
","
","","","-1","","","19","17723","6592","&#9761;","elianto","#3366ff99","-1","-1","1","+10","[]","0","0","2","","","","","","","",""
"pit-trial","52","478951","0.0-2.0-11.3-0.3","battery-v0.2","","""event"",""trial"",""time""
""fullscreenenter"",""1"",""1551""
","
","
","""event"",""trial"",""time""
""fullscreenenter"",""1"",""1551""
","
","","","-1","","","19","17723","6592","&#9761;","elianto","#3366ff99","-1","-1","1","+10","[]","0","0","2","","","","","","","",""
"pit-trial","53","483807","0.0-2.0-11.3-1.3","battery-v0.2","","""event"",""trial"",""time""
""fullscreenenter"",""1"",""1551""
","
","
","""event"",""trial"",""time""
""fullscreenenter"",""1"",""1551""
","
","","","-1","","","19","17723","6592","&#9761;","elianto","#3366ff99","-1","-1","1","+10","[]","0","0","2","","","","","","","",""
"pit-trial","54","488662","0.0-2.0-11.3-2.3","battery-v0.2","","""event"",""trial"",""time""
""fullscreenenter"",""1"",""1551""
","
","
","""event"",""trial"",""time""
""fullscreenenter"",""1"",""1551""
","
","","","-1","","","19","17723","6592","&#9761;","elianto","#3366ff99","-1","-1","1","+10","[]","0","0","2","","","","","","","",""
"pit-trial","55","493518","0.0-2.0-11.3-3.3","battery-v0.2","","""event"",""trial"",""time""
""fullscreenenter"",""1"",""1551""
","
","
","""event"",""trial"",""time""
""fullscreenenter"",""1"",""1551""
","
","","","-1","","","19","17723","6592","&#9761;","elianto","#3366ff99","-1","-1","1","0","[]","0","0","2","","","","","","","",""
"pit-trial","56","497817","0.0-2.0-11.3-4.3","battery-v0.2","","""event"",""trial"",""time""
""fullscreenenter"",""1"",""1551""
","
","
","""event"",""trial"",""time""
""fullscreenenter"",""1"",""1551""
","
","","","1444.8999999761581","","","19","17723","6592","&#9761;","elianto","#3366ff99","-1"," ","0","0","[2295.0999999046326]","1","0","2","","","","","","","",""
"call-function","57","497821","0.0-2.0-12.0","battery-v0.2","","""event"",""trial"",""time""
""fullscreenenter"",""1"",""1551""
","
","
","""event"",""trial"",""time""
""fullscreenenter"",""1"",""1551""
","
","","","","","","","","","","","","","","","","","","","","","","","","","","",""
"pit-instructions","58","530538","0.0-2.0-13.0","battery-v0.2","","""event"",""trial"",""time""
""fullscreenenter"",""1"",""1551""
","
","
","""event"",""trial"",""time""
""fullscreenenter"",""1"",""1551""
","
","","[{""page_index"":0,""viewing_time"":5090.900000095367},{""page_index"":1,""viewing_time"":8862.599999904633},{""page_index"":2,""viewing_time"":3680.9000000953674},{""page_index"":3,""viewing_time"":10529.899999976158},{""page_index"":4,""viewing_time"":4550}]","32714.900000095367","","","","","","","","","","","","","","","","","","","","","","","",""
"pit-trial","59","535393","0.0-2.0-14.0-0.0","battery-v0.2","","""event"",""trial"",""time""
""fullscreenenter"",""1"",""1551""
","
","
","""event"",""trial"",""time""
""fullscreenenter"",""1"",""1551""
","
","","","-1","","","19","17723","6592","&#9826;","elianto","#f73b6a7A","-1","-1","1","0","[]","0","0","3","","","","","","","",""
"pit-trial","60","540248","0.0-2.0-14.0-1.0","battery-v0.2","","""event"",""trial"",""time""
""fullscreenenter"",""1"",""1551""
","
","
","""event"",""trial"",""time""
""fullscreenenter"",""1"",""1551""
","
","","","-1","","","19","17723","6592","&#9826;","elianto","#f73b6a7A","-1","-1","1","0","[]","0","0","3","","","","","","","",""
"pit-trial","61","545103","0.0-2.0-14.0-2.0","battery-v0.2","","""event"",""trial"",""time""
""fullscreenenter"",""1"",""1551""
","
","
","""event"",""trial"",""time""
""fullscreenenter"",""1"",""1551""
","
","","","-1","","","19","17723","6592","&#9826;","elianto","#f73b6a7A","-1","-1","1","0","[]","0","0","3","","","","","","","",""
"pit-trial","62","548467","0.0-2.0-14.0-3.0","battery-v0.2","","""event"",""trial"",""time""
""fullscreenenter"",""1"",""1551""
","
","
","""event"",""trial"",""time""
""fullscreenenter"",""1"",""1551""
","
","","","508.89999997615814","","","19","17723","6592","&#9826;","elianto","#f73b6a7A","-1"," ","0","0","[1360.8999999761581]","1","0","3","","","","","","","",""
"pit-trial","63","551504","0.0-2.0-14.0-4.0","battery-v0.2","","""event"",""trial"",""time""
""fullscreenenter"",""1"",""1551""
","
","
","""event"",""trial"",""time""
""fullscreenenter"",""1"",""1551""
","
","","","182.10000002384186","","","19","17723","6592","&#9826;","elianto","#f73b6a7A","-1"," ","0","-10","[1033.1999999284744]","1","0","3","","","","","","","",""
"pit-trial","64","556360","0.0-2.0-14.1-0.1","battery-v0.2","","""event"",""trial"",""time""
""fullscreenenter"",""1"",""1551""
","
","
","""event"",""trial"",""time""
""fullscreenenter"",""1"",""1551""
","
","","","-1","","","19","17723","6592","&#9826;","elianto","#f73b6a7A","-1","-1","1","0","[]","0","0","3","","","","","","","",""
"pit-trial","65","561216","0.0-2.0-14.1-1.1","battery-v0.2","","""event"",""trial"",""time""
""fullscreenenter"",""1"",""1551""
","
","
","""event"",""trial"",""time""
""fullscreenenter"",""1"",""1551""
","
","","","-1","","","19","17723","6592","&#9826;","elianto","#f73b6a7A","-1","-1","1","0","[]","0","0","3","","","","","","","",""
"pit-trial","66","566073","0.0-2.0-14.1-2.1","battery-v0.2","","""event"",""trial"",""time""
""fullscreenenter"",""1"",""1551""
","
","
","""event"",""trial"",""time""
""fullscreenenter"",""1"",""1551""
","
","","","-1","","","19","17723","6592","&#9826;","elianto","#f73b6a7A","-1","-1","1","0","[]","0","0","3","","","","","","","",""
"pit-trial","67","570928","0.0-2.0-14.1-3.1","battery-v0.2","","""event"",""trial"",""time""
""fullscreenenter"",""1"",""1551""
","
","
","""event"",""trial"",""time""
""fullscreenenter"",""1"",""1551""
","
","","","-1","","","19","17723","6592","&#9826;","elianto","#f73b6a7A","-1","-1","1","-10","[]","0","0","3","","","","","","","",""
"pit-trial","68","574590","0.0-2.0-14.1-4.1","battery-v0.2","","""event"",""trial"",""time""
""fullscreenenter"",""1"",""1551""
","
","
","""event"",""trial"",""time""
""fullscreenenter"",""1"",""1551""
","
","","","807.3999999761581","","","19","17723","6592","&#9826;","elianto","#f73b6a7A","-1"," ","0","-10","[1659.1999999284744]","1","0","3","","","","","","","",""
"pit-trial","69","579448","0.0-2.0-14.2-0.2","battery-v0.2","","""event"",""trial"",""time""
""fullscreenenter"",""1"",""1551""
","
","
","""event"",""trial"",""time""
""fullscreenenter"",""1"",""1551""
","
","","","-1","","","19","17723","6592","&#9826;","elianto","#f73b6a7A","-1","-1","1","0","[]","0","0","3","","","","","","","",""
"pit-trial","70","584304","0.0-2.0-14.2-1.2","battery-v0.2","","""event"",""trial"",""time""
""fullscreenenter"",""1"",""1551""
","
","
","""event"",""trial"",""time""
""fullscreenenter"",""1"",""1551""
","
","","","-1","","","19","17723","6592","&#9826;","elianto","#f73b6a7A","-1","-1","1","0","[]","0","0","3","","","","","","","",""
"pit-trial","71","589160","0.0-2.0-14.2-2.2","battery-v0.2","","""event"",""trial"",""time""
""fullscreenenter"",""1"",""1551""
","
","
","""event"",""trial"",""time""
""fullscreenenter"",""1"",""1551""
","
","","","-1","","","19","17723","6592","&#9826;","elianto","#f73b6a7A","-1","-1","1","0","[]","0","0","3","","","","","","","",""
"pit-trial","72","594017","0.0-2.0-14.2-3.2","battery-v0.2","","""event"",""trial"",""time""
""fullscreenenter"",""1"",""1551""
","
","
","""event"",""trial"",""time""
""fullscreenenter"",""1"",""1551""
","
","","","-1","","","19","17723","6592","&#9826;","elianto","#f73b6a7A","-1","-1","1","-10","[]","0","0","3","","","","","","","",""
"pit-trial","73","598872","0.0-2.0-14.2-4.2","battery-v0.2","","""event"",""trial"",""time""
""fullscreenenter"",""1"",""1551""
","
","
","""event"",""trial"",""time""
""fullscreenenter"",""1"",""1551""
","
","","","-1","","","19","17723","6592","&#9826;","elianto","#f73b6a7A","-1","-1","1","0","[]","0","0","3","","","","","","","",""
"pit-trial","74","603730","0.0-2.0-14.3-0.3","battery-v0.2","","""event"",""trial"",""time""
""fullscreenenter"",""1"",""1551""
","
","
","""event"",""trial"",""time""
""fullscreenenter"",""1"",""1551""
","
","","","-1","","","19","17723","6592","&#9826;","elianto","#f73b6a7A","-1","-1","1","0","[]","0","0","3","","","","","","","",""
"pit-trial","75","608586","0.0-2.0-14.3-1.3","battery-v0.2","","""event"",""trial"",""time""
""fullscreenenter"",""1"",""1551""
","
","
","""event"",""trial"",""time""
""fullscreenenter"",""1"",""1551""
","
","","","-1","","","19","17723","6592","&#9826;","elianto","#f73b6a7A","-1","-1","1","0","[]","0","0","3","","","","","","","",""
"pit-trial","76","613442","0.0-2.0-14.3-2.3","battery-v0.2","","""event"",""trial"",""time""
""fullscreenenter"",""1"",""1551""
","
","
","""event"",""trial"",""time""
""fullscreenenter"",""1"",""1551""
","
","","","-1","","","19","17723","6592","&#9826;","elianto","#f73b6a7A","-1","-1","1","0","[]","0","0","3","","","","","","","",""
"pit-trial","77","618298","0.0-2.0-14.3-3.3","battery-v0.2","","""event"",""trial"",""time""
""fullscreenenter"",""1"",""1551""
","
","
","""event"",""trial"",""time""
""fullscreenenter"",""1"",""1551""
","
","","","-1","","","19","17723","6592","&#9826;","elianto","#f73b6a7A","-1","-1","1","-10","[]","0","0","3","","","","","","","",""
"pit-trial","78","623155","0.0-2.0-14.3-4.3","battery-v0.2","","""event"",""trial"",""time""
""fullscreenenter"",""1"",""1551""
","
","
","""event"",""trial"",""time""
""fullscreenenter"",""1"",""1551""
","
","","","-1","","","19","17723","6592","&#9826;","elianto","#f73b6a7A","-1","-1","1","0","[]","0","0","3","","","","","","","",""
"call-function","79","623158","0.0-2.0-15.0","battery-v0.2","","""event"",""trial"",""time""
""fullscreenenter"",""1"",""1551""
","
","
","""event"",""trial"",""time""
""fullscreenenter"",""1"",""1551""
","
","","","","","","","","","","","","","","","","","","","","","","","","","","",""
"pit-instructions","80","651894","0.0-2.0-16.0","battery-v0.2","","""event"",""trial"",""time""
""fullscreenenter"",""1"",""1551""
","
","
","""event"",""trial"",""time""
""fullscreenenter"",""1"",""1551""
","
","","[{""page_index"":0,""viewing_time"":8592.100000023842},{""page_index"":1,""viewing_time"":9133.799999952316},{""page_index"":2,""viewing_time"":5438.100000023842},{""page_index"":3,""viewing_time"":5570.100000023842}]","28734.600000023842","","","","","","","","","","","","","","","","","","","","","","","",""
"pit-trial","81","656415","0.0-2.0-17.0-0.0","battery-v0.2","","""event"",""trial"",""time""
""fullscreenenter"",""1"",""1551""
","
","
","""event"",""trial"",""time""
""fullscreenenter"",""1"",""1551""
","
","","","1666.8000000715256","","","19","17723","6592","&#9789;","elianto","#f73b6a7A"," "," ","1","0","[2517.399999976158]","1","0","4","","","","","","","",""
"pit-trial","82","659868","0.0-2.0-17.0-1.0","battery-v0.2","","""event"",""trial"",""time""
""fullscreenenter"",""1"",""1551""
","
","
","""event"",""trial"",""time""
""fullscreenenter"",""1"",""1551""
","
","","","596.2000000476837","","","19","17723","6592","&#9789;","elianto","#f73b6a7A"," "," ","1","0","[1448]","1","0","4","","","","","","","",""
"pit-trial","83","663026","0.0-2.0-17.0-2.0","battery-v0.2","","""event"",""trial"",""time""
""fullscreenenter"",""1"",""1551""
","
","
","""event"",""trial"",""time""
""fullscreenenter"",""1"",""1551""
","
","","","302.3000000715256","","","19","17723","6592","&#9789;","elianto","#f73b6a7A"," "," ","1","0","[1153.3999999761581]","1","0","4","","","","","","","",""
"pit-trial","84","666047","0.0-2.0-17.0-3.0","battery-v0.2","","""event"",""trial"",""time""
""fullscreenenter"",""1"",""1551""
","
","
","""event"",""trial"",""time""
""fullscreenenter"",""1"",""1551""
","
","","","165.5","","","19","17723","6592","&#9789;","elianto","#f73b6a7A"," "," ","1","-10","[1016.7999999523163]","1","0","4","","","","","","","",""
"pit-trial","85","669108","0.0-2.0-17.0-4.0","battery-v0.2","","""event"",""trial"",""time""
""fullscreenenter"",""1"",""1551""
","
","
","""event"",""trial"",""time""
""fullscreenenter"",""1"",""1551""
","
","","","206","","","19","17723","6592","&#9789;","elianto","#f73b6a7A"," "," ","1","0","[1057.7999999523163]","1","0","4","","","","","","","",""
"pit-trial","86","673966","0.0-2.0-17.1-0.1","battery-v0.2","","""event"",""trial"",""time""
""fullscreenenter"",""1"",""1551""
","
","
","""event"",""trial"",""time""
""fullscreenenter"",""1"",""1551""
","
","","","-1","","","19","17723","6592","&#9789;","elianto","#f73b6a7A"," ","-1","0","-10","[]","0","0","4","","","","","","","",""
"pit-trial","87","677520","0.0-2.0-17.1-1.1","battery-v0.2","","""event"",""trial"",""time""
""fullscreenenter"",""1"",""1551""
","
","
","""event"",""trial"",""time""
""fullscreenenter"",""1"",""1551""
","
","","","698.6000000238419","","","19","17723","6592","&#9789;","elianto","#f73b6a7A"," "," ","1","0","[1549.8000000715256,3122.3000000715256]","2","0","4","","","","","","","",""
"pit-trial","88","680527","0.0-2.0-17.1-2.1","battery-v0.2","","""event"",""trial"",""time""
""fullscreenenter"",""1"",""1551""
","
","
","""event"",""trial"",""time""
""fullscreenenter"",""1"",""1551""
","
","","","151.29999995231628","","","19","17723","6592","&#9789;","elianto","#f73b6a7A"," "," ","1","0","[429.5,647.1000000238419,835.1000000238419,1002.6000000238419]","4","0","4","","","","","","","",""
"pit-trial","89","683648","0.0-2.0-17.1-3.1","battery-v0.2","","""event"",""trial"",""time""
""fullscreenenter"",""1"",""1551""
","
","
","""event"",""trial"",""time""
""fullscreenenter"",""1"",""1551""
","
","","","267","","","19","17723","6592","&#9789;","elianto","#f73b6a7A"," "," ","1","-10","[1117.2999999523163]","1","0","4","","","","","","","",""
"pit-trial","90","688505","0.0-2.0-17.1-4.1","battery-v0.2","","""event"",""trial"",""time""
""fullscreenenter"",""1"",""1551""
","
","
","""event"",""trial"",""time""
""fullscreenenter"",""1"",""1551""
","
","","","-1","","","19","17723","6592","&#9789;","elianto","#f73b6a7A"," ","-1","0","-10","[4064]","1","0","4","","","","","","","",""
"pit-trial","91","691541","0.0-2.0-17.2-0.2","battery-v0.2","","""event"",""trial"",""time""
""fullscreenenter"",""1"",""1551""
","
","
","""event"",""trial"",""time""
""fullscreenenter"",""1"",""1551""
","
","","","178.60000002384186","","","19","17723","6592","&#9789;","elianto","#f73b6a7A"," "," ","1","0","[1029.5]","1","0","4","","","","","","","",""
"pit-trial","92","694622","0.0-2.0-17.2-1.2","battery-v0.2","","""event"",""trial"",""time""
""fullscreenenter"",""1"",""1551""
","
","
","""event"",""trial"",""time""
""fullscreenenter"",""1"",""1551""
","
","","","225.79999995231628","","","19","17723","6592","&#9789;","elianto","#f73b6a7A"," "," ","1","0","[1076.7999999523163]","1","0","4","","","","","","","",""
"pit-trial","93","697733","0.0-2.0-17.2-2.2","battery-v0.2","","""event"",""trial"",""time""
""fullscreenenter"",""1"",""1551""
","
","
","""event"",""trial"",""time""
""fullscreenenter"",""1"",""1551""
","
","","","255.5","","","19","17723","6592","&#9789;","elianto","#f73b6a7A"," "," ","1","0","[1106.3999999761581]","1","0","4","","","","","","","",""
"pit-trial","94","700744","0.0-2.0-17.2-3.2","battery-v0.2","","""event"",""trial"",""time""
""fullscreenenter"",""1"",""1551""
","
","
","""event"",""trial"",""time""
""fullscreenenter"",""1"",""1551""
","
","","","156.60000002384186","","","19","17723","6592","&#9789;","elianto","#f73b6a7A"," "," ","1","-10","[1007.6000000238419]","1","0","4","","","","","","","",""
"pit-trial","95","703811","0.0-2.0-17.2-4.2","battery-v0.2","","""event"",""trial"",""time""
""fullscreenenter"",""1"",""1551""
","
","
","""event"",""trial"",""time""
""fullscreenenter"",""1"",""1551""
","
","","","211.89999997615814","","","19","17723","6592","&#9789;","elianto","#f73b6a7A"," "," ","1","0","[1063.0999999046326]","1","0","4","","","","","","","",""
"pit-trial","96","706958","0.0-2.0-17.3-0.3","battery-v0.2","","""event"",""trial"",""time""
""fullscreenenter"",""1"",""1551""
","
","
","""event"",""trial"",""time""
""fullscreenenter"",""1"",""1551""
","
","","","290.60000002384186","","","19","17723","6592","&#9789;","elianto","#f73b6a7A"," "," ","1","0","[1142.1999999284744,1813.6999999284744,2537.6999999284744]","3","0","4","","","","","","","",""
"pit-trial","97","710526","0.0-2.0-17.3-1.3","battery-v0.2","","""event"",""trial"",""time""
""fullscreenenter"",""1"",""1551""
","
","
","""event"",""trial"",""time""
""fullscreenenter"",""1"",""1551""
","
","","","713.5","","","19","17723","6592","&#9789;","elianto","#f73b6a7A"," "," ","1","0","[1564.2000000476837]","1","0","4","","","","","","","",""
"pit-trial","98","713721","0.0-2.0-17.3-2.3","battery-v0.2","","""event"",""trial"",""time""
""fullscreenenter"",""1"",""1551""
","
","
","""event"",""trial"",""time""
""fullscreenenter"",""1"",""1551""
","
","","","340","","","19","17723","6592","&#9789;","elianto","#f73b6a7A"," "," ","1","0","[1191.2000000476837]","1","0","4","","","","","","","",""
"pit-trial","99","717048","0.0-2.0-17.3-3.3","battery-v0.2","","""event"",""trial"",""time""
""fullscreenenter"",""1"",""1551""
","
","
","""event"",""trial"",""time""
""fullscreenenter"",""1"",""1551""
","
","","","472.39999997615814","","","19","17723","6592","&#9789;","elianto","#f73b6a7A"," "," ","1","-10","[1323]","1","0","4","","","","","","","",""
"pit-trial","100","720152","0.0-2.0-17.3-4.3","battery-v0.2","","""event"",""trial"",""time""
""fullscreenenter"",""1"",""1551""
","
","
","""event"",""trial"",""time""
""fullscreenenter"",""1"",""1551""
","
","","","249.5","","","19","17723","6592","&#9789;","elianto","#f73b6a7A"," "," ","1","0","[1100.7000000476837]","1","0","4","","","","","","","",""
"call-function","101","720154","0.0-2.0-18.0","battery-v0.2","","""event"",""trial"",""time""
""fullscreenenter"",""1"",""1551""
","
","
","""event"",""trial"",""time""
""fullscreenenter"",""1"",""1551""
","
","","","","","","","","","","","","","","","","","","","","","","","","","","",""
"pit-instructions","102","815938","0.0-2.0-19.0","battery-v0.2","","""event"",""trial"",""time""
""fullscreenenter"",""1"",""1551""
","
","
","""event"",""trial"",""time""
""fullscreenenter"",""1"",""1551""
","
","","[{""page_index"":0,""viewing_time"":7355.5},{""page_index"":1,""viewing_time"":8669.299999952316},{""page_index"":2,""viewing_time"":15754},{""page_index"":3,""viewing_time"":11570.300000071526},{""page_index"":4,""viewing_time"":10383.899999976158},{""page_index"":5,""viewing_time"":11752.799999952316},{""page_index"":6,""viewing_time"":9570},{""page_index"":7,""viewing_time"":12653.899999976158},{""page_index"":8,""viewing_time"":8071.700000047684}]","95781.89999997616","","","","","","","","","","","","","","","","","","","","","","","",""
"pit-comprehension","103","820308","0.0-2.0-20.0-0.0","battery-v0.2","","""event"",""trial"",""time""
""fullscreenenter"",""1"",""1551""
","
","
","""event"",""trial"",""time""
""fullscreenenter"",""1"",""1551""
","
","","","4365.100000023842","[""SPACE""]","0","19","17723","6592","","","","","","","","","","","","","","","","","","",""
"pit-instructions","104","823504","0.0-2.0-20.0-1.0","battery-v0.2","","""event"",""trial"",""time""
""fullscreenenter"",""1"",""1551""
","
","
","""event"",""trial"",""time""
""fullscreenenter"",""1"",""1551""
","
","","[{""page_index"":0,""viewing_time"":3169.4000000953674}]","3169.8000000715256","","","","","","","","","","","","","","","","","","","","","","","",""
"pit-comprehension","105","829911","0.0-2.0-21.0-0.0","battery-v0.2","","""event"",""trial"",""time""
""fullscreenenter"",""1"",""1551""
","
","
","""event"",""trial"",""time""
""fullscreenenter"",""1"",""1551""
","
","","","6403","[""10""]","0","19","17723","6592","","","","","","","","","","","","","","","","","","",""
"pit-instructions","106","832796","0.0-2.0-21.0-1.0","battery-v0.2","","""event"",""trial"",""time""
""fullscreenenter"",""1"",""1551""
","
","
","""event"",""trial"",""time""
""fullscreenenter"",""1"",""1551""
","
","","[{""page_index"":0,""viewing_time"":2865.899999976158}]","2866.1999999284744","","","","","","","","","","","","","","","","","","","","","","","",""
"pit-comprehension","107","841645","0.0-2.0-22.0-0.0","battery-v0.2","","""event"",""trial"",""time""
""fullscreenenter"",""1"",""1551""
","
","
","""event"",""trial"",""time""
""fullscreenenter"",""1"",""1551""
","
","","","8844.700000047684","[""0""]","0","19","17723","6592","","","","","","","","","","","","","","","","","","",""
"pit-instructions","108","847233","0.0-2.0-22.0-1.0","battery-v0.2","","""event"",""trial"",""time""
""fullscreenenter"",""1"",""1551""
","
","
","""event"",""trial"",""time""
""fullscreenenter"",""1"",""1551""
","
","","[{""page_index"":0,""viewing_time"":5561.299999952316}]","5561.799999952316","","","","","","","","","","","","","","","","","","","","","","","",""
"pit-comprehension","109","855607","0.0-2.0-23.0-0.0","battery-v0.2","","""event"",""trial"",""time""
""fullscreenenter"",""1"",""1551""
","
","
","""event"",""trial"",""time""
""fullscreenenter"",""1"",""1551""
","
","","","8369.600000023842","[""True""]","0","19","17723","6592","","","","","","","","","","","","","","","","","","",""
"pit-instructions","110","864075","0.0-2.0-23.0-1.0","battery-v0.2","","""event"",""trial"",""time""
""fullscreenenter"",""1"",""1551""
","
","
","""event"",""trial"",""time""
""fullscreenenter"",""1"",""1551""
","
","","[{""page_index"":0,""viewing_time"":8440.399999976158}]","8440.799999952316","","","","","","","","","","","","","","","","","","","","","","","",""
"pit-comprehension","111","871191","0.0-2.0-24.0-0.0","battery-v0.2","","""event"",""trial"",""time""
""fullscreenenter"",""1"",""1551""
","
","
","""event"",""trial"",""time""
""fullscreenenter"",""1"",""1551""
","
","","","7111.899999976158","[""True""]","0","19","17723","6592","","","","","","","","","","","","","","","","","","",""
"pit-instructions","112","872624","0.0-2.0-24.0-1.0","battery-v0.2","","""event"",""trial"",""time""
""fullscreenenter"",""1"",""1551""
","
","
","""event"",""trial"",""time""
""fullscreenenter"",""1"",""1551""
","
","","[{""page_index"":0,""viewing_time"":1405.5999999046326}]","1406","","","","","","","","","","","","","","","","","","","","","","","",""
"pit-comprehension","113","878980","0.0-2.0-25.0-0.0","battery-v0.2","","""event"",""trial"",""time""
""fullscreenenter"",""1"",""1551""
","
","
","""event"",""trial"",""time""
""fullscreenenter"",""1"",""1551""
","
","","","6352.5","[""True""]","0","19","17723","6592","","","","","","","","","","","","","","","","","","",""
"pit-instructions","114","883679","0.0-2.0-25.0-1.0","battery-v0.2","","""event"",""trial"",""time""
""fullscreenenter"",""1"",""1551""
","
","
","""event"",""trial"",""time""
""fullscreenenter"",""1"",""1551""
","
","","[{""page_index"":0,""viewing_time"":4670.700000047684}]","4671.200000047684","","","","","","","","","","","","","","","","","","","","","","","",""
"pit-comprehension","115","888698","0.0-2.0-26.0-0.0","battery-v0.2","","""event"",""trial"",""time""
""fullscreenenter"",""1"",""1551""
","
","
","""event"",""trial"",""time""
""fullscreenenter"",""1"",""1551""
","
","","","5013.5","[""False""]","0","19","17723","6592","","","","","","","","","","","","","","","","","","",""
"pit-instructions","116","891334","0.0-2.0-26.0-1.0","battery-v0.2","","""event"",""trial"",""time""
""fullscreenenter"",""1"",""1551""
","
","
","""event"",""trial"",""time""
""fullscreenenter"",""1"",""1551""
","
","","[{""page_index"":0,""viewing_time"":2608.399999976158}]","2608.899999976158","","","","","","","","","","","","","","","","","","","","","","","",""
"pit-instructions","117","907325","0.0-3.0","battery-v0.2","","""event"",""trial"",""time""
""fullscreenenter"",""1"",""1551""
","
","
","""event"",""trial"",""time""
""fullscreenenter"",""1"",""1551""
","
","","[{""page_index"":0,""viewing_time"":3886.100000023842},{""page_index"":1,""viewing_time"":5539.399999976158},{""page_index"":2,""viewing_time"":6562.900000095367}]","15989","","","","","","","","","","","","","","","","","","","","","","","",""
"pit-trial","118","910895","0.0-4.0","battery-v0.2","","""event"",""trial"",""time""
""fullscreenenter"",""1"",""1551""
","
","
","""event"",""trial"",""time""
""fullscreenenter"",""1"",""1551""
","
","","","709.2999999523163","","","19","17723","6592","&#9730;","elianto","#3366ff99"," "," ","1","+10","[1561.1999999284744]","1","1","","","17723","1","1","1","win","go","0"
"pit-trial","119","915751","0.0-5.0","battery-v0.2","","""event"",""trial"",""time""
""fullscreenenter"",""1"",""1551""
","
","
","""event"",""trial"",""time""
""fullscreenenter"",""1"",""1551""
","
","","","-1","","","19","17723","6592","&#9728;","elianto","#f73b6a7A","-1","-1","1","0","[]","0","1","","","17723","2","0","4","lose","no-go","0"
"pit-trial","120","920608","0.0-6.0","battery-v0.2","","""event"",""trial"",""time""
""fullscreenenter"",""1"",""1551""
","
","
","""event"",""trial"",""time""
""fullscreenenter"",""1"",""1551""
","
","","","-1","","","19","17723","6592","&#9752;","elianto","#f73b6a7A"," ","-1","0","-10","[]","0","1","","","17723","3","3","3","lose","go","0"
"pit-trial","121","924108","0.0-7.0","battery-v0.2","","""event"",""trial"",""time""
""fullscreenenter"",""1"",""1551""
","
","
","""event"",""trial"",""time""
""fullscreenenter"",""1"",""1551""
","
","","","644","","","19","17723","6592","&#9733;","elianto","#3366ff99","-1"," ","0","+10","[1494.8999999761581]","1","1","","","17723","4","2","2","win","no-go","1"
"pit-trial","122","927679","0.0-8.0","battery-v0.2","","""event"",""trial"",""time""
""fullscreenenter"",""1"",""1551""
","
","
","""event"",""trial"",""time""
""fullscreenenter"",""1"",""1551""
","
","","","716.5999999046326","","","19","17723","6592","&#9730;","elianto","#3366ff99"," "," ","1","+10","[1566.8000000715256]","1","1","","","17723","5","1","1","win","go","0"
"pit-trial","123","932203","0.0-9.0","battery-v0.2","","""event"",""trial"",""time""
""fullscreenenter"",""1"",""1551""
","
","
","""event"",""trial"",""time""
""fullscreenenter"",""1"",""1551""
","
","","","1668.1999999284744","","","19","17723","6592","&#9752;","elianto","#f73b6a7A"," "," ","1","0","[2519.8000000715256]","1","1","","","17723","6","3","3","lose","go","0"
"pit-trial","124","937059","0.0-10.0","battery-v0.2","","""event"",""trial"",""time""
""fullscreenenter"",""1"",""1551""
","
","
","""event"",""trial"",""time""
""fullscreenenter"",""1"",""1551""
","
","","","-1","","","19","17723","6592","&#9728;","elianto","#f73b6a7A","-1","-1","1","0","[]","0","1","","","17723","7","0","4","lose","no-go","0"
"pit-trial","125","940501","0.0-11.0","battery-v0.2","","""event"",""trial"",""time""
""fullscreenenter"",""1"",""1551""
","
","
","""event"",""trial"",""time""
""fullscreenenter"",""1"",""1551""
","
","","","586.1999999284744","","","19","17723","6592","&#9733;","elianto","#3366ff99","-1"," ","0","+10","[1437.5]","1","1","","","17723","8","2","2","win","no-go","1"
"pit-trial","126","944315","0.0-12.0","battery-v0.2","","""event"",""trial"",""time""
""fullscreenenter"",""1"",""1551""
","
","
","""event"",""trial"",""time""
""fullscreenenter"",""1"",""1551""
","
","","","959.1000000238419","","","19","17723","6592","&#9733;","elianto","#3366ff99","-1"," ","0","0","[1810.1000000238419]","1","1","","","17723","9","2","2","win","no-go","0"
"pit-trial","127","949171","0.0-13.0","battery-v0.2","","""event"",""trial"",""time""
""fullscreenenter"",""1"",""1551""
","
","
","""event"",""trial"",""time""
""fullscreenenter"",""1"",""1551""
","
","","","-1","","","19","17723","6592","&#9728;","elianto","#f73b6a7A","-1","-1","1","-10","[]","0","1","","","17723","10","0","4","lose","no-go","1"
"pit-trial","128","953982","0.0-14.0","battery-v0.2","","""event"",""trial"",""time""
""fullscreenenter"",""1"",""1551""
","
","
","""event"",""trial"",""time""
""fullscreenenter"",""1"",""1551""
","
","","","1955.3999999761581","","","19","17723","6592","&#9752;","elianto","#f73b6a7A"," "," ","1","0","[2805.8000000715256]","1","1","","","17723","11","3","3","lose","go","0"
"pit-trial","129","958837","0.0-15.0","battery-v0.2","","""event"",""trial"",""time""
""fullscreenenter"",""1"",""1551""
","
","
","""event"",""trial"",""time""
""fullscreenenter"",""1"",""1551""
","
","","","-1","","","19","17723","6592","&#9730;","elianto","#3366ff99"," ","-1","0","0","[3143]","1","1","","","17723","12","1","1","win","go","0"
"pit-trial","130","962417","0.0-16.0","battery-v0.2","","""event"",""trial"",""time""
""fullscreenenter"",""1"",""1551""
","
","
","""event"",""trial"",""time""
""fullscreenenter"",""1"",""1551""
","
","","","724.6000000238419","","","19","17723","6592","&#9730;","elianto","#3366ff99"," "," ","1","+10","[1574.7000000476837]","1","1","","","17723","13","1","1","win","go","0"
"pit-trial","131","966237","0.0-17.0","battery-v0.2","","""event"",""trial"",""time""
""fullscreenenter"",""1"",""1551""
","
","
","""event"",""trial"",""time""
""fullscreenenter"",""1"",""1551""
","
","","","964.5","","","19","17723","6592","&#9752;","elianto","#f73b6a7A"," "," ","1","0","[1815.5]","1","1","","","17723","14","3","3","lose","go","0"
"pit-trial","132","969849","0.0-18.0","battery-v0.2","","""event"",""trial"",""time""
""fullscreenenter"",""1"",""1551""
","
","
","""event"",""trial"",""time""
""fullscreenenter"",""1"",""1551""
","
","","","757.1000000238419","","","19","17723","6592","&#9733;","elianto","#3366ff99","-1"," ","0","0","[1607.7999999523163]","1","1","","","17723","15","2","2","win","no-go","0"
"pit-trial","133","974704","0.0-19.0","battery-v0.2","","""event"",""trial"",""time""
""fullscreenenter"",""1"",""1551""
","
","
","""event"",""trial"",""time""
""fullscreenenter"",""1"",""1551""
","
","","","-1","","","19","17723","6592","&#9728;","elianto","#f73b6a7A","-1","-1","1","0","[]","0","1","","","17723","16","0","4","lose","no-go","0"
"pit-trial","134","978586","0.0-20.0","battery-v0.2","","""event"",""trial"",""time""
""fullscreenenter"",""1"",""1551""
","
","
","""event"",""trial"",""time""
""fullscreenenter"",""1"",""1551""
","
","","","1027.3999999761581","","","19","17723","6592","&#9752;","elianto","#f73b6a7A"," "," ","1","0","[1877.5]","1","1","","","17723","17","3","3","lose","go","0"
"pit-trial","135","983441","0.0-21.0","battery-v0.2","","""event"",""trial"",""time""
""fullscreenenter"",""1"",""1551""
","
","
","""event"",""trial"",""time""
""fullscreenenter"",""1"",""1551""
","
","","","-1","","","19","17723","6592","&#9728;","elianto","#f73b6a7A","-1","-1","1","0","[]","0","1","","","17723","18","0","4","lose","no-go","0"
"pit-trial","136","987223","0.0-22.0","battery-v0.2","","""event"",""trial"",""time""
""fullscreenenter"",""1"",""1551""
","
","
","""event"",""trial"",""time""
""fullscreenenter"",""1"",""1551""
","
","","","926.8999999761581","","","19","17723","6592","&#9730;","elianto","#3366ff99"," "," ","1","+10","[1777.2999999523163]","1","1","","","17723","19","1","1","win","go","0"
"pit-trial","137","992079","0.0-23.0","battery-v0.2","","""event"",""trial"",""time""
""fullscreenenter"",""1"",""1551""
","
","
","""event"",""trial"",""time""
""fullscreenenter"",""1"",""1551""
","
","","","-1","","","19","17723","6592","&#9733;","elianto","#3366ff99","-1","-1","1","+10","[]","0","1","","","17723","20","2","2","win","no-go","0"
"pit-instructions","138","1004485","0.0-24.0","battery-v0.2","","""event"",""trial"",""time""
""fullscreenenter"",""1"",""1551""
","
","
","""event"",""trial"",""time""
""fullscreenenter"",""1"",""1551""
","
","","[{""page_index"":0,""viewing_time"":5492.100000023842},{""page_index"":1,""viewing_time"":6910.600000023842}]","12403.200000047684","","","","","","","","","","","","","","","","","","","","","","","",""
"pit-trial","139","1008508","0.0-25.0","battery-v0.2","","""event"",""trial"",""time""
""fullscreenenter"",""1"",""1551""
","
","
","""event"",""trial"",""time""
""fullscreenenter"",""1"",""1551""
","
","","","1165.8999999761581","","","19","17723","6592","j","elianto","#f73b6a7A","-1"," ","0","-10","[2017]","1","2","","","17723","21","0","4","lose","no-go","0"
"pit-trial","140","1012361","0.0-26.0","battery-v0.2","","""event"",""trial"",""time""
""fullscreenenter"",""1"",""1551""
","
","
","""event"",""trial"",""time""
""fullscreenenter"",""1"",""1551""
","
","","","997.3999999761581","","","19","17723","6592","w","elianto","#f73b6a7A"," "," ","1","0","[1847.5]","1","2","","","17723","22","3","3","lose","go","0"
"pit-trial","141","1016272","0.0-27.0","battery-v0.2","","""event"",""trial"",""time""
""fullscreenenter"",""1"",""1551""
","
","
","""event"",""trial"",""time""
""fullscreenenter"",""1"",""1551""
","
","","","1055.1000000238419","","","19","17723","6592","e","elianto","#f73b6a7A","-1"," ","0","-10","[1906.1999999284744]","1","2","","","17723","23","2","4","lose","no-go","0"
"pit-trial","142","1020023","0.0-28.0","battery-v0.2","","""event"",""trial"",""time""
""fullscreenenter"",""1"",""1551""
","
","
","""event"",""trial"",""time""
""fullscreenenter"",""1"",""1551""
","
","","","895.2000000476837","","","19","17723","6592","d","elianto","#3366ff99"," "," ","1","+10","[1746.3999999761581]","1","2","","","17723","24","1","1","win","go","0"
"pit-trial","143","1024879","0.0-29.0","battery-v0.2","","""event"",""trial"",""time""
""fullscreenenter"",""1"",""1551""
","
","
","""event"",""trial"",""time""
""fullscreenenter"",""1"",""1551""
","
","","","-1","","","19","17723","6592","e","elianto","#f73b6a7A","-1","-1","1","0","[]","0","2","","","17723","25","2","4","lose","no-go","0"
"pit-trial","144","1028973","0.0-30.0","battery-v0.2","","""event"",""trial"",""time""
""fullscreenenter"",""1"",""1551""
","
","
","""event"",""trial"",""time""
""fullscreenenter"",""1"",""1551""
","
","","","1237.8999999761581","","","19","17723","6592","j","elianto","#f73b6a7A","-1"," ","0","-10","[2089.2999999523163]","1","2","","","17723","26","0","4","lose","no-go","0"
"pit-trial","145","1032751","0.0-31.0","battery-v0.2","","""event"",""trial"",""time""
""fullscreenenter"",""1"",""1551""
","
","
","""event"",""trial"",""time""
""fullscreenenter"",""1"",""1551""
","
","","","922.3999999761581","","","19","17723","6592","d","elianto","#3366ff99"," "," ","1","+10","[1772.8999999761581]","1","2","","","17723","27","1","1","win","go","0"
"pit-trial","146","1036481","0.0-32.0","battery-v0.2","","""event"",""trial"",""time""
""fullscreenenter"",""1"",""1551""
","
","
","""event"",""trial"",""time""
""fullscreenenter"",""1"",""1551""
","
","","","874","","","19","17723","6592","w","elianto","#f73b6a7A"," "," ","1","-10","[1725.8000000715256]","1","2","","","17723","28","3","3","lose","go","1"
"pit-trial","147","1041337","0.0-33.0","battery-v0.2","","""event"",""trial"",""time""
""fullscreenenter"",""1"",""1551""
","
","
","""event"",""trial"",""time""
""fullscreenenter"",""1"",""1551""
","
","","","-1","","","19","17723","6592","j","elianto","#f73b6a7A","-1","-1","1","0","[]","0","2","","","17723","29","0","4","lose","no-go","0"
"pit-trial","148","1045511","0.0-34.0","battery-v0.2","","""event"",""trial"",""time""
""fullscreenenter"",""1"",""1551""
","
","
","""event"",""trial"",""time""
""fullscreenenter"",""1"",""1551""
","
","","","1318.2000000476837","","","19","17723","6592","e","elianto","#f73b6a7A","-1"," ","0","-10","[2169.100000023842]","1","2","","","17723","30","2","4","lose","no-go","0"
"pit-trial","149","1049678","0.0-35.0","battery-v0.2","","""event"",""trial"",""time""
""fullscreenenter"",""1"",""1551""
","
","
","""event"",""trial"",""time""
""fullscreenenter"",""1"",""1551""
","
","","","1310.1000000238419","","","19","17723","6592","w","elianto","#f73b6a7A"," "," ","1","0","[2161.7999999523163]","1","2","","","17723","31","3","3","lose","go","0"
"pit-trial","150","1054213","0.0-36.0","battery-v0.2","","""event"",""trial"",""time""
""fullscreenenter"",""1"",""1551""
","
","
","""event"",""trial"",""time""
""fullscreenenter"",""1"",""1551""
","
","","","1679.1000000238419","","","19","17723","6592","d","elianto","#3366ff99"," "," ","1","+10","[2530.2000000476837]","1","2","","","17723","32","1","1","win","go","0"
"pit-trial","151","1059069","0.0-37.0","battery-v0.2","","""event"",""trial"",""time""
""fullscreenenter"",""1"",""1551""
","
","
","""event"",""trial"",""time""
""fullscreenenter"",""1"",""1551""
","
","","","-1","","","19","17723","6592","j","elianto","#f73b6a7A","-1","-1","1","0","[]","0","2","","","17723","33","0","4","lose","no-go","0"
"pit-trial","152","1063377","0.0-38.0","battery-v0.2","","""event"",""trial"",""time""
""fullscreenenter"",""1"",""1551""
","
","
","""event"",""trial"",""time""
""fullscreenenter"",""1"",""1551""
","
","","","1451.2000000476837","","","19","17723","6592","w","elianto","#f73b6a7A"," "," ","1","-10","[2302.8000000715256]","1","2","","","17723","34","3","3","lose","go","1"
"pit-trial","153","1068233","0.0-39.0","battery-v0.2","","""event"",""trial"",""time""
""fullscreenenter"",""1"",""1551""
","
","
","""event"",""trial"",""time""
""fullscreenenter"",""1"",""1551""
","
","","","-1","","","19","17723","6592","e","elianto","#f73b6a7A","-1","-1","1","0","[]","0","2","","","17723","35","2","4","lose","no-go","0"
"pit-trial","154","1072207","0.0-40.0","battery-v0.2","","""event"",""trial"",""time""
""fullscreenenter"",""1"",""1551""
","
","
","""event"",""trial"",""time""
""fullscreenenter"",""1"",""1551""
","
","","","1118.8999999761581","","","19","17723","6592","d","elianto","#3366ff99"," "," ","1","0","[1970.2999999523163]","1","2","","","17723","36","1","1","win","go","1"
"pit-trial","155","1075991","0.0-41.0","battery-v0.2","","""event"",""trial"",""time""
""fullscreenenter"",""1"",""1551""
","
","
","""event"",""trial"",""time""
""fullscreenenter"",""1"",""1551""
","
","","","930","","","19","17723","6592","w","elianto","#f73b6a7A"," "," ","1","0","[1781]","1","2","","","17723","37","3","3","lose","go","0"
"pit-trial","156","1079630","0.0-42.0","battery-v0.2","","""event"",""trial"",""time""
""fullscreenenter"",""1"",""1551""
","
","
","""event"",""trial"",""time""
""fullscreenenter"",""1"",""1551""
","
","","","783.3999999761581","","","19","17723","6592","d","elianto","#3366ff99"," "," ","1","+10","[1634.1999999284744]","1","2","","","17723","38","1","1","win","go","0"
"pit-trial","157","1084486","0.0-43.0","battery-v0.2","","""event"",""trial"",""time""
""fullscreenenter"",""1"",""1551""
","
","
","""event"",""trial"",""time""
""fullscreenenter"",""1"",""1551""
","
","","","-1","","","19","17723","6592","e","elianto","#f73b6a7A","-1","-1","1","-10","[]","0","2","","","17723","39","2","4","lose","no-go","1"
"pit-trial","158","1089342","0.0-44.0","battery-v0.2","","""event"",""trial"",""time""
""fullscreenenter"",""1"",""1551""
","
","
","""event"",""trial"",""time""
""fullscreenenter"",""1"",""1551""
","
","","","-1","","","19","17723","6592","j","elianto","#f73b6a7A","-1","-1","1","0","[]","0","2","","","17723","40","0","4","lose","no-go","0"
"pit-trial","159","1092607","0.0-45.0","battery-v0.2","","""event"",""trial"",""time""
""fullscreenenter"",""1"",""1551""
","
","
","""event"",""trial"",""time""
""fullscreenenter"",""1"",""1551""
","
","","","409.1999999284744","","","19","17723","6592","d","elianto","#3366ff99"," "," ","1","+10","[1259.5999999046326]","1","2","","","17723","41","1","1","win","go","0"
"pit-trial","160","1097464","0.0-46.0","battery-v0.2","","""event"",""trial"",""time""
""fullscreenenter"",""1"",""1551""
","
","
","""event"",""trial"",""time""
""fullscreenenter"",""1"",""1551""
","
","","","-1","","","19","17723","6592","j","elianto","#f73b6a7A","-1","-1","1","-10","[]","0","2","","","17723","42","0","4","lose","no-go","1"
"pit-trial","161","1102319","0.0-47.0","battery-v0.2","","""event"",""trial"",""time""
""fullscreenenter"",""1"",""1551""
","
","
","""event"",""trial"",""time""
""fullscreenenter"",""1"",""1551""
","
","","","-1","","","19","17723","6592","e","elianto","#f73b6a7A","-1","-1","1","0","[]","0","2","","","17723","43","2","4","lose","no-go","0"
"pit-trial","162","1106214","0.0-48.0","battery-v0.2","","""event"",""trial"",""time""
""fullscreenenter"",""1"",""1551""
","
","
","""event"",""trial"",""time""
""fullscreenenter"",""1"",""1551""
","
","","","1039","","","19","17723","6592","w","elianto","#f73b6a7A"," "," ","1","0","[1890.6000000238419]","1","2","","","17723","44","3","3","lose","go","0"
"pit-trial","163","1110145","0.0-49.0","battery-v0.2","","""event"",""trial"",""time""
""fullscreenenter"",""1"",""1551""
","
","
","""event"",""trial"",""time""
""fullscreenenter"",""1"",""1551""
","
","","","1075.2999999523163","","","19","17723","6592","j","elianto","#f73b6a7A","-1"," ","0","-10","[1927.0999999046326]","1","2","","","17723","45","0","4","lose","no-go","0"
"pit-trial","164","1114063","0.0-50.0","battery-v0.2","","""event"",""trial"",""time""
""fullscreenenter"",""1"",""1551""
","
","
","""event"",""trial"",""time""
""fullscreenenter"",""1"",""1551""
","
","","","1061.4000000953674","","","19","17723","6592","w","elianto","#f73b6a7A"," "," ","1","0","[1912]","1","2","","","17723","46","3","3","lose","go","0"
"pit-trial","165","1118919","0.0-51.0","battery-v0.2","","""event"",""trial"",""time""
""fullscreenenter"",""1"",""1551""
","
","
","""event"",""trial"",""time""
""fullscreenenter"",""1"",""1551""
","
","","","-1","","","19","17723","6592","e","elianto","#f73b6a7A","-1","-1","1","-10","[]","0","2","","","17723","47","2","4","lose","no-go","1"
"pit-trial","166","1123026","0.0-52.0","battery-v0.2","","""event"",""trial"",""time""
""fullscreenenter"",""1"",""1551""
","
","
","""event"",""trial"",""time""
""fullscreenenter"",""1"",""1551""
","
","","","1251.6999999284744","","","19","17723","6592","s","elianto","#3366ff99","-1"," ","0","0","[2102.7999999523163]","1","2","","","17723","48","4","2","win","no-go","0"
"pit-trial","167","1127883","0.0-53.0","battery-v0.2","","""event"",""trial"",""time""
""fullscreenenter"",""1"",""1551""
","
","
","""event"",""trial"",""time""
""fullscreenenter"",""1"",""1551""
","
","","","-1","","","19","17723","6592","s","elianto","#3366ff99","-1","-1","1","+10","[]","0","2","","","17723","49","4","2","win","no-go","0"
"pit-trial","168","1132270","0.0-54.0","battery-v0.2","","""event"",""trial"",""time""
""fullscreenenter"",""1"",""1551""
","
","
","""event"",""trial"",""time""
""fullscreenenter"",""1"",""1551""
","
","","","1532.1000000238419","","","19","17723","6592","w","elianto","#f73b6a7A"," "," ","1","0","[2383]","1","2","","","17723","50","3","3","lose","go","0"
"pit-trial","169","1136727","0.0-55.0","battery-v0.2","","""event"",""trial"",""time""
""fullscreenenter"",""1"",""1551""
","
","
","""event"",""trial"",""time""
""fullscreenenter"",""1"",""1551""
","
","","","1600.8999999761581","","","19","17723","6592","d","elianto","#3366ff99"," "," ","1","+10","[2452.399999976158]","1","2","","","17723","51","1","1","win","go","0"
"pit-trial","170","1141581","0.0-56.0","battery-v0.2","","""event"",""trial"",""time""
""fullscreenenter"",""1"",""1551""
","
","
","""event"",""trial"",""time""
""fullscreenenter"",""1"",""1551""
","
","","","-1","","","19","17723","6592","j","elianto","#f73b6a7A","-1","-1","1","0","[]","0","2","","","17723","52","0","4","lose","no-go","0"
"pit-trial","171","1145691","0.0-57.0","battery-v0.2","","""event"",""trial"",""time""
""fullscreenenter"",""1"",""1551""
","
","
","""event"",""trial"",""time""
""fullscreenenter"",""1"",""1551""
","
","","","1253.5","","","19","17723","6592","s","elianto","#3366ff99","-1"," ","0","0","[2104.5]","1","2","","","17723","53","4","2","win","no-go","0"
"pit-trial","172","1150547","0.0-58.0","battery-v0.2","","""event"",""trial"",""time""
""fullscreenenter"",""1"",""1551""
","
","
","""event"",""trial"",""time""
""fullscreenenter"",""1"",""1551""
","
","","","-1","","","19","17723","6592","j","elianto","#f73b6a7A","-1","-1","1","0","[]","0","2","","","17723","54","0","4","lose","no-go","0"
"pit-trial","173","1154255","0.0-59.0","battery-v0.2","","""event"",""trial"",""time""
""fullscreenenter"",""1"",""1551""
","
","
","""event"",""trial"",""time""
""fullscreenenter"",""1"",""1551""
","
","","","852.1000000238419","","","19","17723","6592","d","elianto","#3366ff99"," "," ","1","0","[1703.7000000476837]","1","2","","","17723","55","1","1","win","go","1"
"pit-trial","174","1159111","0.0-60.0","battery-v0.2","","""event"",""trial"",""time""
""fullscreenenter"",""1"",""1551""
","
","
","""event"",""trial"",""time""
""fullscreenenter"",""1"",""1551""
","
","","","-1","","","19","17723","6592","e","elianto","#f73b6a7A","-1","-1","1","0","[]","0","2","","","17723","56","2","4","lose","no-go","0"
"pit-trial","175","1163367","0.0-61.0","battery-v0.2","","""event"",""trial"",""time""
""fullscreenenter"",""1"",""1551""
","
","
","""event"",""trial"",""time""
""fullscreenenter"",""1"",""1551""
","
","","","1399.8000000715256","","","19","17723","6592","w","elianto","#f73b6a7A"," "," ","1","-10","[2251.2000000476837]","1","2","","","17723","57","3","3","lose","go","1"
"pit-trial","176","1166926","0.0-62.0","battery-v0.2","","""event"",""trial"",""time""
""fullscreenenter"",""1"",""1551""
","
","
","""event"",""trial"",""time""
""fullscreenenter"",""1"",""1551""
","
","","","702.8999999761581","","","19","17723","6592","d","elianto","#3366ff99"," "," ","1","+10","[1553.7999999523163]","1","2","","","17723","58","1","1","win","go","0"
"pit-trial","177","1171782","0.0-63.0","battery-v0.2","","""event"",""trial"",""time""
""fullscreenenter"",""1"",""1551""
","
","
","""event"",""trial"",""time""
""fullscreenenter"",""1"",""1551""
","
","","","-1","","","19","17723","6592","j","elianto","#f73b6a7A","-1","-1","1","0","[]","0","2","","","17723","59","0","4","lose","no-go","0"
"pit-trial","178","1176639","0.0-64.0","battery-v0.2","","""event"",""trial"",""time""
""fullscreenenter"",""1"",""1551""
","
","
","""event"",""trial"",""time""
""fullscreenenter"",""1"",""1551""
","
","","","-1","","","19","17723","6592","s","elianto","#3366ff99","-1","-1","1","+10","[]","0","2","","","17723","60","4","2","win","no-go","0"
"pit-trial","179","1181496","0.0-65.0","battery-v0.2","","""event"",""trial"",""time""
""fullscreenenter"",""1"",""1551""
","
","
","""event"",""trial"",""time""
""fullscreenenter"",""1"",""1551""
","
","","","-1","","","19","17723","6592","e","elianto","#f73b6a7A","-1","-1","1","0","[]","0","2","","","17723","61","2","4","lose","no-go","0"
"pit-trial","180","1185090","0.0-66.0","battery-v0.2","","""event"",""trial"",""time""
""fullscreenenter"",""1"",""1551""
","
","
","""event"",""trial"",""time""
""fullscreenenter"",""1"",""1551""
","
","","","740","","","19","17723","6592","w","elianto","#f73b6a7A"," "," ","1","0","[1590.7000000476837]","1","2","","","17723","62","3","3","lose","go","0"
"pit-trial","181","1188475","0.0-67.0","battery-v0.2","","""event"",""trial"",""time""
""fullscreenenter"",""1"",""1551""
","
","
","""event"",""trial"",""time""
""fullscreenenter"",""1"",""1551""
","
","","","531","","","19","17723","6592","d","elianto","#3366ff99"," "," ","1","0","[1381]","1","2","","","17723","63","1","1","win","go","1"
"pit-trial","182","1193332","0.0-68.0","battery-v0.2","","""event"",""trial"",""time""
""fullscreenenter"",""1"",""1551""
","
","
","""event"",""trial"",""time""
""fullscreenenter"",""1"",""1551""
","
","","","-1","","","19","17723","6592","s","elianto","#3366ff99","-1","-1","1","+10","[]","0","2","","","17723","64","4","2","win","no-go","0"
"pit-trial","183","1196735","0.0-69.0","battery-v0.2","","""event"",""trial"",""time""
""fullscreenenter"",""1"",""1551""
","
","
","""event"",""trial"",""time""
""fullscreenenter"",""1"",""1551""
","
","","","546.7000000476837","","","19","17723","6592","d","elianto","#3366ff99"," "," ","1","+10","[1398.5]","1","2","","","17723","65","1","1","win","go","0"
"pit-trial","184","1200127","0.0-70.0","battery-v0.2","","""event"",""trial"",""time""
""fullscreenenter"",""1"",""1551""
","
","
","""event"",""trial"",""time""
""fullscreenenter"",""1"",""1551""
","
","","","535.7000000476837","","","19","17723","6592","w","elianto","#f73b6a7A"," "," ","1","0","[1386.7999999523163]","1","2","","","17723","66","3","3","lose","go","0"
"pit-trial","185","1204984","0.0-71.0","battery-v0.2","","""event"",""trial"",""time""
""fullscreenenter"",""1"",""1551""
","
","
","""event"",""trial"",""time""
""fullscreenenter"",""1"",""1551""
","
","","","-1","","","19","17723","6592","s","elianto","#3366ff99","-1","-1","1","+10","[]","0","2","","","17723","67","4","2","win","no-go","0"
"pit-trial","186","1209840","0.0-72.0","battery-v0.2","","""event"",""trial"",""time""
""fullscreenenter"",""1"",""1551""
","
","
","""event"",""trial"",""time""
""fullscreenenter"",""1"",""1551""
","
","","","-1","","","19","17723","6592","e","elianto","#f73b6a7A","-1","-1","1","-10","[]","0","2","","","17723","68","2","4","lose","no-go","1"
"pit-trial","187","1213521","0.0-73.0","battery-v0.2","","""event"",""trial"",""time""
""fullscreenenter"",""1"",""1551""
","
","
","""event"",""trial"",""time""
""fullscreenenter"",""1"",""1551""
","
","","","825.5","","","19","17723","6592","w","elianto","#f73b6a7A"," "," ","1","0","[1676.5]","1","2","","","17723","69","3","3","lose","go","0"
"pit-trial","188","1216879","0.0-74.0","battery-v0.2","","""event"",""trial"",""time""
""fullscreenenter"",""1"",""1551""
","
","
","""event"",""trial"",""time""
""fullscreenenter"",""1"",""1551""
","
","","","501.1999999284744","","","19","17723","6592","d","elianto","#3366ff99"," "," ","1","0","[1352.5]","1","2","","","17723","70","1","1","win","go","1"
"pit-trial","189","1221735","0.0-75.0","battery-v0.2","","""event"",""trial"",""time""
""fullscreenenter"",""1"",""1551""
","
","
","""event"",""trial"",""time""
""fullscreenenter"",""1"",""1551""
","
","","","-1","","","19","17723","6592","s","elianto","#3366ff99","-1","-1","1","+10","[]","0","2","","","17723","71","4","2","win","no-go","0"
"pit-trial","190","1226364","0.0-76.0","battery-v0.2","","""event"",""trial"",""time""
""fullscreenenter"",""1"",""1551""
","
","
","""event"",""trial"",""time""
""fullscreenenter"",""1"",""1551""
","
","","","1773.1000000238419","","","19","17723","6592","p","elianto","#3366ff99"," "," ","1","+10","[2624.100000023842]","1","2","","","17723","72","5","1","win","go","0"
"pit-trial","191","1231220","0.0-77.0","battery-v0.2","","""event"",""trial"",""time""
""fullscreenenter"",""1"",""1551""
","
","
","""event"",""trial"",""time""
""fullscreenenter"",""1"",""1551""
","
","","","-1","","","19","17723","6592","w","elianto","#f73b6a7A"," ","-1","0","-10","[]","0","2","","","17723","73","3","3","lose","go","0"
"pit-trial","192","1234846","0.0-78.0","battery-v0.2","","""event"",""trial"",""time""
""fullscreenenter"",""1"",""1551""
","
","
","""event"",""trial"",""time""
""fullscreenenter"",""1"",""1551""
","
","","","769.5","","","19","17723","6592","p","elianto","#3366ff99"," "," ","1","+10","[1620.8999999761581]","1","2","","","17723","74","5","1","win","go","0"
"pit-trial","193","1238442","0.0-79.0","battery-v0.2","","""event"",""trial"",""time""
""fullscreenenter"",""1"",""1551""
","
","
","""event"",""trial"",""time""
""fullscreenenter"",""1"",""1551""
","
","","","740.6999999284744","","","19","17723","6592","d","elianto","#3366ff99"," "," ","1","+10","[1591.9000000953674]","1","2","","","17723","75","1","1","win","go","0"
"pit-trial","194","1243297","0.0-80.0","battery-v0.2","","""event"",""trial"",""time""
""fullscreenenter"",""1"",""1551""
","
","
","""event"",""trial"",""time""
""fullscreenenter"",""1"",""1551""
","
","","","-1","","","19","17723","6592","s","elianto","#3366ff99","-1","-1","1","+10","[]","0","2","","","17723","76","4","2","win","no-go","0"
"pit-trial","195","1248154","0.0-81.0","battery-v0.2","","""event"",""trial"",""time""
""fullscreenenter"",""1"",""1551""
","
","
","""event"",""trial"",""time""
""fullscreenenter"",""1"",""1551""
","
","","","-1","","","19","17723","6592","s","elianto","#3366ff99","-1","-1","1","+10","[]","0","2","","","17723","77","4","2","win","no-go","0"
"pit-trial","196","1252424","0.0-82.0","battery-v0.2","","""event"",""trial"",""time""
""fullscreenenter"",""1"",""1551""
","
","
","""event"",""trial"",""time""
""fullscreenenter"",""1"",""1551""
","
","","","1416","","","19","17723","6592","g","elianto","#f73b6a7A","-1"," ","0","-10","[2266.600000023842]","1","2","","","17723","78","6","4","lose","no-go","0"
"pit-trial","197","1256627","0.0-83.0","battery-v0.2","","""event"",""trial"",""time""
""fullscreenenter"",""1"",""1551""
","
","
","""event"",""trial"",""time""
""fullscreenenter"",""1"",""1551""
","
","","","1347.2000000476837","","","19","17723","6592","w","elianto","#f73b6a7A"," "," ","1","0","[2197.100000023842]","1","2","","","17723","79","3","3","lose","go","0"
"pit-trial","198","1260771","0.0-84.0","battery-v0.2","","""event"",""trial"",""time""
""fullscreenenter"",""1"",""1551""
","
","
","""event"",""trial"",""time""
""fullscreenenter"",""1"",""1551""
","
","","","1290.3000000715256","","","19","17723","6592","p","elianto","#3366ff99"," "," ","1","+10","[2141.100000023842]","1","2","","","17723","80","5","1","win","go","0"
"pit-trial","199","1265627","0.0-85.0","battery-v0.2","","""event"",""trial"",""time""
""fullscreenenter"",""1"",""1551""
","
","
","""event"",""trial"",""time""
""fullscreenenter"",""1"",""1551""
","
","","","-1","","","19","17723","6592","g","elianto","#f73b6a7A","-1","-1","1","0","[]","0","2","","","17723","81","6","4","lose","no-go","0"
"pit-trial","200","1270484","0.0-86.0","battery-v0.2","","""event"",""trial"",""time""
""fullscreenenter"",""1"",""1551""
","
","
","""event"",""trial"",""time""
""fullscreenenter"",""1"",""1551""
","
","","","-1","","","19","17723","6592","s","elianto","#3366ff99","-1","-1","1","0","[]","0","2","","","17723","82","4","2","win","no-go","1"
"pit-trial","201","1275340","0.0-87.0","battery-v0.2","","""event"",""trial"",""time""
""fullscreenenter"",""1"",""1551""
","
","
","""event"",""trial"",""time""
""fullscreenenter"",""1"",""1551""
","
","","","-1","","","19","17723","6592","a","elianto","#f73b6a7A"," ","-1","0","-10","[]","0","2","","","17723","83","7","3","lose","go","0"
"pit-trial","202","1280039","0.0-88.0","battery-v0.2","","""event"",""trial"",""time""
""fullscreenenter"",""1"",""1551""
","
","
","""event"",""trial"",""time""
""fullscreenenter"",""1"",""1551""
","
","","","1842.5","","","19","17723","6592","p","elianto","#3366ff99"," "," ","1","+10","[2693.600000023842]","1","2","","","17723","84","5","1","win","go","0"
"pit-trial","203","1283831","0.0-89.0","battery-v0.2","","""event"",""trial"",""time""
""fullscreenenter"",""1"",""1551""
","
","
","""event"",""trial"",""time""
""fullscreenenter"",""1"",""1551""
","
","","","937.1000000238419","","","19","17723","6592","p","elianto","#3366ff99"," "," ","1","0","[1787.2000000476837]","1","2","","","17723","85","5","1","win","go","1"
"pit-trial","204","1287850","0.0-90.0","battery-v0.2","","""event"",""trial"",""time""
""fullscreenenter"",""1"",""1551""
","
","
","""event"",""trial"",""time""
""fullscreenenter"",""1"",""1551""
","
","","","1162.9000000953674","","","19","17723","6592","a","elianto","#f73b6a7A"," "," ","1","0","[2014.2000000476837]","1","2","","","17723","86","7","3","lose","go","0"
"pit-trial","205","1292707","0.0-91.0","battery-v0.2","","""event"",""trial"",""time""
""fullscreenenter"",""1"",""1551""
","
","
","""event"",""trial"",""time""
""fullscreenenter"",""1"",""1551""
","
","","","-1","","","19","17723","6592","g","elianto","#f73b6a7A","-1","-1","1","0","[]","0","2","","","17723","87","6","4","lose","no-go","0"
"pit-trial","206","1297564","0.0-92.0","battery-v0.2","","""event"",""trial"",""time""
""fullscreenenter"",""1"",""1551""
","
","
","""event"",""trial"",""time""
""fullscreenenter"",""1"",""1551""
","
","","","-1","","","19","17723","6592","s","elianto","#3366ff99","-1","-1","1","0","[]","0","2","","","17723","88","4","2","win","no-go","1"
"pit-trial","207","1301289","0.0-93.0","battery-v0.2","","""event"",""trial"",""time""
""fullscreenenter"",""1"",""1551""
","
","
","""event"",""trial"",""time""
""fullscreenenter"",""1"",""1551""
","
","","","870","","","19","17723","6592","a","elianto","#f73b6a7A"," "," ","1","-10","[1720.6999999284744]","1","2","","","17723","89","7","3","lose","go","1"
"pit-trial","208","1306145","0.0-94.0","battery-v0.2","","""event"",""trial"",""time""
""fullscreenenter"",""1"",""1551""
","
","
","""event"",""trial"",""time""
""fullscreenenter"",""1"",""1551""
","
","","","-1","","","19","17723","6592","s","elianto","#3366ff99","-1","-1","1","+10","[]","0","2","","","17723","90","4","2","win","no-go","0"
"pit-trial","209","1309777","0.0-95.0","battery-v0.2","","""event"",""trial"",""time""
""fullscreenenter"",""1"",""1551""
","
","
","""event"",""trial"",""time""
""fullscreenenter"",""1"",""1551""
","
","","","778.8999999761581","","","19","17723","6592","p","elianto","#3366ff99"," "," ","1","+10","[1629.4000000953674]","1","2","","","17723","91","5","1","win","go","0"
"pit-trial","210","1314634","0.0-96.0","battery-v0.2","","""event"",""trial"",""time""
""fullscreenenter"",""1"",""1551""
","
","
","""event"",""trial"",""time""
""fullscreenenter"",""1"",""1551""
","
","","","-1","","","19","17723","6592","g","elianto","#f73b6a7A","-1","-1","1","-10","[]","0","2","","","17723","92","6","4","lose","no-go","1"
"pit-trial","211","1319490","0.0-97.0","battery-v0.2","","""event"",""trial"",""time""
""fullscreenenter"",""1"",""1551""
","
","
","""event"",""trial"",""time""
""fullscreenenter"",""1"",""1551""
","
","","","-1","","","19","17723","6592","g","elianto","#f73b6a7A","-1","-1","1","0","[]","0","2","","","17723","93","6","4","lose","no-go","0"
"pit-trial","212","1323146","0.0-98.0","battery-v0.2","","""event"",""trial"",""time""
""fullscreenenter"",""1"",""1551""
","
","
","""event"",""trial"",""time""
""fullscreenenter"",""1"",""1551""
","
","","","799.3999999761581","","","19","17723","6592","a","elianto","#f73b6a7A"," "," ","1","0","[1651.1999999284744]","1","2","","","17723","94","7","3","lose","go","0"
"pit-trial","213","1326690","0.0-99.0","battery-v0.2","","""event"",""trial"",""time""
""fullscreenenter"",""1"",""1551""
","
","
","""event"",""trial"",""time""
""fullscreenenter"",""1"",""1551""
","
","","","687.7999999523163","","","19","17723","6592","p","elianto","#3366ff99"," "," ","1","+10","[1538.5]","1","2","","","17723","95","5","1","win","go","0"
"pit-trial","214","1330880","0.0-100.0","battery-v0.2","","""event"",""trial"",""time""
""fullscreenenter"",""1"",""1551""
","
","
","""event"",""trial"",""time""
""fullscreenenter"",""1"",""1551""
","
","","","1334","","","19","17723","6592","l","elianto","#3366ff99","-1"," ","0","0","[2185.1999999284744]","1","2","","","17723","96","8","2","win","no-go","0"
"pit-trial","215","1334828","0.0-101.0","battery-v0.2","","""event"",""trial"",""time""
""fullscreenenter"",""1"",""1551""
","
","
","""event"",""trial"",""time""
""fullscreenenter"",""1"",""1551""
","
","","","1092.1999999284744","","","19","17723","6592","a","elianto","#f73b6a7A"," "," ","1","0","[1943.0999999046326]","1","2","","","17723","97","7","3","lose","go","0"
"pit-trial","216","1339685","0.0-102.0","battery-v0.2","","""event"",""trial"",""time""
""fullscreenenter"",""1"",""1551""
","
","
","""event"",""trial"",""time""
""fullscreenenter"",""1"",""1551""
","
","","","-1","","","19","17723","6592","l","elianto","#3366ff99","-1","-1","1","0","[]","0","2","","","17723","98","8","2","win","no-go","1"
"pit-trial","217","1344541","0.0-103.0","battery-v0.2","","""event"",""trial"",""time""
""fullscreenenter"",""1"",""1551""
","
","
","""event"",""trial"",""time""
""fullscreenenter"",""1"",""1551""
","
","","","-1","","","19","17723","6592","g","elianto","#f73b6a7A","-1","-1","1","-10","[]","0","2","","","17723","99","6","4","lose","no-go","1"
"pit-trial","218","1347989","0.0-104.0","battery-v0.2","","""event"",""trial"",""time""
""fullscreenenter"",""1"",""1551""
","
","
","""event"",""trial"",""time""
""fullscreenenter"",""1"",""1551""
","
","","","591.8999999761581","","","19","17723","6592","p","elianto","#3366ff99"," "," ","1","+10","[1442.5]","1","2","","","17723","100","5","1","win","go","0"
"pit-trial","219","1352846","0.0-105.0","battery-v0.2","","""event"",""trial"",""time""
""fullscreenenter"",""1"",""1551""
","
","
","""event"",""trial"",""time""
""fullscreenenter"",""1"",""1551""
","
","","","-1","","","19","17723","6592","g","elianto","#f73b6a7A","-1","-1","1","-10","[]","0","2","","","17723","101","6","4","lose","no-go","1"
"pit-trial","220","1357703","0.0-106.0","battery-v0.2","","""event"",""trial"",""time""
""fullscreenenter"",""1"",""1551""
","
","
","""event"",""trial"",""time""
""fullscreenenter"",""1"",""1551""
","
","","","-1","","","19","17723","6592","l","elianto","#3366ff99","-1","-1","1","+10","[]","0","2","","","17723","102","8","2","win","no-go","0"
"pit-trial","221","1361847","0.0-107.0","battery-v0.2","","""event"",""trial"",""time""
""fullscreenenter"",""1"",""1551""
","
","
","""event"",""trial"",""time""
""fullscreenenter"",""1"",""1551""
","
","","","1288.3000000715256","","","19","17723","6592","u","elianto","#3366ff99","-1"," ","0","0","[2139.2000000476837]","1","2","","","17723","103","9","2","win","no-go","0"
"pit-trial","222","1365518","0.0-108.0","battery-v0.2","","""event"",""trial"",""time""
""fullscreenenter"",""1"",""1551""
","
","
","""event"",""trial"",""time""
""fullscreenenter"",""1"",""1551""
","
","","","813.6000000238419","","","19","17723","6592","p","elianto","#3366ff99"," "," ","1","+10","[1665.3999999761581]","1","2","","","17723","104","5","1","win","go","0"
"pit-trial","223","1370374","0.0-109.0","battery-v0.2","","""event"",""trial"",""time""
""fullscreenenter"",""1"",""1551""
","
","
","""event"",""trial"",""time""
""fullscreenenter"",""1"",""1551""
","
","","","-1","","","19","17723","6592","l","elianto","#3366ff99","-1","-1","1","0","[]","0","2","","","17723","105","8","2","win","no-go","1"
"pit-trial","224","1374285","0.0-110.0","battery-v0.2","","""event"",""trial"",""time""
""fullscreenenter"",""1"",""1551""
","
","
","""event"",""trial"",""time""
""fullscreenenter"",""1"",""1551""
","
","","","1055.8999999761581","","","19","17723","6592","g","elianto","#f73b6a7A","-1"," ","0","-10","[1907.1000000238419]","1","2","","","17723","106","6","4","lose","no-go","0"
"pit-trial","225","1378627","0.0-111.0","battery-v0.2","","""event"",""trial"",""time""
""fullscreenenter"",""1"",""1551""
","
","
","""event"",""trial"",""time""
""fullscreenenter"",""1"",""1551""
","
","","","1485.7000000476837","","","19","17723","6592","u","elianto","#3366ff99","-1"," ","0","0","[2336.7000000476837]","1","2","","","17723","107","9","2","win","no-go","0"
"pit-trial","226","1382232","0.0-112.0","battery-v0.2","","""event"",""trial"",""time""
""fullscreenenter"",""1"",""1551""
","
","
","""event"",""trial"",""time""
""fullscreenenter"",""1"",""1551""
","
","","","749.2999999523163","","","19","17723","6592","p","elianto","#3366ff99"," "," ","1","+10","[1600.6000000238419]","1","2","","","17723","108","5","1","win","go","0"
"pit-trial","227","1387088","0.0-113.0","battery-v0.2","","""event"",""trial"",""time""
""fullscreenenter"",""1"",""1551""
","
","
","""event"",""trial"",""time""
""fullscreenenter"",""1"",""1551""
","
","","","-1","","","19","17723","6592","l","elianto","#3366ff99","-1","-1","1","+10","[]","0","2","","","17723","109","8","2","win","no-go","0"
"pit-trial","228","1390732","0.0-114.0","battery-v0.2","","""event"",""trial"",""time""
""fullscreenenter"",""1"",""1551""
","
","
","""event"",""trial"",""time""
""fullscreenenter"",""1"",""1551""
","
","","","788.7000000476837","","","19","17723","6592","p","elianto","#3366ff99"," "," ","1","0","[1639.7999999523163]","1","2","","","17723","110","5","1","win","go","1"
"pit-trial","229","1395589","0.0-115.0","battery-v0.2","","""event"",""trial"",""time""
""fullscreenenter"",""1"",""1551""
","
","
","""event"",""trial"",""time""
""fullscreenenter"",""1"",""1551""
","
","","","-1","","","19","17723","6592","g","elianto","#f73b6a7A","-1","-1","1","0","[]","0","2","","","17723","111","6","4","lose","no-go","0"
"pit-trial","230","1399715","0.0-116.0","battery-v0.2","","""event"",""trial"",""time""
""fullscreenenter"",""1"",""1551""
","
","
","""event"",""trial"",""time""
""fullscreenenter"",""1"",""1551""
","
","","","1270.0999999046326","","","19","17723","6592","u","elianto","#3366ff99","-1"," ","0","0","[2120.8000000715256]","1","2","","","17723","112","9","2","win","no-go","0"
"pit-trial","231","1404570","0.0-117.0","battery-v0.2","","""event"",""trial"",""time""
""fullscreenenter"",""1"",""1551""
","
","
","""event"",""trial"",""time""
""fullscreenenter"",""1"",""1551""
","
","","","-1","","","19","17723","6592","l","elianto","#3366ff99","-1","-1","1","+10","[]","0","2","","","17723","113","8","2","win","no-go","0"
"pit-trial","232","1409033","0.0-118.0","battery-v0.2","","""event"",""trial"",""time""
""fullscreenenter"",""1"",""1551""
","
","
","""event"",""trial"",""time""
""fullscreenenter"",""1"",""1551""
","
","","","1606.1000000238419","","","19","17723","6592","a","elianto","#f73b6a7A"," "," ","1","-10","[2457.899999976158]","1","2","","","17723","114","7","3","lose","go","1"
"pit-trial","233","1412608","0.0-119.0","battery-v0.2","","""event"",""trial"",""time""
""fullscreenenter"",""1"",""1551""
","
","
","""event"",""trial"",""time""
""fullscreenenter"",""1"",""1551""
","
","","","719.8999999761581","","","19","17723","6592","p","elianto","#3366ff99"," "," ","1","0","[1571]","1","2","","","17723","115","5","1","win","go","1"
"pit-trial","234","1417465","0.0-120.0","battery-v0.2","","""event"",""trial"",""time""
""fullscreenenter"",""1"",""1551""
","
","
","""event"",""trial"",""time""
""fullscreenenter"",""1"",""1551""
","
","","","-1","","","19","17723","6592","u","elianto","#3366ff99","-1","-1","1","+10","[]","0","2","","","17723","116","9","2","win","no-go","0"
"pit-trial","235","1420955","0.0-121.0","battery-v0.2","","""event"",""trial"",""time""
""fullscreenenter"",""1"",""1551""
","
","
","""event"",""trial"",""time""
""fullscreenenter"",""1"",""1551""
","
","","","633.8000000715256","","","19","17723","6592","p","elianto","#3366ff99"," "," ","1","+10","[1485]","1","2","","","17723","117","5","1","win","go","0"
"pit-trial","236","1425811","0.0-122.0","battery-v0.2","","""event"",""trial"",""time""
""fullscreenenter"",""1"",""1551""
","
","
","""event"",""trial"",""time""
""fullscreenenter"",""1"",""1551""
","
","","","-1","","","19","17723","6592","g","elianto","#f73b6a7A","-1","-1","1","0","[]","0","2","","","17723","118","6","4","lose","no-go","0"
"pit-trial","237","1430666","0.0-123.0","battery-v0.2","","""event"",""trial"",""time""
""fullscreenenter"",""1"",""1551""
","
","
","""event"",""trial"",""time""
""fullscreenenter"",""1"",""1551""
","
","","","-1","","","19","17723","6592","l","elianto","#3366ff99","-1","-1","1","0","[]","0","2","","","17723","119","8","2","win","no-go","1"
"pit-trial","238","1435523","0.0-124.0","battery-v0.2","","""event"",""trial"",""time""
""fullscreenenter"",""1"",""1551""
","
","
","""event"",""trial"",""time""
""fullscreenenter"",""1"",""1551""
","
","","","-1","","","19","17723","6592","u","elianto","#3366ff99","-1","-1","1","+10","[]","0","2","","","17723","120","9","2","win","no-go","0"
"pit-trial","239","1439252","0.0-125.0","battery-v0.2","","""event"",""trial"",""time""
""fullscreenenter"",""1"",""1551""
","
","
","""event"",""trial"",""time""
""fullscreenenter"",""1"",""1551""
","
","","","874","","","19","17723","6592","p","elianto","#3366ff99"," "," ","1","+10","[1724.6000000238419]","1","2","","","17723","121","5","1","win","go","0"
"pit-trial","240","1444107","0.0-126.0","battery-v0.2","","""event"",""trial"",""time""
""fullscreenenter"",""1"",""1551""
","
","
","""event"",""trial"",""time""
""fullscreenenter"",""1"",""1551""
","
","","","-1","","","19","17723","6592","u","elianto","#3366ff99","-1","-1","1","0","[]","0","2","","","17723","122","9","2","win","no-go","1"
"pit-trial","241","1448964","0.0-127.0","battery-v0.2","","""event"",""trial"",""time""
""fullscreenenter"",""1"",""1551""
","
","
","""event"",""trial"",""time""
""fullscreenenter"",""1"",""1551""
","
","","","-1","","","19","17723","6592","a","elianto","#f73b6a7A"," ","-1","0","0","[3115.899999976158]","1","2","","","17723","123","7","3","lose","go","1"
"pit-trial","242","1453821","0.0-128.0","battery-v0.2","","""event"",""trial"",""time""
""fullscreenenter"",""1"",""1551""
","
","
","""event"",""trial"",""time""
""fullscreenenter"",""1"",""1551""
","
","","","-1","","","19","17723","6592","l","elianto","#3366ff99","-1","-1","1","+10","[]","0","2","","","17723","124","8","2","win","no-go","0"
"pit-trial","243","1458677","0.0-129.0","battery-v0.2","","""event"",""trial"",""time""
""fullscreenenter"",""1"",""1551""
","
","
","""event"",""trial"",""time""
""fullscreenenter"",""1"",""1551""
","
","","","-1","","","19","17723","6592","g","elianto","#f73b6a7A","-1","-1","1","-10","[]","0","2","","","17723","125","6","4","lose","no-go","1"
"pit-trial","244","1463533","0.0-130.0","battery-v0.2","","""event"",""trial"",""time""
""fullscreenenter"",""1"",""1551""
","
","
","""event"",""trial"",""time""
""fullscreenenter"",""1"",""1551""
","
","","","-1","","","19","17723","6592","l","elianto","#3366ff99","-1","-1","1","+10","[]","0","2","","","17723","126","8","2","win","no-go","0"
"pit-trial","245","1467221","0.0-131.0","battery-v0.2","","""event"",""trial"",""time""
""fullscreenenter"",""1"",""1551""
","
","
","""event"",""trial"",""time""
""fullscreenenter"",""1"",""1551""
","
","","","832.6000000238419","","","19","17723","6592","a","elianto","#f73b6a7A"," "," ","1","0","[1684.2000000476837]","1","2","","","17723","127","7","3","lose","go","0"
"pit-trial","246","1472077","0.0-132.0","battery-v0.2","","""event"",""trial"",""time""
""fullscreenenter"",""1"",""1551""
","
","
","""event"",""trial"",""time""
""fullscreenenter"",""1"",""1551""
","
","","","-1","","","19","17723","6592","u","elianto","#3366ff99","-1","-1","1","0","[]","0","2","","","17723","128","9","2","win","no-go","1"
"pit-trial","247","1475737","0.0-133.0","battery-v0.2","","""event"",""trial"",""time""
""fullscreenenter"",""1"",""1551""
","
","
","""event"",""trial"",""time""
""fullscreenenter"",""1"",""1551""
","
","","","805.2000000476837","","","19","17723","6592","a","elianto","#f73b6a7A"," "," ","1","0","[1655.3999999761581]","1","2","","","17723","129","7","3","lose","go","0"
"pit-trial","248","1480593","0.0-134.0","battery-v0.2","","""event"",""trial"",""time""
""fullscreenenter"",""1"",""1551""
","
","
","""event"",""trial"",""time""
""fullscreenenter"",""1"",""1551""
","
","","","-1","","","19","17723","6592","g","elianto","#f73b6a7A","-1","-1","1","0","[]","0","2","","","17723","130","6","4","lose","no-go","0"
"pit-trial","249","1485449","0.0-135.0","battery-v0.2","","""event"",""trial"",""time""
""fullscreenenter"",""1"",""1551""
","
","
","""event"",""trial"",""time""
""fullscreenenter"",""1"",""1551""
","
","","","-1","","","19","17723","6592","l","elianto","#3366ff99","-1","-1","1","+10","[]","0","2","","","17723","131","8","2","win","no-go","0"
"pit-trial","250","1490306","0.0-136.0","battery-v0.2","","""event"",""trial"",""time""
""fullscreenenter"",""1"",""1551""
","
","
","""event"",""trial"",""time""
""fullscreenenter"",""1"",""1551""
","
","","","-1","","","19","17723","6592","u","elianto","#3366ff99","-1","-1","1","+10","[]","0","2","","","17723","132","9","2","win","no-go","0"
"pit-trial","251","1494986","0.0-137.0","battery-v0.2","","""event"",""trial"",""time""
""fullscreenenter"",""1"",""1551""
","
","
","""event"",""trial"",""time""
""fullscreenenter"",""1"",""1551""
","
","","","1823.6000000238419","","","19","17723","6592","a","elianto","#f73b6a7A"," "," ","1","0","[2675.2000000476837]","1","2","","","17723","133","7","3","lose","go","0"
"pit-trial","252","1499841","0.0-138.0","battery-v0.2","","""event"",""trial"",""time""
""fullscreenenter"",""1"",""1551""
","
","
","""event"",""trial"",""time""
""fullscreenenter"",""1"",""1551""
","
","","","-1","","","19","17723","6592","l","elianto","#3366ff99","-1","-1","1","+10","[]","0","2","","","17723","134","8","2","win","no-go","0"
"pit-trial","253","1504695","0.0-139.0","battery-v0.2","","""event"",""trial"",""time""
""fullscreenenter"",""1"",""1551""
","
","
","""event"",""trial"",""time""
""fullscreenenter"",""1"",""1551""
","
","","","-1","","","19","17723","6592","u","elianto","#3366ff99","-1","-1","1","+10","[]","0","2","","","17723","135","9","2","win","no-go","0"
"pit-trial","254","1509552","0.0-140.0","battery-v0.2","","""event"",""trial"",""time""
""fullscreenenter"",""1"",""1551""
","
","
","""event"",""trial"",""time""
""fullscreenenter"",""1"",""1551""
","
","","","-1","","","19","17723","6592","g","elianto","#f73b6a7A","-1","-1","1","0","[]","0","2","","","17723","136","6","4","lose","no-go","0"
"pit-trial","255","1514408","0.0-141.0","battery-v0.2","","""event"",""trial"",""time""
""fullscreenenter"",""1"",""1551""
","
","
","""event"",""trial"",""time""
""fullscreenenter"",""1"",""1551""
","
","","","-1","","","19","17723","6592","g","elianto","#f73b6a7A","-1","-1","1","-10","[]","0","2","","","17723","137","6","4","lose","no-go","1"
"pit-trial","256","1519263","0.0-142.0","battery-v0.2","","""event"",""trial"",""time""
""fullscreenenter"",""1"",""1551""
","
","
","""event"",""trial"",""time""
""fullscreenenter"",""1"",""1551""
","
","","","-1","","","19","17723","6592","l","elianto","#3366ff99","-1","-1","1","0","[]","0","2","","","17723","138","8","2","win","no-go","1"
"pit-trial","257","1524119","0.0-143.0","battery-v0.2","","""event"",""trial"",""time""
""fullscreenenter"",""1"",""1551""
","
","
","""event"",""trial"",""time""
""fullscreenenter"",""1"",""1551""
","
","","","-1","","","19","17723","6592","u","elianto","#3366ff99","-1","-1","1","+10","[]","0","2","","","17723","139","9","2","win","no-go","0"
"pit-trial","258","1527970","0.0-144.0","battery-v0.2","","""event"",""trial"",""time""
""fullscreenenter"",""1"",""1551""
","
","
","""event"",""trial"",""time""
""fullscreenenter"",""1"",""1551""
","
","","","995","","","19","17723","6592","a","elianto","#f73b6a7A"," "," ","1","0","[1846.7999999523163]","1","2","","","17723","140","7","3","lose","go","0"
"pit-instructions","259","1661421","0.0-145.0","battery-v0.2","","""event"",""trial"",""time""
""fullscreenenter"",""1"",""1551""
","
","
","""event"",""trial"",""time""
""fullscreenenter"",""1"",""1551""
","
","","[{""page_index"":0,""viewing_time"":124707.5},{""page_index"":1,""viewing_time"":8739.600000023842}]","133447.5","","","","","","","","","","","","","","","","","","","","","","","",""
"pit-trial","260","1666280","0.0-146.0","battery-v0.2","","""event"",""trial"",""time""
""fullscreenenter"",""1"",""1551""
","
","
","""event"",""trial"",""time""
""fullscreenenter"",""1"",""1551""
","
","","","-1","","","19","17723","6592","n","elianto","#f73b6a7A"," ","-1","0","0","[]","0","3","","","17723","141","0","3","lose","go","1"
"pit-trial","261","1671137","0.0-147.0","battery-v0.2","","""event"",""trial"",""time""
""fullscreenenter"",""1"",""1551""
","
","
","""event"",""trial"",""time""
""fullscreenenter"",""1"",""1551""
","
","","","-1","","","19","17723","6592","b","elianto","#f73b6a7A","-1","-1","1","0","[]","0","3","","","17723","142","3","4","lose","no-go","0"
"pit-trial","262","1675002","0.0-148.0","battery-v0.2","","""event"",""trial"",""time""
""fullscreenenter"",""1"",""1551""
","
","
","""event"",""trial"",""time""
""fullscreenenter"",""1"",""1551""
","
","","","1009.1000000238419","","","19","17723","6592","f","elianto","#3366ff99","-1"," ","0","0","[1859.8000000715256]","1","3","","","17723","143","1","2","win","no-go","0"
"pit-trial","263","1679187","0.0-149.0","battery-v0.2","","""event"",""trial"",""time""
""fullscreenenter"",""1"",""1551""
","
","
","""event"",""trial"",""time""
""fullscreenenter"",""1"",""1551""
","
","","","1328.2999999523163","","","19","17723","6592","t","elianto","#f73b6a7A"," "," ","1","-10","[2180.100000023842]","1","3","","","17723","144","2","3","lose","go","1"
"pit-trial","264","1684043","0.0-150.0","battery-v0.2","","""event"",""trial"",""time""
""fullscreenenter"",""1"",""1551""
","
","
","""event"",""trial"",""time""
""fullscreenenter"",""1"",""1551""
","
","","","-1","","","19","17723","6592","b","elianto","#f73b6a7A","-1","-1","1","-10","[]","0","3","","","17723","145","3","4","lose","no-go","1"
"pit-trial","265","1688900","0.0-151.0","battery-v0.2","","""event"",""trial"",""time""
""fullscreenenter"",""1"",""1551""
","
","
","""event"",""trial"",""time""
""fullscreenenter"",""1"",""1551""
","
","","","-1","","","19","17723","6592","t","elianto","#f73b6a7A"," ","-1","0","0","[]","0","3","","","17723","146","2","3","lose","go","1"
"pit-trial","266","1693756","0.0-152.0","battery-v0.2","","""event"",""trial"",""time""
""fullscreenenter"",""1"",""1551""
","
","
","""event"",""trial"",""time""
""fullscreenenter"",""1"",""1551""
","
","","","-1","","","19","17723","6592","n","elianto","#f73b6a7A"," ","-1","0","-10","[]","0","3","","","17723","147","0","3","lose","go","0"
"pit-trial","267","1698613","0.0-153.0","battery-v0.2","","""event"",""trial"",""time""
