"trial_type","trial_index","time_elapsed","internal_node_id","task_version","subject_id","interactions","blur_events","focus_events","fullscreenenter_events","fullscreenexit_events","success","view_history","rt","responses","num_errors","age","subject","participantId","rune","rune_set","hex","correct","choice","accuracy","outcome","keys","total_keys","block","practice","value","sub","trial","stimulus","robot","valence","action","sham"
"pavlovia","0","19","0.0-0.0","battery-v0.2","","""event"",""trial"",""time""
""fullscreenenter"",""1"",""2121""
","
","
","""event"",""trial"",""time""
""fullscreenenter"",""1"",""2121""
","
","","","","","","","","","","","","","","","","","","","","","","","","","","",""
"fullscreen","1","3094","0.0-1.0","battery-v0.2","","""event"",""trial"",""time""
""fullscreenenter"",""1"",""2121""
","
","
","""event"",""trial"",""time""
""fullscreenenter"",""1"",""2121""
","
","true","","","","","","","","","","","","","","","","","","","","","","","","","",""
"pit-instructions","2","7326","0.0-2.0-0.0","battery-v0.2","","""event"",""trial"",""time""
""fullscreenenter"",""1"",""2121""
","
","
","""event"",""trial"",""time""
""fullscreenenter"",""1"",""2121""
","
","","[{""page_index"":0,""viewing_time"":4226.900000035763}]","4227.600000023842","","","","","","","","","","","","","","","","","","","","","","","",""
"pit-comprehension","3","10754","0.0-2.0-1.0-0.0","battery-v0.2","","""event"",""trial"",""time""
""fullscreenenter"",""1"",""2121""
","
","
","""event"",""trial"",""time""
""fullscreenenter"",""1"",""2121""
","
","","","3422.600000023842","[""shark""]","0","20","9666","4504","","","","","","","","","","","","","","","","","","",""
"pit-instructions","4","12134","0.0-2.0-1.0-1.0","battery-v0.2","","""event"",""trial"",""time""
""fullscreenenter"",""1"",""2121""
","
","
","""event"",""trial"",""time""
""fullscreenenter"",""1"",""2121""
","
","","[{""page_index"":0,""viewing_time"":1362.300000011921}]","1362.6000000238419","","","","","","","","","","","","","","","","","","","","","","","",""
"pit-comprehension","5","15173","0.0-2.0-2.0-0.0","battery-v0.2","","""event"",""trial"",""time""
""fullscreenenter"",""1"",""2121""
","
","
","""event"",""trial"",""time""
""fullscreenenter"",""1"",""2121""
","
","","","3034.300000011921","[""tiger""]","0","20","9666","4504","","","","","","","","","","","","","","","","","","",""
"pit-instructions","6","16675","0.0-2.0-2.0-1.0","battery-v0.2","","""event"",""trial"",""time""
""fullscreenenter"",""1"",""2121""
","
","
","""event"",""trial"",""time""
""fullscreenenter"",""1"",""2121""
","
","","[{""page_index"":0,""viewing_time"":1496.5}]","1497","","","","","","","","","","","","","","","","","","","","","","","",""
"pit-instructions","7","124792","0.0-2.0-3.0","battery-v0.2","","""event"",""trial"",""time""
""fullscreenenter"",""1"",""2121""
","
","
","""event"",""trial"",""time""
""fullscreenenter"",""1"",""2121""
","
","","[{""page_index"":0,""viewing_time"":9565.400000035763},{""page_index"":1,""viewing_time"":7185.199999988079},{""page_index"":2,""viewing_time"":6611.199999988079},{""page_index"":3,""viewing_time"":6193.199999988079},{""page_index"":4,""viewing_time"":15351.199999988079},{""page_index"":5,""viewing_time"":5896.100000023842},{""page_index"":6,""viewing_time"":7483.600000023842},{""page_index"":7,""viewing_time"":6881.899999976158},{""page_index"":8,""viewing_time"":6018.5},{""page_index"":9,""viewing_time"":8335.699999988079},{""page_index"":10,""viewing_time"":8299.600000023842},{""page_index"":11,""viewing_time"":7546.899999976158},{""page_index"":12,""viewing_time"":7314.100000023842},{""page_index"":13,""viewing_time"":5432.599999964237}]","108115.69999998808","","","","","","","","","","","","","","","","","","","","","","","",""
"pit-trial","8","128482","0.0-2.0-4.0-0.0","battery-v0.2","","""event"",""trial"",""time""
""fullscreenenter"",""1"",""2121""
","
","
","""event"",""trial"",""time""
""fullscreenenter"",""1"",""2121""
","
","","","829.4000000357628","","","20","9666","4504","&#9784;","elianto","#FFFFF080"," "," ","1","&#10004","[1680.199999988079]","1","0","0","","","","","","","",""
"pit-trial","9","132259","0.0-2.0-4.1-0.1","battery-v0.2","","""event"",""trial"",""time""
""fullscreenenter"",""1"",""2121""
","
","
","""event"",""trial"",""time""
""fullscreenenter"",""1"",""2121""
","
","","","919.1000000238419","","","20","9666","4504","&#9784;","elianto","#FFFFF080"," "," ","1","&#10004","[1772.199999988079]","1","0","0","","","","","","","",""
"pit-trial","10","136031","0.0-2.0-4.2-0.2","battery-v0.2","","""event"",""trial"",""time""
""fullscreenenter"",""1"",""2121""
","
","
","""event"",""trial"",""time""
""fullscreenenter"",""1"",""2121""
","
","","","913.3000000119209","","","20","9666","4504","&#9784;","elianto","#FFFFF080"," "," ","1","&#10004","[1766.199999988079]","1","0","0","","","","","","","",""
"pit-trial","11","139727","0.0-2.0-4.3-0.3","battery-v0.2","","""event"",""trial"",""time""
""fullscreenenter"",""1"",""2121""
","
","
","""event"",""trial"",""time""
""fullscreenenter"",""1"",""2121""
","
","","","841.1000000238419","","","20","9666","4504","&#9784;","elianto","#FFFFF080"," "," ","1","&#10004","[1692]","1","0","0","","","","","","","",""
"pit-trial","12","143429","0.0-2.0-4.4-0.4","battery-v0.2","","""event"",""trial"",""time""
""fullscreenenter"",""1"",""2121""
","
","
","""event"",""trial"",""time""
""fullscreenenter"",""1"",""2121""
","
","","","846.5","","","20","9666","4504","&#9784;","elianto","#FFFFF080"," "," ","1","&#10004","[1697.7999999523163]","1","0","0","","","","","","","",""
"pit-instructions","13","167164","0.0-2.0-5.0","battery-v0.2","","""event"",""trial"",""time""
""fullscreenenter"",""1"",""2121""
","
","
","""event"",""trial"",""time""
""fullscreenenter"",""1"",""2121""
","
","","[{""page_index"":0,""viewing_time"":6376.599999964237},{""page_index"":1,""viewing_time"":5983.200000047684},{""page_index"":2,""viewing_time"":5616.199999988079},{""page_index"":3,""viewing_time"":5754.300000011921}]","23730.80000001192","","","","","","","","","","","","","","","","","","","","","","","",""
"pit-trial","14","172021","0.0-2.0-6.0-0.0","battery-v0.2","","""event"",""trial"",""time""
""fullscreenenter"",""1"",""2121""
","
","
","""event"",""trial"",""time""
""fullscreenenter"",""1"",""2121""
","
","","","-1","","","20","9666","4504","&#9854;","elianto","#FFFFF080","-1","-1","1","&#10004","[]","0","0","1","","","","","","","",""
"pit-trial","15","176885","0.0-2.0-6.1-0.1","battery-v0.2","","""event"",""trial"",""time""
""fullscreenenter"",""1"",""2121""
","
","
","""event"",""trial"",""time""
""fullscreenenter"",""1"",""2121""
","
","","","-1","","","20","9666","4504","&#9854;","elianto","#FFFFF080","-1","-1","1","&#10004","[]","0","0","1","","","","","","","",""
"pit-trial","16","181743","0.0-2.0-6.2-0.2","battery-v0.2","","""event"",""trial"",""time""
""fullscreenenter"",""1"",""2121""
","
","
","""event"",""trial"",""time""
""fullscreenenter"",""1"",""2121""
","
","","","-1","","","20","9666","4504","&#9854;","elianto","#FFFFF080","-1","-1","1","&#10004","[]","0","0","1","","","","","","","",""
"pit-trial","17","186602","0.0-2.0-6.3-0.3","battery-v0.2","","""event"",""trial"",""time""
""fullscreenenter"",""1"",""2121""
","
","
","""event"",""trial"",""time""
""fullscreenenter"",""1"",""2121""
","
","","","-1","","","20","9666","4504","&#9854;","elianto","#FFFFF080","-1","-1","1","&#10004","[]","0","0","1","","","","","","","",""
"pit-trial","18","191461","0.0-2.0-6.4-0.4","battery-v0.2","","""event"",""trial"",""time""
""fullscreenenter"",""1"",""2121""
","
","
","""event"",""trial"",""time""
""fullscreenenter"",""1"",""2121""
","
","","","-1","","","20","9666","4504","&#9854;","elianto","#FFFFF080","-1","-1","1","&#10004","[]","0","0","1","","","","","","","",""
"pit-instructions","19","317453","0.0-2.0-7.0","battery-v0.2","","""event"",""trial"",""time""
""fullscreenenter"",""1"",""2121""
","
","
","""event"",""trial"",""time""
""fullscreenenter"",""1"",""2121""
","
","","[{""page_index"":0,""viewing_time"":7033.900000035763},{""page_index"":1,""viewing_time"":7339.599999964237},{""page_index"":2,""viewing_time"":6979.699999988079},{""page_index"":3,""viewing_time"":7497.5},{""page_index"":4,""viewing_time"":6378.5},{""page_index"":5,""viewing_time"":5958.400000035763},{""page_index"":6,""viewing_time"":5003.199999988079},{""page_index"":7,""viewing_time"":8287.800000011921},{""page_index"":8,""viewing_time"":7224.599999964237},{""page_index"":9,""viewing_time"":6683.800000011921},{""page_index"":10,""viewing_time"":7265.900000035763},{""page_index"":11,""viewing_time"":4999.399999976158},{""page_index"":12,""viewing_time"":7600.5},{""page_index"":13,""viewing_time"":7735.899999976158},{""page_index"":14,""viewing_time"":8281.200000047684},{""page_index"":15,""viewing_time"":7315.299999952316},{""page_index"":16,""viewing_time"":6833.300000011921},{""page_index"":17,""viewing_time"":7570.400000035763}]","125989.40000003576","","","","","","","","","","","","","","","","","","","","","","","",""
"pit-trial","20","322313","0.0-2.0-8.0-0.0","battery-v0.2","","""event"",""trial"",""time""
""fullscreenenter"",""1"",""2121""
","
","
","""event"",""trial"",""time""
""fullscreenenter"",""1"",""2121""
","
","","","-1","","","20","9666","4504","&#9776;","elianto","#3366ff99"," ","-1","0","0","[]","0","0","1","","","","","","","",""
"pit-trial","21","325886","0.0-2.0-8.0-1.0","battery-v0.2","","""event"",""trial"",""time""
""fullscreenenter"",""1"",""2121""
","
","
","""event"",""trial"",""time""
""fullscreenenter"",""1"",""2121""
","
","","","716.3999999761581","","","20","9666","4504","&#9776;","elianto","#3366ff99"," "," ","1","+10","[1567]","1","0","1","","","","","","","",""
"pit-trial","22","329443","0.0-2.0-8.0-2.0","battery-v0.2","","""event"",""trial"",""time""
""fullscreenenter"",""1"",""2121""
","
","
","""event"",""trial"",""time""
""fullscreenenter"",""1"",""2121""
","
","","","700.0999999642372","","","20","9666","4504","&#9776;","elianto","#3366ff99"," "," ","1","+10","[1551]","1","0","1","","","","","","","",""
"pit-trial","23","333043","0.0-2.0-8.0-3.0","battery-v0.2","","""event"",""trial"",""time""
""fullscreenenter"",""1"",""2121""
","
","
","""event"",""trial"",""time""
""fullscreenenter"",""1"",""2121""
","
","","","737.8999999761581","","","20","9666","4504","&#9776;","elianto","#3366ff99"," "," ","1","0","[1592.5]","1","0","1","","","","","","","",""
"pit-trial","24","336504","0.0-2.0-8.0-4.0","battery-v0.2","","""event"",""trial"",""time""
""fullscreenenter"",""1"",""2121""
","
","
","""event"",""trial"",""time""
""fullscreenenter"",""1"",""2121""
","
","","","606","","","20","9666","4504","&#9776;","elianto","#3366ff99"," "," ","1","+10","[1456.5999999642372]","1","0","1","","","","","","","",""
"pit-trial","25","340072","0.0-2.0-8.1-0.1","battery-v0.2","","""event"",""trial"",""time""
""fullscreenenter"",""1"",""2121""
","
","
","""event"",""trial"",""time""
""fullscreenenter"",""1"",""2121""
","
","","","707.3000000119209","","","20","9666","4504","&#9776;","elianto","#3366ff99"," "," ","1","+10","[1559.5]","1","0","1","","","","","","","",""
"pit-trial","26","343678","0.0-2.0-8.1-1.1","battery-v0.2","","""event"",""trial"",""time""
""fullscreenenter"",""1"",""2121""
","
","
","""event"",""trial"",""time""
""fullscreenenter"",""1"",""2121""
","
","","","750.5999999642372","","","20","9666","4504","&#9776;","elianto","#3366ff99"," "," ","1","+10","[1601.699999988079]","1","0","1","","","","","","","",""
"pit-trial","27","347123","0.0-2.0-8.1-2.1","battery-v0.2","","""event"",""trial"",""time""
""fullscreenenter"",""1"",""2121""
","
","
","""event"",""trial"",""time""
""fullscreenenter"",""1"",""2121""
","
","","","588.6999999880791","","","20","9666","4504","&#9776;","elianto","#3366ff99"," "," ","1","+10","[1439.6000000238419]","1","0","1","","","","","","","",""
"pit-trial","28","350545","0.0-2.0-8.1-3.1","battery-v0.2","","""event"",""trial"",""time""
""fullscreenenter"",""1"",""2121""
","
","
","""event"",""trial"",""time""
""fullscreenenter"",""1"",""2121""
","
","","","561.0999999642372","","","20","9666","4504","&#9776;","elianto","#3366ff99"," "," ","1","0","[1415.5]","1","0","1","","","","","","","",""
"pit-trial","29","354022","0.0-2.0-8.1-4.1","battery-v0.2","","""event"",""trial"",""time""
""fullscreenenter"",""1"",""2121""
","
","
","""event"",""trial"",""time""
""fullscreenenter"",""1"",""2121""
","
","","","616.6999999880791","","","20","9666","4504","&#9776;","elianto","#3366ff99"," "," ","1","+10","[1470.2999999523163]","1","0","1","","","","","","","",""
"pit-trial","30","357464","0.0-2.0-8.2-0.2","battery-v0.2","","""event"",""trial"",""time""
""fullscreenenter"",""1"",""2121""
","
","
","""event"",""trial"",""time""
""fullscreenenter"",""1"",""2121""
","
","","","581","","","20","9666","4504","&#9776;","elianto","#3366ff99"," "," ","1","+10","[1435.5]","1","0","1","","","","","","","",""
"pit-trial","31","360987","0.0-2.0-8.2-1.2","battery-v0.2","","""event"",""trial"",""time""
""fullscreenenter"",""1"",""2121""
","
","
","""event"",""trial"",""time""
""fullscreenenter"",""1"",""2121""
","
","","","664.3000000119209","","","20","9666","4504","&#9776;","elianto","#3366ff99"," "," ","1","+10","[1517.699999988079]","1","0","1","","","","","","","",""
"pit-trial","32","364576","0.0-2.0-8.2-2.2","battery-v0.2","","""event"",""trial"",""time""
""fullscreenenter"",""1"",""2121""
","
","
","""event"",""trial"",""time""
""fullscreenenter"",""1"",""2121""
","
","","","728.5","","","20","9666","4504","&#9776;","elianto","#3366ff99"," "," ","1","+10","[1582.0999999642372]","1","0","1","","","","","","","",""
"pit-trial","33","368080","0.0-2.0-8.2-3.2","battery-v0.2","","""event"",""trial"",""time""
""fullscreenenter"",""1"",""2121""
","
","
","""event"",""trial"",""time""
""fullscreenenter"",""1"",""2121""
","
","","","643.6999999880791","","","20","9666","4504","&#9776;","elianto","#3366ff99"," "," ","1","0","[1497.2999999523163]","1","0","1","","","","","","","",""
"pit-trial","34","371555","0.0-2.0-8.2-4.2","battery-v0.2","","""event"",""trial"",""time""
""fullscreenenter"",""1"",""2121""
","
","
","""event"",""trial"",""time""
""fullscreenenter"",""1"",""2121""
","
","","","614.8000000119209","","","20","9666","4504","&#9776;","elianto","#3366ff99"," "," ","1","+10","[1468.0999999642372]","1","0","1","","","","","","","",""
"call-function","35","371557","0.0-2.0-9.0","battery-v0.2","","""event"",""trial"",""time""
""fullscreenenter"",""1"",""2121""
","
","
","""event"",""trial"",""time""
""fullscreenenter"",""1"",""2121""
","
","","","","","","","","","","","","","","","","","","","","","","","","","","",""
"pit-instructions","36","414787","0.0-2.0-10.0","battery-v0.2","","""event"",""trial"",""time""
""fullscreenenter"",""1"",""2121""
","
","
","""event"",""trial"",""time""
""fullscreenenter"",""1"",""2121""
","
","","[{""page_index"":0,""viewing_time"":6863.400000035763},{""page_index"":1,""viewing_time"":7696.799999952316},{""page_index"":2,""viewing_time"":10304.200000047684},{""page_index"":3,""viewing_time"":9848},{""page_index"":4,""viewing_time"":8516.5}]","43229.30000001192","","","","","","","","","","","","","","","","","","","","","","","",""
"pit-trial","37","419645","0.0-2.0-11.0-0.0","battery-v0.2","","""event"",""trial"",""time""
""fullscreenenter"",""1"",""2121""
","
","
","""event"",""trial"",""time""
""fullscreenenter"",""1"",""2121""
","
","","","-1","","","20","9666","4504","&#9761;","elianto","#3366ff99","-1","-1","1","+10","[]","0","0","2","","","","","","","",""
"pit-trial","38","424503","0.0-2.0-11.0-1.0","battery-v0.2","","""event"",""trial"",""time""
""fullscreenenter"",""1"",""2121""
","
","
","""event"",""trial"",""time""
""fullscreenenter"",""1"",""2121""
","
","","","-1","","","20","9666","4504","&#9761;","elianto","#3366ff99","-1","-1","1","+10","[]","0","0","2","","","","","","","",""
"pit-trial","39","429358","0.0-2.0-11.0-2.0","battery-v0.2","","""event"",""trial"",""time""
""fullscreenenter"",""1"",""2121""
","
","
","""event"",""trial"",""time""
""fullscreenenter"",""1"",""2121""
","
","","","-1","","","20","9666","4504","&#9761;","elianto","#3366ff99","-1","-1","1","+10","[]","0","0","2","","","","","","","",""
"pit-trial","40","434217","0.0-2.0-11.0-3.0","battery-v0.2","","""event"",""trial"",""time""
""fullscreenenter"",""1"",""2121""
","
","
","""event"",""trial"",""time""
""fullscreenenter"",""1"",""2121""
","
","","","-1","","","20","9666","4504","&#9761;","elianto","#3366ff99","-1","-1","1","0","[]","0","0","2","","","","","","","",""
"pit-trial","41","439080","0.0-2.0-11.0-4.0","battery-v0.2","","""event"",""trial"",""time""
""fullscreenenter"",""1"",""2121""
","
","
","""event"",""trial"",""time""
""fullscreenenter"",""1"",""2121""
","
","","","-1","","","20","9666","4504","&#9761;","elianto","#3366ff99","-1","-1","1","+10","[]","0","0","2","","","","","","","",""
"pit-trial","42","443938","0.0-2.0-11.1-0.1","battery-v0.2","","""event"",""trial"",""time""
""fullscreenenter"",""1"",""2121""
","
","
","""event"",""trial"",""time""
""fullscreenenter"",""1"",""2121""
","
","","","-1","","","20","9666","4504","&#9761;","elianto","#3366ff99","-1","-1","1","+10","[]","0","0","2","","","","","","","",""
"pit-trial","43","448799","0.0-2.0-11.1-1.1","battery-v0.2","","""event"",""trial"",""time""
""fullscreenenter"",""1"",""2121""
","
","
","""event"",""trial"",""time""
""fullscreenenter"",""1"",""2121""
","
","","","-1","","","20","9666","4504","&#9761;","elianto","#3366ff99","-1","-1","1","+10","[]","0","0","2","","","","","","","",""
"pit-trial","44","453661","0.0-2.0-11.1-2.1","battery-v0.2","","""event"",""trial"",""time""
""fullscreenenter"",""1"",""2121""
","
","
","""event"",""trial"",""time""
""fullscreenenter"",""1"",""2121""
","
","","","-1","","","20","9666","4504","&#9761;","elianto","#3366ff99","-1","-1","1","+10","[]","0","0","2","","","","","","","",""
"pit-trial","45","458522","0.0-2.0-11.1-3.1","battery-v0.2","","""event"",""trial"",""time""
""fullscreenenter"",""1"",""2121""
","
","
","""event"",""trial"",""time""
""fullscreenenter"",""1"",""2121""
","
","","","-1","","","20","9666","4504","&#9761;","elianto","#3366ff99","-1","-1","1","0","[]","0","0","2","","","","","","","",""
"pit-trial","46","463383","0.0-2.0-11.1-4.1","battery-v0.2","","""event"",""trial"",""time""
""fullscreenenter"",""1"",""2121""
","
","
","""event"",""trial"",""time""
""fullscreenenter"",""1"",""2121""
","
","","","-1","","","20","9666","4504","&#9761;","elianto","#3366ff99","-1","-1","1","+10","[]","0","0","2","","","","","","","",""
"pit-trial","47","468244","0.0-2.0-11.2-0.2","battery-v0.2","","""event"",""trial"",""time""
""fullscreenenter"",""1"",""2121""
","
","
","""event"",""trial"",""time""
""fullscreenenter"",""1"",""2121""
","
","","","-1","","","20","9666","4504","&#9761;","elianto","#3366ff99","-1","-1","1","+10","[]","0","0","2","","","","","","","",""
"pit-trial","48","473103","0.0-2.0-11.2-1.2","battery-v0.2","","""event"",""trial"",""time""
""fullscreenenter"",""1"",""2121""
","
","
","""event"",""trial"",""time""
""fullscreenenter"",""1"",""2121""
","
","","","-1","","","20","9666","4504","&#9761;","elianto","#3366ff99","-1","-1","1","+10","[]","0","0","2","","","","","","","",""
"pit-trial","49","477961","0.0-2.0-11.2-2.2","battery-v0.2","","""event"",""trial"",""time""
""fullscreenenter"",""1"",""2121""
","
","
","""event"",""trial"",""time""
""fullscreenenter"",""1"",""2121""
","
","","","-1","","","20","9666","4504","&#9761;","elianto","#3366ff99","-1","-1","1","+10","[]","0","0","2","","","","","","","",""
"pit-trial","50","482818","0.0-2.0-11.2-3.2","battery-v0.2","","""event"",""trial"",""time""
""fullscreenenter"",""1"",""2121""
","
","
","""event"",""trial"",""time""
""fullscreenenter"",""1"",""2121""
","
","","","-1","","","20","9666","4504","&#9761;","elianto","#3366ff99","-1","-1","1","0","[]","0","0","2","","","","","","","",""
"pit-trial","51","487679","0.0-2.0-11.2-4.2","battery-v0.2","","""event"",""trial"",""time""
""fullscreenenter"",""1"",""2121""
","
","
","""event"",""trial"",""time""
""fullscreenenter"",""1"",""2121""
","
","","","-1","","","20","9666","4504","&#9761;","elianto","#3366ff99","-1","-1","1","+10","[]","0","0","2","","","","","","","",""
"pit-trial","52","492540","0.0-2.0-11.3-0.3","battery-v0.2","","""event"",""trial"",""time""
""fullscreenenter"",""1"",""2121""
","
","
","""event"",""trial"",""time""
""fullscreenenter"",""1"",""2121""
","
","","","-1","","","20","9666","4504","&#9761;","elianto","#3366ff99","-1","-1","1","+10","[]","0","0","2","","","","","","","",""
"pit-trial","53","497401","0.0-2.0-11.3-1.3","battery-v0.2","","""event"",""trial"",""time""
""fullscreenenter"",""1"",""2121""
","
","
","""event"",""trial"",""time""
""fullscreenenter"",""1"",""2121""
","
","","","-1","","","20","9666","4504","&#9761;","elianto","#3366ff99","-1","-1","1","+10","[]","0","0","2","","","","","","","",""
"pit-trial","54","502262","0.0-2.0-11.3-2.3","battery-v0.2","","""event"",""trial"",""time""
""fullscreenenter"",""1"",""2121""
","
","
","""event"",""trial"",""time""
""fullscreenenter"",""1"",""2121""
","
","","","-1","","","20","9666","4504","&#9761;","elianto","#3366ff99","-1","-1","1","+10","[]","0","0","2","","","","","","","",""
"pit-trial","55","507124","0.0-2.0-11.3-3.3","battery-v0.2","","""event"",""trial"",""time""
""fullscreenenter"",""1"",""2121""
","
","
","""event"",""trial"",""time""
""fullscreenenter"",""1"",""2121""
","
","","","-1","","","20","9666","4504","&#9761;","elianto","#3366ff99","-1","-1","1","0","[]","0","0","2","","","","","","","",""
"pit-trial","56","511983","0.0-2.0-11.3-4.3","battery-v0.2","","""event"",""trial"",""time""
""fullscreenenter"",""1"",""2121""
","
","
","""event"",""trial"",""time""
""fullscreenenter"",""1"",""2121""
","
","","","-1","","","20","9666","4504","&#9761;","elianto","#3366ff99","-1","-1","1","+10","[]","0","0","2","","","","","","","",""
"call-function","57","511985","0.0-2.0-12.0","battery-v0.2","","""event"",""trial"",""time""
""fullscreenenter"",""1"",""2121""
","
","
","""event"",""trial"",""time""
""fullscreenenter"",""1"",""2121""
","
","","","","","","","","","","","","","","","","","","","","","","","","","","",""
"pit-instructions","58","548023","0.0-2.0-13.0","battery-v0.2","","""event"",""trial"",""time""
""fullscreenenter"",""1"",""2121""
","
","
","""event"",""trial"",""time""
""fullscreenenter"",""1"",""2121""
","
","","[{""page_index"":0,""viewing_time"":6832.199999988079},{""page_index"":1,""viewing_time"":8329.100000023842},{""page_index"":2,""viewing_time"":4209.800000011921},{""page_index"":3,""viewing_time"":11351.199999988079},{""page_index"":4,""viewing_time"":5315.600000023842}]","36038.40000003576","","","","","","","","","","","","","","","","","","","","","","","",""
"pit-trial","59","551411","0.0-2.0-14.0-0.0","battery-v0.2","","""event"",""trial"",""time""
""fullscreenenter"",""1"",""2121""
","
","
","""event"",""trial"",""time""
""fullscreenenter"",""1"",""2121""
","
","","","526.9000000357628","","","20","9666","4504","&#9826;","elianto","#f73b6a7A","-1"," ","0","-10","[1379.5999999642372]","1","0","3","","","","","","","",""
"pit-trial","60","556270","0.0-2.0-14.0-1.0","battery-v0.2","","""event"",""trial"",""time""
""fullscreenenter"",""1"",""2121""
","
","
","""event"",""trial"",""time""
""fullscreenenter"",""1"",""2121""
","
","","","-1","","","20","9666","4504","&#9826;","elianto","#f73b6a7A","-1","-1","1","0","[]","0","0","3","","","","","","","",""
"pit-trial","61","561131","0.0-2.0-14.0-2.0","battery-v0.2","","""event"",""trial"",""time""
""fullscreenenter"",""1"",""2121""
","
","
","""event"",""trial"",""time""
""fullscreenenter"",""1"",""2121""
","
","","","-1","","","20","9666","4504","&#9826;","elianto","#f73b6a7A","-1","-1","1","0","[]","0","0","3","","","","","","","",""
"pit-trial","62","565990","0.0-2.0-14.0-3.0","battery-v0.2","","""event"",""trial"",""time""
""fullscreenenter"",""1"",""2121""
","
","
","""event"",""trial"",""time""
""fullscreenenter"",""1"",""2121""
","
","","","-1","","","20","9666","4504","&#9826;","elianto","#f73b6a7A","-1","-1","1","-10","[]","0","0","3","","","","","","","",""
"pit-trial","63","570848","0.0-2.0-14.0-4.0","battery-v0.2","","""event"",""trial"",""time""
""fullscreenenter"",""1"",""2121""
","
","
","""event"",""trial"",""time""
""fullscreenenter"",""1"",""2121""
","
","","","-1","","","20","9666","4504","&#9826;","elianto","#f73b6a7A","-1","-1","1","0","[]","0","0","3","","","","","","","",""
"pit-trial","64","575706","0.0-2.0-14.1-0.1","battery-v0.2","","""event"",""trial"",""time""
""fullscreenenter"",""1"",""2121""
","
","
","""event"",""trial"",""time""
""fullscreenenter"",""1"",""2121""
","
","","","-1","","","20","9666","4504","&#9826;","elianto","#f73b6a7A","-1","-1","1","0","[]","0","0","3","","","","","","","",""
"pit-trial","65","580566","0.0-2.0-14.1-1.1","battery-v0.2","","""event"",""trial"",""time""
""fullscreenenter"",""1"",""2121""
","
","
","""event"",""trial"",""time""
""fullscreenenter"",""1"",""2121""
","
","","","-1","","","20","9666","4504","&#9826;","elianto","#f73b6a7A","-1","-1","1","0","[]","0","0","3","","","","","","","",""
"pit-trial","66","585425","0.0-2.0-14.1-2.1","battery-v0.2","","""event"",""trial"",""time""
""fullscreenenter"",""1"",""2121""
","
","
","""event"",""trial"",""time""
""fullscreenenter"",""1"",""2121""
","
","","","-1","","","20","9666","4504","&#9826;","elianto","#f73b6a7A","-1","-1","1","0","[]","0","0","3","","","","","","","",""
"pit-trial","67","590283","0.0-2.0-14.1-3.1","battery-v0.2","","""event"",""trial"",""time""
""fullscreenenter"",""1"",""2121""
","
","
","""event"",""trial"",""time""
""fullscreenenter"",""1"",""2121""
","
","","","-1","","","20","9666","4504","&#9826;","elianto","#f73b6a7A","-1","-1","1","-10","[]","0","0","3","","","","","","","",""
"pit-trial","68","595142","0.0-2.0-14.1-4.1","battery-v0.2","","""event"",""trial"",""time""
""fullscreenenter"",""1"",""2121""
","
","
","""event"",""trial"",""time""
""fullscreenenter"",""1"",""2121""
","
","","","-1","","","20","9666","4504","&#9826;","elianto","#f73b6a7A","-1","-1","1","0","[]","0","0","3","","","","","","","",""
"pit-trial","69","599997","0.0-2.0-14.2-0.2","battery-v0.2","","""event"",""trial"",""time""
""fullscreenenter"",""1"",""2121""
","
","
","""event"",""trial"",""time""
""fullscreenenter"",""1"",""2121""
","
","","","-1","","","20","9666","4504","&#9826;","elianto","#f73b6a7A","-1","-1","1","0","[]","0","0","3","","","","","","","",""
"pit-trial","70","604859","0.0-2.0-14.2-1.2","battery-v0.2","","""event"",""trial"",""time""
""fullscreenenter"",""1"",""2121""
","
","
","""event"",""trial"",""time""
""fullscreenenter"",""1"",""2121""
","
","","","-1","","","20","9666","4504","&#9826;","elianto","#f73b6a7A","-1","-1","1","0","[]","0","0","3","","","","","","","",""
"pit-trial","71","609718","0.0-2.0-14.2-2.2","battery-v0.2","","""event"",""trial"",""time""
""fullscreenenter"",""1"",""2121""
","
","
","""event"",""trial"",""time""
""fullscreenenter"",""1"",""2121""
","
","","","-1","","","20","9666","4504","&#9826;","elianto","#f73b6a7A","-1","-1","1","0","[]","0","0","3","","","","","","","",""
"pit-trial","72","614576","0.0-2.0-14.2-3.2","battery-v0.2","","""event"",""trial"",""time""
""fullscreenenter"",""1"",""2121""
","
","
","""event"",""trial"",""time""
""fullscreenenter"",""1"",""2121""
","
","","","-1","","","20","9666","4504","&#9826;","elianto","#f73b6a7A","-1","-1","1","-10","[]","0","0","3","","","","","","","",""
"pit-trial","73","619435","0.0-2.0-14.2-4.2","battery-v0.2","","""event"",""trial"",""time""
""fullscreenenter"",""1"",""2121""
","
","
","""event"",""trial"",""time""
""fullscreenenter"",""1"",""2121""
","
","","","-1","","","20","9666","4504","&#9826;","elianto","#f73b6a7A","-1","-1","1","0","[]","0","0","3","","","","","","","",""
"pit-trial","74","624294","0.0-2.0-14.3-0.3","battery-v0.2","","""event"",""trial"",""time""
""fullscreenenter"",""1"",""2121""
","
","
","""event"",""trial"",""time""
""fullscreenenter"",""1"",""2121""
","
","","","-1","","","20","9666","4504","&#9826;","elianto","#f73b6a7A","-1","-1","1","0","[]","0","0","3","","","","","","","",""
"pit-trial","75","629152","0.0-2.0-14.3-1.3","battery-v0.2","","""event"",""trial"",""time""
""fullscreenenter"",""1"",""2121""
","
","
","""event"",""trial"",""time""
""fullscreenenter"",""1"",""2121""
","
","","","-1","","","20","9666","4504","&#9826;","elianto","#f73b6a7A","-1","-1","1","0","[]","0","0","3","","","","","","","",""
"pit-trial","76","634010","0.0-2.0-14.3-2.3","battery-v0.2","","""event"",""trial"",""time""
""fullscreenenter"",""1"",""2121""
","
","
","""event"",""trial"",""time""
""fullscreenenter"",""1"",""2121""
","
","","","-1","","","20","9666","4504","&#9826;","elianto","#f73b6a7A","-1","-1","1","0","[]","0","0","3","","","","","","","",""
"pit-trial","77","638870","0.0-2.0-14.3-3.3","battery-v0.2","","""event"",""trial"",""time""
""fullscreenenter"",""1"",""2121""
","
","
","""event"",""trial"",""time""
""fullscreenenter"",""1"",""2121""
","
","","","-1","","","20","9666","4504","&#9826;","elianto","#f73b6a7A","-1","-1","1","-10","[]","0","0","3","","","","","","","",""
"pit-trial","78","643728","0.0-2.0-14.3-4.3","battery-v0.2","","""event"",""trial"",""time""
""fullscreenenter"",""1"",""2121""
","
","
","""event"",""trial"",""time""
""fullscreenenter"",""1"",""2121""
","
","","","-1","","","20","9666","4504","&#9826;","elianto","#f73b6a7A","-1","-1","1","0","[]","0","0","3","","","","","","","",""
"call-function","79","643730","0.0-2.0-15.0","battery-v0.2","","""event"",""trial"",""time""
""fullscreenenter"",""1"",""2121""
","
","
","""event"",""trial"",""time""
""fullscreenenter"",""1"",""2121""
","
","","","","","","","","","","","","","","","","","","","","","","","","","","",""
"pit-instructions","80","696996","0.0-2.0-16.0","battery-v0.2","","""event"",""trial"",""time""
""fullscreenenter"",""1"",""2121""
","
","
","""event"",""trial"",""time""
""fullscreenenter"",""1"",""2121""
","
","","[{""page_index"":0,""viewing_time"":7271.099999964237},{""page_index"":1,""viewing_time"":9226.100000023842},{""page_index"":2,""viewing_time"":6100.399999976158},{""page_index"":3,""viewing_time"":30667.100000023842}]","53265.19999998808","","","","","","","","","","","","","","","","","","","","","","","",""
"pit-trial","81","700431","0.0-2.0-17.0-0.0","battery-v0.2","","""event"",""trial"",""time""
""fullscreenenter"",""1"",""2121""
","
","
","""event"",""trial"",""time""
""fullscreenenter"",""1"",""2121""
","
","","","577.8999999761581","","","20","9666","4504","&#9789;","elianto","#f73b6a7A"," "," ","1","0","[1429.3999999761581]","1","0","4","","","","","","","",""
"pit-trial","82","703773","0.0-2.0-17.0-1.0","battery-v0.2","","""event"",""trial"",""time""
""fullscreenenter"",""1"",""2121""
","
","
","""event"",""trial"",""time""
""fullscreenenter"",""1"",""2121""
","
","","","483.5","","","20","9666","4504","&#9789;","elianto","#f73b6a7A"," "," ","1","0","[1334.199999988079]","1","0","4","","","","","","","",""
"pit-trial","83","707205","0.0-2.0-17.0-2.0","battery-v0.2","","""event"",""trial"",""time""
""fullscreenenter"",""1"",""2121""
","
","
","""event"",""trial"",""time""
""fullscreenenter"",""1"",""2121""
","
","","","572.3000000119209","","","20","9666","4504","&#9789;","elianto","#f73b6a7A"," "," ","1","0","[1427]","1","0","4","","","","","","","",""
"pit-trial","84","710733","0.0-2.0-17.0-3.0","battery-v0.2","","""event"",""trial"",""time""
""fullscreenenter"",""1"",""2121""
","
","
","""event"",""trial"",""time""
""fullscreenenter"",""1"",""2121""
","
","","","668","","","20","9666","4504","&#9789;","elianto","#f73b6a7A"," "," ","1","-10","[1522.4000000357628]","1","0","4","","","","","","","",""
"pit-trial","85","714083","0.0-2.0-17.0-4.0","battery-v0.2","","""event"",""trial"",""time""
""fullscreenenter"",""1"",""2121""
","
","
","""event"",""trial"",""time""
""fullscreenenter"",""1"",""2121""
","
","","","490.5","","","20","9666","4504","&#9789;","elianto","#f73b6a7A"," "," ","1","0","[1343.699999988079]","1","0","4","","","","","","","",""
"pit-trial","86","717519","0.0-2.0-17.1-0.1","battery-v0.2","","""event"",""trial"",""time""
""fullscreenenter"",""1"",""2121""
","
","
","""event"",""trial"",""time""
""fullscreenenter"",""1"",""2121""
","
","","","578.2999999523163","","","20","9666","4504","&#9789;","elianto","#f73b6a7A"," "," ","1","0","[1430.8999999761581]","1","0","4","","","","","","","",""
"pit-trial","87","721311","0.0-2.0-17.1-1.1","battery-v0.2","","""event"",""trial"",""time""
""fullscreenenter"",""1"",""2121""
","
","
","""event"",""trial"",""time""
""fullscreenenter"",""1"",""2121""
","
","","","935.8999999761581","","","20","9666","4504","&#9789;","elianto","#f73b6a7A"," "," ","1","0","[1786]","1","0","4","","","","","","","",""
"pit-trial","88","724771","0.0-2.0-17.1-2.1","battery-v0.2","","""event"",""trial"",""time""
""fullscreenenter"",""1"",""2121""
","
","
","""event"",""trial"",""time""
""fullscreenenter"",""1"",""2121""
","
","","","599.5999999642372","","","20","9666","4504","&#9789;","elianto","#f73b6a7A"," "," ","1","0","[1453.5]","1","0","4","","","","","","","",""
"pit-trial","89","728109","0.0-2.0-17.1-3.1","battery-v0.2","","""event"",""trial"",""time""
""fullscreenenter"",""1"",""2121""
","
","
","""event"",""trial"",""time""
""fullscreenenter"",""1"",""2121""
","
","","","478.2999999523163","","","20","9666","4504","&#9789;","elianto","#f73b6a7A"," "," ","1","-10","[1331]","1","0","4","","","","","","","",""
"pit-trial","90","731391","0.0-2.0-17.1-4.1","battery-v0.2","","""event"",""trial"",""time""
""fullscreenenter"",""1"",""2121""
","
","
","""event"",""trial"",""time""
""fullscreenenter"",""1"",""2121""
","
","","","422.5","","","20","9666","4504","&#9789;","elianto","#f73b6a7A"," "," ","1","0","[1276]","1","0","4","","","","","","","",""
"pit-trial","91","734714","0.0-2.0-17.2-0.2","battery-v0.2","","""event"",""trial"",""time""
""fullscreenenter"",""1"",""2121""
","
","
","""event"",""trial"",""time""
""fullscreenenter"",""1"",""2121""
","
","","","462.5","","","20","9666","4504","&#9789;","elianto","#f73b6a7A"," "," ","1","0","[1317.2000000476837]","1","0","4","","","","","","","",""
"pit-trial","92","737976","0.0-2.0-17.2-1.2","battery-v0.2","","""event"",""trial"",""time""
""fullscreenenter"",""1"",""2121""
","
","
","""event"",""trial"",""time""
""fullscreenenter"",""1"",""2121""
","
","","","400.19999998807907","","","20","9666","4504","&#9789;","elianto","#f73b6a7A"," "," ","1","0","[1254.5]","1","0","4","","","","","","","",""
"pit-trial","93","741279","0.0-2.0-17.2-2.2","battery-v0.2","","""event"",""trial"",""time""
""fullscreenenter"",""1"",""2121""
","
","
","""event"",""trial"",""time""
""fullscreenenter"",""1"",""2121""
","
","","","443.10000002384186","","","20","9666","4504","&#9789;","elianto","#f73b6a7A"," "," ","1","0","[1296.6000000238419]","1","0","4","","","","","","","",""
"pit-trial","94","744514","0.0-2.0-17.2-3.2","battery-v0.2","","""event"",""trial"",""time""
""fullscreenenter"",""1"",""2121""
","
","
","""event"",""trial"",""time""
""fullscreenenter"",""1"",""2121""
","
","","","375","","","20","9666","4504","&#9789;","elianto","#f73b6a7A"," "," ","1","-10","[1228.699999988079]","1","0","4","","","","","","","",""
"pit-trial","95","747637","0.0-2.0-17.2-4.2","battery-v0.2","","""event"",""trial"",""time""
""fullscreenenter"",""1"",""2121""
","
","
","""event"",""trial"",""time""
""fullscreenenter"",""1"",""2121""
","
","","","264.80000001192093","","","20","9666","4504","&#9789;","elianto","#f73b6a7A"," "," ","1","0","[1117.6000000238419]","1","0","4","","","","","","","",""
"pit-trial","96","750869","0.0-2.0-17.3-0.3","battery-v0.2","","""event"",""trial"",""time""
""fullscreenenter"",""1"",""2121""
","
","
","""event"",""trial"",""time""
""fullscreenenter"",""1"",""2121""
","
","","","374.0999999642372","","","20","9666","4504","&#9789;","elianto","#f73b6a7A"," "," ","1","0","[1226.0999999642372]","1","0","4","","","","","","","",""
"pit-trial","97","754132","0.0-2.0-17.3-1.3","battery-v0.2","","""event"",""trial"",""time""
""fullscreenenter"",""1"",""2121""
","
","
","""event"",""trial"",""time""
""fullscreenenter"",""1"",""2121""
","
","","","406.4000000357628","","","20","9666","4504","&#9789;","elianto","#f73b6a7A"," "," ","1","0","[1257]","1","0","4","","","","","","","",""
"pit-trial","98","757476","0.0-2.0-17.3-2.3","battery-v0.2","","""event"",""trial"",""time""
""fullscreenenter"",""1"",""2121""
","
","
","""event"",""trial"",""time""
""fullscreenenter"",""1"",""2121""
","
","","","483.5","","","20","9666","4504","&#9789;","elianto","#f73b6a7A"," "," ","1","0","[1337.300000011921]","1","0","4","","","","","","","",""
"pit-trial","99","761682","0.0-2.0-17.3-3.3","battery-v0.2","","""event"",""trial"",""time""
""fullscreenenter"",""1"",""2121""
","
","
","""event"",""trial"",""time""
""fullscreenenter"",""1"",""2121""
","
","","","1344.8999999761581","","","20","9666","4504","&#9789;","elianto","#f73b6a7A"," "," ","1","-10","[2198.199999988079]","1","0","4","","","","","","","",""
"pit-trial","100","765076","0.0-2.0-17.3-4.3","battery-v0.2","","""event"",""trial"",""time""
""fullscreenenter"",""1"",""2121""
","
","
","""event"",""trial"",""time""
""fullscreenenter"",""1"",""2121""
","
","","","533.7999999523163","","","20","9666","4504","&#9789;","elianto","#f73b6a7A"," "," ","1","0","[1387.199999988079]","1","0","4","","","","","","","",""
"call-function","101","765078","0.0-2.0-18.0","battery-v0.2","","""event"",""trial"",""time""
""fullscreenenter"",""1"",""2121""
","
","
","""event"",""trial"",""time""
""fullscreenenter"",""1"",""2121""
","
","","","","","","","","","","","","","","","","","","","","","","","","","","",""
"pit-instructions","102","843429","0.0-2.0-19.0","battery-v0.2","","""event"",""trial"",""time""
""fullscreenenter"",""1"",""2121""
","
","
","""event"",""trial"",""time""
""fullscreenenter"",""1"",""2121""
","
","","[{""page_index"":0,""viewing_time"":8161.699999988079},{""page_index"":1,""viewing_time"":8196.899999976158},{""page_index"":2,""viewing_time"":15446},{""page_index"":3,""viewing_time"":8937},{""page_index"":4,""viewing_time"":9103.600000023842},{""page_index"":5,""viewing_time"":8188.899999976158},{""page_index"":6,""viewing_time"":8832.200000047684},{""page_index"":7,""viewing_time"":6701.899999976158},{""page_index"":8,""viewing_time"":4781.800000011921}]","78350.5","","","","","","","","","","","","","","","","","","","","","","","",""
"pit-comprehension","103","849421","0.0-2.0-20.0-0.0","battery-v0.2","","""event"",""trial"",""time""
""fullscreenenter"",""1"",""2121""
","
","
","""event"",""trial"",""time""
""fullscreenenter"",""1"",""2121""
","
","","","5987","[""SPACE""]","0","20","9666","4504","","","","","","","","","","","","","","","","","","",""
"pit-instructions","104","852126","0.0-2.0-20.0-1.0","battery-v0.2","","""event"",""trial"",""time""
""fullscreenenter"",""1"",""2121""
","
","
","""event"",""trial"",""time""
""fullscreenenter"",""1"",""2121""
","
","","[{""page_index"":0,""viewing_time"":2665.199999988079}]","2665.599999964237","","","","","","","","","","","","","","","","","","","","","","","",""
"pit-comprehension","105","856786","0.0-2.0-21.0-0.0","battery-v0.2","","""event"",""trial"",""time""
""fullscreenenter"",""1"",""2121""
","
","
","""event"",""trial"",""time""
""fullscreenenter"",""1"",""2121""
","
","","","4656","[""10""]","0","20","9666","4504","","","","","","","","","","","","","","","","","","",""
"pit-instructions","106","859373","0.0-2.0-21.0-1.0","battery-v0.2","","""event"",""trial"",""time""
""fullscreenenter"",""1"",""2121""
","
","
","""event"",""trial"",""time""
""fullscreenenter"",""1"",""2121""
","
","","[{""page_index"":0,""viewing_time"":2548.899999976158}]","2549.5","","","","","","","","","","","","","","","","","","","","","","","",""
"pit-comprehension","107","866350","0.0-2.0-22.0-0.0","battery-v0.2","","""event"",""trial"",""time""
""fullscreenenter"",""1"",""2121""
","
","
","""event"",""trial"",""time""
""fullscreenenter"",""1"",""2121""
","
","","","6971.899999976158","[""0""]","0","20","9666","4504","","","","","","","","","","","","","","","","","","",""
"pit-instructions","108","867967","0.0-2.0-22.0-1.0","battery-v0.2","","""event"",""trial"",""time""
""fullscreenenter"",""1"",""2121""
","
","
","""event"",""trial"",""time""
""fullscreenenter"",""1"",""2121""
","
","","[{""page_index"":0,""viewing_time"":1577.4000000357628}]","1578","","","","","","","","","","","","","","","","","","","","","","","",""
"pit-comprehension","109","878537","0.0-2.0-23.0-0.0","battery-v0.2","","""event"",""trial"",""time""
""fullscreenenter"",""1"",""2121""
","
","
","""event"",""trial"",""time""
""fullscreenenter"",""1"",""2121""
","
","","","10564.699999988079","[""True""]","0","20","9666","4504","","","","","","","","","","","","","","","","","","",""
"pit-instructions","110","880303","0.0-2.0-23.0-1.0","battery-v0.2","","""event"",""trial"",""time""
""fullscreenenter"",""1"",""2121""
","
","
","""event"",""trial"",""time""
""fullscreenenter"",""1"",""2121""
","
","","[{""page_index"":0,""viewing_time"":1726.6000000238419}]","1727","","","","","","","","","","","","","","","","","","","","","","","",""
"pit-comprehension","111","887861","0.0-2.0-24.0-0.0","battery-v0.2","","""event"",""trial"",""time""
""fullscreenenter"",""1"",""2121""
","
","
","""event"",""trial"",""time""
""fullscreenenter"",""1"",""2121""
","
","","","7480.100000023842","[""True""]","0","20","9666","4504","","","","","","","","","","","","","","","","","","",""
"pit-instructions","112","889871","0.0-2.0-24.0-1.0","battery-v0.2","","""event"",""trial"",""time""
""fullscreenenter"",""1"",""2121""
","
","
","""event"",""trial"",""time""
""fullscreenenter"",""1"",""2121""
","
","","[{""page_index"":0,""viewing_time"":1972}]","1972.3999999761581","","","","","","","","","","","","","","","","","","","","","","","",""
"pit-comprehension","113","896466","0.0-2.0-25.0-0.0","battery-v0.2","","""event"",""trial"",""time""
""fullscreenenter"",""1"",""2121""
","
","
","""event"",""trial"",""time""
""fullscreenenter"",""1"",""2121""
","
","","","6592.199999988079","[""True""]","0","20","9666","4504","","","","","","","","","","","","","","","","","","",""
"pit-instructions","114","900339","0.0-2.0-25.0-1.0","battery-v0.2","","""event"",""trial"",""time""
""fullscreenenter"",""1"",""2121""
","
","
","""event"",""trial"",""time""
""fullscreenenter"",""1"",""2121""
","
","","[{""page_index"":0,""viewing_time"":3832.900000035763}]","3833.199999988079","","","","","","","","","","","","","","","","","","","","","","","",""
"pit-comprehension","115","905732","0.0-2.0-26.0-0.0","battery-v0.2","","""event"",""trial"",""time""
""fullscreenenter"",""1"",""2121""
","
","
","""event"",""trial"",""time""
""fullscreenenter"",""1"",""2121""
","
","","","5388.600000023842","[""False""]","0","20","9666","4504","","","","","","","","","","","","","","","","","","",""
"pit-instructions","116","907556","0.0-2.0-26.0-1.0","battery-v0.2","","""event"",""trial"",""time""
""fullscreenenter"",""1"",""2121""
","
","
","""event"",""trial"",""time""
""fullscreenenter"",""1"",""2121""
","
","","[{""page_index"":0,""viewing_time"":1782.7000000476837}]","1783.2000000476837","","","","","","","","","","","","","","","","","","","","","","","",""
"pit-instructions","117","925329","0.0-3.0","battery-v0.2","","""event"",""trial"",""time""
""fullscreenenter"",""1"",""2121""
","
","
","""event"",""trial"",""time""
""fullscreenenter"",""1"",""2121""
","
","","[{""page_index"":0,""viewing_time"":4355.199999988079},{""page_index"":1,""viewing_time"":5482.699999988079},{""page_index"":2,""viewing_time"":7932.100000023842}]","17770.399999976158","","","","","","","","","","","","","","","","","","","","","","","",""
"pit-trial","118","928920","0.0-4.0","battery-v0.2","","""event"",""trial"",""time""
""fullscreenenter"",""1"",""2121""
","
","
","""event"",""trial"",""time""
""fullscreenenter"",""1"",""2121""
","
","","","728.1000000238419","","","20","9666","4504","&#9752;","elianto","#f73b6a7A"," "," ","1","0","[1582.8999999761581]","1","1","","","9666","1","3","3","lose","go","0"
"pit-trial","119","933778","0.0-5.0","battery-v0.2","","""event"",""trial"",""time""
""fullscreenenter"",""1"",""2121""
","
","
","""event"",""trial"",""time""
""fullscreenenter"",""1"",""2121""
","
","","","-1","","","20","9666","4504","&#9730;","elianto","#3366ff99"," ","-1","0","0","[]","0","1","","","9666","2","1","1","win","go","0"
"pit-trial","120","937677","0.0-6.0","battery-v0.2","","""event"",""trial"",""time""
""fullscreenenter"",""1"",""2121""
","
","
","""event"",""trial"",""time""
""fullscreenenter"",""1"",""2121""
","
","","","1040.699999988079","","","20","9666","4504","&#9733;","elianto","#3366ff99","-1"," ","0","0","[1891.5999999642372]","1","1","","","9666","3","2","2","win","no-go","0"
"pit-trial","121","942264","0.0-7.0","battery-v0.2","","""event"",""trial"",""time""
""fullscreenenter"",""1"",""2121""
","
","
","""event"",""trial"",""time""
""fullscreenenter"",""1"",""2121""
","
","","","1729.699999988079","","","20","9666","4504","&#9728;","elianto","#f73b6a7A","-1"," ","0","-10","[2580.5]","1","1","","","9666","4","0","4","lose","no-go","0"
"pit-trial","122","947122","0.0-8.0","battery-v0.2","","""event"",""trial"",""time""
""fullscreenenter"",""1"",""2121""
","
","
","""event"",""trial"",""time""
""fullscreenenter"",""1"",""2121""
","
","","","-1","","","20","9666","4504","&#9728;","elianto","#f73b6a7A","-1","-1","1","-10","[]","0","1","","","9666","5","0","4","lose","no-go","1"
"pit-trial","123","951065","0.0-9.0","battery-v0.2","","""event"",""trial"",""time""
""fullscreenenter"",""1"",""2121""
","
","
","""event"",""trial"",""time""
""fullscreenenter"",""1"",""2121""
","
","","","1085.5","","","20","9666","4504","&#9752;","elianto","#f73b6a7A"," "," ","1","0","[1939.699999988079]","1","1","","","9666","6","3","3","lose","go","0"
"pit-trial","124","954728","0.0-10.0","battery-v0.2","","""event"",""trial"",""time""
""fullscreenenter"",""1"",""2121""
","
","
","""event"",""trial"",""time""
""fullscreenenter"",""1"",""2121""
","
","","","802.7999999523163","","","20","9666","4504","&#9730;","elianto","#3366ff99"," "," ","1","+10","[1656.8999999761581]","1","1","","","9666","7","1","1","win","go","0"
"pit-trial","125","959587","0.0-11.0","battery-v0.2","","""event"",""trial"",""time""
""fullscreenenter"",""1"",""2121""
","
","
","""event"",""trial"",""time""
""fullscreenenter"",""1"",""2121""
","
","","","-1","","","20","9666","4504","&#9733;","elianto","#3366ff99","-1","-1","1","+10","[]","0","1","","","9666","8","2","2","win","no-go","0"
"pit-trial","126","963464","0.0-12.0","battery-v0.2","","""event"",""trial"",""time""
""fullscreenenter"",""1"",""2121""
","
","
","""event"",""trial"",""time""
""fullscreenenter"",""1"",""2121""
","
","","","1015.8000000119209","","","20","9666","4504","&#9752;","elianto","#f73b6a7A"," "," ","1","0","[1870.199999988079]","1","1","","","9666","9","3","3","lose","go","0"
"pit-trial","127","967117","0.0-13.0","battery-v0.2","","""event"",""trial"",""time""
""fullscreenenter"",""1"",""2121""
","
","
","""event"",""trial"",""time""
""fullscreenenter"",""1"",""2121""
","
","","","795.0999999642372","","","20","9666","4504","&#9730;","elianto","#3366ff99"," "," ","1","+10","[1646.0999999642372]","1","1","","","9666","10","1","1","win","go","0"
"pit-trial","128","971976","0.0-14.0","battery-v0.2","","""event"",""trial"",""time""
""fullscreenenter"",""1"",""2121""
","
","
","""event"",""trial"",""time""
""fullscreenenter"",""1"",""2121""
","
","","","-1","","","20","9666","4504","&#9728;","elianto","#f73b6a7A","-1","-1","1","0","[]","0","1","","","9666","11","0","4","lose","no-go","0"
"pit-trial","129","976536","0.0-15.0","battery-v0.2","","""event"",""trial"",""time""
""fullscreenenter"",""1"",""2121""
","
","
","""event"",""trial"",""time""
""fullscreenenter"",""1"",""2121""
","
","","","1705.300000011921","","","20","9666","4504","&#9733;","elianto","#3366ff99","-1"," ","0","+10","[2557.2000000476837]","1","1","","","9666","12","2","2","win","no-go","1"
"pit-trial","130","981395","0.0-16.0","battery-v0.2","","""event"",""trial"",""time""
""fullscreenenter"",""1"",""2121""
","
","
","""event"",""trial"",""time""
""fullscreenenter"",""1"",""2121""
","
","","","-1","","","20","9666","4504","&#9733;","elianto","#3366ff99","-1","-1","1","+10","[]","0","1","","","9666","13","2","2","win","no-go","0"
"pit-trial","131","986253","0.0-17.0","battery-v0.2","","""event"",""trial"",""time""
""fullscreenenter"",""1"",""2121""
","
","
","""event"",""trial"",""time""
""fullscreenenter"",""1"",""2121""
","
","","","-1","","","20","9666","4504","&#9728;","elianto","#f73b6a7A","-1","-1","1","0","[]","0","1","","","9666","14","0","4","lose","no-go","0"
"pit-trial","132","990248","0.0-18.0","battery-v0.2","","""event"",""trial"",""time""
""fullscreenenter"",""1"",""2121""
","
","
","""event"",""trial"",""time""
""fullscreenenter"",""1"",""2121""
","
","","","1137.800000011921","","","20","9666","4504","&#9730;","elianto","#3366ff99"," "," ","1","+10","[1989.0999999642372]","1","1","","","9666","15","1","1","win","go","0"
"pit-trial","133","994163","0.0-19.0","battery-v0.2","","""event"",""trial"",""time""
""fullscreenenter"",""1"",""2121""
","
","
","""event"",""trial"",""time""
""fullscreenenter"",""1"",""2121""
","
","","","1056.8999999761581","","","20","9666","4504","&#9752;","elianto","#f73b6a7A"," "," ","1","-10","[1908]","1","1","","","9666","16","3","3","lose","go","1"
"pit-trial","134","999022","0.0-20.0","battery-v0.2","","""event"",""trial"",""time""
""fullscreenenter"",""1"",""2121""
","
","
","""event"",""trial"",""time""
""fullscreenenter"",""1"",""2121""
","
","","","-1","","","20","9666","4504","&#9728;","elianto","#f73b6a7A","-1","-1","1","0","[]","0","1","","","9666","17","0","4","lose","no-go","0"
"pit-trial","135","1002899","0.0-21.0","battery-v0.2","","""event"",""trial"",""time""
""fullscreenenter"",""1"",""2121""
","
","
","""event"",""trial"",""time""
""fullscreenenter"",""1"",""2121""
","
","","","1023.5999999642372","","","20","9666","4504","&#9730;","elianto","#3366ff99"," "," ","1","+10","[1873.800000011921]","1","1","","","9666","18","1","1","win","go","0"
"pit-trial","136","1007752","0.0-22.0","battery-v0.2","","""event"",""trial"",""time""
""fullscreenenter"",""1"",""2121""
","
","
","""event"",""trial"",""time""
""fullscreenenter"",""1"",""2121""
","
","","","-1","","","20","9666","4504","&#9752;","elianto","#f73b6a7A"," ","-1","0","-10","[]","0","1","","","9666","19","3","3","lose","go","0"
"pit-trial","137","1012611","0.0-23.0","battery-v0.2","","""event"",""trial"",""time""
""fullscreenenter"",""1"",""2121""
","
","
","""event"",""trial"",""time""
""fullscreenenter"",""1"",""2121""
","
","","","-1","","","20","9666","4504","&#9733;","elianto","#3366ff99","-1","-1","1","0","[]","0","1","","","9666","20","2","2","win","no-go","1"
"pit-instructions","138","1026686","0.0-24.0","battery-v0.2","","""event"",""trial"",""time""
""fullscreenenter"",""1"",""2121""
","
","
","""event"",""trial"",""time""
""fullscreenenter"",""1"",""2121""
","
","","[{""page_index"":0,""viewing_time"":6636.699999988079},{""page_index"":1,""viewing_time"":7435.899999976158}]","14072.899999976158","","","","","","","","","","","","","","","","","","","","","","","",""
"pit-trial","139","1030184","0.0-25.0","battery-v0.2","","""event"",""trial"",""time""
""fullscreenenter"",""1"",""2121""
","
","
","""event"",""trial"",""time""
""fullscreenenter"",""1"",""2121""
","
","","","639.1000000238419","","","20","9666","4504","b","elianto","#f73b6a7A"," "," ","1","0","[1491.9000000357628]","1","2","","","9666","21","3","3","lose","go","0"
"pit-trial","140","1035043","0.0-26.0","battery-v0.2","","""event"",""trial"",""time""
""fullscreenenter"",""1"",""2121""
","
","
","""event"",""trial"",""time""
""fullscreenenter"",""1"",""2121""
","
","","","-1","","","20","9666","4504","t","elianto","#f73b6a7A","-1","-1","1","0","[]","0","2","","","9666","22","2","4","lose","no-go","0"
"pit-trial","141","1039704","0.0-27.0","battery-v0.2","","""event"",""trial"",""time""
""fullscreenenter"",""1"",""2121""
","
","
","""event"",""trial"",""time""
""fullscreenenter"",""1"",""2121""
","
","","","1803.5999999642372","","","20","9666","4504","f","elianto","#3366ff99"," "," ","1","+10","[2654.399999976158]","1","2","","","9666","23","1","1","win","go","0"
"pit-trial","142","1044563","0.0-28.0","battery-v0.2","","""event"",""trial"",""time""
""fullscreenenter"",""1"",""2121""
","
","
","""event"",""trial"",""time""
""fullscreenenter"",""1"",""2121""
","
","","","-1","","","20","9666","4504","n","elianto","#f73b6a7A","-1","-1","1","0","[]","0","2","","","9666","24","0","4","lose","no-go","0"
"pit-trial","143","1049048","0.0-29.0","battery-v0.2","","""event"",""trial"",""time""
""fullscreenenter"",""1"",""2121""
","
","
","""event"",""trial"",""time""
""fullscreenenter"",""1"",""2121""
","
","","","1629","","","20","9666","4504","f","elianto","#3366ff99"," "," ","1","+10","[2479.600000023842]","1","2","","","9666","25","1","1","win","go","0"
"pit-trial","144","1053907","0.0-30.0","battery-v0.2","","""event"",""trial"",""time""
""fullscreenenter"",""1"",""2121""
","
","
","""event"",""trial"",""time""
""fullscreenenter"",""1"",""2121""
","
","","","-1","","","20","9666","4504","n","elianto","#f73b6a7A","-1","-1","1","0","[]","0","2","","","9666","26","0","4","lose","no-go","0"
"pit-trial","145","1058766","0.0-31.0","battery-v0.2","","""event"",""trial"",""time""
""fullscreenenter"",""1"",""2121""
","
","
","""event"",""trial"",""time""
""fullscreenenter"",""1"",""2121""
","
","","","-1","","","20","9666","4504","t","elianto","#f73b6a7A","-1","-1","1","0","[]","0","2","","","9666","27","2","4","lose","no-go","0"
"pit-trial","146","1062691","0.0-32.0","battery-v0.2","","""event"",""trial"",""time""
""fullscreenenter"",""1"",""2121""
","
","
","""event"",""trial"",""time""
""fullscreenenter"",""1"",""2121""
","
","","","1069.300000011921","","","20","9666","4504","b","elianto","#f73b6a7A"," "," ","1","0","[1919.300000011921]","1","2","","","9666","28","3","3","lose","go","0"
"pit-trial","147","1066766","0.0-33.0","battery-v0.2","","""event"",""trial"",""time""
""fullscreenenter"",""1"",""2121""
","
","
","""event"",""trial"",""time""
""fullscreenenter"",""1"",""2121""
","
","","","1218.6000000238419","","","20","9666","4504","f","elianto","#3366ff99"," "," ","1","+10","[2069.099999964237]","1","2","","","9666","29","1","1","win","go","0"
"pit-trial","148","1071624","0.0-34.0","battery-v0.2","","""event"",""trial"",""time""
""fullscreenenter"",""1"",""2121""
","
","
","""event"",""trial"",""time""
""fullscreenenter"",""1"",""2121""
","
","","","-1","","","20","9666","4504","n","elianto","#f73b6a7A","-1","-1","1","0","[]","0","2","","","9666","30","0","4","lose","no-go","0"
"pit-trial","149","1076483","0.0-35.0","battery-v0.2","","""event"",""trial"",""time""
""fullscreenenter"",""1"",""2121""
","
","
","""event"",""trial"",""time""
""fullscreenenter"",""1"",""2121""
","
","","","-1","","","20","9666","4504","t","elianto","#f73b6a7A","-1","-1","1","0","[]","0","2","","","9666","31","2","4","lose","no-go","0"
"pit-trial","150","1080616","0.0-36.0","battery-v0.2","","""event"",""trial"",""time""
""fullscreenenter"",""1"",""2121""
","
","
","""event"",""trial"",""time""
""fullscreenenter"",""1"",""2121""
","
","","","1274.300000011921","","","20","9666","4504","b","elianto","#f73b6a7A"," "," ","1","0","[2124.800000011921]","1","2","","","9666","32","3","3","lose","go","0"
"pit-trial","151","1084253","0.0-37.0","battery-v0.2","","""event"",""trial"",""time""
""fullscreenenter"",""1"",""2121""
","
","
","""event"",""trial"",""time""
""fullscreenenter"",""1"",""2121""
","
","","","779.4000000357628","","","20","9666","4504","f","elianto","#3366ff99"," "," ","1","+10","[1630.0999999642372]","1","2","","","9666","33","1","1","win","go","0"
"pit-trial","152","1088051","0.0-38.0","battery-v0.2","","""event"",""trial"",""time""
""fullscreenenter"",""1"",""2121""
","
","
","""event"",""trial"",""time""
""fullscreenenter"",""1"",""2121""
","
","","","940.1000000238419","","","20","9666","4504","b","elianto","#f73b6a7A"," "," ","1","0","[1791.300000011921]","1","2","","","9666","34","3","3","lose","go","0"
"pit-trial","153","1092909","0.0-39.0","battery-v0.2","","""event"",""trial"",""time""
""fullscreenenter"",""1"",""2121""
","
","
","""event"",""trial"",""time""
""fullscreenenter"",""1"",""2121""
","
","","","-1","","","20","9666","4504","t","elianto","#f73b6a7A","-1","-1","1","-10","[]","0","2","","","9666","35","2","4","lose","no-go","1"
"pit-trial","154","1097769","0.0-40.0","battery-v0.2","","""event"",""trial"",""time""
""fullscreenenter"",""1"",""2121""
","
","
","""event"",""trial"",""time""
""fullscreenenter"",""1"",""2121""
","
","","","-1","","","20","9666","4504","n","elianto","#f73b6a7A","-1","-1","1","0","[]","0","2","","","9666","36","0","4","lose","no-go","0"
"pit-trial","155","1101507","0.0-41.0","battery-v0.2","","""event"",""trial"",""time""
""fullscreenenter"",""1"",""2121""
","
","
","""event"",""trial"",""time""
""fullscreenenter"",""1"",""2121""
","
","","","881.7000000476837","","","20","9666","4504","f","elianto","#3366ff99"," "," ","1","+10","[1733.2000000476837]","1","2","","","9666","37","1","1","win","go","0"
"pit-trial","156","1106365","0.0-42.0","battery-v0.2","","""event"",""trial"",""time""
""fullscreenenter"",""1"",""2121""
","
","
","""event"",""trial"",""time""
""fullscreenenter"",""1"",""2121""
","
","","","-1","","","20","9666","4504","t","elianto","#f73b6a7A","-1","-1","1","0","[]","0","2","","","9666","38","2","4","lose","no-go","0"
"pit-trial","157","1110291","0.0-43.0","battery-v0.2","","""event"",""trial"",""time""
""fullscreenenter"",""1"",""2121""
","
","
","""event"",""trial"",""time""
""fullscreenenter"",""1"",""2121""
","
","","","1071","","","20","9666","4504","b","elianto","#f73b6a7A"," "," ","1","0","[1922.300000011921]","1","2","","","9666","39","3","3","lose","go","0"
"pit-trial","158","1115149","0.0-44.0","battery-v0.2","","""event"",""trial"",""time""
""fullscreenenter"",""1"",""2121""
","
","
","""event"",""trial"",""time""
""fullscreenenter"",""1"",""2121""
","
","","","-1","","","20","9666","4504","n","elianto","#f73b6a7A","-1","-1","1","0","[]","0","2","","","9666","40","0","4","lose","no-go","0"
"pit-trial","159","1118808","0.0-45.0","battery-v0.2","","""event"",""trial"",""time""
""fullscreenenter"",""1"",""2121""
","
","
","""event"",""trial"",""time""
""fullscreenenter"",""1"",""2121""
","
","","","800","","","20","9666","4504","b","elianto","#f73b6a7A"," "," ","1","0","[1651.800000011921]","1","2","","","9666","41","3","3","lose","go","0"
"pit-trial","160","1122505","0.0-46.0","battery-v0.2","","""event"",""trial"",""time""
""fullscreenenter"",""1"",""2121""
","
","
","""event"",""trial"",""time""
""fullscreenenter"",""1"",""2121""
","
","","","838.6000000238419","","","20","9666","4504","f","elianto","#3366ff99"," "," ","1","+10","[1689.300000011921]","1","2","","","9666","42","1","1","win","go","0"
"pit-trial","161","1127363","0.0-47.0","battery-v0.2","","""event"",""trial"",""time""
""fullscreenenter"",""1"",""2121""
","
","
","""event"",""trial"",""time""
""fullscreenenter"",""1"",""2121""
","
","","","-1","","","20","9666","4504","n","elianto","#f73b6a7A","-1","-1","1","0","[]","0","2","","","9666","43","0","4","lose","no-go","0"
"pit-trial","162","1132221","0.0-48.0","battery-v0.2","","""event"",""trial"",""time""
""fullscreenenter"",""1"",""2121""
","
","
","""event"",""trial"",""time""
""fullscreenenter"",""1"",""2121""
","
","","","-1","","","20","9666","4504","t","elianto","#f73b6a7A","-1","-1","1","0","[]","0","2","","","9666","44","2","4","lose","no-go","0"
"pit-trial","163","1137080","0.0-49.0","battery-v0.2","","""event"",""trial"",""time""
""fullscreenenter"",""1"",""2121""
","
","
","""event"",""trial"",""time""
""fullscreenenter"",""1"",""2121""
","
","","","-1","","","20","9666","4504","n","elianto","#f73b6a7A","-1","-1","1","0","[]","0","2","","","9666","45","0","4","lose","no-go","0"
"pit-trial","164","1140777","0.0-50.0","battery-v0.2","","""event"",""trial"",""time""
""fullscreenenter"",""1"",""2121""
","
","
","""event"",""trial"",""time""
""fullscreenenter"",""1"",""2121""
","
","","","838.8000000119209","","","20","9666","4504","b","elianto","#f73b6a7A"," "," ","1","0","[1690.5]","1","2","","","9666","46","3","3","lose","go","0"
"pit-trial","165","1145043","0.0-51.0","battery-v0.2","","""event"",""trial"",""time""
""fullscreenenter"",""1"",""2121""
","
","
","""event"",""trial"",""time""
""fullscreenenter"",""1"",""2121""
","
","","","1408","","","20","9666","4504","c","elianto","#3366ff99","-1"," ","0","0","[2258.699999988079]","1","2","","","9666","47","4","2","win","no-go","0"
"pit-trial","166","1149902","0.0-52.0","battery-v0.2","","""event"",""trial"",""time""
""fullscreenenter"",""1"",""2121""
","
","
","""event"",""trial"",""time""
""fullscreenenter"",""1"",""2121""
","
","","","-1","","","20","9666","4504","t","elianto","#f73b6a7A","-1","-1","1","0","[]","0","2","","","9666","48","2","4","lose","no-go","0"
"pit-trial","167","1153790","0.0-53.0","battery-v0.2","","""event"",""trial"",""time""
""fullscreenenter"",""1"",""2121""
","
","
","""event"",""trial"",""time""
""fullscreenenter"",""1"",""2121""
","
","","","1028.199999988079","","","20","9666","4504","b","elianto","#f73b6a7A"," "," ","1","0","[1882.5999999642372]","1","2","","","9666","49","3","3","lose","go","0"
"pit-trial","168","1158649","0.0-54.0","battery-v0.2","","""event"",""trial"",""time""
""fullscreenenter"",""1"",""2121""
","
","
","""event"",""trial"",""time""
""fullscreenenter"",""1"",""2121""
","
","","","-1","","","20","9666","4504","c","elianto","#3366ff99","-1","-1","1","+10","[]","0","2","","","9666","50","4","2","win","no-go","0"
"pit-trial","169","1163507","0.0-55.0","battery-v0.2","","""event"",""trial"",""time""
""fullscreenenter"",""1"",""2121""
","
","
","""event"",""trial"",""time""
""fullscreenenter"",""1"",""2121""
","
","","","-1","","","20","9666","4504","n","elianto","#f73b6a7A","-1","-1","1","-10","[]","0","2","","","9666","51","0","4","lose","no-go","1"
"pit-trial","170","1167422","0.0-56.0","battery-v0.2","","""event"",""trial"",""time""
""fullscreenenter"",""1"",""2121""
","
","
","""event"",""trial"",""time""
""fullscreenenter"",""1"",""2121""
","
","","","1059.300000011921","","","20","9666","4504","f","elianto","#3366ff99"," "," ","1","+10","[1910.5999999642372]","1","2","","","9666","52","1","1","win","go","0"
"pit-trial","171","1171177","0.0-57.0","battery-v0.2","","""event"",""trial"",""time""
""fullscreenenter"",""1"",""2121""
","
","
","""event"",""trial"",""time""
""fullscreenenter"",""1"",""2121""
","
","","","898.5999999642372","","","20","9666","4504","f","elianto","#3366ff99"," "," ","1","+10","[1749.8999999761581]","1","2","","","9666","53","1","1","win","go","0"
"pit-trial","172","1176036","0.0-58.0","battery-v0.2","","""event"",""trial"",""time""
""fullscreenenter"",""1"",""2121""
","
","
","""event"",""trial"",""time""
""fullscreenenter"",""1"",""2121""
","
","","","-1","","","20","9666","4504","t","elianto","#f73b6a7A","-1","-1","1","0","[]","0","2","","","9666","54","2","4","lose","no-go","0"
"pit-trial","173","1180893","0.0-59.0","battery-v0.2","","""event"",""trial"",""time""
""fullscreenenter"",""1"",""2121""
","
","
","""event"",""trial"",""time""
""fullscreenenter"",""1"",""2121""
","
","","","-1","","","20","9666","4504","n","elianto","#f73b6a7A","-1","-1","1","0","[]","0","2","","","9666","55","0","4","lose","no-go","0"
"pit-trial","174","1185411","0.0-60.0","battery-v0.2","","""event"",""trial"",""time""
""fullscreenenter"",""1"",""2121""
","
","
","""event"",""trial"",""time""
""fullscreenenter"",""1"",""2121""
","
","","","1658.6000000238419","","","20","9666","4504","c","elianto","#3366ff99","-1"," ","0","0","[2509.899999976158]","1","2","","","9666","56","4","2","win","no-go","0"
"pit-trial","175","1190270","0.0-61.0","battery-v0.2","","""event"",""trial"",""time""
""fullscreenenter"",""1"",""2121""
","
","
","""event"",""trial"",""time""
""fullscreenenter"",""1"",""2121""
","
","","","-1","","","20","9666","4504","c","elianto","#3366ff99","-1","-1","1","+10","[]","0","2","","","9666","57","4","2","win","no-go","0"
"pit-trial","176","1194409","0.0-62.0","battery-v0.2","","""event"",""trial"",""time""
""fullscreenenter"",""1"",""2121""
","
","
","""event"",""trial"",""time""
""fullscreenenter"",""1"",""2121""
","
","","","1281.3999999761581","","","20","9666","4504","b","elianto","#f73b6a7A"," "," ","1","0","[2132.699999988079]","1","2","","","9666","58","3","3","lose","go","0"
"pit-trial","177","1199267","0.0-63.0","battery-v0.2","","""event"",""trial"",""time""
""fullscreenenter"",""1"",""2121""
","
","
","""event"",""trial"",""time""
""fullscreenenter"",""1"",""2121""
","
","","","-1","","","20","9666","4504","n","elianto","#f73b6a7A","-1","-1","1","0","[]","0","2","","","9666","59","0","4","lose","no-go","0"
"pit-trial","178","1203662","0.0-64.0","battery-v0.2","","""event"",""trial"",""time""
""fullscreenenter"",""1"",""2121""
","
","
","""event"",""trial"",""time""
""fullscreenenter"",""1"",""2121""
","
","","","1535.800000011921","","","20","9666","4504","f","elianto","#3366ff99"," "," ","1","0","[2387.399999976158]","1","2","","","9666","60","1","1","win","go","1"
"pit-trial","179","1207358","0.0-65.0","battery-v0.2","","""event"",""trial"",""time""
""fullscreenenter"",""1"",""2121""
","
","
","""event"",""trial"",""time""
""fullscreenenter"",""1"",""2121""
","
","","","839.6000000238419","","","20","9666","4504","f","elianto","#3366ff99"," "," ","1","+10","[1689.6000000238419]","1","2","","","9666","61","1","1","win","go","0"
"pit-trial","180","1212217","0.0-66.0","battery-v0.2","","""event"",""trial"",""time""
""fullscreenenter"",""1"",""2121""
","
","
","""event"",""trial"",""time""
""fullscreenenter"",""1"",""2121""
","
","","","-1","","","20","9666","4504","t","elianto","#f73b6a7A","-1","-1","1","0","[]","0","2","","","9666","62","2","4","lose","no-go","0"
"pit-trial","181","1215929","0.0-67.0","battery-v0.2","","""event"",""trial"",""time""
""fullscreenenter"",""1"",""2121""
","
","
","""event"",""trial"",""time""
""fullscreenenter"",""1"",""2121""
","
","","","854.1999999880791","","","20","9666","4504","b","elianto","#f73b6a7A"," "," ","1","0","[1705.3999999761581]","1","2","","","9666","63","3","3","lose","go","0"
"pit-trial","182","1220792","0.0-68.0","battery-v0.2","","""event"",""trial"",""time""
""fullscreenenter"",""1"",""2121""
","
","
","""event"",""trial"",""time""
""fullscreenenter"",""1"",""2121""
","
","","","-1","","","20","9666","4504","c","elianto","#3366ff99","-1","-1","1","+10","[]","0","2","","","9666","64","4","2","win","no-go","0"
"pit-trial","183","1225652","0.0-69.0","battery-v0.2","","""event"",""trial"",""time""
""fullscreenenter"",""1"",""2121""
","
","
","""event"",""trial"",""time""
""fullscreenenter"",""1"",""2121""
","
","","","-1","","","20","9666","4504","c","elianto","#3366ff99","-1","-1","1","0","[]","0","2","","","9666","65","4","2","win","no-go","1"
"pit-trial","184","1230511","0.0-70.0","battery-v0.2","","""event"",""trial"",""time""
""fullscreenenter"",""1"",""2121""
","
","
","""event"",""trial"",""time""
""fullscreenenter"",""1"",""2121""
","
","","","-1","","","20","9666","4504","t","elianto","#f73b6a7A","-1","-1","1","0","[]","0","2","","","9666","66","2","4","lose","no-go","0"
"pit-trial","185","1234222","0.0-71.0","battery-v0.2","","""event"",""trial"",""time""
""fullscreenenter"",""1"",""2121""
","
","
","""event"",""trial"",""time""
""fullscreenenter"",""1"",""2121""
","
","","","853.9000000357628","","","20","9666","4504","b","elianto","#f73b6a7A"," "," ","1","0","[1706.6000000238419]","1","2","","","9666","67","3","3","lose","go","0"
"pit-trial","186","1238068","0.0-72.0","battery-v0.2","","""event"",""trial"",""time""
""fullscreenenter"",""1"",""2121""
","
","
","""event"",""trial"",""time""
""fullscreenenter"",""1"",""2121""
","
","","","991.8999999761581","","","20","9666","4504","f","elianto","#3366ff99"," "," ","1","+10","[1842.8999999761581]","1","2","","","9666","68","1","1","win","go","0"
"pit-trial","187","1242169","0.0-73.0","battery-v0.2","","""event"",""trial"",""time""
""fullscreenenter"",""1"",""2121""
","
","
","""event"",""trial"",""time""
""fullscreenenter"",""1"",""2121""
","
","","","1243","","","20","9666","4504","z","elianto","#3366ff99"," "," ","1","+10","[2094]","1","2","","","9666","69","5","1","win","go","0"
"pit-trial","188","1245849","0.0-74.0","battery-v0.2","","""event"",""trial"",""time""
""fullscreenenter"",""1"",""2121""
","
","
","""event"",""trial"",""time""
""fullscreenenter"",""1"",""2121""
","
","","","820.7000000476837","","","20","9666","4504","b","elianto","#f73b6a7A"," "," ","1","-10","[1672.1000000238419]","1","2","","","9666","70","3","3","lose","go","1"
"pit-trial","189","1250706","0.0-75.0","battery-v0.2","","""event"",""trial"",""time""
""fullscreenenter"",""1"",""2121""
","
","
","""event"",""trial"",""time""
""fullscreenenter"",""1"",""2121""
","
","","","-1","","","20","9666","4504","c","elianto","#3366ff99","-1","-1","1","+10","[]","0","2","","","9666","71","4","2","win","no-go","0"
"pit-trial","190","1254521","0.0-76.0","battery-v0.2","","""event"",""trial"",""time""
""fullscreenenter"",""1"",""2121""
","
","
","""event"",""trial"",""time""
""fullscreenenter"",""1"",""2121""
","
","","","955","","","20","9666","4504","f","elianto","#3366ff99"," "," ","1","+10","[1807.699999988079]","1","2","","","9666","72","1","1","win","go","0"
"pit-trial","191","1258367","0.0-77.0","battery-v0.2","","""event"",""trial"",""time""
""fullscreenenter"",""1"",""2121""
","
","
","""event"",""trial"",""time""
""fullscreenenter"",""1"",""2121""
","
","","","987.8999999761581","","","20","9666","4504","z","elianto","#3366ff99"," "," ","1","+10","[1839.699999988079]","1","2","","","9666","73","5","1","win","go","0"
"pit-trial","192","1261971","0.0-78.0","battery-v0.2","","""event"",""trial"",""time""
""fullscreenenter"",""1"",""2121""
","
","
","""event"",""trial"",""time""
""fullscreenenter"",""1"",""2121""
","
","","","742.8000000119209","","","20","9666","4504","b","elianto","#f73b6a7A"," "," ","1","0","[1597.3999999761581]","1","2","","","9666","74","3","3","lose","go","0"
"pit-trial","193","1266830","0.0-79.0","battery-v0.2","","""event"",""trial"",""time""
""fullscreenenter"",""1"",""2121""
","
","
","""event"",""trial"",""time""
""fullscreenenter"",""1"",""2121""
","
","","","-1","","","20","9666","4504","c","elianto","#3366ff99","-1","-1","1","+10","[]","0","2","","","9666","75","4","2","win","no-go","0"
"pit-trial","194","1270505","0.0-80.0","battery-v0.2","","""event"",""trial"",""time""
""fullscreenenter"",""1"",""2121""
","
","
","""event"",""trial"",""time""
""fullscreenenter"",""1"",""2121""
","
","","","818.5","","","20","9666","4504","f","elianto","#3366ff99"," "," ","1","0","[1669.5]","1","2","","","9666","76","1","1","win","go","1"
"pit-trial","195","1275364","0.0-81.0","battery-v0.2","","""event"",""trial"",""time""
""fullscreenenter"",""1"",""2121""
","
","
","""event"",""trial"",""time""
""fullscreenenter"",""1"",""2121""
","
","","","-1","","","20","9666","4504","c","elianto","#3366ff99","-1","-1","1","+10","[]","0","2","","","9666","77","4","2","win","no-go","0"
"pit-trial","196","1279327","0.0-82.0","battery-v0.2","","""event"",""trial"",""time""
""fullscreenenter"",""1"",""2121""
","
","
","""event"",""trial"",""time""
""fullscreenenter"",""1"",""2121""
","
","","","1105","","","20","9666","4504","z","elianto","#3366ff99"," "," ","1","+10","[1956]","1","2","","","9666","78","5","1","win","go","0"
"pit-trial","197","1283406","0.0-83.0","battery-v0.2","","""event"",""trial"",""time""
""fullscreenenter"",""1"",""2121""
","
","
","""event"",""trial"",""time""
""fullscreenenter"",""1"",""2121""
","
","","","1221.800000011921","","","20","9666","4504","h","elianto","#f73b6a7A","-1"," ","0","-10","[2071.7000000476837]","1","2","","","9666","79","6","4","lose","no-go","0"
"pit-trial","198","1287055","0.0-84.0","battery-v0.2","","""event"",""trial"",""time""
""fullscreenenter"",""1"",""2121""
","
","
","""event"",""trial"",""time""
""fullscreenenter"",""1"",""2121""
","
","","","790.0999999642372","","","20","9666","4504","b","elianto","#f73b6a7A"," "," ","1","0","[1644.199999988079]","1","2","","","9666","80","3","3","lose","go","0"
"pit-trial","199","1291103","0.0-85.0","battery-v0.2","","""event"",""trial"",""time""
""fullscreenenter"",""1"",""2121""
","
","
","""event"",""trial"",""time""
""fullscreenenter"",""1"",""2121""
","
","","","1190.300000011921","","","20","9666","4504","z","elianto","#3366ff99"," "," ","1","0","[2040.5]","1","2","","","9666","81","5","1","win","go","1"
"pit-trial","200","1295450","0.0-86.0","battery-v0.2","","""event"",""trial"",""time""
""fullscreenenter"",""1"",""2121""
","
","
","""event"",""trial"",""time""
""fullscreenenter"",""1"",""2121""
","
","","","1488.8999999761581","","","20","9666","4504","y","elianto","#f73b6a7A"," "," ","1","0","[2339.599999964237]","1","2","","","9666","82","7","3","lose","go","0"
"pit-trial","201","1300308","0.0-87.0","battery-v0.2","","""event"",""trial"",""time""
""fullscreenenter"",""1"",""2121""
","
","
","""event"",""trial"",""time""
""fullscreenenter"",""1"",""2121""
","
","","","-1","","","20","9666","4504","h","elianto","#f73b6a7A","-1","-1","1","0","[]","0","2","","","9666","83","6","4","lose","no-go","0"
"pit-trial","202","1305167","0.0-88.0","battery-v0.2","","""event"",""trial"",""time""
""fullscreenenter"",""1"",""2121""
","
","
","""event"",""trial"",""time""
""fullscreenenter"",""1"",""2121""
","
","","","-1","","","20","9666","4504","c","elianto","#3366ff99","-1","-1","1","+10","[]","0","2","","","9666","84","4","2","win","no-go","0"
"pit-trial","203","1309060","0.0-89.0","battery-v0.2","","""event"",""trial"",""time""
""fullscreenenter"",""1"",""2121""
","
","
","""event"",""trial"",""time""
""fullscreenenter"",""1"",""2121""
","
","","","1038.699999988079","","","20","9666","4504","z","elianto","#3366ff99"," "," ","1","+10","[1889.5]","1","2","","","9666","85","5","1","win","go","0"
"pit-trial","204","1313919","0.0-90.0","battery-v0.2","","""event"",""trial"",""time""
""fullscreenenter"",""1"",""2121""
","
","
","""event"",""trial"",""time""
""fullscreenenter"",""1"",""2121""
","
","","","-1","","","20","9666","4504","c","elianto","#3366ff99","-1","-1","1","+10","[]","0","2","","","9666","86","4","2","win","no-go","0"
"pit-trial","205","1318063","0.0-91.0","battery-v0.2","","""event"",""trial"",""time""
""fullscreenenter"",""1"",""2121""
","
","
","""event"",""trial"",""time""
""fullscreenenter"",""1"",""2121""
","
","","","1288.699999988079","","","20","9666","4504","y","elianto","#f73b6a7A"," "," ","1","0","[2139.5]","1","2","","","9666","87","7","3","lose","go","0"
"pit-trial","206","1322922","0.0-92.0","battery-v0.2","","""event"",""trial"",""time""
""fullscreenenter"",""1"",""2121""
","
","
","""event"",""trial"",""time""
""fullscreenenter"",""1"",""2121""
","
","","","-1","","","20","9666","4504","h","elianto","#f73b6a7A","-1","-1","1","0","[]","0","2","","","9666","88","6","4","lose","no-go","0"
"pit-trial","207","1327781","0.0-93.0","battery-v0.2","","""event"",""trial"",""time""
""fullscreenenter"",""1"",""2121""
","
","
","""event"",""trial"",""time""
""fullscreenenter"",""1"",""2121""
","
","","","-1","","","20","9666","4504","h","elianto","#f73b6a7A","-1","-1","1","0","[]","0","2","","","9666","89","6","4","lose","no-go","0"
"pit-trial","208","1331519","0.0-94.0","battery-v0.2","","""event"",""trial"",""time""
""fullscreenenter"",""1"",""2121""
","
","
","""event"",""trial"",""time""
""fullscreenenter"",""1"",""2121""
","
","","","883.5","","","20","9666","4504","y","elianto","#f73b6a7A"," "," ","1","0","[1734]","1","2","","","9666","90","7","3","lose","go","0"
"pit-trial","209","1336382","0.0-95.0","battery-v0.2","","""event"",""trial"",""time""
""fullscreenenter"",""1"",""2121""
","
","
","""event"",""trial"",""time""
""fullscreenenter"",""1"",""2121""
","
","","","-1","","","20","9666","4504","c","elianto","#3366ff99","-1","-1","1","+10","[]","0","2","","","9666","91","4","2","win","no-go","0"
"pit-trial","210","1340261","0.0-96.0","battery-v0.2","","""event"",""trial"",""time""
""fullscreenenter"",""1"",""2121""
","
","
","""event"",""trial"",""time""
""fullscreenenter"",""1"",""2121""
","
","","","1019.4000000357628","","","20","9666","4504","z","elianto","#3366ff99"," "," ","1","0","[1870.699999988079]","1","2","","","9666","92","5","1","win","go","1"
"pit-trial","211","1345119","0.0-97.0","battery-v0.2","","""event"",""trial"",""time""
""fullscreenenter"",""1"",""2121""
","
","
","""event"",""trial"",""time""
""fullscreenenter"",""1"",""2121""
","
","","","-1","","","20","9666","4504","h","elianto","#f73b6a7A","-1","-1","1","0","[]","0","2","","","9666","93","6","4","lose","no-go","0"
"pit-trial","212","1349423","0.0-98.0","battery-v0.2","","""event"",""trial"",""time""
""fullscreenenter"",""1"",""2121""
","
","
","""event"",""trial"",""time""
""fullscreenenter"",""1"",""2121""
","
","","","1448.5","","","20","9666","4504","z","elianto","#3366ff99"," "," ","1","+10","[2298.599999964237]","1","2","","","9666","94","5","1","win","go","0"
"pit-trial","213","1354280","0.0-99.0","battery-v0.2","","""event"",""trial"",""time""
""fullscreenenter"",""1"",""2121""
","
","
","""event"",""trial"",""time""
""fullscreenenter"",""1"",""2121""
","
","","","-1","","","20","9666","4504","r","elianto","#3366ff99","-1","-1","1","+10","[]","0","2","","","9666","95","8","2","win","no-go","0"
"pit-trial","214","1358138","0.0-100.0","battery-v0.2","","""event"",""trial"",""time""
""fullscreenenter"",""1"",""2121""
","
","
","""event"",""trial"",""time""
""fullscreenenter"",""1"",""2121""
","
","","","1000.5999999642372","","","20","9666","4504","y","elianto","#f73b6a7A"," "," ","1","0","[1853.7999999523163]","1","2","","","9666","96","7","3","lose","go","0"
"pit-trial","215","1362095","0.0-101.0","battery-v0.2","","""event"",""trial"",""time""
""fullscreenenter"",""1"",""2121""
","
","
","""event"",""trial"",""time""
""fullscreenenter"",""1"",""2121""
","
","","","1100.6000000238419","","","20","9666","4504","y","elianto","#f73b6a7A"," "," ","1","0","[1951.4000000357628]","1","2","","","9666","97","7","3","lose","go","0"
"pit-trial","216","1365962","0.0-102.0","battery-v0.2","","""event"",""trial"",""time""
""fullscreenenter"",""1"",""2121""
","
","
","""event"",""trial"",""time""
""fullscreenenter"",""1"",""2121""
","
","","","1010.8999999761581","","","20","9666","4504","z","elianto","#3366ff99"," "," ","1","+10","[1861.5999999642372]","1","2","","","9666","98","5","1","win","go","0"
"pit-trial","217","1370821","0.0-103.0","battery-v0.2","","""event"",""trial"",""time""
""fullscreenenter"",""1"",""2121""
","
","
","""event"",""trial"",""time""
""fullscreenenter"",""1"",""2121""
","
","","","-1","","","20","9666","4504","h","elianto","#f73b6a7A","-1","-1","1","0","[]","0","2","","","9666","99","6","4","lose","no-go","0"
"pit-trial","218","1375679","0.0-104.0","battery-v0.2","","""event"",""trial"",""time""
""fullscreenenter"",""1"",""2121""
","
","
","""event"",""trial"",""time""
""fullscreenenter"",""1"",""2121""
","
","","","-1","","","20","9666","4504","r","elianto","#3366ff99","-1","-1","1","+10","[]","0","2","","","9666","100","8","2","win","no-go","0"
"pit-trial","219","1379338","0.0-105.0","battery-v0.2","","""event"",""trial"",""time""
""fullscreenenter"",""1"",""2121""
","
","
","""event"",""trial"",""time""
""fullscreenenter"",""1"",""2121""
","
","","","799.8999999761581","","","20","9666","4504","z","elianto","#3366ff99"," "," ","1","+10","[1654.8999999761581]","1","2","","","9666","101","5","1","win","go","0"
"pit-trial","220","1384196","0.0-106.0","battery-v0.2","","""event"",""trial"",""time""
""fullscreenenter"",""1"",""2121""
","
","
","""event"",""trial"",""time""
""fullscreenenter"",""1"",""2121""
","
","","","-1","","","20","9666","4504","h","elianto","#f73b6a7A","-1","-1","1","-10","[]","0","2","","","9666","102","6","4","lose","no-go","1"
"pit-trial","221","1389055","0.0-107.0","battery-v0.2","","""event"",""trial"",""time""
""fullscreenenter"",""1"",""2121""
","
","
","""event"",""trial"",""time""
""fullscreenenter"",""1"",""2121""
","
","","","-1","","","20","9666","4504","r","elianto","#3366ff99","-1","-1","1","+10","[]","0","2","","","9666","103","8","2","win","no-go","0"
"pit-trial","222","1393584","0.0-108.0","battery-v0.2","","""event"",""trial"",""time""
""fullscreenenter"",""1"",""2121""
","
","
","""event"",""trial"",""time""
""fullscreenenter"",""1"",""2121""
","
","","","1670","","","20","9666","4504","m","elianto","#3366ff99","-1"," ","0","+10","[2521.7999999523163]","1","2","","","9666","104","9","2","win","no-go","1"
"pit-trial","223","1398442","0.0-109.0","battery-v0.2","","""event"",""trial"",""time""
""fullscreenenter"",""1"",""2121""
","
","
","""event"",""trial"",""time""
""fullscreenenter"",""1"",""2121""
","
","","","-1","","","20","9666","4504","h","elianto","#f73b6a7A","-1","-1","1","0","[]","0","2","","","9666","105","6","4","lose","no-go","0"
"pit-trial","224","1402154","0.0-110.0","battery-v0.2","","""event"",""trial"",""time""
""fullscreenenter"",""1"",""2121""
","
","
","""event"",""trial"",""time""
""fullscreenenter"",""1"",""2121""
","
","","","855.3000000119209","","","20","9666","4504","z","elianto","#3366ff99"," "," ","1","+10","[1706.3999999761581]","1","2","","","9666","106","5","1","win","go","0"
"pit-trial","225","1407017","0.0-111.0","battery-v0.2","","""event"",""trial"",""time""
""fullscreenenter"",""1"",""2121""
","
","
","""event"",""trial"",""time""
""fullscreenenter"",""1"",""2121""
","
","","","-1","","","20","9666","4504","r","elianto","#3366ff99","-1","-1","1","0","[]","0","2","","","9666","107","8","2","win","no-go","1"
"pit-trial","226","1411087","0.0-112.0","battery-v0.2","","""event"",""trial"",""time""
""fullscreenenter"",""1"",""2121""
","
","
","""event"",""trial"",""time""
""fullscreenenter"",""1"",""2121""
","
","","","1211.300000011921","","","20","9666","4504","m","elianto","#3366ff99","-1"," ","0","0","[2063.5]","1","2","","","9666","108","9","2","win","no-go","0"
"pit-trial","227","1415027","0.0-113.0","battery-v0.2","","""event"",""trial"",""time""
""fullscreenenter"",""1"",""2121""
","
","
","""event"",""trial"",""time""
""fullscreenenter"",""1"",""2121""
","
","","","1082.3999999761581","","","20","9666","4504","m","elianto","#3366ff99","-1"," ","0","+10","[1933.199999988079]","1","2","","","9666","109","9","2","win","no-go","1"
"pit-trial","228","1419888","0.0-114.0","battery-v0.2","","""event"",""trial"",""time""
""fullscreenenter"",""1"",""2121""
","
","
","""event"",""trial"",""time""
""fullscreenenter"",""1"",""2121""
","
","","","-1","","","20","9666","4504","h","elianto","#f73b6a7A","-1","-1","1","0","[]","0","2","","","9666","110","6","4","lose","no-go","0"
"pit-trial","229","1423546","0.0-115.0","battery-v0.2","","""event"",""trial"",""time""
""fullscreenenter"",""1"",""2121""
","
","
","""event"",""trial"",""time""
""fullscreenenter"",""1"",""2121""
","
","","","799.5","","","20","9666","4504","z","elianto","#3366ff99"," "," ","1","+10","[1650.3999999761581]","1","2","","","9666","111","5","1","win","go","0"
"pit-trial","230","1428405","0.0-116.0","battery-v0.2","","""event"",""trial"",""time""
""fullscreenenter"",""1"",""2121""
","
","
","""event"",""trial"",""time""
""fullscreenenter"",""1"",""2121""
","
","","","-1","","","20","9666","4504","r","elianto","#3366ff99","-1","-1","1","+10","[]","0","2","","","9666","112","8","2","win","no-go","0"
"pit-trial","231","1433264","0.0-117.0","battery-v0.2","","""event"",""trial"",""time""
""fullscreenenter"",""1"",""2121""
","
","
","""event"",""trial"",""time""
""fullscreenenter"",""1"",""2121""
","
","","","-1","","","20","9666","4504","r","elianto","#3366ff99","-1","-1","1","+10","[]","0","2","","","9666","113","8","2","win","no-go","0"
"pit-trial","232","1438123","0.0-118.0","battery-v0.2","","""event"",""trial"",""time""
""fullscreenenter"",""1"",""2121""
","
","
","""event"",""trial"",""time""
""fullscreenenter"",""1"",""2121""
","
","","","-1","","","20","9666","4504","m","elianto","#3366ff99","-1","-1","1","+10","[4375.899999976158]","1","2","","","9666","114","9","2","win","no-go","0"
"pit-trial","233","1441856","0.0-119.0","battery-v0.2","","""event"",""trial"",""time""
""fullscreenenter"",""1"",""2121""
","
","
","""event"",""trial"",""time""
""fullscreenenter"",""1"",""2121""
","
","","","871.7000000476837","","","20","9666","4504","y","elianto","#f73b6a7A"," "," ","1","0","[1726.1000000238419]","1","2","","","9666","115","7","3","lose","go","0"
"pit-trial","234","1445701","0.0-120.0","battery-v0.2","","""event"",""trial"",""time""
""fullscreenenter"",""1"",""2121""
","
","
","""event"",""trial"",""time""
""fullscreenenter"",""1"",""2121""
","
","","","984.8000000119209","","","20","9666","4504","z","elianto","#3366ff99"," "," ","1","+10","[1839.8999999761581]","1","2","","","9666","116","5","1","win","go","0"
"pit-trial","235","1449339","0.0-121.0","battery-v0.2","","""event"",""trial"",""time""
""fullscreenenter"",""1"",""2121""
","
","
","""event"",""trial"",""time""
""fullscreenenter"",""1"",""2121""
","
","","","781.5999999642372","","","20","9666","4504","z","elianto","#3366ff99"," "," ","1","+10","[1633.800000011921]","1","2","","","9666","117","5","1","win","go","0"
"pit-trial","236","1454197","0.0-122.0","battery-v0.2","","""event"",""trial"",""time""
""fullscreenenter"",""1"",""2121""
","
","
","""event"",""trial"",""time""
""fullscreenenter"",""1"",""2121""
","
","","","-1","","","20","9666","4504","r","elianto","#3366ff99","-1","-1","1","+10","[]","0","2","","","9666","118","8","2","win","no-go","0"
"pit-trial","237","1459055","0.0-123.0","battery-v0.2","","""event"",""trial"",""time""
""fullscreenenter"",""1"",""2121""
","
","
","""event"",""trial"",""time""
""fullscreenenter"",""1"",""2121""
","
","","","-1","","","20","9666","4504","h","elianto","#f73b6a7A","-1","-1","1","0","[]","0","2","","","9666","119","6","4","lose","no-go","0"
"pit-trial","238","1462805","0.0-124.0","battery-v0.2","","""event"",""trial"",""time""
""fullscreenenter"",""1"",""2121""
","
","
","""event"",""trial"",""time""
""fullscreenenter"",""1"",""2121""
","
","","","890.5","","","20","9666","4504","m","elianto","#3366ff99","-1"," ","0","0","[1742.300000011921]","1","2","","","9666","120","9","2","win","no-go","0"
"pit-trial","239","1467663","0.0-125.0","battery-v0.2","","""event"",""trial"",""time""
""fullscreenenter"",""1"",""2121""
","
","
","""event"",""trial"",""time""
""fullscreenenter"",""1"",""2121""
","
","","","-1","","","20","9666","4504","m","elianto","#3366ff99","-1","-1","1","+10","[]","0","2","","","9666","121","9","2","win","no-go","0"
"pit-trial","240","1471467","0.0-126.0","battery-v0.2","","""event"",""trial"",""time""
""fullscreenenter"",""1"",""2121""
","
","
","""event"",""trial"",""time""
""fullscreenenter"",""1"",""2121""
","
","","","948.3000000119209","","","20","9666","4504","y","elianto","#f73b6a7A"," "," ","1","0","[1800.300000011921]","1","2","","","9666","122","7","3","lose","go","0"
"pit-trial","241","1475232","0.0-127.0","battery-v0.2","","""event"",""trial"",""time""
""fullscreenenter"",""1"",""2121""
","
","
","""event"",""trial"",""time""
""fullscreenenter"",""1"",""2121""
","
","","","903.1999999880791","","","20","9666","4504","z","elianto","#3366ff99"," "," ","1","0","[1758]","1","2","","","9666","123","5","1","win","go","1"
"pit-trial","242","1480090","0.0-128.0","battery-v0.2","","""event"",""trial"",""time""
""fullscreenenter"",""1"",""2121""
","
","
","""event"",""trial"",""time""
""fullscreenenter"",""1"",""2121""
","
","","","-1","","","20","9666","4504","r","elianto","#3366ff99","-1","-1","1","+10","[]","0","2","","","9666","124","8","2","win","no-go","0"
"pit-trial","243","1484949","0.0-129.0","battery-v0.2","","""event"",""trial"",""time""
""fullscreenenter"",""1"",""2121""
","
","
","""event"",""trial"",""time""
""fullscreenenter"",""1"",""2121""
","
","","","-1","","","20","9666","4504","r","elianto","#3366ff99","-1","-1","1","+10","[]","0","2","","","9666","125","8","2","win","no-go","0"
"pit-trial","244","1489812","0.0-130.0","battery-v0.2","","""event"",""trial"",""time""
""fullscreenenter"",""1"",""2121""
","
","
","""event"",""trial"",""time""
""fullscreenenter"",""1"",""2121""
","
","","","-1","","","20","9666","4504","h","elianto","#f73b6a7A","-1","-1","1","0","[]","0","2","","","9666","126","6","4","lose","no-go","0"
"pit-trial","245","1494672","0.0-131.0","battery-v0.2","","""event"",""trial"",""time""
""fullscreenenter"",""1"",""2121""
","
","
","""event"",""trial"",""time""
""fullscreenenter"",""1"",""2121""
","
","","","-1","","","20","9666","4504","m","elianto","#3366ff99","-1","-1","1","0","[]","0","2","","","9666","127","9","2","win","no-go","1"
"pit-trial","246","1498330","0.0-132.0","battery-v0.2","","""event"",""trial"",""time""
""fullscreenenter"",""1"",""2121""
","
","
","""event"",""trial"",""time""
""fullscreenenter"",""1"",""2121""
","
","","","801.8999999761581","","","20","9666","4504","y","elianto","#f73b6a7A"," "," ","1","0","[1652.699999988079]","1","2","","","9666","128","7","3","lose","go","0"
"pit-trial","247","1503189","0.0-133.0","battery-v0.2","","""event"",""trial"",""time""
""fullscreenenter"",""1"",""2121""
","
","
","""event"",""trial"",""time""
""fullscreenenter"",""1"",""2121""
","
","","","-1","","","20","9666","4504","h","elianto","#f73b6a7A","-1","-1","1","0","[]","0","2","","","9666","129","6","4","lose","no-go","0"
"pit-trial","248","1506945","0.0-134.0","battery-v0.2","","""event"",""trial"",""time""
""fullscreenenter"",""1"",""2121""
","
","
","""event"",""trial"",""time""
""fullscreenenter"",""1"",""2121""
","
","","","899.0999999642372","","","20","9666","4504","y","elianto","#f73b6a7A"," "," ","1","0","[1750.1000000238419]","1","2","","","9666","130","7","3","lose","go","0"
"pit-trial","249","1511807","0.0-135.0","battery-v0.2","","""event"",""trial"",""time""
""fullscreenenter"",""1"",""2121""
","
","
","""event"",""trial"",""time""
""fullscreenenter"",""1"",""2121""
","
","","","-1","","","20","9666","4504","r","elianto","#3366ff99","-1","-1","1","+10","[]","0","2","","","9666","131","8","2","win","no-go","0"
"pit-trial","250","1515600","0.0-136.0","battery-v0.2","","""event"",""trial"",""time""
""fullscreenenter"",""1"",""2121""
","
","
","""event"",""trial"",""time""
""fullscreenenter"",""1"",""2121""
","
","","","936.7999999523163","","","20","9666","4504","m","elianto","#3366ff99","-1"," ","0","0","[1787.8999999761581]","1","2","","","9666","132","9","2","win","no-go","0"
"pit-trial","251","1520459","0.0-137.0","battery-v0.2","","""event"",""trial"",""time""
""fullscreenenter"",""1"",""2121""
","
","
","""event"",""trial"",""time""
""fullscreenenter"",""1"",""2121""
","
","","","-1","","","20","9666","4504","r","elianto","#3366ff99","-1","-1","1","+10","[]","0","2","","","9666","133","8","2","win","no-go","0"
"pit-trial","252","1525316","0.0-138.0","battery-v0.2","","""event"",""trial"",""time""
""fullscreenenter"",""1"",""2121""
","
","
","""event"",""trial"",""time""
""fullscreenenter"",""1"",""2121""
","
","","","-1","","","20","9666","4504","h","elianto","#f73b6a7A","-1","-1","1","0","[]","0","2","","","9666","134","6","4","lose","no-go","0"
"pit-trial","253","1529168","0.0-139.0","battery-v0.2","","""event"",""trial"",""time""
""fullscreenenter"",""1"",""2121""
","
","
","""event"",""trial"",""time""
""fullscreenenter"",""1"",""2121""
","
","","","992.1000000238419","","","20","9666","4504","y","elianto","#f73b6a7A"," "," ","1","-10","[1845.1000000238419]","1","2","","","9666","135","7","3","lose","go","1"
"pit-trial","254","1533099","0.0-140.0","battery-v0.2","","""event"",""trial"",""time""
""fullscreenenter"",""1"",""2121""
","
","
","""event"",""trial"",""time""
""fullscreenenter"",""1"",""2121""
","
","","","1073.300000011921","","","20","9666","4504","m","elianto","#3366ff99","-1"," ","0","0","[1924]","1","2","","","9666","136","9","2","win","no-go","0"
"pit-trial","255","1537957","0.0-141.0","battery-v0.2","","""event"",""trial"",""time""
""fullscreenenter"",""1"",""2121""
","
","
","""event"",""trial"",""time""
""fullscreenenter"",""1"",""2121""
","
","","","-1","","","20","9666","4504","r","elianto","#3366ff99","-1","-1","1","+10","[]","0","2","","","9666","137","8","2","win","no-go","0"
"pit-trial","256","1542816","0.0-142.0","battery-v0.2","","""event"",""trial"",""time""
""fullscreenenter"",""1"",""2121""
","
","
","""event"",""trial"",""time""
""fullscreenenter"",""1"",""2121""
","
","","","-1","","","20","9666","4504","h","elianto","#f73b6a7A","-1","-1","1","-10","[]","0","2","","","9666","138","6","4","lose","no-go","1"
"pit-trial","257","1547674","0.0-143.0","battery-v0.2","","""event"",""trial"",""time""
""fullscreenenter"",""1"",""2121""
","
","
","""event"",""trial"",""time""
""fullscreenenter"",""1"",""2121""
","
","","","-1","","","20","9666","4504","m","elianto","#3366ff99","-1","-1","1","+10","[]","0","2","","","9666","139","9","2","win","no-go","0"
"pit-trial","258","1551429","0.0-144.0","battery-v0.2","","""event"",""trial"",""time""
""fullscreenenter"",""1"",""2121""
","
","
","""event"",""trial"",""time""
""fullscreenenter"",""1"",""2121""
","
","","","897.4000000357628","","","20","9666","4504","y","elianto","#f73b6a7A"," "," ","1","-10","[1748.1000000238419]","1","2","","","9666","140","7","3","lose","go","1"
"pit-instructions","259","1596984","0.0-145.0","battery-v0.2","","""event"",""trial"",""time""
""fullscreenenter"",""1"",""2121""
","
","
","""event"",""trial"",""time""
""fullscreenenter"",""1"",""2121""
","
","","[{""page_index"":0,""viewing_time"":36843.89999997616},{""page_index"":1,""viewing_time"":8708.600000023842}]","45552.89999997616","","","","","","","","","","","","","","","","","","","","","","","",""
"pit-trial","260","1601846","0.0-146.0","battery-v0.2","","""event"",""trial"",""time""
""fullscreenenter"",""1"",""2121""
","
","
","""event"",""trial"",""time""
""fullscreenenter"",""1"",""2121""
","
","","","-1","","","20","9666","4504","d","elianto","#3366ff99","-1","-1","1","+10","[]","0","3","","","9666","141","1","2","win","no-go","0"
"pit-trial","261","1605627","0.0-147.0","battery-v0.2","","""event"",""trial"",""time""
""fullscreenenter"",""1"",""2121""
","
","
","""event"",""trial"",""time""
""fullscreenenter"",""1"",""2121""
","
","","","925.6999999880791","","","20","9666","4504","w","elianto","#f73b6a7A","-1"," ","0","0","[1775.800000011921]","1","3","","","9666","142","3","4","lose","no-go","1"
"pit-trial","262","1610486","0.0-148.0","battery-v0.2","","""event"",""trial"",""time""
""fullscreenenter"",""1"",""2121""
","
","
","""event"",""trial"",""time""
""fullscreenenter"",""1"",""2121""
","
","","","-1","","","20","9666","4504","j","elianto","#f73b6a7A"," ","-1","0","-10","[]","0","3","","","9666","143","0","3","lose","go","0"
"pit-trial","263","1615349","0.0-149.0","battery-v0.2","","""event"",""trial"",""time""
""fullscreenenter"",""1"",""2121""
","
","
","""event"",""trial"",""time""
""fullscreenenter"",""1"",""2121""
","
","","","-1","","","20","9666","4504","e","elianto","#f73b6a7A"," ","-1","0","-10","[]","0","3","","","9666","144","2","3","lose","go","0"
"pit-trial","264","1619692","0.0-150.0","battery-v0.2","","""event"",""trial"",""time""
""fullscreenenter"",""1"",""2121""
","
","
","""event"",""trial"",""time""
""fullscreenenter"",""1"",""2121""
","
","","","1483.5","","","20","9666","4504","d","elianto","#3366ff99","-1"," ","0","0","[2335.699999988079]","1","3","","","9666","145","1","2","win","no-go","0"
"pit-trial","265","1623937","0.0-151.0","battery-v0.2","","""event"",""trial"",""time""
""fullscreenenter"",""1"",""2121""
","
","
","""event"",""trial"",""time""
""fullscreenenter"",""1"",""2121""
","
","","","1385.1000000238419","","","20","9666","4504","w","elianto","#f73b6a7A","-1"," ","0","-10","[2239.300000011921]","1","3","","","9666","146","3","4","lose","no-go","0"
"pit-trial","266","1628796","0.0-152.0","battery-v0.2","","""event"",""trial"",""time""
""fullscreenenter"",""1"",""2121""
","
","
","""event"",""trial"",""time""
""fullscreenenter"",""1"",""2121""
","
","","","-1","","","20","9666","4504","e","elianto","#f73b6a7A"," ","-1","0","-10","[]","0","3","","","9666","147","2","3","lose","go","0"
"pit-trial","267","1632596","0.0-153.0","battery-v0.2","","""event"",""trial"",""time""
""fullscreenenter"",""1"",""2121""
","
","
","""event"",""trial"",""time""
""fullscreenenter"",""1"",""2121""
","
","","","942","","","20","9666","4504","j","elianto","#f73b6a7A"," "," ","1","0","[1793.6000000238419]","1","3","","","9666","148","0","3","lose","go","0"
"pit-trial","268","1636785","0.0-154.0","battery-v0.2","","""event"",""trial"",""time""
""fullscreenenter"",""1"",""2121""
","
","
","""event"",""trial"",""time""
""fullscreenenter"",""1"",""2121""
","
","","","1328.8999999761581","","","20","9666","4504","e","elianto","#f73b6a7A"," "," ","1","-10","[2181.800000011921]","1","3","","","9666","149","2","3","lose","go","1"
