"trial_type","trial_index","time_elapsed","internal_node_id","task_version","subject_id","interactions","blur_events","focus_events","fullscreenenter_events","fullscreenexit_events","success","view_history","rt","responses","num_errors","age","subject","participantId","rune","rune_set","hex","correct","choice","accuracy","outcome","keys","total_keys","block","practice","value","sub","trial","stimulus","robot","valence","action","sham"
"pavlovia","0","11","0.0-0.0","battery-v0.2","","""event"",""trial"",""time""
""fullscreenenter"",""1"",""2195""
","
","
","""event"",""trial"",""time""
""fullscreenenter"",""1"",""2195""
","
","","","","","","","","","","","","","","","","","","","","","","","","","","",""
"fullscreen","1","3160","0.0-1.0","battery-v0.2","","""event"",""trial"",""time""
""fullscreenenter"",""1"",""2195""
","
","
","""event"",""trial"",""time""
""fullscreenenter"",""1"",""2195""
","
","true","","","","","","","","","","","","","","","","","","","","","","","","","",""
"pit-instructions","2","10476","0.0-2.0-0.0","battery-v0.2","","""event"",""trial"",""time""
""fullscreenenter"",""1"",""2195""
","
","
","""event"",""trial"",""time""
""fullscreenenter"",""1"",""2195""
","
","","[{""page_index"":0,""viewing_time"":7310.400000095367}]","7311.099999904633","","","","","","","","","","","","","","","","","","","","","","","",""
"pit-comprehension","3","15611","0.0-2.0-1.0-0.0","battery-v0.2","","""event"",""trial"",""time""
""fullscreenenter"",""1"",""2195""
","
","
","""event"",""trial"",""time""
""fullscreenenter"",""1"",""2195""
","
","","","5129.399999856949","[""shark""]","0","20","12656","3041","","","","","","","","","","","","","","","","","","",""
"pit-instructions","4","17094","0.0-2.0-1.0-1.0","battery-v0.2","","""event"",""trial"",""time""
""fullscreenenter"",""1"",""2195""
","
","
","""event"",""trial"",""time""
""fullscreenenter"",""1"",""2195""
","
","","[{""page_index"":0,""viewing_time"":1468.1000001430511}]","1468.6000001430511","","","","","","","","","","","","","","","","","","","","","","","",""
"pit-comprehension","5","21256","0.0-2.0-2.0-0.0","battery-v0.2","","""event"",""trial"",""time""
""fullscreenenter"",""1"",""2195""
","
","
","""event"",""trial"",""time""
""fullscreenenter"",""1"",""2195""
","
","","","4156.300000190735","[""tiger""]","0","20","12656","3041","","","","","","","","","","","","","","","","","","",""
"pit-instructions","6","22503","0.0-2.0-2.0-1.0","battery-v0.2","","""event"",""trial"",""time""
""fullscreenenter"",""1"",""2195""
","
","
","""event"",""trial"",""time""
""fullscreenenter"",""1"",""2195""
","
","","[{""page_index"":0,""viewing_time"":1241.8999998569489}]","1242.5","","","","","","","","","","","","","","","","","","","","","","","",""
"pit-instructions","7","123769","0.0-2.0-3.0","battery-v0.2","","""event"",""trial"",""time""
""fullscreenenter"",""1"",""2195""
","
","
","""event"",""trial"",""time""
""fullscreenenter"",""1"",""2195""
","
","","[{""page_index"":0,""viewing_time"":8135.400000095367},{""page_index"":1,""viewing_time"":7053.400000095367},{""page_index"":2,""viewing_time"":7585},{""page_index"":3,""viewing_time"":5555.399999856949},{""page_index"":4,""viewing_time"":6290},{""page_index"":5,""viewing_time"":5983.400000095367},{""page_index"":6,""viewing_time"":8154.200000047684},{""page_index"":7,""viewing_time"":7263.199999809265},{""page_index"":8,""viewing_time"":7793},{""page_index"":9,""viewing_time"":8383.300000190735},{""page_index"":10,""viewing_time"":8513.199999809265},{""page_index"":11,""viewing_time"":7348.200000047684},{""page_index"":12,""viewing_time"":6820.5},{""page_index"":13,""viewing_time"":6383.700000047684}]","101262.40000009537","","","","","","","","","","","","","","","","","","","","","","","",""
"pit-trial","8","127135","0.0-2.0-4.0-0.0","battery-v0.2","","""event"",""trial"",""time""
""fullscreenenter"",""1"",""2195""
","
","
","""event"",""trial"",""time""
""fullscreenenter"",""1"",""2195""
","
","","","501","","","20","12656","3041","&#9784;","elianto","#FFFFF080"," "," ","1","&#10004","[1353.7000000476837]","1","0","0","","","","","","","",""
"pit-trial","9","130605","0.0-2.0-4.1-0.1","battery-v0.2","","""event"",""trial"",""time""
""fullscreenenter"",""1"",""2195""
","
","
","""event"",""trial"",""time""
""fullscreenenter"",""1"",""2195""
","
","","","608.6999998092651","","","20","12656","3041","&#9784;","elianto","#FFFFF080"," "," ","1","&#10004","[1460.5]","1","0","0","","","","","","","",""
"pit-trial","10","133986","0.0-2.0-4.2-0.2","battery-v0.2","","""event"",""trial"",""time""
""fullscreenenter"",""1"",""2195""
","
","
","""event"",""trial"",""time""
""fullscreenenter"",""1"",""2195""
","
","","","515.3999998569489","","","20","12656","3041","&#9784;","elianto","#FFFFF080"," "," ","1","&#10004","[1365.8999998569489]","1","0","0","","","","","","","",""
"pit-trial","11","137348","0.0-2.0-4.3-0.3","battery-v0.2","","""event"",""trial"",""time""
""fullscreenenter"",""1"",""2195""
","
","
","""event"",""trial"",""time""
""fullscreenenter"",""1"",""2195""
","
","","","501.59999990463257","","","20","12656","3041","&#9784;","elianto","#FFFFF080"," "," ","1","&#10004","[1353.2000000476837]","1","0","0","","","","","","","",""
"pit-trial","12","140664","0.0-2.0-4.4-0.4","battery-v0.2","","""event"",""trial"",""time""
""fullscreenenter"",""1"",""2195""
","
","
","""event"",""trial"",""time""
""fullscreenenter"",""1"",""2195""
","
","","","442.89999985694885","","","20","12656","3041","&#9784;","elianto","#FFFFF080"," "," ","1","&#10004","[1298.4000000953674]","1","0","0","","","","","","","",""
"pit-instructions","13","162632","0.0-2.0-5.0","battery-v0.2","","""event"",""trial"",""time""
""fullscreenenter"",""1"",""2195""
","
","
","""event"",""trial"",""time""
""fullscreenenter"",""1"",""2195""
","
","","[{""page_index"":0,""viewing_time"":4997},{""page_index"":1,""viewing_time"":5108.700000047684},{""page_index"":2,""viewing_time"":6659.700000047684},{""page_index"":3,""viewing_time"":5197.799999952316}]","21963.800000190735","","","","","","","","","","","","","","","","","","","","","","","",""
"pit-trial","14","167501","0.0-2.0-6.0-0.0","battery-v0.2","","""event"",""trial"",""time""
""fullscreenenter"",""1"",""2195""
","
","
","""event"",""trial"",""time""
""fullscreenenter"",""1"",""2195""
","
","","","-1","","","20","12656","3041","&#9854;","elianto","#FFFFF080","-1","-1","1","&#10004","[]","0","0","1","","","","","","","",""
"pit-trial","15","172380","0.0-2.0-6.1-0.1","battery-v0.2","","""event"",""trial"",""time""
""fullscreenenter"",""1"",""2195""
","
","
","""event"",""trial"",""time""
""fullscreenenter"",""1"",""2195""
","
","","","-1","","","20","12656","3041","&#9854;","elianto","#FFFFF080","-1","-1","1","&#10004","[]","0","0","1","","","","","","","",""
"pit-trial","16","177254","0.0-2.0-6.2-0.2","battery-v0.2","","""event"",""trial"",""time""
""fullscreenenter"",""1"",""2195""
","
","
","""event"",""trial"",""time""
""fullscreenenter"",""1"",""2195""
","
","","","-1","","","20","12656","3041","&#9854;","elianto","#FFFFF080","-1","-1","1","&#10004","[]","0","0","1","","","","","","","",""
"pit-trial","17","182126","0.0-2.0-6.3-0.3","battery-v0.2","","""event"",""trial"",""time""
""fullscreenenter"",""1"",""2195""
","
","
","""event"",""trial"",""time""
""fullscreenenter"",""1"",""2195""
","
","","","-1","","","20","12656","3041","&#9854;","elianto","#FFFFF080","-1","-1","1","&#10004","[]","0","0","1","","","","","","","",""
"pit-trial","18","186993","0.0-2.0-6.4-0.4","battery-v0.2","","""event"",""trial"",""time""
""fullscreenenter"",""1"",""2195""
","
","
","""event"",""trial"",""time""
""fullscreenenter"",""1"",""2195""
","
","","","-1","","","20","12656","3041","&#9854;","elianto","#FFFFF080","-1","-1","1","&#10004","[]","0","0","1","","","","","","","",""
"pit-instructions","19","309465","0.0-2.0-7.0","battery-v0.2","","""event"",""trial"",""time""
""fullscreenenter"",""1"",""2195""
","
","
","""event"",""trial"",""time""
""fullscreenenter"",""1"",""2195""
","
","","[{""page_index"":0,""viewing_time"":6101},{""page_index"":1,""viewing_time"":7305},{""page_index"":2,""viewing_time"":6550.200000047684},{""page_index"":3,""viewing_time"":6914.400000095367},{""page_index"":4,""viewing_time"":6981.5},{""page_index"":5,""viewing_time"":6273},{""page_index"":6,""viewing_time"":4823.200000047684},{""page_index"":7,""viewing_time"":8616.099999904633},{""page_index"":8,""viewing_time"":7373.599999904633},{""page_index"":9,""viewing_time"":6528.900000095367},{""page_index"":10,""viewing_time"":6595},{""page_index"":11,""viewing_time"":4779.099999904633},{""page_index"":12,""viewing_time"":7135.600000143051},{""page_index"":13,""viewing_time"":7781.200000047684},{""page_index"":14,""viewing_time"":7757.5},{""page_index"":15,""viewing_time"":6624.599999904633},{""page_index"":16,""viewing_time"":6765},{""page_index"":17,""viewing_time"":7562.900000095367}]","122468.40000009537","","","","","","","","","","","","","","","","","","","","","","","",""
"pit-trial","20","314337","0.0-2.0-8.0-0.0","battery-v0.2","","""event"",""trial"",""time""
""fullscreenenter"",""1"",""2195""
","
","
","""event"",""trial"",""time""
""fullscreenenter"",""1"",""2195""
","
","","","-1","","","20","12656","3041","&#9776;","elianto","#3366ff99"," ","-1","0","0","[]","0","0","1","","","","","","","",""
"pit-trial","21","319201","0.0-2.0-8.0-1.0","battery-v0.2","","""event"",""trial"",""time""
""fullscreenenter"",""1"",""2195""
","
","
","""event"",""trial"",""time""
""fullscreenenter"",""1"",""2195""
","
","","","-1","","","20","12656","3041","&#9776;","elianto","#3366ff99"," ","-1","0","0","[]","0","0","1","","","","","","","",""
"pit-trial","22","324075","0.0-2.0-8.0-2.0","battery-v0.2","","""event"",""trial"",""time""
""fullscreenenter"",""1"",""2195""
","
","
","""event"",""trial"",""time""
""fullscreenenter"",""1"",""2195""
","
","","","-1","","","20","12656","3041","&#9776;","elianto","#3366ff99"," ","-1","0","0","[]","0","0","1","","","","","","","",""
"pit-trial","23","328947","0.0-2.0-8.0-3.0","battery-v0.2","","""event"",""trial"",""time""
""fullscreenenter"",""1"",""2195""
","
","
","""event"",""trial"",""time""
""fullscreenenter"",""1"",""2195""
","
","","","-1","","","20","12656","3041","&#9776;","elianto","#3366ff99"," ","-1","0","+10","[]","0","0","1","","","","","","","",""
"pit-trial","24","333813","0.0-2.0-8.0-4.0","battery-v0.2","","""event"",""trial"",""time""
""fullscreenenter"",""1"",""2195""
","
","
","""event"",""trial"",""time""
""fullscreenenter"",""1"",""2195""
","
","","","-1","","","20","12656","3041","&#9776;","elianto","#3366ff99"," ","-1","0","0","[]","0","0","1","","","","","","","",""
"pit-trial","25","338685","0.0-2.0-8.1-0.1","battery-v0.2","","""event"",""trial"",""time""
""fullscreenenter"",""1"",""2195""
","
","
","""event"",""trial"",""time""
""fullscreenenter"",""1"",""2195""
","
","","","-1","","","20","12656","3041","&#9776;","elianto","#3366ff99"," ","-1","0","0","[]","0","0","1","","","","","","","",""
"pit-trial","26","343552","0.0-2.0-8.1-1.1","battery-v0.2","","""event"",""trial"",""time""
""fullscreenenter"",""1"",""2195""
","
","
","""event"",""trial"",""time""
""fullscreenenter"",""1"",""2195""
","
","","","-1","","","20","12656","3041","&#9776;","elianto","#3366ff99"," ","-1","0","0","[]","0","0","1","","","","","","","",""
"pit-trial","27","348406","0.0-2.0-8.1-2.1","battery-v0.2","","""event"",""trial"",""time""
""fullscreenenter"",""1"",""2195""
","
","
","""event"",""trial"",""time""
""fullscreenenter"",""1"",""2195""
","
","","","-1","","","20","12656","3041","&#9776;","elianto","#3366ff99"," ","-1","0","0","[]","0","0","1","","","","","","","",""
"pit-trial","28","353261","0.0-2.0-8.1-3.1","battery-v0.2","","""event"",""trial"",""time""
""fullscreenenter"",""1"",""2195""
","
","
","""event"",""trial"",""time""
""fullscreenenter"",""1"",""2195""
","
","","","-1","","","20","12656","3041","&#9776;","elianto","#3366ff99"," ","-1","0","+10","[]","0","0","1","","","","","","","",""
"pit-trial","29","356707","0.0-2.0-8.1-4.1","battery-v0.2","","""event"",""trial"",""time""
""fullscreenenter"",""1"",""2195""
","
","
","""event"",""trial"",""time""
""fullscreenenter"",""1"",""2195""
","
","","","592.4000000953674","","","20","12656","3041","&#9776;","elianto","#3366ff99"," "," ","1","+10","[1443.2999999523163]","1","0","1","","","","","","","",""
"pit-trial","30","359864","0.0-2.0-8.2-0.2","battery-v0.2","","""event"",""trial"",""time""
""fullscreenenter"",""1"",""2195""
","
","
","""event"",""trial"",""time""
""fullscreenenter"",""1"",""2195""
","
","","","302.40000009536743","","","20","12656","3041","&#9776;","elianto","#3366ff99"," "," ","1","+10","[1153.2000000476837]","1","0","1","","","","","","","",""
"pit-trial","31","363089","0.0-2.0-8.2-1.2","battery-v0.2","","""event"",""trial"",""time""
""fullscreenenter"",""1"",""2195""
","
","
","""event"",""trial"",""time""
""fullscreenenter"",""1"",""2195""
","
","","","372.10000014305115","","","20","12656","3041","&#9776;","elianto","#3366ff99"," "," ","1","+10","[1222.5]","1","0","1","","","","","","","",""
"pit-trial","32","366340","0.0-2.0-8.2-2.2","battery-v0.2","","""event"",""trial"",""time""
""fullscreenenter"",""1"",""2195""
","
","
","""event"",""trial"",""time""
""fullscreenenter"",""1"",""2195""
","
","","","398.09999990463257","","","20","12656","3041","&#9776;","elianto","#3366ff99"," "," ","1","+10","[1248.2999999523163]","1","0","1","","","","","","","",""
"pit-trial","33","369543","0.0-2.0-8.2-3.2","battery-v0.2","","""event"",""trial"",""time""
""fullscreenenter"",""1"",""2195""
","
","
","""event"",""trial"",""time""
""fullscreenenter"",""1"",""2195""
","
","","","349.40000009536743","","","20","12656","3041","&#9776;","elianto","#3366ff99"," "," ","1","0","[1200.1000001430511]","1","0","1","","","","","","","",""
"pit-trial","34","372684","0.0-2.0-8.2-4.2","battery-v0.2","","""event"",""trial"",""time""
""fullscreenenter"",""1"",""2195""
","
","
","""event"",""trial"",""time""
""fullscreenenter"",""1"",""2195""
","
","","","287.39999985694885","","","20","12656","3041","&#9776;","elianto","#3366ff99"," "," ","1","+10","[1138.3999998569489]","1","0","1","","","","","","","",""
"call-function","35","372687","0.0-2.0-9.0","battery-v0.2","","""event"",""trial"",""time""
""fullscreenenter"",""1"",""2195""
","
","
","""event"",""trial"",""time""
""fullscreenenter"",""1"",""2195""
","
","","","","","","","","","","","","","","","","","","","","","","","","","","",""
"pit-instructions","36","416414","0.0-2.0-10.0","battery-v0.2","","""event"",""trial"",""time""
""fullscreenenter"",""1"",""2195""
","
","
","""event"",""trial"",""time""
""fullscreenenter"",""1"",""2195""
","
","","[{""page_index"":0,""viewing_time"":7948.100000143051},{""page_index"":1,""viewing_time"":6891.5},{""page_index"":2,""viewing_time"":10223.599999904633},{""page_index"":3,""viewing_time"":11057.099999904633},{""page_index"":4,""viewing_time"":7605.700000047684}]","43726.60000014305","","","","","","","","","","","","","","","","","","","","","","","",""
"pit-trial","37","420007","0.0-2.0-11.0-0.0","battery-v0.2","","""event"",""trial"",""time""
""fullscreenenter"",""1"",""2195""
","
","
","""event"",""trial"",""time""
""fullscreenenter"",""1"",""2195""
","
","","","730.2999999523163","","","20","12656","3041","&#9761;","elianto","#3366ff99","-1"," ","0","0","[1586.0999999046326]","1","0","2","","","","","","","",""
"pit-trial","38","424872","0.0-2.0-11.0-1.0","battery-v0.2","","""event"",""trial"",""time""
""fullscreenenter"",""1"",""2195""
","
","
","""event"",""trial"",""time""
""fullscreenenter"",""1"",""2195""
","
","","","-1","","","20","12656","3041","&#9761;","elianto","#3366ff99","-1","-1","1","+10","[]","0","0","2","","","","","","","",""
"pit-trial","39","429737","0.0-2.0-11.0-2.0","battery-v0.2","","""event"",""trial"",""time""
""fullscreenenter"",""1"",""2195""
","
","
","""event"",""trial"",""time""
""fullscreenenter"",""1"",""2195""
","
","","","-1","","","20","12656","3041","&#9761;","elianto","#3366ff99","-1","-1","1","+10","[]","0","0","2","","","","","","","",""
"pit-trial","40","434611","0.0-2.0-11.0-3.0","battery-v0.2","","""event"",""trial"",""time""
""fullscreenenter"",""1"",""2195""
","
","
","""event"",""trial"",""time""
""fullscreenenter"",""1"",""2195""
","
","","","-1","","","20","12656","3041","&#9761;","elianto","#3366ff99","-1","-1","1","0","[]","0","0","2","","","","","","","",""
"pit-trial","41","439478","0.0-2.0-11.0-4.0","battery-v0.2","","""event"",""trial"",""time""
""fullscreenenter"",""1"",""2195""
","
","
","""event"",""trial"",""time""
""fullscreenenter"",""1"",""2195""
","
","","","-1","","","20","12656","3041","&#9761;","elianto","#3366ff99","-1","-1","1","+10","[]","0","0","2","","","","","","","",""
"pit-trial","42","444338","0.0-2.0-11.1-0.1","battery-v0.2","","""event"",""trial"",""time""
""fullscreenenter"",""1"",""2195""
","
","
","""event"",""trial"",""time""
""fullscreenenter"",""1"",""2195""
","
","","","-1","","","20","12656","3041","&#9761;","elianto","#3366ff99","-1","-1","1","+10","[]","0","0","2","","","","","","","",""
"pit-trial","43","449196","0.0-2.0-11.1-1.1","battery-v0.2","","""event"",""trial"",""time""
""fullscreenenter"",""1"",""2195""
","
","
","""event"",""trial"",""time""
""fullscreenenter"",""1"",""2195""
","
","","","-1","","","20","12656","3041","&#9761;","elianto","#3366ff99","-1","-1","1","+10","[]","0","0","2","","","","","","","",""
"pit-trial","44","454049","0.0-2.0-11.1-2.1","battery-v0.2","","""event"",""trial"",""time""
""fullscreenenter"",""1"",""2195""
","
","
","""event"",""trial"",""time""
""fullscreenenter"",""1"",""2195""
","
","","","-1","","","20","12656","3041","&#9761;","elianto","#3366ff99","-1","-1","1","+10","[]","0","0","2","","","","","","","",""
"pit-trial","45","458903","0.0-2.0-11.1-3.1","battery-v0.2","","""event"",""trial"",""time""
""fullscreenenter"",""1"",""2195""
","
","
","""event"",""trial"",""time""
""fullscreenenter"",""1"",""2195""
","
","","","-1","","","20","12656","3041","&#9761;","elianto","#3366ff99","-1","-1","1","0","[]","0","0","2","","","","","","","",""
"pit-trial","46","463762","0.0-2.0-11.1-4.1","battery-v0.2","","""event"",""trial"",""time""
""fullscreenenter"",""1"",""2195""
","
","
","""event"",""trial"",""time""
""fullscreenenter"",""1"",""2195""
","
","","","-1","","","20","12656","3041","&#9761;","elianto","#3366ff99","-1","-1","1","+10","[]","0","0","2","","","","","","","",""
"pit-trial","47","468617","0.0-2.0-11.2-0.2","battery-v0.2","","""event"",""trial"",""time""
""fullscreenenter"",""1"",""2195""
","
","
","""event"",""trial"",""time""
""fullscreenenter"",""1"",""2195""
","
","","","-1","","","20","12656","3041","&#9761;","elianto","#3366ff99","-1","-1","1","+10","[]","0","0","2","","","","","","","",""
"pit-trial","48","473472","0.0-2.0-11.2-1.2","battery-v0.2","","""event"",""trial"",""time""
""fullscreenenter"",""1"",""2195""
","
","
","""event"",""trial"",""time""
""fullscreenenter"",""1"",""2195""
","
","","","-1","","","20","12656","3041","&#9761;","elianto","#3366ff99","-1","-1","1","+10","[]","0","0","2","","","","","","","",""
"pit-trial","49","478326","0.0-2.0-11.2-2.2","battery-v0.2","","""event"",""trial"",""time""
""fullscreenenter"",""1"",""2195""
","
","
","""event"",""trial"",""time""
""fullscreenenter"",""1"",""2195""
","
","","","-1","","","20","12656","3041","&#9761;","elianto","#3366ff99","-1","-1","1","+10","[]","0","0","2","","","","","","","",""
"pit-trial","50","483180","0.0-2.0-11.2-3.2","battery-v0.2","","""event"",""trial"",""time""
""fullscreenenter"",""1"",""2195""
","
","
","""event"",""trial"",""time""
""fullscreenenter"",""1"",""2195""
","
","","","-1","","","20","12656","3041","&#9761;","elianto","#3366ff99","-1","-1","1","0","[]","0","0","2","","","","","","","",""
"pit-trial","51","488047","0.0-2.0-11.2-4.2","battery-v0.2","","""event"",""trial"",""time""
""fullscreenenter"",""1"",""2195""
","
","
","""event"",""trial"",""time""
""fullscreenenter"",""1"",""2195""
","
","","","-1","","","20","12656","3041","&#9761;","elianto","#3366ff99","-1","-1","1","+10","[]","0","0","2","","","","","","","",""
"pit-trial","52","492902","0.0-2.0-11.3-0.3","battery-v0.2","","""event"",""trial"",""time""
""fullscreenenter"",""1"",""2195""
","
","
","""event"",""trial"",""time""
""fullscreenenter"",""1"",""2195""
","
","","","-1","","","20","12656","3041","&#9761;","elianto","#3366ff99","-1","-1","1","+10","[]","0","0","2","","","","","","","",""
"pit-trial","53","497756","0.0-2.0-11.3-1.3","battery-v0.2","","""event"",""trial"",""time""
""fullscreenenter"",""1"",""2195""
","
","
","""event"",""trial"",""time""
""fullscreenenter"",""1"",""2195""
","
","","","-1","","","20","12656","3041","&#9761;","elianto","#3366ff99","-1","-1","1","+10","[]","0","0","2","","","","","","","",""
"pit-trial","54","502608","0.0-2.0-11.3-2.3","battery-v0.2","","""event"",""trial"",""time""
""fullscreenenter"",""1"",""2195""
","
","
","""event"",""trial"",""time""
""fullscreenenter"",""1"",""2195""
","
","","","-1","","","20","12656","3041","&#9761;","elianto","#3366ff99","-1","-1","1","+10","[]","0","0","2","","","","","","","",""
"pit-trial","55","507463","0.0-2.0-11.3-3.3","battery-v0.2","","""event"",""trial"",""time""
""fullscreenenter"",""1"",""2195""
","
","
","""event"",""trial"",""time""
""fullscreenenter"",""1"",""2195""
","
","","","-1","","","20","12656","3041","&#9761;","elianto","#3366ff99","-1","-1","1","0","[]","0","0","2","","","","","","","",""
"pit-trial","56","512316","0.0-2.0-11.3-4.3","battery-v0.2","","""event"",""trial"",""time""
""fullscreenenter"",""1"",""2195""
","
","
","""event"",""trial"",""time""
""fullscreenenter"",""1"",""2195""
","
","","","-1","","","20","12656","3041","&#9761;","elianto","#3366ff99","-1","-1","1","+10","[]","0","0","2","","","","","","","",""
"call-function","57","512318","0.0-2.0-12.0","battery-v0.2","","""event"",""trial"",""time""
""fullscreenenter"",""1"",""2195""
","
","
","""event"",""trial"",""time""
""fullscreenenter"",""1"",""2195""
","
","","","","","","","","","","","","","","","","","","","","","","","","","","",""
"pit-instructions","58","545140","0.0-2.0-13.0","battery-v0.2","","""event"",""trial"",""time""
""fullscreenenter"",""1"",""2195""
","
","
","""event"",""trial"",""time""
""fullscreenenter"",""1"",""2195""
","
","","[{""page_index"":0,""viewing_time"":6125.799999952316},{""page_index"":1,""viewing_time"":7474.700000047684},{""page_index"":2,""viewing_time"":3137.9000000953674},{""page_index"":3,""viewing_time"":11146.200000047684},{""page_index"":4,""viewing_time"":4935.899999856949}]","32821.10000014305","","","","","","","","","","","","","","","","","","","","","","","",""
"pit-trial","59","548349","0.0-2.0-14.0-0.0","battery-v0.2","","""event"",""trial"",""time""
""fullscreenenter"",""1"",""2195""
","
","
","""event"",""trial"",""time""
""fullscreenenter"",""1"",""2195""
","
","","","339.7999999523163","","","20","12656","3041","&#9826;","elianto","#f73b6a7A","-1"," ","0","-10","[1189.9000000953674]","1","0","3","","","","","","","",""
"pit-trial","60","553228","0.0-2.0-14.0-1.0","battery-v0.2","","""event"",""trial"",""time""
""fullscreenenter"",""1"",""2195""
","
","
","""event"",""trial"",""time""
""fullscreenenter"",""1"",""2195""
","
","","","-1","","","20","12656","3041","&#9826;","elianto","#f73b6a7A","-1","-1","1","0","[]","0","0","3","","","","","","","",""
"pit-trial","61","558101","0.0-2.0-14.0-2.0","battery-v0.2","","""event"",""trial"",""time""
""fullscreenenter"",""1"",""2195""
","
","
","""event"",""trial"",""time""
""fullscreenenter"",""1"",""2195""
","
","","","-1","","","20","12656","3041","&#9826;","elianto","#f73b6a7A","-1","-1","1","0","[]","0","0","3","","","","","","","",""
"pit-trial","62","562975","0.0-2.0-14.0-3.0","battery-v0.2","","""event"",""trial"",""time""
""fullscreenenter"",""1"",""2195""
","
","
","""event"",""trial"",""time""
""fullscreenenter"",""1"",""2195""
","
","","","-1","","","20","12656","3041","&#9826;","elianto","#f73b6a7A","-1","-1","1","-10","[]","0","0","3","","","","","","","",""
"pit-trial","63","567849","0.0-2.0-14.0-4.0","battery-v0.2","","""event"",""trial"",""time""
""fullscreenenter"",""1"",""2195""
","
","
","""event"",""trial"",""time""
""fullscreenenter"",""1"",""2195""
","
","","","-1","","","20","12656","3041","&#9826;","elianto","#f73b6a7A","-1","-1","1","0","[]","0","0","3","","","","","","","",""
"pit-trial","64","572717","0.0-2.0-14.1-0.1","battery-v0.2","","""event"",""trial"",""time""
""fullscreenenter"",""1"",""2195""
","
","
","""event"",""trial"",""time""
""fullscreenenter"",""1"",""2195""
","
","","","-1","","","20","12656","3041","&#9826;","elianto","#f73b6a7A","-1","-1","1","0","[]","0","0","3","","","","","","","",""
"pit-trial","65","577572","0.0-2.0-14.1-1.1","battery-v0.2","","""event"",""trial"",""time""
""fullscreenenter"",""1"",""2195""
","
","
","""event"",""trial"",""time""
""fullscreenenter"",""1"",""2195""
","
","","","-1","","","20","12656","3041","&#9826;","elianto","#f73b6a7A","-1","-1","1","0","[]","0","0","3","","","","","","","",""
"pit-trial","66","582425","0.0-2.0-14.1-2.1","battery-v0.2","","""event"",""trial"",""time""
""fullscreenenter"",""1"",""2195""
","
","
","""event"",""trial"",""time""
""fullscreenenter"",""1"",""2195""
","
","","","-1","","","20","12656","3041","&#9826;","elianto","#f73b6a7A","-1","-1","1","0","[]","0","0","3","","","","","","","",""
"pit-trial","67","587278","0.0-2.0-14.1-3.1","battery-v0.2","","""event"",""trial"",""time""
""fullscreenenter"",""1"",""2195""
","
","
","""event"",""trial"",""time""
""fullscreenenter"",""1"",""2195""
","
","","","-1","","","20","12656","3041","&#9826;","elianto","#f73b6a7A","-1","-1","1","-10","[]","0","0","3","","","","","","","",""
"pit-trial","68","592132","0.0-2.0-14.1-4.1","battery-v0.2","","""event"",""trial"",""time""
""fullscreenenter"",""1"",""2195""
","
","
","""event"",""trial"",""time""
""fullscreenenter"",""1"",""2195""
","
","","","-1","","","20","12656","3041","&#9826;","elianto","#f73b6a7A","-1","-1","1","0","[]","0","0","3","","","","","","","",""
"pit-trial","69","596986","0.0-2.0-14.2-0.2","battery-v0.2","","""event"",""trial"",""time""
""fullscreenenter"",""1"",""2195""
","
","
","""event"",""trial"",""time""
""fullscreenenter"",""1"",""2195""
","
","","","-1","","","20","12656","3041","&#9826;","elianto","#f73b6a7A","-1","-1","1","0","[]","0","0","3","","","","","","","",""
"pit-trial","70","601841","0.0-2.0-14.2-1.2","battery-v0.2","","""event"",""trial"",""time""
""fullscreenenter"",""1"",""2195""
","
","
","""event"",""trial"",""time""
""fullscreenenter"",""1"",""2195""
","
","","","-1","","","20","12656","3041","&#9826;","elianto","#f73b6a7A","-1","-1","1","0","[]","0","0","3","","","","","","","",""
"pit-trial","71","606694","0.0-2.0-14.2-2.2","battery-v0.2","","""event"",""trial"",""time""
""fullscreenenter"",""1"",""2195""
","
","
","""event"",""trial"",""time""
""fullscreenenter"",""1"",""2195""
","
","","","-1","","","20","12656","3041","&#9826;","elianto","#f73b6a7A","-1","-1","1","0","[]","0","0","3","","","","","","","",""
"pit-trial","72","611548","0.0-2.0-14.2-3.2","battery-v0.2","","""event"",""trial"",""time""
""fullscreenenter"",""1"",""2195""
","
","
","""event"",""trial"",""time""
""fullscreenenter"",""1"",""2195""
","
","","","-1","","","20","12656","3041","&#9826;","elianto","#f73b6a7A","-1","-1","1","-10","[]","0","0","3","","","","","","","",""
"pit-trial","73","616400","0.0-2.0-14.2-4.2","battery-v0.2","","""event"",""trial"",""time""
""fullscreenenter"",""1"",""2195""
","
","
","""event"",""trial"",""time""
""fullscreenenter"",""1"",""2195""
","
","","","-1","","","20","12656","3041","&#9826;","elianto","#f73b6a7A","-1","-1","1","0","[]","0","0","3","","","","","","","",""
"pit-trial","74","621255","0.0-2.0-14.3-0.3","battery-v0.2","","""event"",""trial"",""time""
""fullscreenenter"",""1"",""2195""
","
","
","""event"",""trial"",""time""
""fullscreenenter"",""1"",""2195""
","
","","","-1","","","20","12656","3041","&#9826;","elianto","#f73b6a7A","-1","-1","1","0","[]","0","0","3","","","","","","","",""
"pit-trial","75","626109","0.0-2.0-14.3-1.3","battery-v0.2","","""event"",""trial"",""time""
""fullscreenenter"",""1"",""2195""
","
","
","""event"",""trial"",""time""
""fullscreenenter"",""1"",""2195""
","
","","","-1","","","20","12656","3041","&#9826;","elianto","#f73b6a7A","-1","-1","1","0","[]","0","0","3","","","","","","","",""
"pit-trial","76","630963","0.0-2.0-14.3-2.3","battery-v0.2","","""event"",""trial"",""time""
""fullscreenenter"",""1"",""2195""
","
","
","""event"",""trial"",""time""
""fullscreenenter"",""1"",""2195""
","
","","","-1","","","20","12656","3041","&#9826;","elianto","#f73b6a7A","-1","-1","1","0","[]","0","0","3","","","","","","","",""
"pit-trial","77","635817","0.0-2.0-14.3-3.3","battery-v0.2","","""event"",""trial"",""time""
""fullscreenenter"",""1"",""2195""
","
","
","""event"",""trial"",""time""
""fullscreenenter"",""1"",""2195""
","
","","","-1","","","20","12656","3041","&#9826;","elianto","#f73b6a7A","-1","-1","1","-10","[]","0","0","3","","","","","","","",""
"pit-trial","78","640670","0.0-2.0-14.3-4.3","battery-v0.2","","""event"",""trial"",""time""
""fullscreenenter"",""1"",""2195""
","
","
","""event"",""trial"",""time""
""fullscreenenter"",""1"",""2195""
","
","","","-1","","","20","12656","3041","&#9826;","elianto","#f73b6a7A","-1","-1","1","0","[]","0","0","3","","","","","","","",""
"call-function","79","640673","0.0-2.0-15.0","battery-v0.2","","""event"",""trial"",""time""
""fullscreenenter"",""1"",""2195""
","
","
","""event"",""trial"",""time""
""fullscreenenter"",""1"",""2195""
","
","","","","","","","","","","","","","","","","","","","","","","","","","","",""
"pit-instructions","80","669096","0.0-2.0-16.0","battery-v0.2","","""event"",""trial"",""time""
""fullscreenenter"",""1"",""2195""
","
","
","""event"",""trial"",""time""
""fullscreenenter"",""1"",""2195""
","
","","[{""page_index"":0,""viewing_time"":6857.299999952316},{""page_index"":1,""viewing_time"":8565.700000047684},{""page_index"":2,""viewing_time"":4244},{""page_index"":3,""viewing_time"":8755.799999952316}]","28423.5","","","","","","","","","","","","","","","","","","","","","","","",""
"pit-trial","81","672325","0.0-2.0-17.0-0.0","battery-v0.2","","""event"",""trial"",""time""
""fullscreenenter"",""1"",""2195""
","
","
","""event"",""trial"",""time""
""fullscreenenter"",""1"",""2195""
","
","","","355.2999999523163","","","20","12656","3041","&#9789;","elianto","#f73b6a7A"," "," ","1","0","[1212.0999999046326]","1","0","4","","","","","","","",""
"pit-trial","82","675458","0.0-2.0-17.0-1.0","battery-v0.2","","""event"",""trial"",""time""
""fullscreenenter"",""1"",""2195""
","
","
","""event"",""trial"",""time""
""fullscreenenter"",""1"",""2195""
","
","","","273.7000000476837","","","20","12656","3041","&#9789;","elianto","#f73b6a7A"," "," ","1","0","[1123.7999999523163]","1","0","4","","","","","","","",""
"pit-trial","83","678491","0.0-2.0-17.0-2.0","battery-v0.2","","""event"",""trial"",""time""
""fullscreenenter"",""1"",""2195""
","
","
","""event"",""trial"",""time""
""fullscreenenter"",""1"",""2195""
","
","","","168.29999995231628","","","20","12656","3041","&#9789;","elianto","#f73b6a7A"," "," ","1","0","[1019]","1","0","4","","","","","","","",""
"pit-trial","84","681489","0.0-2.0-17.0-3.0","battery-v0.2","","""event"",""trial"",""time""
""fullscreenenter"",""1"",""2195""
","
","
","""event"",""trial"",""time""
""fullscreenenter"",""1"",""2195""
","
","","","138.39999985694885","","","20","12656","3041","&#9789;","elianto","#f73b6a7A"," "," ","1","-10","[989]","1","0","4","","","","","","","",""
"pit-trial","85","684459","0.0-2.0-17.0-4.0","battery-v0.2","","""event"",""trial"",""time""
""fullscreenenter"",""1"",""2195""
","
","
","""event"",""trial"",""time""
""fullscreenenter"",""1"",""2195""
","
","","","110","","","20","12656","3041","&#9789;","elianto","#f73b6a7A"," "," ","1","0","[960.6999998092651]","1","0","4","","","","","","","",""
"pit-trial","86","687433","0.0-2.0-17.1-0.1","battery-v0.2","","""event"",""trial"",""time""
""fullscreenenter"",""1"",""2195""
","
","
","""event"",""trial"",""time""
""fullscreenenter"",""1"",""2195""
","
","","","109.5","","","20","12656","3041","&#9789;","elianto","#f73b6a7A"," "," ","1","0","[963.0999999046326]","1","0","4","","","","","","","",""
"pit-trial","87","690362","0.0-2.0-17.1-1.1","battery-v0.2","","""event"",""trial"",""time""
""fullscreenenter"",""1"",""2195""
","
","
","""event"",""trial"",""time""
""fullscreenenter"",""1"",""2195""
","
","","","71.59999990463257","","","20","12656","3041","&#9789;","elianto","#f73b6a7A"," "," ","1","0","[925.7999999523163]","1","0","4","","","","","","","",""
"pit-trial","88","693334","0.0-2.0-17.1-2.1","battery-v0.2","","""event"",""trial"",""time""
""fullscreenenter"",""1"",""2195""
","
","
","""event"",""trial"",""time""
""fullscreenenter"",""1"",""2195""
","
","","","109.40000009536743","","","20","12656","3041","&#9789;","elianto","#f73b6a7A"," "," ","1","0","[960]","1","0","4","","","","","","","",""
"pit-trial","89","696267","0.0-2.0-17.1-3.1","battery-v0.2","","""event"",""trial"",""time""
""fullscreenenter"",""1"",""2195""
","
","
","""event"",""trial"",""time""
""fullscreenenter"",""1"",""2195""
","
","","","77.79999995231628","","","20","12656","3041","&#9789;","elianto","#f73b6a7A"," "," ","1","-10","[931.1000001430511]","1","0","4","","","","","","","",""
"pit-trial","90","699166","0.0-2.0-17.1-4.1","battery-v0.2","","""event"",""trial"",""time""
""fullscreenenter"",""1"",""2195""
","
","
","""event"",""trial"",""time""
""fullscreenenter"",""1"",""2195""
","
","","","44.40000009536743","","","20","12656","3041","&#9789;","elianto","#f73b6a7A"," "," ","1","0","[895.3999998569489]","1","0","4","","","","","","","",""
"pit-trial","91","702084","0.0-2.0-17.2-0.2","battery-v0.2","","""event"",""trial"",""time""
""fullscreenenter"",""1"",""2195""
","
","
","""event"",""trial"",""time""
""fullscreenenter"",""1"",""2195""
","
","","","61.200000047683716","","","20","12656","3041","&#9789;","elianto","#f73b6a7A"," "," ","1","0","[913.2999999523163]","1","0","4","","","","","","","",""
"pit-trial","92","705053","0.0-2.0-17.2-1.2","battery-v0.2","","""event"",""trial"",""time""
""fullscreenenter"",""1"",""2195""
","
","
","""event"",""trial"",""time""
""fullscreenenter"",""1"",""2195""
","
","","","114","","","20","12656","3041","&#9789;","elianto","#f73b6a7A"," "," ","1","0","[966]","1","0","4","","","","","","","",""
"pit-trial","93","707944","0.0-2.0-17.2-2.2","battery-v0.2","","""event"",""trial"",""time""
""fullscreenenter"",""1"",""2195""
","
","
","""event"",""trial"",""time""
""fullscreenenter"",""1"",""2195""
","
","","","38","","","20","12656","3041","&#9789;","elianto","#f73b6a7A"," "," ","1","0","[888]","1","0","4","","","","","","","",""
"pit-trial","94","710880","0.0-2.0-17.2-3.2","battery-v0.2","","""event"",""trial"",""time""
""fullscreenenter"",""1"",""2195""
","
","
","""event"",""trial"",""time""
""fullscreenenter"",""1"",""2195""
","
","","","81.89999985694885","","","20","12656","3041","&#9789;","elianto","#f73b6a7A"," "," ","1","-10","[932.5]","1","0","4","","","","","","","",""
"pit-trial","95","713767","0.0-2.0-17.2-4.2","battery-v0.2","","""event"",""trial"",""time""
""fullscreenenter"",""1"",""2195""
","
","
","""event"",""trial"",""time""
""fullscreenenter"",""1"",""2195""
","
","","","33.5","","","20","12656","3041","&#9789;","elianto","#f73b6a7A"," "," ","1","0","[884.5]","1","0","4","","","","","","","",""
"pit-trial","96","716652","0.0-2.0-17.3-0.3","battery-v0.2","","""event"",""trial"",""time""
""fullscreenenter"",""1"",""2195""
","
","
","""event"",""trial"",""time""
""fullscreenenter"",""1"",""2195""
","
","","","28.799999952316284","","","20","12656","3041","&#9789;","elianto","#f73b6a7A"," "," ","1","0","[879.7999999523163]","1","0","4","","","","","","","",""
"pit-trial","97","719552","0.0-2.0-17.3-1.3","battery-v0.2","","""event"",""trial"",""time""
""fullscreenenter"",""1"",""2195""
","
","
","""event"",""trial"",""time""
""fullscreenenter"",""1"",""2195""
","
","","","47.09999990463257","","","20","12656","3041","&#9789;","elianto","#f73b6a7A"," "," ","1","0","[897.9000000953674]","1","0","4","","","","","","","",""
"pit-trial","98","722460","0.0-2.0-17.3-2.3","battery-v0.2","","""event"",""trial"",""time""
""fullscreenenter"",""1"",""2195""
","
","
","""event"",""trial"",""time""
""fullscreenenter"",""1"",""2195""
","
","","","55","","","20","12656","3041","&#9789;","elianto","#f73b6a7A"," "," ","1","0","[904.9000000953674]","1","0","4","","","","","","","",""
"pit-trial","99","725368","0.0-2.0-17.3-3.3","battery-v0.2","","""event"",""trial"",""time""
""fullscreenenter"",""1"",""2195""
","
","
","""event"",""trial"",""time""
""fullscreenenter"",""1"",""2195""
","
","","","46","","","20","12656","3041","&#9789;","elianto","#f73b6a7A"," "," ","1","-10","[896.4000000953674]","1","0","4","","","","","","","",""
"pit-trial","100","728280","0.0-2.0-17.3-4.3","battery-v0.2","","""event"",""trial"",""time""
""fullscreenenter"",""1"",""2195""
","
","
","""event"",""trial"",""time""
""fullscreenenter"",""1"",""2195""
","
","","","58.39999985694885","","","20","12656","3041","&#9789;","elianto","#f73b6a7A"," "," ","1","0","[908.6000001430511]","1","0","4","","","","","","","",""
"call-function","101","728283","0.0-2.0-18.0","battery-v0.2","","""event"",""trial"",""time""
""fullscreenenter"",""1"",""2195""
","
","
","""event"",""trial"",""time""
""fullscreenenter"",""1"",""2195""
","
","","","","","","","","","","","","","","","","","","","","","","","","","","",""
"pit-instructions","102","801504","0.0-2.0-19.0","battery-v0.2","","""event"",""trial"",""time""
""fullscreenenter"",""1"",""2195""
","
","
","""event"",""trial"",""time""
""fullscreenenter"",""1"",""2195""
","
","","[{""page_index"":0,""viewing_time"":6989.900000095367},{""page_index"":1,""viewing_time"":6269},{""page_index"":2,""viewing_time"":14777.299999952316},{""page_index"":3,""viewing_time"":8640.299999952316},{""page_index"":4,""viewing_time"":8564.5},{""page_index"":5,""viewing_time"":8210.200000047684},{""page_index"":6,""viewing_time"":9384},{""page_index"":7,""viewing_time"":6355.200000047684},{""page_index"":8,""viewing_time"":4029.7000000476837}]","73220.80000019073","","","","","","","","","","","","","","","","","","","","","","","",""
"pit-comprehension","103","807474","0.0-2.0-20.0-0.0","battery-v0.2","","""event"",""trial"",""time""
""fullscreenenter"",""1"",""2195""
","
","
","""event"",""trial"",""time""
""fullscreenenter"",""1"",""2195""
","
","","","5963.899999856949","[""SPACE""]","0","20","12656","3041","","","","","","","","","","","","","","","","","","",""
"pit-instructions","104","810762","0.0-2.0-20.0-1.0","battery-v0.2","","""event"",""trial"",""time""
""fullscreenenter"",""1"",""2195""
","
","
","""event"",""trial"",""time""
""fullscreenenter"",""1"",""2195""
","
","","[{""page_index"":0,""viewing_time"":3252.0999999046326}]","3252.5999999046326","","","","","","","","","","","","","","","","","","","","","","","",""
"pit-comprehension","105","819059","0.0-2.0-21.0-0.0","battery-v0.2","","""event"",""trial"",""time""
""fullscreenenter"",""1"",""2195""
","
","
","""event"",""trial"",""time""
""fullscreenenter"",""1"",""2195""
","
","","","8292.799999952316","[""10""]","0","20","12656","3041","","","","","","","","","","","","","","","","","","",""
"pit-instructions","106","820381","0.0-2.0-21.0-1.0","battery-v0.2","","""event"",""trial"",""time""
""fullscreenenter"",""1"",""2195""
","
","
","""event"",""trial"",""time""
""fullscreenenter"",""1"",""2195""
","
","","[{""page_index"":0,""viewing_time"":1289.2000000476837}]","1289.7000000476837","","","","","","","","","","","","","","","","","","","","","","","",""
"pit-comprehension","107","828116","0.0-2.0-22.0-0.0","battery-v0.2","","""event"",""trial"",""time""
""fullscreenenter"",""1"",""2195""
","
","
","""event"",""trial"",""time""
""fullscreenenter"",""1"",""2195""
","
","","","7729.599999904633","[""0""]","0","20","12656","3041","","","","","","","","","","","","","","","","","","",""
"pit-instructions","108","829799","0.0-2.0-22.0-1.0","battery-v0.2","","""event"",""trial"",""time""
""fullscreenenter"",""1"",""2195""
","
","
","""event"",""trial"",""time""
""fullscreenenter"",""1"",""2195""
","
","","[{""page_index"":0,""viewing_time"":1650.5}]","1650.9000000953674","","","","","","","","","","","","","","","","","","","","","","","",""
"pit-comprehension","109","839781","0.0-2.0-23.0-0.0","battery-v0.2","","""event"",""trial"",""time""
""fullscreenenter"",""1"",""2195""
","
","
","""event"",""trial"",""time""
""fullscreenenter"",""1"",""2195""
","
","","","9978.799999952316","[""True""]","0","20","12656","3041","","","","","","","","","","","","","","","","","","",""
"pit-instructions","110","843598","0.0-2.0-23.0-1.0","battery-v0.2","","""event"",""trial"",""time""
""fullscreenenter"",""1"",""2195""
","
","
","""event"",""trial"",""time""
""fullscreenenter"",""1"",""2195""
","
","","[{""page_index"":0,""viewing_time"":3781.5999999046326}]","3782.0999999046326","","","","","","","","","","","","","","","","","","","","","","","",""
"pit-comprehension","111","852684","0.0-2.0-24.0-0.0","battery-v0.2","","""event"",""trial"",""time""
""fullscreenenter"",""1"",""2195""
","
","
","""event"",""trial"",""time""
""fullscreenenter"",""1"",""2195""
","
","","","9080.899999856949","[""True""]","0","20","12656","3041","","","","","","","","","","","","","","","","","","",""
"pit-instructions","112","857072","0.0-2.0-24.0-1.0","battery-v0.2","","""event"",""trial"",""time""
""fullscreenenter"",""1"",""2195""
","
","
","""event"",""trial"",""time""
""fullscreenenter"",""1"",""2195""
","
","","[{""page_index"":0,""viewing_time"":4352}]","4352.600000143051","","","","","","","","","","","","","","","","","","","","","","","",""
"pit-comprehension","113","864192","0.0-2.0-25.0-0.0","battery-v0.2","","""event"",""trial"",""time""
""fullscreenenter"",""1"",""2195""
","
","
","""event"",""trial"",""time""
""fullscreenenter"",""1"",""2195""
","
","","","7114.899999856949","[""True""]","0","20","12656","3041","","","","","","","","","","","","","","","","","","",""
"pit-instructions","114","867888","0.0-2.0-25.0-1.0","battery-v0.2","","""event"",""trial"",""time""
""fullscreenenter"",""1"",""2195""
","
","
","""event"",""trial"",""time""
""fullscreenenter"",""1"",""2195""
","
","","[{""page_index"":0,""viewing_time"":3661}]","3661.5999999046326","","","","","","","","","","","","","","","","","","","","","","","",""
"pit-comprehension","115","874918","0.0-2.0-26.0-0.0","battery-v0.2","","""event"",""trial"",""time""
""fullscreenenter"",""1"",""2195""
","
","
","""event"",""trial"",""time""
""fullscreenenter"",""1"",""2195""
","
","","","7024.900000095367","[""False""]","0","20","12656","3041","","","","","","","","","","","","","","","","","","",""
"pit-instructions","116","876594","0.0-2.0-26.0-1.0","battery-v0.2","","""event"",""trial"",""time""
""fullscreenenter"",""1"",""2195""
","
","
","""event"",""trial"",""time""
""fullscreenenter"",""1"",""2195""
","
","","[{""page_index"":0,""viewing_time"":1636.8999998569489}]","1637.5","","","","","","","","","","","","","","","","","","","","","","","",""
"pit-instructions","117","893909","0.0-3.0","battery-v0.2","","""event"",""trial"",""time""
""fullscreenenter"",""1"",""2195""
","
","
","""event"",""trial"",""time""
""fullscreenenter"",""1"",""2195""
","
","","[{""page_index"":0,""viewing_time"":3973.2000000476837},{""page_index"":1,""viewing_time"":5214.099999904633},{""page_index"":2,""viewing_time"":8124.400000095367}]","17312.099999904633","","","","","","","","","","","","","","","","","","","","","","","",""
"pit-trial","118","897072","0.0-4.0","battery-v0.2","","""event"",""trial"",""time""
""fullscreenenter"",""1"",""2195""
","
","
","""event"",""trial"",""time""
""fullscreenenter"",""1"",""2195""
","
","","","290","","","20","12656","3041","&#9728;","elianto","#f73b6a7A","-1"," ","0","-10","[1147.5999999046326]","1","1","","","12656","1","0","4","lose","no-go","0"
"pit-trial","119","900497","0.0-5.0","battery-v0.2","","""event"",""trial"",""time""
""fullscreenenter"",""1"",""2195""
","
","
","""event"",""trial"",""time""
""fullscreenenter"",""1"",""2195""
","
","","","565","","","20","12656","3041","&#9752;","elianto","#f73b6a7A"," "," ","1","0","[1416.4000000953674]","1","1","","","12656","2","3","3","lose","go","0"
"pit-trial","120","903917","0.0-6.0","battery-v0.2","","""event"",""trial"",""time""
""fullscreenenter"",""1"",""2195""
","
","
","""event"",""trial"",""time""
""fullscreenenter"",""1"",""2195""
","
","","","561.6000001430511","","","20","12656","3041","&#9733;","elianto","#3366ff99","-1"," ","0","+10","[1415.7000000476837]","1","1","","","12656","3","2","2","win","no-go","1"
"pit-trial","121","907296","0.0-7.0","battery-v0.2","","""event"",""trial"",""time""
""fullscreenenter"",""1"",""2195""
","
","
","""event"",""trial"",""time""
""fullscreenenter"",""1"",""2195""
","
","","","510.2000000476837","","","20","12656","3041","&#9730;","elianto","#3366ff99"," "," ","1","+10","[1364.5]","1","1","","","12656","4","1","1","win","go","0"
"pit-trial","122","912155","0.0-8.0","battery-v0.2","","""event"",""trial"",""time""
""fullscreenenter"",""1"",""2195""
","
","
","""event"",""trial"",""time""
""fullscreenenter"",""1"",""2195""
","
","","","-1","","","20","12656","3041","&#9728;","elianto","#f73b6a7A","-1","-1","1","0","[]","0","1","","","12656","5","0","4","lose","no-go","0"
"pit-trial","123","915588","0.0-9.0","battery-v0.2","","""event"",""trial"",""time""
""fullscreenenter"",""1"",""2195""
","
","
","""event"",""trial"",""time""
""fullscreenenter"",""1"",""2195""
","
","","","571.5","","","20","12656","3041","&#9733;","elianto","#3366ff99","-1"," ","0","0","[1422.5]","1","1","","","12656","6","2","2","win","no-go","0"
"pit-trial","124","919276","0.0-10.0","battery-v0.2","","""event"",""trial"",""time""
""fullscreenenter"",""1"",""2195""
","
","
","""event"",""trial"",""time""
""fullscreenenter"",""1"",""2195""
","
","","","822.1000001430511","","","20","12656","3041","&#9730;","elianto","#3366ff99"," "," ","1","+10","[1673.9000000953674]","1","1","","","12656","7","1","1","win","go","0"
"pit-trial","125","922780","0.0-11.0","battery-v0.2","","""event"",""trial"",""time""
""fullscreenenter"",""1"",""2195""
","
","
","""event"",""trial"",""time""
""fullscreenenter"",""1"",""2195""
","
","","","633.6999998092651","","","20","12656","3041","&#9752;","elianto","#f73b6a7A"," "," ","1","-10","[1489]","1","1","","","12656","8","3","3","lose","go","1"
"pit-trial","126","926364","0.0-12.0","battery-v0.2","","""event"",""trial"",""time""
""fullscreenenter"",""1"",""2195""
","
","
","""event"",""trial"",""time""
""fullscreenenter"",""1"",""2195""
","
","","","727.7000000476837","","","20","12656","3041","&#9730;","elianto","#3366ff99"," "," ","1","+10","[1580.7000000476837]","1","1","","","12656","9","1","1","win","go","0"
"pit-trial","127","931218","0.0-13.0","battery-v0.2","","""event"",""trial"",""time""
""fullscreenenter"",""1"",""2195""
","
","
","""event"",""trial"",""time""
""fullscreenenter"",""1"",""2195""
","
","","","-1","","","20","12656","3041","&#9733;","elianto","#3366ff99","-1","-1","1","+10","[]","0","1","","","12656","10","2","2","win","no-go","0"
"pit-trial","128","936071","0.0-14.0","battery-v0.2","","""event"",""trial"",""time""
""fullscreenenter"",""1"",""2195""
","
","
","""event"",""trial"",""time""
""fullscreenenter"",""1"",""2195""
","
","","","-1","","","20","12656","3041","&#9728;","elianto","#f73b6a7A","-1","-1","1","0","[]","0","1","","","12656","11","0","4","lose","no-go","0"
"pit-trial","129","939649","0.0-15.0","battery-v0.2","","""event"",""trial"",""time""
""fullscreenenter"",""1"",""2195""
","
","
","""event"",""trial"",""time""
""fullscreenenter"",""1"",""2195""
","
","","","722.7999999523163","","","20","12656","3041","&#9752;","elianto","#f73b6a7A"," "," ","1","-10","[1574.7000000476837]","1","1","","","12656","12","3","3","lose","go","1"
"pit-trial","130","944504","0.0-16.0","battery-v0.2","","""event"",""trial"",""time""
""fullscreenenter"",""1"",""2195""
","
","
","""event"",""trial"",""time""
""fullscreenenter"",""1"",""2195""
","
","","","-1","","","20","12656","3041","&#9733;","elianto","#3366ff99","-1","-1","1","+10","[]","0","1","","","12656","13","2","2","win","no-go","0"
"pit-trial","131","949358","0.0-17.0","battery-v0.2","","""event"",""trial"",""time""
""fullscreenenter"",""1"",""2195""
","
","
","""event"",""trial"",""time""
""fullscreenenter"",""1"",""2195""
","
","","","-1","","","20","12656","3041","&#9728;","elianto","#f73b6a7A","-1","-1","1","0","[]","0","1","","","12656","14","0","4","lose","no-go","0"
"pit-trial","132","954211","0.0-18.0","battery-v0.2","","""event"",""trial"",""time""
""fullscreenenter"",""1"",""2195""
","
","
","""event"",""trial"",""time""
""fullscreenenter"",""1"",""2195""
","
","","","-1","","","20","12656","3041","&#9752;","elianto","#f73b6a7A"," ","-1","0","-10","[]","0","1","","","12656","15","3","3","lose","go","0"
"pit-trial","133","957758","0.0-19.0","battery-v0.2","","""event"",""trial"",""time""
""fullscreenenter"",""1"",""2195""
","
","
","""event"",""trial"",""time""
""fullscreenenter"",""1"",""2195""
","
","","","692.1999998092651","","","20","12656","3041","&#9730;","elianto","#3366ff99"," "," ","1","+10","[1544.0999999046326]","1","1","","","12656","16","1","1","win","go","0"
"pit-trial","134","961290","0.0-20.0","battery-v0.2","","""event"",""trial"",""time""
""fullscreenenter"",""1"",""2195""
","
","
","""event"",""trial"",""time""
""fullscreenenter"",""1"",""2195""
","
","","","679.5","","","20","12656","3041","&#9730;","elianto","#3366ff99"," "," ","1","+10","[1530]","1","1","","","12656","17","1","1","win","go","0"
"pit-trial","135","966144","0.0-21.0","battery-v0.2","","""event"",""trial"",""time""
""fullscreenenter"",""1"",""2195""
","
","
","""event"",""trial"",""time""
""fullscreenenter"",""1"",""2195""
","
","","","-1","","","20","12656","3041","&#9728;","elianto","#f73b6a7A","-1","-1","1","0","[]","0","1","","","12656","18","0","4","lose","no-go","0"
"pit-trial","136","970998","0.0-22.0","battery-v0.2","","""event"",""trial"",""time""
""fullscreenenter"",""1"",""2195""
","
","
","""event"",""trial"",""time""
""fullscreenenter"",""1"",""2195""
","
","","","-1","","","20","12656","3041","&#9733;","elianto","#3366ff99","-1","-1","1","+10","[]","0","1","","","12656","19","2","2","win","no-go","0"
"pit-trial","137","974876","0.0-23.0","battery-v0.2","","""event"",""trial"",""time""
""fullscreenenter"",""1"",""2195""
","
","
","""event"",""trial"",""time""
""fullscreenenter"",""1"",""2195""
","
","","","1023.9000000953674","","","20","12656","3041","&#9752;","elianto","#f73b6a7A"," "," ","1","0","[1875.6999998092651]","1","1","","","12656","20","3","3","lose","go","0"
"pit-instructions","138","990176","0.0-24.0","battery-v0.2","","""event"",""trial"",""time""
""fullscreenenter"",""1"",""2195""
","
","
","""event"",""trial"",""time""
""fullscreenenter"",""1"",""2195""
","
","","[{""page_index"":0,""viewing_time"":6366.200000047684},{""page_index"":1,""viewing_time"":8931}]","15297.600000143051","","","","","","","","","","","","","","","","","","","","","","","",""
"pit-trial","139","993195","0.0-25.0","battery-v0.2","","""event"",""trial"",""time""
""fullscreenenter"",""1"",""2195""
","
","
","""event"",""trial"",""time""
""fullscreenenter"",""1"",""2195""
","
","","","161.20000004768372","","","20","12656","3041","d","elianto","#3366ff99","-1"," ","0","0","[1014]","1","2","","","12656","21","1","2","win","no-go","0"
"pit-trial","140","996590","0.0-26.0","battery-v0.2","","""event"",""trial"",""time""
""fullscreenenter"",""1"",""2195""
","
","
","""event"",""trial"",""time""
""fullscreenenter"",""1"",""2195""
","
","","","524.8999998569489","","","20","12656","3041","e","elianto","#f73b6a7A"," "," ","1","-10","[1380.2000000476837]","1","2","","","12656","22","2","3","lose","go","1"
"pit-trial","141","999816","0.0-27.0","battery-v0.2","","""event"",""trial"",""time""
""fullscreenenter"",""1"",""2195""
","
","
","""event"",""trial"",""time""
""fullscreenenter"",""1"",""2195""
","
","","","364.80000019073486","","","20","12656","3041","w","elianto","#f73b6a7A","-1"," ","0","-10","[1214.8000001907349]","1","2","","","12656","23","3","4","lose","no-go","0"
"pit-trial","142","1004683","0.0-28.0","battery-v0.2","","""event"",""trial"",""time""
""fullscreenenter"",""1"",""2195""
","
","
","""event"",""trial"",""time""
""fullscreenenter"",""1"",""2195""
","
","","","-1","","","20","12656","3041","j","elianto","#f73b6a7A"," ","-1","0","-10","[]","0","2","","","12656","24","0","3","lose","go","0"
"pit-trial","143","1009550","0.0-29.0","battery-v0.2","","""event"",""trial"",""time""
""fullscreenenter"",""1"",""2195""
","
","
","""event"",""trial"",""time""
""fullscreenenter"",""1"",""2195""
","
","","","-1","","","20","12656","3041","d","elianto","#3366ff99","-1","-1","1","0","[]","0","2","","","12656","25","1","2","win","no-go","1"
"pit-trial","144","1014407","0.0-30.0","battery-v0.2","","""event"",""trial"",""time""
""fullscreenenter"",""1"",""2195""
","
","
","""event"",""trial"",""time""
""fullscreenenter"",""1"",""2195""
","
","","","-1","","","20","12656","3041","w","elianto","#f73b6a7A","-1","-1","1","-10","[]","0","2","","","12656","26","3","4","lose","no-go","1"
"pit-trial","145","1017957","0.0-31.0","battery-v0.2","","""event"",""trial"",""time""
""fullscreenenter"",""1"",""2195""
","
","
","""event"",""trial"",""time""
""fullscreenenter"",""1"",""2195""
","
","","","682.5","","","20","12656","3041","e","elianto","#f73b6a7A"," "," ","1","-10","[1534]","1","2","","","12656","27","2","3","lose","go","1"
"pit-trial","146","1021427","0.0-32.0","battery-v0.2","","""event"",""trial"",""time""
""fullscreenenter"",""1"",""2195""
","
","
","""event"",""trial"",""time""
""fullscreenenter"",""1"",""2195""
","
","","","615.5","","","20","12656","3041","j","elianto","#f73b6a7A"," "," ","1","0","[1466.9000000953674]","1","2","","","12656","28","0","3","lose","go","0"
"pit-trial","147","1024790","0.0-33.0","battery-v0.2","","""event"",""trial"",""time""
""fullscreenenter"",""1"",""2195""
","
","
","""event"",""trial"",""time""
""fullscreenenter"",""1"",""2195""
","
","","","508.90000009536743","","","20","12656","3041","d","elianto","#3366ff99","-1"," ","0","0","[1359.0999999046326]","1","2","","","12656","29","1","2","win","no-go","0"
"pit-trial","148","1029644","0.0-34.0","battery-v0.2","","""event"",""trial"",""time""
""fullscreenenter"",""1"",""2195""
","
","
","""event"",""trial"",""time""
""fullscreenenter"",""1"",""2195""
","
","","","-1","","","20","12656","3041","e","elianto","#f73b6a7A"," ","-1","0","-10","[]","0","2","","","12656","30","2","3","lose","go","0"
"pit-trial","149","1033188","0.0-35.0","battery-v0.2","","""event"",""trial"",""time""
""fullscreenenter"",""1"",""2195""
","
","
","""event"",""trial"",""time""
""fullscreenenter"",""1"",""2195""
","
","","","691.5","","","20","12656","3041","w","elianto","#f73b6a7A","-1"," ","0","-10","[1541.6999998092651]","1","2","","","12656","31","3","4","lose","no-go","0"
"pit-trial","150","1036759","0.0-36.0","battery-v0.2","","""event"",""trial"",""time""
""fullscreenenter"",""1"",""2195""
","
","
","""event"",""trial"",""time""
""fullscreenenter"",""1"",""2195""
","
","","","715.5","","","20","12656","3041","j","elianto","#f73b6a7A"," "," ","1","0","[1567.4000000953674]","1","2","","","12656","32","0","3","lose","go","0"
"pit-trial","151","1040741","0.0-37.0","battery-v0.2","","""event"",""trial"",""time""
""fullscreenenter"",""1"",""2195""
","
","
","""event"",""trial"",""time""
""fullscreenenter"",""1"",""2195""
","
","","","1127.7000000476837","","","20","12656","3041","w","elianto","#f73b6a7A","-1"," ","0","0","[1977.6999998092651]","1","2","","","12656","33","3","4","lose","no-go","1"
"pit-trial","152","1044409","0.0-38.0","battery-v0.2","","""event"",""trial"",""time""
""fullscreenenter"",""1"",""2195""
","
","
","""event"",""trial"",""time""
""fullscreenenter"",""1"",""2195""
","
","","","815.5","","","20","12656","3041","j","elianto","#f73b6a7A"," "," ","1","0","[1666.5]","1","2","","","12656","34","0","3","lose","go","0"
"pit-trial","153","1049264","0.0-39.0","battery-v0.2","","""event"",""trial"",""time""
""fullscreenenter"",""1"",""2195""
","
","
","""event"",""trial"",""time""
""fullscreenenter"",""1"",""2195""
","
","","","-1","","","20","12656","3041","e","elianto","#f73b6a7A"," ","-1","0","-10","[]","0","2","","","12656","35","2","3","lose","go","0"
"pit-trial","154","1052621","0.0-40.0","battery-v0.2","","""event"",""trial"",""time""
""fullscreenenter"",""1"",""2195""
","
","
","""event"",""trial"",""time""
""fullscreenenter"",""1"",""2195""
","
","","","502.2999999523163","","","20","12656","3041","d","elianto","#3366ff99","-1"," ","0","0","[1354.2999999523163]","1","2","","","12656","36","1","2","win","no-go","0"
"pit-trial","155","1057087","0.0-41.0","battery-v0.2","","""event"",""trial"",""time""
""fullscreenenter"",""1"",""2195""
","
","
","""event"",""trial"",""time""
""fullscreenenter"",""1"",""2195""
","
","","","1609.5","","","20","12656","3041","e","elianto","#f73b6a7A"," "," ","1","-10","[2462]","1","2","","","12656","37","2","3","lose","go","1"
"pit-trial","156","1060734","0.0-42.0","battery-v0.2","","""event"",""trial"",""time""
""fullscreenenter"",""1"",""2195""
","
","
","""event"",""trial"",""time""
""fullscreenenter"",""1"",""2195""
","
","","","790","","","20","12656","3041","w","elianto","#f73b6a7A","-1"," ","0","-10","[1640.1000001430511]","1","2","","","12656","38","3","4","lose","no-go","0"
"pit-trial","157","1064335","0.0-43.0","battery-v0.2","","""event"",""trial"",""time""
""fullscreenenter"",""1"",""2195""
","
","
","""event"",""trial"",""time""
""fullscreenenter"",""1"",""2195""
","
","","","747.9000000953674","","","20","12656","3041","d","elianto","#3366ff99","-1"," ","0","0","[1598.4000000953674]","1","2","","","12656","39","1","2","win","no-go","0"
"pit-trial","158","1069189","0.0-44.0","battery-v0.2","","""event"",""trial"",""time""
""fullscreenenter"",""1"",""2195""
","
","
","""event"",""trial"",""time""
""fullscreenenter"",""1"",""2195""
","
","","","-1","","","20","12656","3041","j","elianto","#f73b6a7A"," ","-1","0","-10","[]","0","2","","","12656","40","0","3","lose","go","0"
"pit-trial","159","1074042","0.0-45.0","battery-v0.2","","""event"",""trial"",""time""
""fullscreenenter"",""1"",""2195""
","
","
","""event"",""trial"",""time""
""fullscreenenter"",""1"",""2195""
","
","","","-1","","","20","12656","3041","e","elianto","#f73b6a7A"," ","-1","0","-10","[]","0","2","","","12656","41","2","3","lose","go","0"
"pit-trial","160","1078914","0.0-46.0","battery-v0.2","","""event"",""trial"",""time""
""fullscreenenter"",""1"",""2195""
","
","
","""event"",""trial"",""time""
""fullscreenenter"",""1"",""2195""
","
","","","-1","","","20","12656","3041","w","elianto","#f73b6a7A","-1","-1","1","0","[]","0","2","","","12656","42","3","4","lose","no-go","0"
"pit-trial","161","1083458","0.0-47.0","battery-v0.2","","""event"",""trial"",""time""
""fullscreenenter"",""1"",""2195""
","
","
","""event"",""trial"",""time""
""fullscreenenter"",""1"",""2195""
","
","","","1690.9000000953674","","","20","12656","3041","d","elianto","#3366ff99","-1"," ","0","+10","[2541.600000143051]","1","2","","","12656","43","1","2","win","no-go","1"
"pit-trial","162","1087612","0.0-48.0","battery-v0.2","","""event"",""trial"",""time""
""fullscreenenter"",""1"",""2195""
","
","
","""event"",""trial"",""time""
""fullscreenenter"",""1"",""2195""
","
","","","1298","","","20","12656","3041","j","elianto","#f73b6a7A"," "," ","1","0","[2149.7000000476837]","1","2","","","12656","44","0","3","lose","go","0"
"pit-trial","163","1091166","0.0-49.0","battery-v0.2","","""event"",""trial"",""time""
""fullscreenenter"",""1"",""2195""
","
","
","""event"",""trial"",""time""
""fullscreenenter"",""1"",""2195""
","
","","","700.2999999523163","","","20","12656","3041","j","elianto","#f73b6a7A"," "," ","1","0","[1551.4000000953674]","1","2","","","12656","45","0","3","lose","go","0"
"pit-trial","164","1094816","0.0-50.0","battery-v0.2","","""event"",""trial"",""time""
""fullscreenenter"",""1"",""2195""
","
","
","""event"",""trial"",""time""
""fullscreenenter"",""1"",""2195""
","
","","","795.7000000476837","","","20","12656","3041","d","elianto","#3366ff99","-1"," ","0","0","[1646.7999999523163]","1","2","","","12656","46","1","2","win","no-go","0"
"pit-trial","165","1098693","0.0-51.0","battery-v0.2","","""event"",""trial"",""time""
""fullscreenenter"",""1"",""2195""
","
","
","""event"",""trial"",""time""
""fullscreenenter"",""1"",""2195""
","
","","","1024.5999999046326","","","20","12656","3041","e","elianto","#f73b6a7A"," "," ","1","0","[1874.7000000476837]","1","2","","","12656","47","2","3","lose","go","0"
"pit-trial","166","1102490","0.0-52.0","battery-v0.2","","""event"",""trial"",""time""
""fullscreenenter"",""1"",""2195""
","
","
","""event"",""trial"",""time""
""fullscreenenter"",""1"",""2195""
","
","","","943.2000000476837","","","20","12656","3041","w","elianto","#f73b6a7A","-1"," ","0","-10","[1793.7000000476837]","1","2","","","12656","48","3","4","lose","no-go","0"
"pit-trial","167","1107344","0.0-53.0","battery-v0.2","","""event"",""trial"",""time""
""fullscreenenter"",""1"",""2195""
","
","
","""event"",""trial"",""time""
""fullscreenenter"",""1"",""2195""
","
","","","-1","","","20","12656","3041","w","elianto","#f73b6a7A","-1","-1","1","0","[]","0","2","","","12656","49","3","4","lose","no-go","0"
"pit-trial","168","1110834","0.0-54.0","battery-v0.2","","""event"",""trial"",""time""
""fullscreenenter"",""1"",""2195""
","
","
","""event"",""trial"",""time""
""fullscreenenter"",""1"",""2195""
","
","","","636.9000000953674","","","20","12656","3041","e","elianto","#f73b6a7A"," "," ","1","0","[1487.7999999523163]","1","2","","","12656","50","2","3","lose","go","0"
"pit-trial","169","1114458","0.0-55.0","battery-v0.2","","""event"",""trial"",""time""
""fullscreenenter"",""1"",""2195""
","
","
","""event"",""trial"",""time""
""fullscreenenter"",""1"",""2195""
","
","","","770.5","","","20","12656","3041","j","elianto","#f73b6a7A"," "," ","1","0","[1620.7999999523163]","1","2","","","12656","51","0","3","lose","go","0"
"pit-trial","170","1117909","0.0-56.0","battery-v0.2","","""event"",""trial"",""time""
""fullscreenenter"",""1"",""2195""
","
","
","""event"",""trial"",""time""
""fullscreenenter"",""1"",""2195""
","
","","","597.7999999523163","","","20","12656","3041","d","elianto","#3366ff99","-1"," ","0","0","[1448.8000001907349]","1","2","","","12656","52","1","2","win","no-go","0"
"pit-trial","171","1122763","0.0-57.0","battery-v0.2","","""event"",""trial"",""time""
""fullscreenenter"",""1"",""2195""
","
","
","""event"",""trial"",""time""
""fullscreenenter"",""1"",""2195""
","
","","","-1","","","20","12656","3041","d","elianto","#3366ff99","-1","-1","1","+10","[]","0","2","","","12656","53","1","2","win","no-go","0"
"pit-trial","172","1126515","0.0-58.0","battery-v0.2","","""event"",""trial"",""time""
""fullscreenenter"",""1"",""2195""
","
","
","""event"",""trial"",""time""
""fullscreenenter"",""1"",""2195""
","
","","","897.2999999523163","","","20","12656","3041","w","elianto","#f73b6a7A","-1"," ","0","-10","[1749.1000001430511]","1","2","","","12656","54","3","4","lose","no-go","0"
"pit-trial","173","1130167","0.0-59.0","battery-v0.2","","""event"",""trial"",""time""
""fullscreenenter"",""1"",""2195""
","
","
","""event"",""trial"",""time""
""fullscreenenter"",""1"",""2195""
","
","","","796.7999999523163","","","20","12656","3041","e","elianto","#f73b6a7A"," "," ","1","-10","[1647.7999999523163]","1","2","","","12656","55","2","3","lose","go","1"
"pit-trial","174","1133720","0.0-60.0","battery-v0.2","","""event"",""trial"",""time""
""fullscreenenter"",""1"",""2195""
","
","
","""event"",""trial"",""time""
""fullscreenenter"",""1"",""2195""
","
","","","700.2000000476837","","","20","12656","3041","j","elianto","#f73b6a7A"," "," ","1","0","[1550.6000001430511]","1","2","","","12656","56","0","3","lose","go","0"
"pit-trial","175","1137391","0.0-61.0","battery-v0.2","","""event"",""trial"",""time""
""fullscreenenter"",""1"",""2195""
","
","
","""event"",""trial"",""time""
""fullscreenenter"",""1"",""2195""
","
","","","816.3999998569489","","","20","12656","3041","e","elianto","#f73b6a7A"," "," ","1","0","[1667.1000001430511]","1","2","","","12656","57","2","3","lose","go","0"
"pit-trial","176","1141308","0.0-62.0","battery-v0.2","","""event"",""trial"",""time""
""fullscreenenter"",""1"",""2195""
","
","
","""event"",""trial"",""time""
""fullscreenenter"",""1"",""2195""
","
","","","1063.8000001907349","","","20","12656","3041","j","elianto","#f73b6a7A"," "," ","1","0","[1914.8000001907349]","1","2","","","12656","58","0","3","lose","go","0"
"pit-trial","177","1146162","0.0-63.0","battery-v0.2","","""event"",""trial"",""time""
""fullscreenenter"",""1"",""2195""
","
","
","""event"",""trial"",""time""
""fullscreenenter"",""1"",""2195""
","
","","","-1","","","20","12656","3041","w","elianto","#f73b6a7A","-1","-1","1","0","[]","0","2","","","12656","59","3","4","lose","no-go","0"
"pit-trial","178","1149778","0.0-64.0","battery-v0.2","","""event"",""trial"",""time""
""fullscreenenter"",""1"",""2195""
","
","
","""event"",""trial"",""time""
""fullscreenenter"",""1"",""2195""
","
","","","763.4000000953674","","","20","12656","3041","s","elianto","#3366ff99"," "," ","1","+10","[1613.5]","1","2","","","12656","60","4","1","win","go","0"
"pit-trial","179","1153303","0.0-65.0","battery-v0.2","","""event"",""trial"",""time""
""fullscreenenter"",""1"",""2195""
","
","
","""event"",""trial"",""time""
""fullscreenenter"",""1"",""2195""
","
","","","669.6000001430511","","","20","12656","3041","d","elianto","#3366ff99","-1"," ","0","0","[1521.7000000476837]","1","2","","","12656","61","1","2","win","no-go","0"
"pit-trial","180","1156665","0.0-66.0","battery-v0.2","","""event"",""trial"",""time""
""fullscreenenter"",""1"",""2195""
","
","
","""event"",""trial"",""time""
""fullscreenenter"",""1"",""2195""
","
","","","508.60000014305115","","","20","12656","3041","s","elianto","#3366ff99"," "," ","1","+10","[1359.0999999046326]","1","2","","","12656","62","4","1","win","go","0"
"pit-trial","181","1160319","0.0-67.0","battery-v0.2","","""event"",""trial"",""time""
""fullscreenenter"",""1"",""2195""
","
","
","""event"",""trial"",""time""
""fullscreenenter"",""1"",""2195""
","
","","","801.2000000476837","","","20","12656","3041","e","elianto","#f73b6a7A"," "," ","1","0","[1651.5]","1","2","","","12656","63","2","3","lose","go","0"
"pit-trial","182","1165175","0.0-68.0","battery-v0.2","","""event"",""trial"",""time""
""fullscreenenter"",""1"",""2195""
","
","
","""event"",""trial"",""time""
""fullscreenenter"",""1"",""2195""
","
","","","-1","","","20","12656","3041","w","elianto","#f73b6a7A","-1","-1","1","0","[]","0","2","","","12656","64","3","4","lose","no-go","0"
"pit-trial","183","1170029","0.0-69.0","battery-v0.2","","""event"",""trial"",""time""
""fullscreenenter"",""1"",""2195""
","
","
","""event"",""trial"",""time""
""fullscreenenter"",""1"",""2195""
","
","","","-1","","","20","12656","3041","d","elianto","#3366ff99","-1","-1","1","+10","[]","0","2","","","12656","65","1","2","win","no-go","0"
"pit-trial","184","1173749","0.0-70.0","battery-v0.2","","""event"",""trial"",""time""
""fullscreenenter"",""1"",""2195""
","
","
","""event"",""trial"",""time""
""fullscreenenter"",""1"",""2195""
","
","","","863.9000000953674","","","20","12656","3041","p","elianto","#3366ff99","-1"," ","0","0","[1716.2999999523163]","1","2","","","12656","66","5","2","win","no-go","0"
"pit-trial","185","1178603","0.0-71.0","battery-v0.2","","""event"",""trial"",""time""
""fullscreenenter"",""1"",""2195""
","
","
","""event"",""trial"",""time""
""fullscreenenter"",""1"",""2195""
","
","","","-1","","","20","12656","3041","w","elianto","#f73b6a7A","-1","-1","1","0","[]","0","2","","","12656","67","3","4","lose","no-go","0"
"pit-trial","186","1182173","0.0-72.0","battery-v0.2","","""event"",""trial"",""time""
""fullscreenenter"",""1"",""2195""
","
","
","""event"",""trial"",""time""
""fullscreenenter"",""1"",""2195""
","
","","","716.2999999523163","","","20","12656","3041","s","elianto","#3366ff99"," "," ","1","+10","[1566.7999999523163]","1","2","","","12656","68","4","1","win","go","0"
"pit-trial","187","1187027","0.0-73.0","battery-v0.2","","""event"",""trial"",""time""
""fullscreenenter"",""1"",""2195""
","
","
","""event"",""trial"",""time""
""fullscreenenter"",""1"",""2195""
","
","","","-1","","","20","12656","3041","p","elianto","#3366ff99","-1","-1","1","+10","[]","0","2","","","12656","69","5","2","win","no-go","0"
"pit-trial","188","1191881","0.0-74.0","battery-v0.2","","""event"",""trial"",""time""
""fullscreenenter"",""1"",""2195""
","
","
","""event"",""trial"",""time""
""fullscreenenter"",""1"",""2195""
","
","","","-1","","","20","12656","3041","d","elianto","#3366ff99","-1","-1","1","0","[]","0","2","","","12656","70","1","2","win","no-go","1"
"pit-trial","189","1195678","0.0-75.0","battery-v0.2","","""event"",""trial"",""time""
""fullscreenenter"",""1"",""2195""
","
","
","""event"",""trial"",""time""
""fullscreenenter"",""1"",""2195""
","
","","","944.2000000476837","","","20","12656","3041","e","elianto","#f73b6a7A"," "," ","1","0","[1794.4000000953674]","1","2","","","12656","71","2","3","lose","go","0"
"pit-trial","190","1199252","0.0-76.0","battery-v0.2","","""event"",""trial"",""time""
""fullscreenenter"",""1"",""2195""
","
","
","""event"",""trial"",""time""
""fullscreenenter"",""1"",""2195""
","
","","","720.7000000476837","","","20","12656","3041","s","elianto","#3366ff99"," "," ","1","+10","[1571.2999999523163]","1","2","","","12656","72","4","1","win","go","0"
"pit-trial","191","1204106","0.0-77.0","battery-v0.2","","""event"",""trial"",""time""
""fullscreenenter"",""1"",""2195""
","
","
","""event"",""trial"",""time""
""fullscreenenter"",""1"",""2195""
","
","","","-1","","","20","12656","3041","p","elianto","#3366ff99","-1","-1","1","+10","[]","0","2","","","12656","73","5","2","win","no-go","0"
"pit-trial","192","1208960","0.0-78.0","battery-v0.2","","""event"",""trial"",""time""
""fullscreenenter"",""1"",""2195""
","
","
","""event"",""trial"",""time""
""fullscreenenter"",""1"",""2195""
","
","","","-1","","","20","12656","3041","d","elianto","#3366ff99","-1","-1","1","+10","[743.9000000953674]","1","2","","","12656","74","1","2","win","no-go","0"
"pit-trial","193","1213065","0.0-79.0","battery-v0.2","","""event"",""trial"",""time""
""fullscreenenter"",""1"",""2195""
","
","
","""event"",""trial"",""time""
""fullscreenenter"",""1"",""2195""
","
","","","1252.0999999046326","","","20","12656","3041","s","elianto","#3366ff99"," "," ","1","+10","[2102.5]","1","2","","","12656","75","4","1","win","go","0"
"pit-trial","194","1217919","0.0-80.0","battery-v0.2","","""event"",""trial"",""time""
""fullscreenenter"",""1"",""2195""
","
","
","""event"",""trial"",""time""
""fullscreenenter"",""1"",""2195""
","
","","","-1","","","20","12656","3041","w","elianto","#f73b6a7A","-1","-1","1","0","[]","0","2","","","12656","76","3","4","lose","no-go","0"
"pit-trial","195","1222773","0.0-81.0","battery-v0.2","","""event"",""trial"",""time""
""fullscreenenter"",""1"",""2195""
","
","
","""event"",""trial"",""time""
""fullscreenenter"",""1"",""2195""
","
","","","-1","","","20","12656","3041","w","elianto","#f73b6a7A","-1","-1","1","0","[]","0","2","","","12656","77","3","4","lose","no-go","0"
"pit-trial","196","1227627","0.0-82.0","battery-v0.2","","""event"",""trial"",""time""
""fullscreenenter"",""1"",""2195""
","
","
","""event"",""trial"",""time""
""fullscreenenter"",""1"",""2195""
","
","","","-1","","","20","12656","3041","p","elianto","#3366ff99","-1","-1","1","0","[]","0","2","","","12656","78","5","2","win","no-go","1"
"pit-trial","197","1231324","0.0-83.0","battery-v0.2","","""event"",""trial"",""time""
""fullscreenenter"",""1"",""2195""
","
","
","""event"",""trial"",""time""
""fullscreenenter"",""1"",""2195""
","
","","","842.9000000953674","","","20","12656","3041","s","elianto","#3366ff99"," "," ","1","+10","[1693.1999998092651]","1","2","","","12656","79","4","1","win","go","0"
"pit-trial","198","1234799","0.0-84.0","battery-v0.2","","""event"",""trial"",""time""
""fullscreenenter"",""1"",""2195""
","
","
","""event"",""trial"",""time""
""fullscreenenter"",""1"",""2195""
","
","","","622.1000001430511","","","20","12656","3041","s","elianto","#3366ff99"," "," ","1","+10","[1472.8000001907349]","1","2","","","12656","80","4","1","win","go","0"
"pit-trial","199","1238197","0.0-85.0","battery-v0.2","","""event"",""trial"",""time""
""fullscreenenter"",""1"",""2195""
","
","
","""event"",""trial"",""time""
""fullscreenenter"",""1"",""2195""
","
","","","544.7000000476837","","","20","12656","3041","s","elianto","#3366ff99"," "," ","1","0","[1394.7999999523163]","1","2","","","12656","81","4","1","win","go","1"
"pit-trial","200","1243051","0.0-86.0","battery-v0.2","","""event"",""trial"",""time""
""fullscreenenter"",""1"",""2195""
","
","
","""event"",""trial"",""time""
""fullscreenenter"",""1"",""2195""
","
","","","-1","","","20","12656","3041","w","elianto","#f73b6a7A","-1","-1","1","0","[]","0","2","","","12656","82","3","4","lose","no-go","0"
"pit-trial","201","1247904","0.0-87.0","battery-v0.2","","""event"",""trial"",""time""
""fullscreenenter"",""1"",""2195""
","
","
","""event"",""trial"",""time""
""fullscreenenter"",""1"",""2195""
","
","","","-1","","","20","12656","3041","a","elianto","#f73b6a7A","-1","-1","1","0","[]","0","2","","","12656","83","7","4","lose","no-go","0"
"pit-trial","202","1252759","0.0-88.0","battery-v0.2","","""event"",""trial"",""time""
""fullscreenenter"",""1"",""2195""
","
","
","""event"",""trial"",""time""
""fullscreenenter"",""1"",""2195""
","
","","","-1","","","20","12656","3041","p","elianto","#3366ff99","-1","-1","1","+10","[]","0","2","","","12656","84","5","2","win","no-go","0"
"pit-trial","203","1257613","0.0-89.0","battery-v0.2","","""event"",""trial"",""time""
""fullscreenenter"",""1"",""2195""
","
","
","""event"",""trial"",""time""
""fullscreenenter"",""1"",""2195""
","
","","","-1","","","20","12656","3041","a","elianto","#f73b6a7A","-1","-1","1","-10","[]","0","2","","","12656","85","7","4","lose","no-go","1"
"pit-trial","204","1262467","0.0-90.0","battery-v0.2","","""event"",""trial"",""time""
""fullscreenenter"",""1"",""2195""
","
","
","""event"",""trial"",""time""
""fullscreenenter"",""1"",""2195""
","
","","","-1","","","20","12656","3041","g","elianto","#f73b6a7A"," ","-1","0","-10","[]","0","2","","","12656","86","6","3","lose","go","0"
"pit-trial","205","1266055","0.0-91.0","battery-v0.2","","""event"",""trial"",""time""
""fullscreenenter"",""1"",""2195""
","
","
","""event"",""trial"",""time""
""fullscreenenter"",""1"",""2195""
","
","","","734.2000000476837","","","20","12656","3041","s","elianto","#3366ff99"," "," ","1","+10","[1585.2000000476837]","1","2","","","12656","87","4","1","win","go","0"
"pit-trial","206","1270910","0.0-92.0","battery-v0.2","","""event"",""trial"",""time""
""fullscreenenter"",""1"",""2195""
","
","
","""event"",""trial"",""time""
""fullscreenenter"",""1"",""2195""
","
","","","-1","","","20","12656","3041","p","elianto","#3366ff99","-1","-1","1","+10","[]","0","2","","","12656","88","5","2","win","no-go","0"
"pit-trial","207","1274944","0.0-93.0","battery-v0.2","","""event"",""trial"",""time""
""fullscreenenter"",""1"",""2195""
","
","
","""event"",""trial"",""time""
""fullscreenenter"",""1"",""2195""
","
","","","1179.5","","","20","12656","3041","g","elianto","#f73b6a7A"," "," ","1","0","[2031.2000000476837]","1","2","","","12656","89","6","3","lose","go","0"
"pit-trial","208","1278620","0.0-94.0","battery-v0.2","","""event"",""trial"",""time""
""fullscreenenter"",""1"",""2195""
","
","
","""event"",""trial"",""time""
""fullscreenenter"",""1"",""2195""
","
","","","822.8999998569489","","","20","12656","3041","s","elianto","#3366ff99"," "," ","1","+10","[1673.3999998569489]","1","2","","","12656","90","4","1","win","go","0"
"pit-trial","209","1283474","0.0-95.0","battery-v0.2","","""event"",""trial"",""time""
""fullscreenenter"",""1"",""2195""
","
","
","""event"",""trial"",""time""
""fullscreenenter"",""1"",""2195""
","
","","","-1","","","20","12656","3041","a","elianto","#f73b6a7A","-1","-1","1","0","[]","0","2","","","12656","91","7","4","lose","no-go","0"
"pit-trial","210","1288329","0.0-96.0","battery-v0.2","","""event"",""trial"",""time""
""fullscreenenter"",""1"",""2195""
","
","
","""event"",""trial"",""time""
""fullscreenenter"",""1"",""2195""
","
","","","-1","","","20","12656","3041","p","elianto","#3366ff99","-1","-1","1","+10","[]","0","2","","","12656","92","5","2","win","no-go","0"
"pit-trial","211","1293182","0.0-97.0","battery-v0.2","","""event"",""trial"",""time""
""fullscreenenter"",""1"",""2195""
","
","
","""event"",""trial"",""time""
""fullscreenenter"",""1"",""2195""
","
","","","-1","","","20","12656","3041","p","elianto","#3366ff99","-1","-1","1","0","[]","0","2","","","12656","93","5","2","win","no-go","1"
"pit-trial","212","1298036","0.0-98.0","battery-v0.2","","""event"",""trial"",""time""
""fullscreenenter"",""1"",""2195""
","
","
","""event"",""trial"",""time""
""fullscreenenter"",""1"",""2195""
","
","","","-1","","","20","12656","3041","g","elianto","#f73b6a7A"," ","-1","0","-10","[]","0","2","","","12656","94","6","3","lose","go","0"
"pit-trial","213","1302891","0.0-99.0","battery-v0.2","","""event"",""trial"",""time""
""fullscreenenter"",""1"",""2195""
","
","
","""event"",""trial"",""time""
""fullscreenenter"",""1"",""2195""
","
","","","-1","","","20","12656","3041","a","elianto","#f73b6a7A","-1","-1","1","0","[]","0","2","","","12656","95","7","4","lose","no-go","0"
"pit-trial","214","1306481","0.0-100.0","battery-v0.2","","""event"",""trial"",""time""
""fullscreenenter"",""1"",""2195""
","
","
","""event"",""trial"",""time""
""fullscreenenter"",""1"",""2195""
","
","","","735.2999999523163","","","20","12656","3041","l","elianto","#3366ff99"," "," ","1","0","[1585.8999998569489]","1","2","","","12656","96","8","1","win","go","1"
"pit-trial","215","1311335","0.0-101.0","battery-v0.2","","""event"",""trial"",""time""
""fullscreenenter"",""1"",""2195""
","
","
","""event"",""trial"",""time""
""fullscreenenter"",""1"",""2195""
","
","","","-1","","","20","12656","3041","p","elianto","#3366ff99","-1","-1","1","+10","[]","0","2","","","12656","97","5","2","win","no-go","0"
"pit-trial","216","1316189","0.0-102.0","battery-v0.2","","""event"",""trial"",""time""
""fullscreenenter"",""1"",""2195""
","
","
","""event"",""trial"",""time""
""fullscreenenter"",""1"",""2195""
","
","","","-1","","","20","12656","3041","a","elianto","#f73b6a7A","-1","-1","1","0","[]","0","2","","","12656","98","7","4","lose","no-go","0"
"pit-trial","217","1320088","0.0-103.0","battery-v0.2","","""event"",""trial"",""time""
""fullscreenenter"",""1"",""2195""
","
","
","""event"",""trial"",""time""
""fullscreenenter"",""1"",""2195""
","
","","","1044.5","","","20","12656","3041","l","elianto","#3366ff99"," "," ","1","+10","[1895.7999999523163]","1","2","","","12656","99","8","1","win","go","0"
"pit-trial","218","1323748","0.0-104.0","battery-v0.2","","""event"",""trial"",""time""
""fullscreenenter"",""1"",""2195""
","
","
","""event"",""trial"",""time""
""fullscreenenter"",""1"",""2195""
","
","","","804.7000000476837","","","20","12656","3041","g","elianto","#f73b6a7A"," "," ","1","0","[1656.7999999523163]","1","2","","","12656","100","6","3","lose","go","0"
"pit-trial","219","1327530","0.0-105.0","battery-v0.2","","""event"",""trial"",""time""
""fullscreenenter"",""1"",""2195""
","
","
","""event"",""trial"",""time""
""fullscreenenter"",""1"",""2195""
","
","","","928.0999999046326","","","20","12656","3041","u","elianto","#3366ff99"," "," ","1","+10","[1779.0999999046326]","1","2","","","12656","101","9","1","win","go","0"
"pit-trial","220","1332384","0.0-106.0","battery-v0.2","","""event"",""trial"",""time""
""fullscreenenter"",""1"",""2195""
","
","
","""event"",""trial"",""time""
""fullscreenenter"",""1"",""2195""
","
","","","-1","","","20","12656","3041","p","elianto","#3366ff99","-1","-1","1","0","[]","0","2","","","12656","102","5","2","win","no-go","1"
"pit-trial","221","1336037","0.0-107.0","battery-v0.2","","""event"",""trial"",""time""
""fullscreenenter"",""1"",""2195""
","
","
","""event"",""trial"",""time""
""fullscreenenter"",""1"",""2195""
","
","","","798.7999999523163","","","20","12656","3041","l","elianto","#3366ff99"," "," ","1","0","[1649.4000000953674]","1","2","","","12656","103","8","1","win","go","1"
"pit-trial","222","1339953","0.0-108.0","battery-v0.2","","""event"",""trial"",""time""
""fullscreenenter"",""1"",""2195""
","
","
","""event"",""trial"",""time""
""fullscreenenter"",""1"",""2195""
","
","","","1061.8999998569489","","","20","12656","3041","a","elianto","#f73b6a7A","-1"," ","0","-10","[1913.2999999523163]","1","2","","","12656","104","7","4","lose","no-go","0"
"pit-trial","223","1343578","0.0-109.0","battery-v0.2","","""event"",""trial"",""time""
""fullscreenenter"",""1"",""2195""
","
","
","""event"",""trial"",""time""
""fullscreenenter"",""1"",""2195""
","
","","","770.8999998569489","","","20","12656","3041","g","elianto","#f73b6a7A"," "," ","1","-10","[1621.6000001430511]","1","2","","","12656","105","6","3","lose","go","1"
"pit-trial","224","1347164","0.0-110.0","battery-v0.2","","""event"",""trial"",""time""
""fullscreenenter"",""1"",""2195""
","
","
","""event"",""trial"",""time""
""fullscreenenter"",""1"",""2195""
","
","","","732.3000001907349","","","20","12656","3041","s","elianto","#3366ff99"," "," ","1","+10","[1582.7000000476837]","1","2","","","12656","106","4","1","win","go","0"
"pit-trial","225","1350695","0.0-111.0","battery-v0.2","","""event"",""trial"",""time""
""fullscreenenter"",""1"",""2195""
","
","
","""event"",""trial"",""time""
""fullscreenenter"",""1"",""2195""
","
","","","677.9000000953674","","","20","12656","3041","l","elianto","#3366ff99"," "," ","1","+10","[1528.2999999523163]","1","2","","","12656","107","8","1","win","go","0"
"pit-trial","226","1354287","0.0-112.0","battery-v0.2","","""event"",""trial"",""time""
""fullscreenenter"",""1"",""2195""
","
","
","""event"",""trial"",""time""
""fullscreenenter"",""1"",""2195""
","
","","","738","","","20","12656","3041","u","elianto","#3366ff99"," "," ","1","+10","[1589.0999999046326]","1","2","","","12656","108","9","1","win","go","0"
"pit-trial","227","1357768","0.0-113.0","battery-v0.2","","""event"",""trial"",""time""
""fullscreenenter"",""1"",""2195""
","
","
","""event"",""trial"",""time""
""fullscreenenter"",""1"",""2195""
","
","","","626.7999999523163","","","20","12656","3041","l","elianto","#3366ff99"," "," ","1","+10","[1478.1000001430511]","1","2","","","12656","109","8","1","win","go","0"
"pit-trial","228","1362622","0.0-114.0","battery-v0.2","","""event"",""trial"",""time""
""fullscreenenter"",""1"",""2195""
","
","
","""event"",""trial"",""time""
""fullscreenenter"",""1"",""2195""
","
","","","-1","","","20","12656","3041","g","elianto","#f73b6a7A"," ","-1","0","-10","[]","0","2","","","12656","110","6","3","lose","go","0"
"pit-trial","229","1366008","0.0-115.0","battery-v0.2","","""event"",""trial"",""time""
""fullscreenenter"",""1"",""2195""
","
","
","""event"",""trial"",""time""
""fullscreenenter"",""1"",""2195""
","
","","","531.3000001907349","","","20","12656","3041","p","elianto","#3366ff99","-1"," ","0","0","[1382.7999999523163]","1","2","","","12656","111","5","2","win","no-go","0"
"pit-trial","230","1369633","0.0-116.0","battery-v0.2","","""event"",""trial"",""time""
""fullscreenenter"",""1"",""2195""
","
","
","""event"",""trial"",""time""
""fullscreenenter"",""1"",""2195""
","
","","","761.7999999523163","","","20","12656","3041","u","elianto","#3366ff99"," "," ","1","0","[1612.9000000953674]","1","2","","","12656","112","9","1","win","go","1"
"pit-trial","231","1373092","0.0-117.0","battery-v0.2","","""event"",""trial"",""time""
""fullscreenenter"",""1"",""2195""
","
","
","""event"",""trial"",""time""
""fullscreenenter"",""1"",""2195""
","
","","","604.3000001907349","","","20","12656","3041","u","elianto","#3366ff99"," "," ","1","+10","[1456.2000000476837]","1","2","","","12656","113","9","1","win","go","0"
"pit-trial","232","1376495","0.0-118.0","battery-v0.2","","""event"",""trial"",""time""
""fullscreenenter"",""1"",""2195""
","
","
","""event"",""trial"",""time""
""fullscreenenter"",""1"",""2195""
","
","","","550.2999999523163","","","20","12656","3041","l","elianto","#3366ff99"," "," ","1","+10","[1400.9000000953674]","1","2","","","12656","114","8","1","win","go","0"
"pit-trial","233","1381349","0.0-119.0","battery-v0.2","","""event"",""trial"",""time""
""fullscreenenter"",""1"",""2195""
","
","
","""event"",""trial"",""time""
""fullscreenenter"",""1"",""2195""
","
","","","-1","","","20","12656","3041","g","elianto","#f73b6a7A"," ","-1","0","-10","[]","0","2","","","12656","115","6","3","lose","go","0"
"pit-trial","234","1384846","0.0-120.0","battery-v0.2","","""event"",""trial"",""time""
""fullscreenenter"",""1"",""2195""
","
","
","""event"",""trial"",""time""
""fullscreenenter"",""1"",""2195""
","
","","","643.2999999523163","","","20","12656","3041","p","elianto","#3366ff99","-1"," ","0","0","[1493.3999998569489]","1","2","","","12656","116","5","2","win","no-go","0"
"pit-trial","235","1388353","0.0-121.0","battery-v0.2","","""event"",""trial"",""time""
""fullscreenenter"",""1"",""2195""
","
","
","""event"",""trial"",""time""
""fullscreenenter"",""1"",""2195""
","
","","","654.1000001430511","","","20","12656","3041","u","elianto","#3366ff99"," "," ","1","+10","[1504.5]","1","2","","","12656","117","9","1","win","go","0"
"pit-trial","236","1392368","0.0-122.0","battery-v0.2","","""event"",""trial"",""time""
""fullscreenenter"",""1"",""2195""
","
","
","""event"",""trial"",""time""
""fullscreenenter"",""1"",""2195""
","
","","","1161.7000000476837","","","20","12656","3041","g","elianto","#f73b6a7A"," "," ","1","-10","[2011.9000000953674]","1","2","","","12656","118","6","3","lose","go","1"
"pit-trial","237","1395912","0.0-123.0","battery-v0.2","","""event"",""trial"",""time""
""fullscreenenter"",""1"",""2195""
","
","
","""event"",""trial"",""time""
""fullscreenenter"",""1"",""2195""
","
","","","690.4000000953674","","","20","12656","3041","p","elianto","#3366ff99","-1"," ","0","0","[1541.3000001907349]","1","2","","","12656","119","5","2","win","no-go","0"
"pit-trial","238","1399350","0.0-124.0","battery-v0.2","","""event"",""trial"",""time""
""fullscreenenter"",""1"",""2195""
","
","
","""event"",""trial"",""time""
""fullscreenenter"",""1"",""2195""
","
","","","584","","","20","12656","3041","l","elianto","#3366ff99"," "," ","1","+10","[1434.9000000953674]","1","2","","","12656","120","8","1","win","go","0"
"pit-trial","239","1402961","0.0-125.0","battery-v0.2","","""event"",""trial"",""time""
""fullscreenenter"",""1"",""2195""
","
","
","""event"",""trial"",""time""
""fullscreenenter"",""1"",""2195""
","
","","","756.5","","","20","12656","3041","u","elianto","#3366ff99"," "," ","1","+10","[1606.8999998569489]","1","2","","","12656","121","9","1","win","go","0"
"pit-trial","240","1406508","0.0-126.0","battery-v0.2","","""event"",""trial"",""time""
""fullscreenenter"",""1"",""2195""
","
","
","""event"",""trial"",""time""
""fullscreenenter"",""1"",""2195""
","
","","","694.1000001430511","","","20","12656","3041","l","elianto","#3366ff99"," "," ","1","+10","[1544.1000001430511]","1","2","","","12656","122","8","1","win","go","0"
"pit-trial","241","1411361","0.0-127.0","battery-v0.2","","""event"",""trial"",""time""
""fullscreenenter"",""1"",""2195""
","
","
","""event"",""trial"",""time""
""fullscreenenter"",""1"",""2195""
","
","","","-1","","","20","12656","3041","g","elianto","#f73b6a7A"," ","-1","0","-10","[]","0","2","","","12656","123","6","3","lose","go","0"
"pit-trial","242","1415617","0.0-128.0","battery-v0.2","","""event"",""trial"",""time""
""fullscreenenter"",""1"",""2195""
","
","
","""event"",""trial"",""time""
""fullscreenenter"",""1"",""2195""
","
","","","1402.6000001430511","","","20","12656","3041","a","elianto","#f73b6a7A","-1"," ","0","-10","[2253]","1","2","","","12656","124","7","4","lose","no-go","0"
"pit-trial","243","1419025","0.0-129.0","battery-v0.2","","""event"",""trial"",""time""
""fullscreenenter"",""1"",""2195""
","
","
","""event"",""trial"",""time""
""fullscreenenter"",""1"",""2195""
","
","","","554.1000001430511","","","20","12656","3041","l","elianto","#3366ff99"," "," ","1","+10","[1404.5]","1","2","","","12656","125","8","1","win","go","0"
"pit-trial","244","1423090","0.0-130.0","battery-v0.2","","""event"",""trial"",""time""
""fullscreenenter"",""1"",""2195""
","
","
","""event"",""trial"",""time""
""fullscreenenter"",""1"",""2195""
","
","","","1210.7999999523163","","","20","12656","3041","g","elianto","#f73b6a7A"," "," ","1","0","[2061.5999999046326]","1","2","","","12656","126","6","3","lose","go","0"
"pit-trial","245","1427944","0.0-131.0","battery-v0.2","","""event"",""trial"",""time""
""fullscreenenter"",""1"",""2195""
","
","
","""event"",""trial"",""time""
""fullscreenenter"",""1"",""2195""
","
","","","-1","","","20","12656","3041","a","elianto","#f73b6a7A","-1","-1","1","-10","[]","0","2","","","12656","127","7","4","lose","no-go","1"
"pit-trial","246","1431408","0.0-132.0","battery-v0.2","","""event"",""trial"",""time""
""fullscreenenter"",""1"",""2195""
","
","
","""event"",""trial"",""time""
""fullscreenenter"",""1"",""2195""
","
","","","608.9000000953674","","","20","12656","3041","u","elianto","#3366ff99"," "," ","1","0","[1460.5999999046326]","1","2","","","12656","128","9","1","win","go","1"
"pit-trial","247","1435258","0.0-133.0","battery-v0.2","","""event"",""trial"",""time""
""fullscreenenter"",""1"",""2195""
","
","
","""event"",""trial"",""time""
""fullscreenenter"",""1"",""2195""
","
","","","996","","","20","12656","3041","g","elianto","#f73b6a7A"," "," ","1","0","[1846.1999998092651]","1","2","","","12656","129","6","3","lose","go","0"
"pit-trial","248","1438597","0.0-134.0","battery-v0.2","","""event"",""trial"",""time""
""fullscreenenter"",""1"",""2195""
","
","
","""event"",""trial"",""time""
""fullscreenenter"",""1"",""2195""
","
","","","485.7999999523163","","","20","12656","3041","a","elianto","#f73b6a7A","-1"," ","0","0","[1336.0999999046326]","1","2","","","12656","130","7","4","lose","no-go","1"
"pit-trial","249","1442055","0.0-135.0","battery-v0.2","","""event"",""trial"",""time""
""fullscreenenter"",""1"",""2195""
","
","
","""event"",""trial"",""time""
""fullscreenenter"",""1"",""2195""
","
","","","605","","","20","12656","3041","u","elianto","#3366ff99"," "," ","1","0","[1455.5]","1","2","","","12656","131","9","1","win","go","1"
"pit-trial","250","1445433","0.0-136.0","battery-v0.2","","""event"",""trial"",""time""
""fullscreenenter"",""1"",""2195""
","
","
","""event"",""trial"",""time""
""fullscreenenter"",""1"",""2195""
","
","","","522.5999999046326","","","20","12656","3041","l","elianto","#3366ff99"," "," ","1","+10","[1374.7999999523163]","1","2","","","12656","132","8","1","win","go","0"
"pit-trial","251","1448861","0.0-137.0","battery-v0.2","","""event"",""trial"",""time""
""fullscreenenter"",""1"",""2195""
","
","
","""event"",""trial"",""time""
""fullscreenenter"",""1"",""2195""
","
","","","573.9000000953674","","","20","12656","3041","u","elianto","#3366ff99"," "," ","1","+10","[1424.5]","1","2","","","12656","133","9","1","win","go","0"
"pit-trial","252","1452225","0.0-138.0","battery-v0.2","","""event"",""trial"",""time""
""fullscreenenter"",""1"",""2195""
","
","
","""event"",""trial"",""time""
""fullscreenenter"",""1"",""2195""
","
","","","509","","","20","12656","3041","l","elianto","#3366ff99"," "," ","1","+10","[1359.3999998569489]","1","2","","","12656","134","8","1","win","go","0"
"pit-trial","253","1456273","0.0-139.0","battery-v0.2","","""event"",""trial"",""time""
""fullscreenenter"",""1"",""2195""
","
","
","""event"",""trial"",""time""
""fullscreenenter"",""1"",""2195""
","
","","","1195.4000000953674","","","20","12656","3041","g","elianto","#f73b6a7A"," "," ","1","0","[2045.5]","1","2","","","12656","135","6","3","lose","go","0"
"pit-trial","254","1459650","0.0-140.0","battery-v0.2","","""event"",""trial"",""time""
""fullscreenenter"",""1"",""2195""
","
","
","""event"",""trial"",""time""
""fullscreenenter"",""1"",""2195""
","
","","","522.1999998092651","","","20","12656","3041","a","elianto","#f73b6a7A","-1"," ","0","-10","[1372.5999999046326]","1","2","","","12656","136","7","4","lose","no-go","0"
"pit-trial","255","1463039","0.0-141.0","battery-v0.2","","""event"",""trial"",""time""
""fullscreenenter"",""1"",""2195""
","
","
","""event"",""trial"",""time""
""fullscreenenter"",""1"",""2195""
","
","","","535.6000001430511","","","20","12656","3041","u","elianto","#3366ff99"," "," ","1","0","[1386]","1","2","","","12656","137","9","1","win","go","1"
"pit-trial","256","1466897","0.0-142.0","battery-v0.2","","""event"",""trial"",""time""
""fullscreenenter"",""1"",""2195""
","
","
","""event"",""trial"",""time""
""fullscreenenter"",""1"",""2195""
","
","","","1003.2999999523163","","","20","12656","3041","g","elianto","#f73b6a7A"," "," ","1","0","[1854.5]","1","2","","","12656","138","6","3","lose","go","0"
"pit-trial","257","1470193","0.0-143.0","battery-v0.2","","""event"",""trial"",""time""
""fullscreenenter"",""1"",""2195""
","
","
","""event"",""trial"",""time""
""fullscreenenter"",""1"",""2195""
","
","","","442.5","","","20","12656","3041","l","elianto","#3366ff99"," "," ","1","+10","[1293]","1","2","","","12656","139","8","1","win","go","0"
"pit-trial","258","1474419","0.0-144.0","battery-v0.2","","""event"",""trial"",""time""
""fullscreenenter"",""1"",""2195""
","
","
","""event"",""trial"",""time""
""fullscreenenter"",""1"",""2195""
","
","","","1373.2999999523163","","","20","12656","3041","a","elianto","#f73b6a7A","-1"," ","0","-10","[2223.7000000476837]","1","2","","","12656","140","7","4","lose","no-go","0"
"pit-instructions","259","1495351","0.0-145.0","battery-v0.2","","""event"",""trial"",""time""
""fullscreenenter"",""1"",""2195""
","
","
","""event"",""trial"",""time""
""fullscreenenter"",""1"",""2195""
","
","","[{""page_index"":0,""viewing_time"":12698.299999952316},{""page_index"":1,""viewing_time"":8230.400000095367}]","20929.200000047684","","","","","","","","","","","","","","","","","","","","","","","",""
"pit-trial","260","1498583","0.0-146.0","battery-v0.2","","""event"",""trial"",""time""
""fullscreenenter"",""1"",""2195""
","
","
","""event"",""trial"",""time""
""fullscreenenter"",""1"",""2195""
","
","","","358.09999990463257","","","20","12656","3041","t","elianto","#f73b6a7A","-1"," ","0","0","[1210.6000001430511]","1","3","","","12656","141","2","4","lose","no-go","1"
"pit-trial","261","1502291","0.0-147.0","battery-v0.2","","""event"",""trial"",""time""
""fullscreenenter"",""1"",""2195""
","
","
","""event"",""trial"",""time""
""fullscreenenter"",""1"",""2195""
","
","","","852.0999999046326","","","20","12656","3041","b","elianto","#f73b6a7A"," "," ","1","0","[1705.2999999523163]","1","3","","","12656","142","3","3","lose","go","0"
"pit-trial","262","1505529","0.0-148.0","battery-v0.2","","""event"",""trial"",""time""
""fullscreenenter"",""1"",""2195""
","
","
","""event"",""trial"",""time""
""fullscreenenter"",""1"",""2195""
","
","","","370.10000014305115","","","20","12656","3041","f","elianto","#3366ff99"," "," ","1","+10","[1221.2000000476837]","1","3","","","12656","143","1","1","win","go","0"
"pit-trial","263","1508970","0.0-149.0","battery-v0.2","","""event"",""trial"",""time""
""fullscreenenter"",""1"",""2195""
","
","
","""event"",""trial"",""time""
""fullscreenenter"",""1"",""2195""
","
","","","571.6999998092651","","","20","12656","3041","n","elianto","#f73b6a7A","-1"," ","0","-10","[1426.2999999523163]","1","3","","","12656","144","0","4","lose","no-go","0"
"pit-trial","264","1512530","0.0-150.0","battery-v0.2","","""event"",""trial"",""time""
""fullscreenenter"",""1"",""2195""
","
","
","""event"",""trial"",""time""
""fullscreenenter"",""1"",""2195""
","
","","","698.9000000953674","","","20","12656","3041","t","elianto","#f73b6a7A","-1"," ","0","0","[1550.2000000476837]","1","3","","","12656","145","2","4","lose","no-go","1"
"pit-trial","265","1515931","0.0-151.0","battery-v0.2","","""event"",""trial"",""time""
""fullscreenenter"",""1"",""2195""
","
","
","""event"",""trial"",""time""
""fullscreenenter"",""1"",""2195""
","
","","","539.2999999523163","","","20","12656","3041","f","elianto","#3366ff99"," "," ","1","+10","[1392.7000000476837]","1","3","","","12656","146","1","1","win","go","0"
"pit-trial","266","1520806","0.0-152.0","battery-v0.2","","""event"",""trial"",""time""
""fullscreenenter"",""1"",""2195""
","
","
","""event"",""trial"",""time""
""fullscreenenter"",""1"",""2195""
","
","","","-1","","","20","12656","3041","n","elianto","#f73b6a7A","-1","-1","1","0","[]","0","3","","","12656","147","0","4","lose","no-go","0"
