"trial_type","trial_index","time_elapsed","internal_node_id","task_version","subject_id","interactions","blur_events","focus_events","fullscreenenter_events","fullscreenexit_events","success","view_history","rt","responses","num_errors","age","subject","participantId","rune","rune_set","hex","correct","choice","accuracy","outcome","keys","total_keys","block","practice","value","sub","trial","stimulus","robot","valence","action","sham"
"pavlovia","0","9","0.0-0.0","battery-v0.2","","""event"",""trial"",""time""
""fullscreenenter"",""1"",""1933""
","
","
","""event"",""trial"",""time""
""fullscreenenter"",""1"",""1933""
","
","","","","","","","","","","","","","","","","","","","","","","","","","","",""
"fullscreen","1","2927","0.0-1.0","battery-v0.2","","""event"",""trial"",""time""
""fullscreenenter"",""1"",""1933""
","
","
","""event"",""trial"",""time""
""fullscreenenter"",""1"",""1933""
","
","true","","","","","","","","","","","","","","","","","","","","","","","","","",""
"pit-instructions","2","8710","0.0-2.0-0.0","battery-v0.2","","""event"",""trial"",""time""
""fullscreenenter"",""1"",""1933""
","
","
","""event"",""trial"",""time""
""fullscreenenter"",""1"",""1933""
","
","","[{""page_index"":0,""viewing_time"":5778.5}]","5779.699999999255","","","","","","","","","","","","","","","","","","","","","","","",""
"pit-comprehension","3","11430","0.0-2.0-1.0-0.0","battery-v0.2","","""event"",""trial"",""time""
""fullscreenenter"",""1"",""1933""
","
","
","""event"",""trial"",""time""
""fullscreenenter"",""1"",""1933""
","
","","","2716.5","[""shark""]","0","14","3543","2039","","","","","","","","","","","","","","","","","","",""
"pit-instructions","4","12496","0.0-2.0-1.0-1.0","battery-v0.2","","""event"",""trial"",""time""
""fullscreenenter"",""1"",""1933""
","
","
","""event"",""trial"",""time""
""fullscreenenter"",""1"",""1933""
","
","","[{""page_index"":0,""viewing_time"":1051.5}]","1051.7000000011176","","","","","","","","","","","","","","","","","","","","","","","",""
"pit-comprehension","5","15007","0.0-2.0-2.0-0.0","battery-v0.2","","""event"",""trial"",""time""
""fullscreenenter"",""1"",""1933""
","
","
","""event"",""trial"",""time""
""fullscreenenter"",""1"",""1933""
","
","","","2509.199999999255","[""tiger""]","0","14","3543","2039","","","","","","","","","","","","","","","","","","",""
"pit-instructions","6","15644","0.0-2.0-2.0-1.0","battery-v0.2","","""event"",""trial"",""time""
""fullscreenenter"",""1"",""1933""
","
","
","""event"",""trial"",""time""
""fullscreenenter"",""1"",""1933""
","
","","[{""page_index"":0,""viewing_time"":634.1000000014901}]","634.6000000014901","","","","","","","","","","","","","","","","","","","","","","","",""
"pit-instructions","7","120786","0.0-2.0-3.0","battery-v0.2","","""event"",""trial"",""time""
""fullscreenenter"",""1"",""1933""
","
","
","""event"",""trial"",""time""
""fullscreenenter"",""1"",""1933""
","
","","[{""page_index"":0,""viewing_time"":11159.599999999627},{""page_index"":1,""viewing_time"":8492.900000000373},{""page_index"":2,""viewing_time"":7317.199999999255},{""page_index"":3,""viewing_time"":7684.800000000745},{""page_index"":4,""viewing_time"":7086.4000000003725},{""page_index"":5,""viewing_time"":6027.699999999255},{""page_index"":6,""viewing_time"":8494.599999999627},{""page_index"":7,""viewing_time"":8674.700000001118},{""page_index"":8,""viewing_time"":6114.699999999255},{""page_index"":9,""viewing_time"":7656.0999999996275},{""page_index"":10,""viewing_time"":9269},{""page_index"":11,""viewing_time"":5531.0999999996275},{""page_index"":12,""viewing_time"":6608.4000000003725},{""page_index"":13,""viewing_time"":5020.700000001118}]","105138.29999999888","","","","","","","","","","","","","","","","","","","","","","","",""
"pit-trial","8","124404","0.0-2.0-4.0-0.0","battery-v0.2","","""event"",""trial"",""time""
""fullscreenenter"",""1"",""1933""
","
","
","""event"",""trial"",""time""
""fullscreenenter"",""1"",""1933""
","
","","","760","","","14","3543","2039","&#9784;","elianto","#FFFFF080"," "," ","1","&#10004","[1611.5999999996275]","1","0","0","","","","","","","",""
"pit-trial","9","127851","0.0-2.0-4.1-0.1","battery-v0.2","","""event"",""trial"",""time""
""fullscreenenter"",""1"",""1933""
","
","
","""event"",""trial"",""time""
""fullscreenenter"",""1"",""1933""
","
","","","591.1000000014901","","","14","3543","2039","&#9784;","elianto","#FFFFF080"," "," ","1","&#10004","[1442]","1","0","0","","","","","","","",""
"pit-trial","10","131233","0.0-2.0-4.2-0.2","battery-v0.2","","""event"",""trial"",""time""
""fullscreenenter"",""1"",""1933""
","
","
","""event"",""trial"",""time""
""fullscreenenter"",""1"",""1933""
","
","","","516.5999999996275","","","14","3543","2039","&#9784;","elianto","#FFFFF080"," "," ","1","&#10004","[1368.5]","1","0","0","","","","","","","",""
"pit-trial","11","134640","0.0-2.0-4.3-0.3","battery-v0.2","","""event"",""trial"",""time""
""fullscreenenter"",""1"",""1933""
","
","
","""event"",""trial"",""time""
""fullscreenenter"",""1"",""1933""
","
","","","531.0999999996275","","","14","3543","2039","&#9784;","elianto","#FFFFF080"," "," ","1","&#10004","[1384.2999999988824]","1","0","0","","","","","","","",""
"pit-trial","12","138032","0.0-2.0-4.4-0.4","battery-v0.2","","""event"",""trial"",""time""
""fullscreenenter"",""1"",""1933""
","
","
","""event"",""trial"",""time""
""fullscreenenter"",""1"",""1933""
","
","","","517.5999999996275","","","14","3543","2039","&#9784;","elianto","#FFFFF080"," "," ","1","&#10004","[1374.5]","1","0","0","","","","","","","",""
"pit-instructions","13","166986","0.0-2.0-5.0","battery-v0.2","","""event"",""trial"",""time""
""fullscreenenter"",""1"",""1933""
","
","
","""event"",""trial"",""time""
""fullscreenenter"",""1"",""1933""
","
","","[{""page_index"":0,""viewing_time"":7695.799999998882},{""page_index"":1,""viewing_time"":10710},{""page_index"":2,""viewing_time"":5117.0999999996275},{""page_index"":3,""viewing_time"":5428.800000000745}]","28952","","","","","","","","","","","","","","","","","","","","","","","",""
"pit-trial","14","171843","0.0-2.0-6.0-0.0","battery-v0.2","","""event"",""trial"",""time""
""fullscreenenter"",""1"",""1933""
","
","
","""event"",""trial"",""time""
""fullscreenenter"",""1"",""1933""
","
","","","-1","","","14","3543","2039","&#9854;","elianto","#FFFFF080","-1","-1","1","&#10004","[]","0","0","1","","","","","","","",""
"pit-trial","15","176722","0.0-2.0-6.1-0.1","battery-v0.2","","""event"",""trial"",""time""
""fullscreenenter"",""1"",""1933""
","
","
","""event"",""trial"",""time""
""fullscreenenter"",""1"",""1933""
","
","","","-1","","","14","3543","2039","&#9854;","elianto","#FFFFF080","-1","-1","1","&#10004","[]","0","0","1","","","","","","","",""
"pit-trial","16","181601","0.0-2.0-6.2-0.2","battery-v0.2","","""event"",""trial"",""time""
""fullscreenenter"",""1"",""1933""
","
","
","""event"",""trial"",""time""
""fullscreenenter"",""1"",""1933""
","
","","","-1","","","14","3543","2039","&#9854;","elianto","#FFFFF080","-1","-1","1","&#10004","[]","0","0","1","","","","","","","",""
"pit-trial","17","186488","0.0-2.0-6.3-0.3","battery-v0.2","","""event"",""trial"",""time""
""fullscreenenter"",""1"",""1933""
","
","
","""event"",""trial"",""time""
""fullscreenenter"",""1"",""1933""
","
","","","-1","","","14","3543","2039","&#9854;","elianto","#FFFFF080","-1","-1","1","&#10004","[]","0","0","1","","","","","","","",""
"pit-trial","18","191374","0.0-2.0-6.4-0.4","battery-v0.2","","""event"",""trial"",""time""
""fullscreenenter"",""1"",""1933""
""blur"",""19"",""226935""
""focus"",""19"",""230707""
""blur"",""19"",""235350""
""focus"",""19"",""238001""
","""event"",""trial"",""time""
""blur"",""19"",""226935""
""blur"",""19"",""235350""
","""event"",""trial"",""time""
""focus"",""19"",""230707""
""focus"",""19"",""238001""
","""event"",""trial"",""time""
""fullscreenenter"",""1"",""1933""
","
","","","-1","","","14","3543","2039","&#9854;","elianto","#FFFFF080","-1","-1","1","&#10004","[]","0","0","1","","","","","","","",""
"pit-instructions","19","339935","0.0-2.0-7.0","battery-v0.2","","""event"",""trial"",""time""
""fullscreenenter"",""1"",""1933""
""blur"",""19"",""226935""
""focus"",""19"",""230707""
""blur"",""19"",""235350""
""focus"",""19"",""238001""
","""event"",""trial"",""time""
""blur"",""19"",""226935""
""blur"",""19"",""235350""
","""event"",""trial"",""time""
""focus"",""19"",""230707""
""focus"",""19"",""238001""
","""event"",""trial"",""time""
""fullscreenenter"",""1"",""1933""
","
","","[{""page_index"":0,""viewing_time"":7657.799999998882},{""page_index"":1,""viewing_time"":8829.599999999627},{""page_index"":2,""viewing_time"":6481.4000000003725},{""page_index"":3,""viewing_time"":5765},{""page_index"":4,""viewing_time"":12963.900000000373},{""page_index"":5,""viewing_time"":5809.0999999996275},{""page_index"":6,""viewing_time"":4371.0999999996275},{""page_index"":7,""viewing_time"":9388},{""page_index"":8,""viewing_time"":6731.9000000003725},{""page_index"":9,""viewing_time"":5949.300000000745},{""page_index"":10,""viewing_time"":6040.5999999996275},{""page_index"":11,""viewing_time"":8269.099999999627},{""page_index"":12,""viewing_time"":8283},{""page_index"":13,""viewing_time"":9255.099999999627},{""page_index"":14,""viewing_time"":7298.10000000149},{""page_index"":15,""viewing_time"":11877.799999998882},{""page_index"":16,""viewing_time"":8811.300000000745},{""page_index"":17,""viewing_time"":14775.599999999627}]","148558","","","","","","","","","","","","","","","","","","","","","","","",""
"pit-trial","20","344801","0.0-2.0-8.0-0.0","battery-v0.2","","""event"",""trial"",""time""
""fullscreenenter"",""1"",""1933""
""blur"",""19"",""226935""
""focus"",""19"",""230707""
""blur"",""19"",""235350""
""focus"",""19"",""238001""
","""event"",""trial"",""time""
""blur"",""19"",""226935""
""blur"",""19"",""235350""
","""event"",""trial"",""time""
""focus"",""19"",""230707""
""focus"",""19"",""238001""
","""event"",""trial"",""time""
""fullscreenenter"",""1"",""1933""
","
","","","-1","","","14","3543","2039","&#9776;","elianto","#3366ff99"," ","-1","0","0","[]","0","0","1","","","","","","","",""
"pit-trial","21","349677","0.0-2.0-8.0-1.0","battery-v0.2","","""event"",""trial"",""time""
""fullscreenenter"",""1"",""1933""
""blur"",""19"",""226935""
""focus"",""19"",""230707""
""blur"",""19"",""235350""
""focus"",""19"",""238001""
","""event"",""trial"",""time""
""blur"",""19"",""226935""
""blur"",""19"",""235350""
","""event"",""trial"",""time""
""focus"",""19"",""230707""
""focus"",""19"",""238001""
","""event"",""trial"",""time""
""fullscreenenter"",""1"",""1933""
","
","","","-1","","","14","3543","2039","&#9776;","elianto","#3366ff99"," ","-1","0","0","[3219.9000000003725]","1","0","1","","","","","","","",""
"pit-trial","22","354551","0.0-2.0-8.0-2.0","battery-v0.2","","""event"",""trial"",""time""
""fullscreenenter"",""1"",""1933""
""blur"",""19"",""226935""
""focus"",""19"",""230707""
""blur"",""19"",""235350""
""focus"",""19"",""238001""
","""event"",""trial"",""time""
""blur"",""19"",""226935""
""blur"",""19"",""235350""
","""event"",""trial"",""time""
""focus"",""19"",""230707""
""focus"",""19"",""238001""
","""event"",""trial"",""time""
""fullscreenenter"",""1"",""1933""
","
","","","-1","","","14","3543","2039","&#9776;","elianto","#3366ff99"," ","-1","0","0","[2931.7999999988824,4155,4517]","3","0","1","","","","","","","",""
"pit-trial","23","357909","0.0-2.0-8.0-3.0","battery-v0.2","","""event"",""trial"",""time""
""fullscreenenter"",""1"",""1933""
""blur"",""19"",""226935""
""focus"",""19"",""230707""
""blur"",""19"",""235350""
""focus"",""19"",""238001""
","""event"",""trial"",""time""
""blur"",""19"",""226935""
""blur"",""19"",""235350""
","""event"",""trial"",""time""
""focus"",""19"",""230707""
""focus"",""19"",""238001""
","""event"",""trial"",""time""
""fullscreenenter"",""1"",""1933""
","
","","","494.69999999925494","","","14","3543","2039","&#9776;","elianto","#3366ff99"," "," ","1","0","[1347.0999999996275]","1","0","1","","","","","","","",""
"pit-trial","24","361036","0.0-2.0-8.0-4.0","battery-v0.2","","""event"",""trial"",""time""
""fullscreenenter"",""1"",""1933""
""blur"",""19"",""226935""
""focus"",""19"",""230707""
""blur"",""19"",""235350""
""focus"",""19"",""238001""
","""event"",""trial"",""time""
""blur"",""19"",""226935""
""blur"",""19"",""235350""
","""event"",""trial"",""time""
""focus"",""19"",""230707""
""focus"",""19"",""238001""
","""event"",""trial"",""time""
""fullscreenenter"",""1"",""1933""
","
","","","255.69999999925494","","","14","3543","2039","&#9776;","elianto","#3366ff99"," "," ","1","+10","[1108.300000000745,2331.2000000011176,2720.2000000011176]","3","0","1","","","","","","","",""
"pit-trial","25","364412","0.0-2.0-8.1-0.1","battery-v0.2","","""event"",""trial"",""time""
""fullscreenenter"",""1"",""1933""
""blur"",""19"",""226935""
""focus"",""19"",""230707""
""blur"",""19"",""235350""
""focus"",""19"",""238001""
","""event"",""trial"",""time""
""blur"",""19"",""226935""
""blur"",""19"",""235350""
","""event"",""trial"",""time""
""focus"",""19"",""230707""
""focus"",""19"",""238001""
","""event"",""trial"",""time""
""fullscreenenter"",""1"",""1933""
","
","","","520.3000000007451","","","14","3543","2039","&#9776;","elianto","#3366ff99"," "," ","1","+10","[1372.0999999996275,1735.3999999985099]","2","0","1","","","","","","","",""
"pit-trial","26","367879","0.0-2.0-8.1-1.1","battery-v0.2","","""event"",""trial"",""time""
""fullscreenenter"",""1"",""1933""
""blur"",""19"",""226935""
""focus"",""19"",""230707""
""blur"",""19"",""235350""
""focus"",""19"",""238001""
","""event"",""trial"",""time""
""blur"",""19"",""226935""
""blur"",""19"",""235350""
","""event"",""trial"",""time""
""focus"",""19"",""230707""
""focus"",""19"",""238001""
","""event"",""trial"",""time""
""fullscreenenter"",""1"",""1933""
","
","","","600.3000000007451","","","14","3543","2039","&#9776;","elianto","#3366ff99"," "," ","1","+10","[1455.800000000745]","1","0","1","","","","","","","",""
"pit-trial","27","371420","0.0-2.0-8.1-2.1","battery-v0.2","","""event"",""trial"",""time""
""fullscreenenter"",""1"",""1933""
""blur"",""19"",""226935""
""focus"",""19"",""230707""
""blur"",""19"",""235350""
""focus"",""19"",""238001""
","""event"",""trial"",""time""
""blur"",""19"",""226935""
""blur"",""19"",""235350""
","""event"",""trial"",""time""
""focus"",""19"",""230707""
""focus"",""19"",""238001""
","""event"",""trial"",""time""
""fullscreenenter"",""1"",""1933""
","
","","","685.5999999996275","","","14","3543","2039","&#9776;","elianto","#3366ff99"," "," ","1","+10","[1537.199999999255]","1","0","1","","","","","","","",""
"pit-trial","28","374971","0.0-2.0-8.1-3.1","battery-v0.2","","""event"",""trial"",""time""
""fullscreenenter"",""1"",""1933""
""blur"",""19"",""226935""
""focus"",""19"",""230707""
""blur"",""19"",""235350""
""focus"",""19"",""238001""
","""event"",""trial"",""time""
""blur"",""19"",""226935""
""blur"",""19"",""235350""
","""event"",""trial"",""time""
""focus"",""19"",""230707""
""focus"",""19"",""238001""
","""event"",""trial"",""time""
""fullscreenenter"",""1"",""1933""
","
","","","695.3999999985099","","","14","3543","2039","&#9776;","elianto","#3366ff99"," "," ","1","0","[1547.2999999988824]","1","0","1","","","","","","","",""
"pit-trial","29","379835","0.0-2.0-8.1-4.1","battery-v0.2","","""event"",""trial"",""time""
""fullscreenenter"",""1"",""1933""
""blur"",""19"",""226935""
""focus"",""19"",""230707""
""blur"",""19"",""235350""
""focus"",""19"",""238001""
","""event"",""trial"",""time""
""blur"",""19"",""226935""
""blur"",""19"",""235350""
","""event"",""trial"",""time""
""focus"",""19"",""230707""
""focus"",""19"",""238001""
","""event"",""trial"",""time""
""fullscreenenter"",""1"",""1933""
","
","","","-1","","","14","3543","2039","&#9776;","elianto","#3366ff99"," ","-1","0","0","[]","0","0","1","","","","","","","",""
"pit-trial","30","384700","0.0-2.0-8.2-0.2","battery-v0.2","","""event"",""trial"",""time""
""fullscreenenter"",""1"",""1933""
""blur"",""19"",""226935""
""focus"",""19"",""230707""
""blur"",""19"",""235350""
""focus"",""19"",""238001""
","""event"",""trial"",""time""
""blur"",""19"",""226935""
""blur"",""19"",""235350""
","""event"",""trial"",""time""
""focus"",""19"",""230707""
""focus"",""19"",""238001""
","""event"",""trial"",""time""
""fullscreenenter"",""1"",""1933""
","
","","","-1","","","14","3543","2039","&#9776;","elianto","#3366ff99"," ","-1","0","0","[3209]","1","0","1","","","","","","","",""
"pit-trial","31","389564","0.0-2.0-8.2-1.2","battery-v0.2","","""event"",""trial"",""time""
""fullscreenenter"",""1"",""1933""
""blur"",""19"",""226935""
""focus"",""19"",""230707""
""blur"",""19"",""235350""
""focus"",""19"",""238001""
","""event"",""trial"",""time""
""blur"",""19"",""226935""
""blur"",""19"",""235350""
","""event"",""trial"",""time""
""focus"",""19"",""230707""
""focus"",""19"",""238001""
","""event"",""trial"",""time""
""fullscreenenter"",""1"",""1933""
","
","","","-1","","","14","3543","2039","&#9776;","elianto","#3366ff99"," ","-1","0","0","[3285.5999999996275]","1","0","1","","","","","","","",""
"pit-trial","32","393868","0.0-2.0-8.2-2.2","battery-v0.2","","""event"",""trial"",""time""
""fullscreenenter"",""1"",""1933""
""blur"",""19"",""226935""
""focus"",""19"",""230707""
""blur"",""19"",""235350""
""focus"",""19"",""238001""
","""event"",""trial"",""time""
""blur"",""19"",""226935""
""blur"",""19"",""235350""
","""event"",""trial"",""time""
""focus"",""19"",""230707""
""focus"",""19"",""238001""
","""event"",""trial"",""time""
""fullscreenenter"",""1"",""1933""
","
","","","1445.2999999988824","","","14","3543","2039","&#9776;","elianto","#3366ff99"," "," ","1","+10","[2298.9000000003725]","1","0","1","","","","","","","",""
"pit-trial","33","398732","0.0-2.0-8.2-3.2","battery-v0.2","","""event"",""trial"",""time""
""fullscreenenter"",""1"",""1933""
""blur"",""19"",""226935""
""focus"",""19"",""230707""
""blur"",""19"",""235350""
""focus"",""19"",""238001""
","""event"",""trial"",""time""
""blur"",""19"",""226935""
""blur"",""19"",""235350""
","""event"",""trial"",""time""
""focus"",""19"",""230707""
""focus"",""19"",""238001""
","""event"",""trial"",""time""
""fullscreenenter"",""1"",""1933""
","
","","","-1","","","14","3543","2039","&#9776;","elianto","#3366ff99"," ","-1","0","+10","[2936.60000000149]","1","0","1","","","","","","","",""
"pit-trial","34","403595","0.0-2.0-8.2-4.2","battery-v0.2","","""event"",""trial"",""time""
""fullscreenenter"",""1"",""1933""
""blur"",""19"",""226935""
""focus"",""19"",""230707""
""blur"",""19"",""235350""
""focus"",""19"",""238001""
","""event"",""trial"",""time""
""blur"",""19"",""226935""
""blur"",""19"",""235350""
","""event"",""trial"",""time""
""focus"",""19"",""230707""
""focus"",""19"",""238001""
","""event"",""trial"",""time""
""fullscreenenter"",""1"",""1933""
","
","","","-1","","","14","3543","2039","&#9776;","elianto","#3366ff99"," ","-1","0","0","[]","0","0","1","","","","","","","",""
"call-function","35","403596","0.0-2.0-9.0","battery-v0.2","","""event"",""trial"",""time""
""fullscreenenter"",""1"",""1933""
""blur"",""19"",""226935""
""focus"",""19"",""230707""
""blur"",""19"",""235350""
""focus"",""19"",""238001""
","""event"",""trial"",""time""
""blur"",""19"",""226935""
""blur"",""19"",""235350""
","""event"",""trial"",""time""
""focus"",""19"",""230707""
""focus"",""19"",""238001""
","""event"",""trial"",""time""
""fullscreenenter"",""1"",""1933""
","
","","","","","","","","","","","","","","","","","","","","","","","","","","",""
"pit-instructions","36","452001","0.0-2.0-10.0","battery-v0.2","","""event"",""trial"",""time""
""fullscreenenter"",""1"",""1933""
""blur"",""19"",""226935""
""focus"",""19"",""230707""
""blur"",""19"",""235350""
""focus"",""19"",""238001""
","""event"",""trial"",""time""
""blur"",""19"",""226935""
""blur"",""19"",""235350""
","""event"",""trial"",""time""
""focus"",""19"",""230707""
""focus"",""19"",""238001""
","""event"",""trial"",""time""
""fullscreenenter"",""1"",""1933""
","
","","[{""page_index"":0,""viewing_time"":6495.4000000003725},{""page_index"":1,""viewing_time"":12353.900000000373},{""page_index"":2,""viewing_time"":11018.099999999627},{""page_index"":3,""viewing_time"":10741},{""page_index"":4,""viewing_time"":7794.300000000745}]","48403.09999999963","","","","","","","","","","","","","","","","","","","","","","","",""
"pit-trial","37","456889","0.0-2.0-11.0-0.0","battery-v0.2","","""event"",""trial"",""time""
""fullscreenenter"",""1"",""1933""
""blur"",""19"",""226935""
""focus"",""19"",""230707""
""blur"",""19"",""235350""
""focus"",""19"",""238001""
","""event"",""trial"",""time""
""blur"",""19"",""226935""
""blur"",""19"",""235350""
","""event"",""trial"",""time""
""focus"",""19"",""230707""
""focus"",""19"",""238001""
","""event"",""trial"",""time""
""fullscreenenter"",""1"",""1933""
","
","","","-1","","","14","3543","2039","&#9761;","elianto","#3366ff99","-1","-1","1","+10","[]","0","0","2","","","","","","","",""
"pit-trial","38","461772","0.0-2.0-11.0-1.0","battery-v0.2","","""event"",""trial"",""time""
""fullscreenenter"",""1"",""1933""
""blur"",""19"",""226935""
""focus"",""19"",""230707""
""blur"",""19"",""235350""
""focus"",""19"",""238001""
","""event"",""trial"",""time""
""blur"",""19"",""226935""
""blur"",""19"",""235350""
","""event"",""trial"",""time""
""focus"",""19"",""230707""
""focus"",""19"",""238001""
","""event"",""trial"",""time""
""fullscreenenter"",""1"",""1933""
","
","","","-1","","","14","3543","2039","&#9761;","elianto","#3366ff99","-1","-1","1","+10","[]","0","0","2","","","","","","","",""
"pit-trial","39","466649","0.0-2.0-11.0-2.0","battery-v0.2","","""event"",""trial"",""time""
""fullscreenenter"",""1"",""1933""
""blur"",""19"",""226935""
""focus"",""19"",""230707""
""blur"",""19"",""235350""
""focus"",""19"",""238001""
","""event"",""trial"",""time""
""blur"",""19"",""226935""
""blur"",""19"",""235350""
","""event"",""trial"",""time""
""focus"",""19"",""230707""
""focus"",""19"",""238001""
","""event"",""trial"",""time""
""fullscreenenter"",""1"",""1933""
","
","","","-1","","","14","3543","2039","&#9761;","elianto","#3366ff99","-1","-1","1","+10","[]","0","0","2","","","","","","","",""
"pit-trial","40","471528","0.0-2.0-11.0-3.0","battery-v0.2","","""event"",""trial"",""time""
""fullscreenenter"",""1"",""1933""
""blur"",""19"",""226935""
""focus"",""19"",""230707""
""blur"",""19"",""235350""
""focus"",""19"",""238001""
","""event"",""trial"",""time""
""blur"",""19"",""226935""
""blur"",""19"",""235350""
","""event"",""trial"",""time""
""focus"",""19"",""230707""
""focus"",""19"",""238001""
","""event"",""trial"",""time""
""fullscreenenter"",""1"",""1933""
","
","","","-1","","","14","3543","2039","&#9761;","elianto","#3366ff99","-1","-1","1","0","[]","0","0","2","","","","","","","",""
"pit-trial","41","476413","0.0-2.0-11.0-4.0","battery-v0.2","","""event"",""trial"",""time""
""fullscreenenter"",""1"",""1933""
""blur"",""19"",""226935""
""focus"",""19"",""230707""
""blur"",""19"",""235350""
""focus"",""19"",""238001""
","""event"",""trial"",""time""
""blur"",""19"",""226935""
""blur"",""19"",""235350""
","""event"",""trial"",""time""
""focus"",""19"",""230707""
""focus"",""19"",""238001""
","""event"",""trial"",""time""
""fullscreenenter"",""1"",""1933""
","
","","","-1","","","14","3543","2039","&#9761;","elianto","#3366ff99","-1","-1","1","+10","[]","0","0","2","","","","","","","",""
"pit-trial","42","481285","0.0-2.0-11.1-0.1","battery-v0.2","","""event"",""trial"",""time""
""fullscreenenter"",""1"",""1933""
""blur"",""19"",""226935""
""focus"",""19"",""230707""
""blur"",""19"",""235350""
""focus"",""19"",""238001""
","""event"",""trial"",""time""
""blur"",""19"",""226935""
""blur"",""19"",""235350""
","""event"",""trial"",""time""
""focus"",""19"",""230707""
""focus"",""19"",""238001""
","""event"",""trial"",""time""
""fullscreenenter"",""1"",""1933""
","
","","","-1","","","14","3543","2039","&#9761;","elianto","#3366ff99","-1","-1","1","+10","[]","0","0","2","","","","","","","",""
"pit-trial","43","486148","0.0-2.0-11.1-1.1","battery-v0.2","","""event"",""trial"",""time""
""fullscreenenter"",""1"",""1933""
""blur"",""19"",""226935""
""focus"",""19"",""230707""
""blur"",""19"",""235350""
""focus"",""19"",""238001""
","""event"",""trial"",""time""
""blur"",""19"",""226935""
""blur"",""19"",""235350""
","""event"",""trial"",""time""
""focus"",""19"",""230707""
""focus"",""19"",""238001""
","""event"",""trial"",""time""
""fullscreenenter"",""1"",""1933""
","
","","","-1","","","14","3543","2039","&#9761;","elianto","#3366ff99","-1","-1","1","+10","[]","0","0","2","","","","","","","",""
"pit-trial","44","491011","0.0-2.0-11.1-2.1","battery-v0.2","","""event"",""trial"",""time""
""fullscreenenter"",""1"",""1933""
""blur"",""19"",""226935""
""focus"",""19"",""230707""
""blur"",""19"",""235350""
""focus"",""19"",""238001""
","""event"",""trial"",""time""
""blur"",""19"",""226935""
""blur"",""19"",""235350""
","""event"",""trial"",""time""
""focus"",""19"",""230707""
""focus"",""19"",""238001""
","""event"",""trial"",""time""
""fullscreenenter"",""1"",""1933""
","
","","","-1","","","14","3543","2039","&#9761;","elianto","#3366ff99","-1","-1","1","+10","[]","0","0","2","","","","","","","",""
"pit-trial","45","495875","0.0-2.0-11.1-3.1","battery-v0.2","","""event"",""trial"",""time""
""fullscreenenter"",""1"",""1933""
""blur"",""19"",""226935""
""focus"",""19"",""230707""
""blur"",""19"",""235350""
""focus"",""19"",""238001""
","""event"",""trial"",""time""
""blur"",""19"",""226935""
""blur"",""19"",""235350""
","""event"",""trial"",""time""
""focus"",""19"",""230707""
""focus"",""19"",""238001""
","""event"",""trial"",""time""
""fullscreenenter"",""1"",""1933""
","
","","","-1","","","14","3543","2039","&#9761;","elianto","#3366ff99","-1","-1","1","0","[]","0","0","2","","","","","","","",""
"pit-trial","46","500739","0.0-2.0-11.1-4.1","battery-v0.2","","""event"",""trial"",""time""
""fullscreenenter"",""1"",""1933""
""blur"",""19"",""226935""
""focus"",""19"",""230707""
""blur"",""19"",""235350""
""focus"",""19"",""238001""
","""event"",""trial"",""time""
""blur"",""19"",""226935""
""blur"",""19"",""235350""
","""event"",""trial"",""time""
""focus"",""19"",""230707""
""focus"",""19"",""238001""
","""event"",""trial"",""time""
""fullscreenenter"",""1"",""1933""
","
","","","-1","","","14","3543","2039","&#9761;","elianto","#3366ff99","-1","-1","1","+10","[]","0","0","2","","","","","","","",""
"pit-trial","47","505604","0.0-2.0-11.2-0.2","battery-v0.2","","""event"",""trial"",""time""
""fullscreenenter"",""1"",""1933""
""blur"",""19"",""226935""
""focus"",""19"",""230707""
""blur"",""19"",""235350""
""focus"",""19"",""238001""
","""event"",""trial"",""time""
""blur"",""19"",""226935""
""blur"",""19"",""235350""
","""event"",""trial"",""time""
""focus"",""19"",""230707""
""focus"",""19"",""238001""
","""event"",""trial"",""time""
""fullscreenenter"",""1"",""1933""
","
","","","-1","","","14","3543","2039","&#9761;","elianto","#3366ff99","-1","-1","1","+10","[]","0","0","2","","","","","","","",""
"pit-trial","48","510468","0.0-2.0-11.2-1.2","battery-v0.2","","""event"",""trial"",""time""
""fullscreenenter"",""1"",""1933""
""blur"",""19"",""226935""
""focus"",""19"",""230707""
""blur"",""19"",""235350""
""focus"",""19"",""238001""
","""event"",""trial"",""time""
""blur"",""19"",""226935""
""blur"",""19"",""235350""
","""event"",""trial"",""time""
""focus"",""19"",""230707""
""focus"",""19"",""238001""
","""event"",""trial"",""time""
""fullscreenenter"",""1"",""1933""
","
","","","-1","","","14","3543","2039","&#9761;","elianto","#3366ff99","-1","-1","1","+10","[]","0","0","2","","","","","","","",""
"pit-trial","49","515332","0.0-2.0-11.2-2.2","battery-v0.2","","""event"",""trial"",""time""
""fullscreenenter"",""1"",""1933""
""blur"",""19"",""226935""
""focus"",""19"",""230707""
""blur"",""19"",""235350""
""focus"",""19"",""238001""
","""event"",""trial"",""time""
""blur"",""19"",""226935""
""blur"",""19"",""235350""
","""event"",""trial"",""time""
""focus"",""19"",""230707""
""focus"",""19"",""238001""
","""event"",""trial"",""time""
""fullscreenenter"",""1"",""1933""
","
","","","-1","","","14","3543","2039","&#9761;","elianto","#3366ff99","-1","-1","1","+10","[]","0","0","2","","","","","","","",""
"pit-trial","50","520196","0.0-2.0-11.2-3.2","battery-v0.2","","""event"",""trial"",""time""
""fullscreenenter"",""1"",""1933""
""blur"",""19"",""226935""
""focus"",""19"",""230707""
""blur"",""19"",""235350""
""focus"",""19"",""238001""
","""event"",""trial"",""time""
""blur"",""19"",""226935""
""blur"",""19"",""235350""
","""event"",""trial"",""time""
""focus"",""19"",""230707""
""focus"",""19"",""238001""
","""event"",""trial"",""time""
""fullscreenenter"",""1"",""1933""
","
","","","-1","","","14","3543","2039","&#9761;","elianto","#3366ff99","-1","-1","1","0","[]","0","0","2","","","","","","","",""
"pit-trial","51","525059","0.0-2.0-11.2-4.2","battery-v0.2","","""event"",""trial"",""time""
""fullscreenenter"",""1"",""1933""
""blur"",""19"",""226935""
""focus"",""19"",""230707""
""blur"",""19"",""235350""
""focus"",""19"",""238001""
","""event"",""trial"",""time""
""blur"",""19"",""226935""
""blur"",""19"",""235350""
","""event"",""trial"",""time""
""focus"",""19"",""230707""
""focus"",""19"",""238001""
","""event"",""trial"",""time""
""fullscreenenter"",""1"",""1933""
","
","","","-1","","","14","3543","2039","&#9761;","elianto","#3366ff99","-1","-1","1","+10","[]","0","0","2","","","","","","","",""
"pit-trial","52","529924","0.0-2.0-11.3-0.3","battery-v0.2","","""event"",""trial"",""time""
""fullscreenenter"",""1"",""1933""
""blur"",""19"",""226935""
""focus"",""19"",""230707""
""blur"",""19"",""235350""
""focus"",""19"",""238001""
","""event"",""trial"",""time""
""blur"",""19"",""226935""
""blur"",""19"",""235350""
","""event"",""trial"",""time""
""focus"",""19"",""230707""
""focus"",""19"",""238001""
","""event"",""trial"",""time""
""fullscreenenter"",""1"",""1933""
","
","","","-1","","","14","3543","2039","&#9761;","elianto","#3366ff99","-1","-1","1","+10","[]","0","0","2","","","","","","","",""
"pit-trial","53","534787","0.0-2.0-11.3-1.3","battery-v0.2","","""event"",""trial"",""time""
""fullscreenenter"",""1"",""1933""
""blur"",""19"",""226935""
""focus"",""19"",""230707""
""blur"",""19"",""235350""
""focus"",""19"",""238001""
","""event"",""trial"",""time""
""blur"",""19"",""226935""
""blur"",""19"",""235350""
","""event"",""trial"",""time""
""focus"",""19"",""230707""
""focus"",""19"",""238001""
","""event"",""trial"",""time""
""fullscreenenter"",""1"",""1933""
","
","","","-1","","","14","3543","2039","&#9761;","elianto","#3366ff99","-1","-1","1","+10","[]","0","0","2","","","","","","","",""
"pit-trial","54","539652","0.0-2.0-11.3-2.3","battery-v0.2","","""event"",""trial"",""time""
""fullscreenenter"",""1"",""1933""
""blur"",""19"",""226935""
""focus"",""19"",""230707""
""blur"",""19"",""235350""
""focus"",""19"",""238001""
","""event"",""trial"",""time""
""blur"",""19"",""226935""
""blur"",""19"",""235350""
","""event"",""trial"",""time""
""focus"",""19"",""230707""
""focus"",""19"",""238001""
","""event"",""trial"",""time""
""fullscreenenter"",""1"",""1933""
","
","","","-1","","","14","3543","2039","&#9761;","elianto","#3366ff99","-1","-1","1","+10","[]","0","0","2","","","","","","","",""
"pit-trial","55","544524","0.0-2.0-11.3-3.3","battery-v0.2","","""event"",""trial"",""time""
""fullscreenenter"",""1"",""1933""
""blur"",""19"",""226935""
""focus"",""19"",""230707""
""blur"",""19"",""235350""
""focus"",""19"",""238001""
","""event"",""trial"",""time""
""blur"",""19"",""226935""
""blur"",""19"",""235350""
","""event"",""trial"",""time""
""focus"",""19"",""230707""
""focus"",""19"",""238001""
","""event"",""trial"",""time""
""fullscreenenter"",""1"",""1933""
","
","","","-1","","","14","3543","2039","&#9761;","elianto","#3366ff99","-1","-1","1","0","[]","0","0","2","","","","","","","",""
"pit-trial","56","549388","0.0-2.0-11.3-4.3","battery-v0.2","","""event"",""trial"",""time""
""fullscreenenter"",""1"",""1933""
""blur"",""19"",""226935""
""focus"",""19"",""230707""
""blur"",""19"",""235350""
""focus"",""19"",""238001""
","""event"",""trial"",""time""
""blur"",""19"",""226935""
""blur"",""19"",""235350""
","""event"",""trial"",""time""
""focus"",""19"",""230707""
""focus"",""19"",""238001""
","""event"",""trial"",""time""
""fullscreenenter"",""1"",""1933""
","
","","","-1","","","14","3543","2039","&#9761;","elianto","#3366ff99","-1","-1","1","+10","[]","0","0","2","","","","","","","",""
"call-function","57","549389","0.0-2.0-12.0","battery-v0.2","","""event"",""trial"",""time""
""fullscreenenter"",""1"",""1933""
""blur"",""19"",""226935""
""focus"",""19"",""230707""
""blur"",""19"",""235350""
""focus"",""19"",""238001""
","""event"",""trial"",""time""
""blur"",""19"",""226935""
""blur"",""19"",""235350""
","""event"",""trial"",""time""
""focus"",""19"",""230707""
""focus"",""19"",""238001""
","""event"",""trial"",""time""
""fullscreenenter"",""1"",""1933""
","
","","","","","","","","","","","","","","","","","","","","","","","","","","",""
"pit-instructions","58","582967","0.0-2.0-13.0","battery-v0.2","","""event"",""trial"",""time""
""fullscreenenter"",""1"",""1933""
""blur"",""19"",""226935""
""focus"",""19"",""230707""
""blur"",""19"",""235350""
""focus"",""19"",""238001""
","""event"",""trial"",""time""
""blur"",""19"",""226935""
""blur"",""19"",""235350""
","""event"",""trial"",""time""
""focus"",""19"",""230707""
""focus"",""19"",""238001""
","""event"",""trial"",""time""
""fullscreenenter"",""1"",""1933""
","
","","[{""page_index"":0,""viewing_time"":8029.699999999255},{""page_index"":1,""viewing_time"":7609.800000000745},{""page_index"":2,""viewing_time"":3160.300000000745},{""page_index"":3,""viewing_time"":10572.799999998882},{""page_index"":4,""viewing_time"":4204.300000000745}]","33577.300000000745","","","","","","","","","","","","","","","","","","","","","","","",""
"pit-trial","59","587838","0.0-2.0-14.0-0.0","battery-v0.2","","""event"",""trial"",""time""
""fullscreenenter"",""1"",""1933""
""blur"",""19"",""226935""
""focus"",""19"",""230707""
""blur"",""19"",""235350""
""focus"",""19"",""238001""
","""event"",""trial"",""time""
""blur"",""19"",""226935""
""blur"",""19"",""235350""
","""event"",""trial"",""time""
""focus"",""19"",""230707""
""focus"",""19"",""238001""
","""event"",""trial"",""time""
""fullscreenenter"",""1"",""1933""
","
","","","-1","","","14","3543","2039","&#9826;","elianto","#f73b6a7A","-1","-1","1","0","[]","0","0","3","","","","","","","",""
"pit-trial","60","592704","0.0-2.0-14.0-1.0","battery-v0.2","","""event"",""trial"",""time""
""fullscreenenter"",""1"",""1933""
""blur"",""19"",""226935""
""focus"",""19"",""230707""
""blur"",""19"",""235350""
""focus"",""19"",""238001""
","""event"",""trial"",""time""
""blur"",""19"",""226935""
""blur"",""19"",""235350""
","""event"",""trial"",""time""
""focus"",""19"",""230707""
""focus"",""19"",""238001""
","""event"",""trial"",""time""
""fullscreenenter"",""1"",""1933""
","
","","","-1","","","14","3543","2039","&#9826;","elianto","#f73b6a7A","-1","-1","1","0","[]","0","0","3","","","","","","","",""
"pit-trial","61","597590","0.0-2.0-14.0-2.0","battery-v0.2","","""event"",""trial"",""time""
""fullscreenenter"",""1"",""1933""
""blur"",""19"",""226935""
""focus"",""19"",""230707""
""blur"",""19"",""235350""
""focus"",""19"",""238001""
","""event"",""trial"",""time""
""blur"",""19"",""226935""
""blur"",""19"",""235350""
","""event"",""trial"",""time""
""focus"",""19"",""230707""
""focus"",""19"",""238001""
","""event"",""trial"",""time""
""fullscreenenter"",""1"",""1933""
","
","","","-1","","","14","3543","2039","&#9826;","elianto","#f73b6a7A","-1","-1","1","0","[]","0","0","3","","","","","","","",""
"pit-trial","62","602468","0.0-2.0-14.0-3.0","battery-v0.2","","""event"",""trial"",""time""
""fullscreenenter"",""1"",""1933""
""blur"",""19"",""226935""
""focus"",""19"",""230707""
""blur"",""19"",""235350""
""focus"",""19"",""238001""
","""event"",""trial"",""time""
""blur"",""19"",""226935""
""blur"",""19"",""235350""
","""event"",""trial"",""time""
""focus"",""19"",""230707""
""focus"",""19"",""238001""
","""event"",""trial"",""time""
""fullscreenenter"",""1"",""1933""
","
","","","-1","","","14","3543","2039","&#9826;","elianto","#f73b6a7A","-1","-1","1","-10","[]","0","0","3","","","","","","","",""
"pit-trial","63","607349","0.0-2.0-14.0-4.0","battery-v0.2","","""event"",""trial"",""time""
""fullscreenenter"",""1"",""1933""
""blur"",""19"",""226935""
""focus"",""19"",""230707""
""blur"",""19"",""235350""
""focus"",""19"",""238001""
","""event"",""trial"",""time""
""blur"",""19"",""226935""
""blur"",""19"",""235350""
","""event"",""trial"",""time""
""focus"",""19"",""230707""
""focus"",""19"",""238001""
","""event"",""trial"",""time""
""fullscreenenter"",""1"",""1933""
","
","","","-1","","","14","3543","2039","&#9826;","elianto","#f73b6a7A","-1","-1","1","0","[]","0","0","3","","","","","","","",""
"pit-trial","64","612227","0.0-2.0-14.1-0.1","battery-v0.2","","""event"",""trial"",""time""
""fullscreenenter"",""1"",""1933""
""blur"",""19"",""226935""
""focus"",""19"",""230707""
""blur"",""19"",""235350""
""focus"",""19"",""238001""
","""event"",""trial"",""time""
""blur"",""19"",""226935""
""blur"",""19"",""235350""
","""event"",""trial"",""time""
""focus"",""19"",""230707""
""focus"",""19"",""238001""
","""event"",""trial"",""time""
""fullscreenenter"",""1"",""1933""
","
","","","-1","","","14","3543","2039","&#9826;","elianto","#f73b6a7A","-1","-1","1","0","[]","0","0","3","","","","","","","",""
"pit-trial","65","617092","0.0-2.0-14.1-1.1","battery-v0.2","","""event"",""trial"",""time""
""fullscreenenter"",""1"",""1933""
""blur"",""19"",""226935""
""focus"",""19"",""230707""
""blur"",""19"",""235350""
""focus"",""19"",""238001""
","""event"",""trial"",""time""
""blur"",""19"",""226935""
""blur"",""19"",""235350""
","""event"",""trial"",""time""
""focus"",""19"",""230707""
""focus"",""19"",""238001""
","""event"",""trial"",""time""
""fullscreenenter"",""1"",""1933""
","
","","","-1","","","14","3543","2039","&#9826;","elianto","#f73b6a7A","-1","-1","1","0","[]","0","0","3","","","","","","","",""
"pit-trial","66","621956","0.0-2.0-14.1-2.1","battery-v0.2","","""event"",""trial"",""time""
""fullscreenenter"",""1"",""1933""
""blur"",""19"",""226935""
""focus"",""19"",""230707""
""blur"",""19"",""235350""
""focus"",""19"",""238001""
","""event"",""trial"",""time""
""blur"",""19"",""226935""
""blur"",""19"",""235350""
","""event"",""trial"",""time""
""focus"",""19"",""230707""
""focus"",""19"",""238001""
","""event"",""trial"",""time""
""fullscreenenter"",""1"",""1933""
","
","","","-1","","","14","3543","2039","&#9826;","elianto","#f73b6a7A","-1","-1","1","0","[]","0","0","3","","","","","","","",""
"pit-trial","67","626820","0.0-2.0-14.1-3.1","battery-v0.2","","""event"",""trial"",""time""
""fullscreenenter"",""1"",""1933""
""blur"",""19"",""226935""
""focus"",""19"",""230707""
""blur"",""19"",""235350""
""focus"",""19"",""238001""
","""event"",""trial"",""time""
""blur"",""19"",""226935""
""blur"",""19"",""235350""
","""event"",""trial"",""time""
""focus"",""19"",""230707""
""focus"",""19"",""238001""
","""event"",""trial"",""time""
""fullscreenenter"",""1"",""1933""
","
","","","-1","","","14","3543","2039","&#9826;","elianto","#f73b6a7A","-1","-1","1","-10","[]","0","0","3","","","","","","","",""
"pit-trial","68","631684","0.0-2.0-14.1-4.1","battery-v0.2","","""event"",""trial"",""time""
""fullscreenenter"",""1"",""1933""
""blur"",""19"",""226935""
""focus"",""19"",""230707""
""blur"",""19"",""235350""
""focus"",""19"",""238001""
","""event"",""trial"",""time""
""blur"",""19"",""226935""
""blur"",""19"",""235350""
","""event"",""trial"",""time""
""focus"",""19"",""230707""
""focus"",""19"",""238001""
","""event"",""trial"",""time""
""fullscreenenter"",""1"",""1933""
","
","","","-1","","","14","3543","2039","&#9826;","elianto","#f73b6a7A","-1","-1","1","0","[]","0","0","3","","","","","","","",""
"pit-trial","69","636547","0.0-2.0-14.2-0.2","battery-v0.2","","""event"",""trial"",""time""
""fullscreenenter"",""1"",""1933""
""blur"",""19"",""226935""
""focus"",""19"",""230707""
""blur"",""19"",""235350""
""focus"",""19"",""238001""
","""event"",""trial"",""time""
""blur"",""19"",""226935""
""blur"",""19"",""235350""
","""event"",""trial"",""time""
""focus"",""19"",""230707""
""focus"",""19"",""238001""
","""event"",""trial"",""time""
""fullscreenenter"",""1"",""1933""
","
","","","-1","","","14","3543","2039","&#9826;","elianto","#f73b6a7A","-1","-1","1","0","[]","0","0","3","","","","","","","",""
"pit-trial","70","641413","0.0-2.0-14.2-1.2","battery-v0.2","","""event"",""trial"",""time""
""fullscreenenter"",""1"",""1933""
""blur"",""19"",""226935""
""focus"",""19"",""230707""
""blur"",""19"",""235350""
""focus"",""19"",""238001""
","""event"",""trial"",""time""
""blur"",""19"",""226935""
""blur"",""19"",""235350""
","""event"",""trial"",""time""
""focus"",""19"",""230707""
""focus"",""19"",""238001""
","""event"",""trial"",""time""
""fullscreenenter"",""1"",""1933""
","
","","","-1","","","14","3543","2039","&#9826;","elianto","#f73b6a7A","-1","-1","1","0","[]","0","0","3","","","","","","","",""
"pit-trial","71","646275","0.0-2.0-14.2-2.2","battery-v0.2","","""event"",""trial"",""time""
""fullscreenenter"",""1"",""1933""
""blur"",""19"",""226935""
""focus"",""19"",""230707""
""blur"",""19"",""235350""
""focus"",""19"",""238001""
","""event"",""trial"",""time""
""blur"",""19"",""226935""
""blur"",""19"",""235350""
","""event"",""trial"",""time""
""focus"",""19"",""230707""
""focus"",""19"",""238001""
","""event"",""trial"",""time""
""fullscreenenter"",""1"",""1933""
","
","","","-1","","","14","3543","2039","&#9826;","elianto","#f73b6a7A","-1","-1","1","0","[]","0","0","3","","","","","","","",""
"pit-trial","72","651140","0.0-2.0-14.2-3.2","battery-v0.2","","""event"",""trial"",""time""
""fullscreenenter"",""1"",""1933""
""blur"",""19"",""226935""
""focus"",""19"",""230707""
""blur"",""19"",""235350""
""focus"",""19"",""238001""
","""event"",""trial"",""time""
""blur"",""19"",""226935""
""blur"",""19"",""235350""
","""event"",""trial"",""time""
""focus"",""19"",""230707""
""focus"",""19"",""238001""
","""event"",""trial"",""time""
""fullscreenenter"",""1"",""1933""
","
","","","-1","","","14","3543","2039","&#9826;","elianto","#f73b6a7A","-1","-1","1","-10","[]","0","0","3","","","","","","","",""
"pit-trial","73","656003","0.0-2.0-14.2-4.2","battery-v0.2","","""event"",""trial"",""time""
""fullscreenenter"",""1"",""1933""
""blur"",""19"",""226935""
""focus"",""19"",""230707""
""blur"",""19"",""235350""
""focus"",""19"",""238001""
","""event"",""trial"",""time""
""blur"",""19"",""226935""
""blur"",""19"",""235350""
","""event"",""trial"",""time""
""focus"",""19"",""230707""
""focus"",""19"",""238001""
","""event"",""trial"",""time""
""fullscreenenter"",""1"",""1933""
","
","","","-1","","","14","3543","2039","&#9826;","elianto","#f73b6a7A","-1","-1","1","0","[]","0","0","3","","","","","","","",""
"pit-trial","74","660868","0.0-2.0-14.3-0.3","battery-v0.2","","""event"",""trial"",""time""
""fullscreenenter"",""1"",""1933""
""blur"",""19"",""226935""
""focus"",""19"",""230707""
""blur"",""19"",""235350""
""focus"",""19"",""238001""
","""event"",""trial"",""time""
""blur"",""19"",""226935""
""blur"",""19"",""235350""
","""event"",""trial"",""time""
""focus"",""19"",""230707""
""focus"",""19"",""238001""
","""event"",""trial"",""time""
""fullscreenenter"",""1"",""1933""
","
","","","-1","","","14","3543","2039","&#9826;","elianto","#f73b6a7A","-1","-1","1","0","[]","0","0","3","","","","","","","",""
"pit-trial","75","665731","0.0-2.0-14.3-1.3","battery-v0.2","","""event"",""trial"",""time""
""fullscreenenter"",""1"",""1933""
""blur"",""19"",""226935""
""focus"",""19"",""230707""
""blur"",""19"",""235350""
""focus"",""19"",""238001""
","""event"",""trial"",""time""
""blur"",""19"",""226935""
""blur"",""19"",""235350""
","""event"",""trial"",""time""
""focus"",""19"",""230707""
""focus"",""19"",""238001""
","""event"",""trial"",""time""
""fullscreenenter"",""1"",""1933""
","
","","","-1","","","14","3543","2039","&#9826;","elianto","#f73b6a7A","-1","-1","1","0","[]","0","0","3","","","","","","","",""
"pit-trial","76","670595","0.0-2.0-14.3-2.3","battery-v0.2","","""event"",""trial"",""time""
""fullscreenenter"",""1"",""1933""
""blur"",""19"",""226935""
""focus"",""19"",""230707""
""blur"",""19"",""235350""
""focus"",""19"",""238001""
","""event"",""trial"",""time""
""blur"",""19"",""226935""
""blur"",""19"",""235350""
","""event"",""trial"",""time""
""focus"",""19"",""230707""
""focus"",""19"",""238001""
","""event"",""trial"",""time""
""fullscreenenter"",""1"",""1933""
","
","","","-1","","","14","3543","2039","&#9826;","elianto","#f73b6a7A","-1","-1","1","0","[]","0","0","3","","","","","","","",""
"pit-trial","77","675459","0.0-2.0-14.3-3.3","battery-v0.2","","""event"",""trial"",""time""
""fullscreenenter"",""1"",""1933""
""blur"",""19"",""226935""
""focus"",""19"",""230707""
""blur"",""19"",""235350""
""focus"",""19"",""238001""
","""event"",""trial"",""time""
""blur"",""19"",""226935""
""blur"",""19"",""235350""
","""event"",""trial"",""time""
""focus"",""19"",""230707""
""focus"",""19"",""238001""
","""event"",""trial"",""time""
""fullscreenenter"",""1"",""1933""
","
","","","-1","","","14","3543","2039","&#9826;","elianto","#f73b6a7A","-1","-1","1","-10","[]","0","0","3","","","","","","","",""
"pit-trial","78","680323","0.0-2.0-14.3-4.3","battery-v0.2","","""event"",""trial"",""time""
""fullscreenenter"",""1"",""1933""
""blur"",""19"",""226935""
""focus"",""19"",""230707""
""blur"",""19"",""235350""
""focus"",""19"",""238001""
","""event"",""trial"",""time""
""blur"",""19"",""226935""
""blur"",""19"",""235350""
","""event"",""trial"",""time""
""focus"",""19"",""230707""
""focus"",""19"",""238001""
","""event"",""trial"",""time""
""fullscreenenter"",""1"",""1933""
","
","","","-1","","","14","3543","2039","&#9826;","elianto","#f73b6a7A","-1","-1","1","0","[]","0","0","3","","","","","","","",""
"call-function","79","680324","0.0-2.0-15.0","battery-v0.2","","""event"",""trial"",""time""
""fullscreenenter"",""1"",""1933""
""blur"",""19"",""226935""
""focus"",""19"",""230707""
""blur"",""19"",""235350""
""focus"",""19"",""238001""
","""event"",""trial"",""time""
""blur"",""19"",""226935""
""blur"",""19"",""235350""
","""event"",""trial"",""time""
""focus"",""19"",""230707""
""focus"",""19"",""238001""
","""event"",""trial"",""time""
""fullscreenenter"",""1"",""1933""
","
","","","","","","","","","","","","","","","","","","","","","","","","","","",""
"pit-instructions","80","724174","0.0-2.0-16.0","battery-v0.2","","""event"",""trial"",""time""
""fullscreenenter"",""1"",""1933""
""blur"",""19"",""226935""
""focus"",""19"",""230707""
""blur"",""19"",""235350""
""focus"",""19"",""238001""
","""event"",""trial"",""time""
""blur"",""19"",""226935""
""blur"",""19"",""235350""
","""event"",""trial"",""time""
""focus"",""19"",""230707""
""focus"",""19"",""238001""
","""event"",""trial"",""time""
""fullscreenenter"",""1"",""1933""
","
","","[{""page_index"":0,""viewing_time"":15022.099999999627},{""page_index"":1,""viewing_time"":10488.099999999627},{""page_index"":2,""viewing_time"":7412.200000001118},{""page_index"":3,""viewing_time"":10927.699999999255}]","43850.300000000745","","","","","","","","","","","","","","","","","","","","","","","",""
"pit-trial","81","729045","0.0-2.0-17.0-0.0","battery-v0.2","","""event"",""trial"",""time""
""fullscreenenter"",""1"",""1933""
""blur"",""19"",""226935""
""focus"",""19"",""230707""
""blur"",""19"",""235350""
""focus"",""19"",""238001""
","""event"",""trial"",""time""
""blur"",""19"",""226935""
""blur"",""19"",""235350""
","""event"",""trial"",""time""
""focus"",""19"",""230707""
""focus"",""19"",""238001""
","""event"",""trial"",""time""
""fullscreenenter"",""1"",""1933""
","
","","","-1","","","14","3543","2039","&#9789;","elianto","#f73b6a7A"," ","-1","0","-10","[2872.9000000003725,3867.9000000003725,4154.10000000149,4542.10000000149]","4","0","4","","","","","","","",""
"pit-trial","82","732057","0.0-2.0-17.0-1.0","battery-v0.2","","""event"",""trial"",""time""
""fullscreenenter"",""1"",""1933""
""blur"",""19"",""226935""
""focus"",""19"",""230707""
""blur"",""19"",""235350""
""focus"",""19"",""238001""
","""event"",""trial"",""time""
""blur"",""19"",""226935""
""blur"",""19"",""235350""
","""event"",""trial"",""time""
""focus"",""19"",""230707""
""focus"",""19"",""238001""
","""event"",""trial"",""time""
""fullscreenenter"",""1"",""1933""
","
","","","142.10000000149012","","","14","3543","2039","&#9789;","elianto","#f73b6a7A"," "," ","1","0","[995.5]","1","0","4","","","","","","","",""
"pit-trial","83","735272","0.0-2.0-17.0-2.0","battery-v0.2","","""event"",""trial"",""time""
""fullscreenenter"",""1"",""1933""
""blur"",""19"",""226935""
""focus"",""19"",""230707""
""blur"",""19"",""235350""
""focus"",""19"",""238001""
","""event"",""trial"",""time""
""blur"",""19"",""226935""
""blur"",""19"",""235350""
","""event"",""trial"",""time""
""focus"",""19"",""230707""
""focus"",""19"",""238001""
","""event"",""trial"",""time""
""fullscreenenter"",""1"",""1933""
","
","","","346.3999999985099","","","14","3543","2039","&#9789;","elianto","#f73b6a7A"," "," ","1","0","[1202]","1","0","4","","","","","","","",""
"pit-trial","84","738646","0.0-2.0-17.0-3.0","battery-v0.2","","""event"",""trial"",""time""
""fullscreenenter"",""1"",""1933""
""blur"",""19"",""226935""
""focus"",""19"",""230707""
""blur"",""19"",""235350""
""focus"",""19"",""238001""
","""event"",""trial"",""time""
""blur"",""19"",""226935""
""blur"",""19"",""235350""
","""event"",""trial"",""time""
""focus"",""19"",""230707""
""focus"",""19"",""238001""
","""event"",""trial"",""time""
""fullscreenenter"",""1"",""1933""
","
","","","503.2000000011176","","","14","3543","2039","&#9789;","elianto","#f73b6a7A"," "," ","1","-10","[1359]","1","0","4","","","","","","","",""
"pit-trial","85","741933","0.0-2.0-17.0-4.0","battery-v0.2","","""event"",""trial"",""time""
""fullscreenenter"",""1"",""1933""
""blur"",""19"",""226935""
""focus"",""19"",""230707""
""blur"",""19"",""235350""
""focus"",""19"",""238001""
","""event"",""trial"",""time""
""blur"",""19"",""226935""
""blur"",""19"",""235350""
","""event"",""trial"",""time""
""focus"",""19"",""230707""
""focus"",""19"",""238001""
","""event"",""trial"",""time""
""fullscreenenter"",""1"",""1933""
","
","","","428.80000000074506","","","14","3543","2039","&#9789;","elianto","#f73b6a7A"," "," ","1","0","[1280.5999999996275]","1","0","4","","","","","","","",""
"pit-trial","86","744986","0.0-2.0-17.1-0.1","battery-v0.2","","""event"",""trial"",""time""
""fullscreenenter"",""1"",""1933""
""blur"",""19"",""226935""
""focus"",""19"",""230707""
""blur"",""19"",""235350""
""focus"",""19"",""238001""
","""event"",""trial"",""time""
""blur"",""19"",""226935""
""blur"",""19"",""235350""
","""event"",""trial"",""time""
""focus"",""19"",""230707""
""focus"",""19"",""238001""
","""event"",""trial"",""time""
""fullscreenenter"",""1"",""1933""
","
","","","185.19999999925494","","","14","3543","2039","&#9789;","elianto","#f73b6a7A"," "," ","1","0","[1036.199999999255]","1","0","4","","","","","","","",""
"pit-trial","87","749844","0.0-2.0-17.1-1.1","battery-v0.2","","""event"",""trial"",""time""
""fullscreenenter"",""1"",""1933""
""blur"",""19"",""226935""
""focus"",""19"",""230707""
""blur"",""19"",""235350""
""focus"",""19"",""238001""
","""event"",""trial"",""time""
""blur"",""19"",""226935""
""blur"",""19"",""235350""
","""event"",""trial"",""time""
""focus"",""19"",""230707""
""focus"",""19"",""238001""
","""event"",""trial"",""time""
""fullscreenenter"",""1"",""1933""
","
","","","1997.300000000745","","","14","3543","2039","&#9789;","elianto","#f73b6a7A"," "," ","1","0","[2848.2000000011176]","1","0","4","","","","","","","",""
"pit-trial","88","753515","0.0-2.0-17.1-2.1","battery-v0.2","","""event"",""trial"",""time""
""fullscreenenter"",""1"",""1933""
""blur"",""19"",""226935""
""focus"",""19"",""230707""
""blur"",""19"",""235350""
""focus"",""19"",""238001""
","""event"",""trial"",""time""
""blur"",""19"",""226935""
""blur"",""19"",""235350""
","""event"",""trial"",""time""
""focus"",""19"",""230707""
""focus"",""19"",""238001""
","""event"",""trial"",""time""
""fullscreenenter"",""1"",""1933""
","
","","","812.4000000003725","","","14","3543","2039","&#9789;","elianto","#f73b6a7A"," "," ","1","0","[1665.4000000003725,2710.199999999255]","2","0","4","","","","","","","",""
"pit-trial","89","756427","0.0-2.0-17.1-3.1","battery-v0.2","","""event"",""trial"",""time""
""fullscreenenter"",""1"",""1933""
""blur"",""19"",""226935""
""focus"",""19"",""230707""
""blur"",""19"",""235350""
""focus"",""19"",""238001""
","""event"",""trial"",""time""
""blur"",""19"",""226935""
""blur"",""19"",""235350""
","""event"",""trial"",""time""
""focus"",""19"",""230707""
""focus"",""19"",""238001""
","""event"",""trial"",""time""
""fullscreenenter"",""1"",""1933""
","
","","","49","","","14","3543","2039","&#9789;","elianto","#f73b6a7A"," "," ","1","-10","[262.90000000037253,902.5999999996275,1467.7999999988824,2058.9000000003725,2597.5999999996275]","5","0","4","","","","","","","",""
"pit-trial","90","759691","0.0-2.0-17.1-4.1","battery-v0.2","","""event"",""trial"",""time""
""fullscreenenter"",""1"",""1933""
""blur"",""19"",""226935""
""focus"",""19"",""230707""
""blur"",""19"",""235350""
""focus"",""19"",""238001""
","""event"",""trial"",""time""
""blur"",""19"",""226935""
""blur"",""19"",""235350""
","""event"",""trial"",""time""
""focus"",""19"",""230707""
""focus"",""19"",""238001""
","""event"",""trial"",""time""
""fullscreenenter"",""1"",""1933""
","
","","","398.30000000074506","","","14","3543","2039","&#9789;","elianto","#f73b6a7A"," "," ","1","0","[175.5,664.8000000007451,1254.5,2376.800000000745,2839.5999999996275]","5","0","4","","","","","","","",""
"pit-trial","91","763339","0.0-2.0-17.2-0.2","battery-v0.2","","""event"",""trial"",""time""
""fullscreenenter"",""1"",""1933""
""blur"",""19"",""226935""
""focus"",""19"",""230707""
""blur"",""19"",""235350""
""focus"",""19"",""238001""
","""event"",""trial"",""time""
""blur"",""19"",""226935""
""blur"",""19"",""235350""
","""event"",""trial"",""time""
""focus"",""19"",""230707""
""focus"",""19"",""238001""
","""event"",""trial"",""time""
""fullscreenenter"",""1"",""1933""
","
","","","786.1999999992549","","","14","3543","2039","&#9789;","elianto","#f73b6a7A"," "," ","1","0","[164.7999999988824,1640.0999999996275,2128.7999999988824]","3","0","4","","","","","","","",""
"pit-trial","92","768083","0.0-2.0-17.2-1.2","battery-v0.2","","""event"",""trial"",""time""
""fullscreenenter"",""1"",""1933""
""blur"",""19"",""226935""
""focus"",""19"",""230707""
""blur"",""19"",""235350""
""focus"",""19"",""238001""
","""event"",""trial"",""time""
""blur"",""19"",""226935""
""blur"",""19"",""235350""
","""event"",""trial"",""time""
""focus"",""19"",""230707""
""focus"",""19"",""238001""
","""event"",""trial"",""time""
""fullscreenenter"",""1"",""1933""
","
","","","1883.5","","","14","3543","2039","&#9789;","elianto","#f73b6a7A"," "," ","1","0","[2739.5999999996275]","1","0","4","","","","","","","",""
"pit-trial","93","771059","0.0-2.0-17.2-2.2","battery-v0.2","","""event"",""trial"",""time""
""fullscreenenter"",""1"",""1933""
""blur"",""19"",""226935""
""focus"",""19"",""230707""
""blur"",""19"",""235350""
""focus"",""19"",""238001""
","""event"",""trial"",""time""
""blur"",""19"",""226935""
""blur"",""19"",""235350""
","""event"",""trial"",""time""
""focus"",""19"",""230707""
""focus"",""19"",""238001""
","""event"",""trial"",""time""
""fullscreenenter"",""1"",""1933""
","
","","","116.79999999888241","","","14","3543","2039","&#9789;","elianto","#f73b6a7A"," "," ","1","0","[556,969.5,1482.9000000003725,1972.0999999996275]","4","0","4","","","","","","","",""
"pit-trial","94","774131","0.0-2.0-17.2-3.2","battery-v0.2","","""event"",""trial"",""time""
""fullscreenenter"",""1"",""1933""
""blur"",""19"",""226935""
""focus"",""19"",""230707""
""blur"",""19"",""235350""
""focus"",""19"",""238001""
","""event"",""trial"",""time""
""blur"",""19"",""226935""
""blur"",""19"",""235350""
","""event"",""trial"",""time""
""focus"",""19"",""230707""
""focus"",""19"",""238001""
","""event"",""trial"",""time""
""fullscreenenter"",""1"",""1933""
","
","","","207.40000000037253","","","14","3543","2039","&#9789;","elianto","#f73b6a7A"," "," ","1","-10","[523.3999999985099,1062.2999999988824]","2","0","4","","","","","","","",""
"pit-trial","95","777205","0.0-2.0-17.2-4.2","battery-v0.2","","""event"",""trial"",""time""
""fullscreenenter"",""1"",""1933""
""blur"",""19"",""226935""
""focus"",""19"",""230707""
""blur"",""19"",""235350""
""focus"",""19"",""238001""
","""event"",""trial"",""time""
""blur"",""19"",""226935""
""blur"",""19"",""235350""
","""event"",""trial"",""time""
""focus"",""19"",""230707""
""focus"",""19"",""238001""
","""event"",""trial"",""time""
""fullscreenenter"",""1"",""1933""
","
","","","211.69999999925494","","","14","3543","2039","&#9789;","elianto","#f73b6a7A"," "," ","1","0","[97.69999999925494,1067.699999999255]","2","0","4","","","","","","","",""
"pit-trial","96","782068","0.0-2.0-17.3-0.3","battery-v0.2","","""event"",""trial"",""time""
""fullscreenenter"",""1"",""1933""
""blur"",""19"",""226935""
""focus"",""19"",""230707""
""blur"",""19"",""235350""
""focus"",""19"",""238001""
","""event"",""trial"",""time""
""blur"",""19"",""226935""
""blur"",""19"",""235350""
","""event"",""trial"",""time""
""focus"",""19"",""230707""
""focus"",""19"",""238001""
","""event"",""trial"",""time""
""fullscreenenter"",""1"",""1933""
","
","","","-1","","","14","3543","2039","&#9789;","elianto","#f73b6a7A"," ","-1","0","-10","[]","0","0","4","","","","","","","",""
"pit-trial","97","786164","0.0-2.0-17.3-1.3","battery-v0.2","","""event"",""trial"",""time""
""fullscreenenter"",""1"",""1933""
""blur"",""19"",""226935""
""focus"",""19"",""230707""
""blur"",""19"",""235350""
""focus"",""19"",""238001""
","""event"",""trial"",""time""
""blur"",""19"",""226935""
""blur"",""19"",""235350""
","""event"",""trial"",""time""
""focus"",""19"",""230707""
""focus"",""19"",""238001""
","""event"",""trial"",""time""
""fullscreenenter"",""1"",""1933""
","
","","","1236.5999999996275","","","14","3543","2039","&#9789;","elianto","#f73b6a7A"," "," ","1","0","[2090,2603.9000000003725]","2","0","4","","","","","","","",""
"pit-trial","98","789804","0.0-2.0-17.3-2.3","battery-v0.2","","""event"",""trial"",""time""
""fullscreenenter"",""1"",""1933""
""blur"",""19"",""226935""
""focus"",""19"",""230707""
""blur"",""19"",""235350""
""focus"",""19"",""238001""
","""event"",""trial"",""time""
""blur"",""19"",""226935""
""blur"",""19"",""235350""
","""event"",""trial"",""time""
""focus"",""19"",""230707""
""focus"",""19"",""238001""
","""event"",""trial"",""time""
""fullscreenenter"",""1"",""1933""
","
","","","783.0999999996275","","","14","3543","2039","&#9789;","elianto","#f73b6a7A"," "," ","1","0","[161.90000000037253,1637]","2","0","4","","","","","","","",""
"pit-trial","99","793684","0.0-2.0-17.3-3.3","battery-v0.2","","""event"",""trial"",""time""
""fullscreenenter"",""1"",""1933""
""blur"",""19"",""226935""
""focus"",""19"",""230707""
""blur"",""19"",""235350""
""focus"",""19"",""238001""
","""event"",""trial"",""time""
""blur"",""19"",""226935""
""blur"",""19"",""235350""
","""event"",""trial"",""time""
""focus"",""19"",""230707""
""focus"",""19"",""238001""
","""event"",""trial"",""time""
""fullscreenenter"",""1"",""1933""
","
","","","1023.2999999988824","","","14","3543","2039","&#9789;","elianto","#f73b6a7A"," "," ","1","-10","[1875.2999999988824,2414.89999999851]","2","0","4","","","","","","","",""
"pit-trial","100","797547","0.0-2.0-17.3-4.3","battery-v0.2","","""event"",""trial"",""time""
""fullscreenenter"",""1"",""1933""
""blur"",""19"",""226935""
""focus"",""19"",""230707""
""blur"",""19"",""235350""
""focus"",""19"",""238001""
","""event"",""trial"",""time""
""blur"",""19"",""226935""
""blur"",""19"",""235350""
","""event"",""trial"",""time""
""focus"",""19"",""230707""
""focus"",""19"",""238001""
","""event"",""trial"",""time""
""fullscreenenter"",""1"",""1933""
","
","","","1002.2999999988824","","","14","3543","2039","&#9789;","elianto","#f73b6a7A"," "," ","1","0","[1857.0999999996275,2523.0999999996275,3012.0999999996275,3501.2000000011176,3813.0999999996275]","5","0","4","","","","","","","",""
"call-function","101","797549","0.0-2.0-18.0","battery-v0.2","","""event"",""trial"",""time""
""fullscreenenter"",""1"",""1933""
""blur"",""19"",""226935""
""focus"",""19"",""230707""
""blur"",""19"",""235350""
""focus"",""19"",""238001""
","""event"",""trial"",""time""
""blur"",""19"",""226935""
""blur"",""19"",""235350""
","""event"",""trial"",""time""
""focus"",""19"",""230707""
""focus"",""19"",""238001""
","""event"",""trial"",""time""
""fullscreenenter"",""1"",""1933""
","
","","","","","","","","","","","","","","","","","","","","","","","","","","",""
"pit-instructions","102","934187","0.0-2.0-19.0","battery-v0.2","","""event"",""trial"",""time""
""fullscreenenter"",""1"",""1933""
""blur"",""19"",""226935""
""focus"",""19"",""230707""
""blur"",""19"",""235350""
""focus"",""19"",""238001""
","""event"",""trial"",""time""
""blur"",""19"",""226935""
""blur"",""19"",""235350""
","""event"",""trial"",""time""
""focus"",""19"",""230707""
""focus"",""19"",""238001""
","""event"",""trial"",""time""
""fullscreenenter"",""1"",""1933""
","
","","[{""page_index"":0,""viewing_time"":12536.5},{""page_index"":1,""viewing_time"":3977},{""page_index"":0,""viewing_time"":2064},{""page_index"":1,""viewing_time"":49430.800000000745},{""page_index"":2,""viewing_time"":16273.199999999255},{""page_index"":3,""viewing_time"":10344.5},{""page_index"":4,""viewing_time"":11996.400000000373},{""page_index"":5,""viewing_time"":8828.400000000373},{""page_index"":6,""viewing_time"":6787.800000000745},{""page_index"":7,""viewing_time"":8531.799999998882},{""page_index"":8,""viewing_time"":5867.9000000003725}]","136638.6000000015","","","","","","","","","","","","","","","","","","","","","","","",""
"pit-comprehension","103","939038","0.0-2.0-20.0-0.0","battery-v0.2","","""event"",""trial"",""time""
""fullscreenenter"",""1"",""1933""
""blur"",""19"",""226935""
""focus"",""19"",""230707""
""blur"",""19"",""235350""
""focus"",""19"",""238001""
","""event"",""trial"",""time""
""blur"",""19"",""226935""
""blur"",""19"",""235350""
","""event"",""trial"",""time""
""focus"",""19"",""230707""
""focus"",""19"",""238001""
","""event"",""trial"",""time""
""fullscreenenter"",""1"",""1933""
","
","","","4848.4000000003725","[""SPACE""]","0","14","3543","2039","","","","","","","","","","","","","","","","","","",""
"pit-instructions","104","942850","0.0-2.0-20.0-1.0","battery-v0.2","","""event"",""trial"",""time""
""fullscreenenter"",""1"",""1933""
""blur"",""19"",""226935""
""focus"",""19"",""230707""
""blur"",""19"",""235350""
""focus"",""19"",""238001""
","""event"",""trial"",""time""
""blur"",""19"",""226935""
""blur"",""19"",""235350""
","""event"",""trial"",""time""
""focus"",""19"",""230707""
""focus"",""19"",""238001""
","""event"",""trial"",""time""
""fullscreenenter"",""1"",""1933""
","
","","[{""page_index"":0,""viewing_time"":3767.7000000011176}]","3768","","","","","","","","","","","","","","","","","","","","","","","",""
"pit-comprehension","105","951097","0.0-2.0-21.0-0.0","battery-v0.2","","""event"",""trial"",""time""
""fullscreenenter"",""1"",""1933""
""blur"",""19"",""226935""
""focus"",""19"",""230707""
""blur"",""19"",""235350""
""focus"",""19"",""238001""
","""event"",""trial"",""time""
""blur"",""19"",""226935""
""blur"",""19"",""235350""
","""event"",""trial"",""time""
""focus"",""19"",""230707""
""focus"",""19"",""238001""
","""event"",""trial"",""time""
""fullscreenenter"",""1"",""1933""
","
","","","8245.199999999255","[""10""]","0","14","3543","2039","","","","","","","","","","","","","","","","","","",""
"pit-instructions","106","952532","0.0-2.0-21.0-1.0","battery-v0.2","","""event"",""trial"",""time""
""fullscreenenter"",""1"",""1933""
""blur"",""19"",""226935""
""focus"",""19"",""230707""
""blur"",""19"",""235350""
""focus"",""19"",""238001""
","""event"",""trial"",""time""
""blur"",""19"",""226935""
""blur"",""19"",""235350""
","""event"",""trial"",""time""
""focus"",""19"",""230707""
""focus"",""19"",""238001""
","""event"",""trial"",""time""
""fullscreenenter"",""1"",""1933""
","
","","[{""page_index"":0,""viewing_time"":1381.7000000011176}]","1381.9000000003725","","","","","","","","","","","","","","","","","","","","","","","",""
"pit-comprehension","107","959083","0.0-2.0-22.0-0.0","battery-v0.2","","""event"",""trial"",""time""
""fullscreenenter"",""1"",""1933""
""blur"",""19"",""226935""
""focus"",""19"",""230707""
""blur"",""19"",""235350""
""focus"",""19"",""238001""
","""event"",""trial"",""time""
""blur"",""19"",""226935""
""blur"",""19"",""235350""
","""event"",""trial"",""time""
""focus"",""19"",""230707""
""focus"",""19"",""238001""
","""event"",""trial"",""time""
""fullscreenenter"",""1"",""1933""
","
","","","6549.5","[""-10""]","1","14","3543","2039","","","","","","","","","","","","","","","","","","",""
"pit-instructions","108","963298","0.0-2.0-22.0-1.0","battery-v0.2","","""event"",""trial"",""time""
""fullscreenenter"",""1"",""1933""
""blur"",""19"",""226935""
""focus"",""19"",""230707""
""blur"",""19"",""235350""
""focus"",""19"",""238001""
","""event"",""trial"",""time""
""blur"",""19"",""226935""
""blur"",""19"",""235350""
","""event"",""trial"",""time""
""focus"",""19"",""230707""
""focus"",""19"",""238001""
","""event"",""trial"",""time""
""fullscreenenter"",""1"",""1933""
","
","","[{""page_index"":0,""viewing_time"":4174.699999999255}]","4174.9000000003725","","","","","","","","","","","","","","","","","","","","","","","",""
"pit-instructions","109","963983","0.0-2.0-22.0-2.0-0.0","battery-v0.2","","""event"",""trial"",""time""
""fullscreenenter"",""1"",""1933""
""blur"",""19"",""226935""
""focus"",""19"",""230707""
""blur"",""19"",""235350""
""focus"",""19"",""238001""
","""event"",""trial"",""time""
""blur"",""19"",""226935""
""blur"",""19"",""235350""
","""event"",""trial"",""time""
""focus"",""19"",""230707""
""focus"",""19"",""238001""
","""event"",""trial"",""time""
""fullscreenenter"",""1"",""1933""
","
","","[{""page_index"":0,""viewing_time"":683.3000000007451}]","683.5","","","","","","","","","","","","","","","","","","","","","","","",""
"pit-comprehension","110","970788","0.0-2.0-22.1-0.1","battery-v0.2","","""event"",""trial"",""time""
""fullscreenenter"",""1"",""1933""
""blur"",""19"",""226935""
""focus"",""19"",""230707""
""blur"",""19"",""235350""
""focus"",""19"",""238001""
","""event"",""trial"",""time""
""blur"",""19"",""226935""
""blur"",""19"",""235350""
","""event"",""trial"",""time""
""focus"",""19"",""230707""
""focus"",""19"",""238001""
","""event"",""trial"",""time""
""fullscreenenter"",""1"",""1933""
","
","","","6803.4000000003725","[""0""]","0","14","3543","2039","","","","","","","","","","","","","","","","","","",""
"pit-instructions","111","971884","0.0-2.0-22.1-1.1","battery-v0.2","","""event"",""trial"",""time""
""fullscreenenter"",""1"",""1933""
""blur"",""19"",""226935""
""focus"",""19"",""230707""
""blur"",""19"",""235350""
""focus"",""19"",""238001""
","""event"",""trial"",""time""
""blur"",""19"",""226935""
""blur"",""19"",""235350""
","""event"",""trial"",""time""
""focus"",""19"",""230707""
""focus"",""19"",""238001""
","""event"",""trial"",""time""
""fullscreenenter"",""1"",""1933""
","
","","[{""page_index"":0,""viewing_time"":1050.0999999996275}]","1050.300000000745","","","","","","","","","","","","","","","","","","","","","","","",""
"pit-comprehension","112","980416","0.0-2.0-23.0-0.0","battery-v0.2","","""event"",""trial"",""time""
""fullscreenenter"",""1"",""1933""
""blur"",""19"",""226935""
""focus"",""19"",""230707""
""blur"",""19"",""235350""
""focus"",""19"",""238001""
","""event"",""trial"",""time""
""blur"",""19"",""226935""
""blur"",""19"",""235350""
","""event"",""trial"",""time""
""focus"",""19"",""230707""
""focus"",""19"",""238001""
","""event"",""trial"",""time""
""fullscreenenter"",""1"",""1933""
","
","","","8530","[""True""]","0","14","3543","2039","","","","","","","","","","","","","","","","","","",""
"pit-instructions","113","991594","0.0-2.0-23.0-1.0","battery-v0.2","","""event"",""trial"",""time""
""fullscreenenter"",""1"",""1933""
""blur"",""19"",""226935""
""focus"",""19"",""230707""
""blur"",""19"",""235350""
""focus"",""19"",""238001""
","""event"",""trial"",""time""
""blur"",""19"",""226935""
""blur"",""19"",""235350""
","""event"",""trial"",""time""
""focus"",""19"",""230707""
""focus"",""19"",""238001""
","""event"",""trial"",""time""
""fullscreenenter"",""1"",""1933""
","
","","[{""page_index"":0,""viewing_time"":11135.400000000373}]","11135.900000000373","","","","","","","","","","","","","","","","","","","","","","","",""
"pit-comprehension","114","1001376","0.0-2.0-24.0-0.0","battery-v0.2","","""event"",""trial"",""time""
""fullscreenenter"",""1"",""1933""
""blur"",""19"",""226935""
""focus"",""19"",""230707""
""blur"",""19"",""235350""
""focus"",""19"",""238001""
","""event"",""trial"",""time""
""blur"",""19"",""226935""
""blur"",""19"",""235350""
","""event"",""trial"",""time""
""focus"",""19"",""230707""
""focus"",""19"",""238001""
","""event"",""trial"",""time""
""fullscreenenter"",""1"",""1933""
","
","","","9779.800000000745","[""True""]","0","14","3543","2039","","","","","","","","","","","","","","","","","","",""
"pit-instructions","115","1010094","0.0-2.0-24.0-1.0","battery-v0.2","","""event"",""trial"",""time""
""fullscreenenter"",""1"",""1933""
""blur"",""19"",""226935""
""focus"",""19"",""230707""
""blur"",""19"",""235350""
""focus"",""19"",""238001""
","""event"",""trial"",""time""
""blur"",""19"",""226935""
""blur"",""19"",""235350""
","""event"",""trial"",""time""
""focus"",""19"",""230707""
""focus"",""19"",""238001""
","""event"",""trial"",""time""
""fullscreenenter"",""1"",""1933""
","
","","[{""page_index"":0,""viewing_time"":8672.39999999851}]","8672.699999999255","","","","","","","","","","","","","","","","","","","","","","","",""
"pit-comprehension","116","1017702","0.0-2.0-25.0-0.0","battery-v0.2","","""event"",""trial"",""time""
""fullscreenenter"",""1"",""1933""
""blur"",""19"",""226935""
""focus"",""19"",""230707""
""blur"",""19"",""235350""
""focus"",""19"",""238001""
","""event"",""trial"",""time""
""blur"",""19"",""226935""
""blur"",""19"",""235350""
","""event"",""trial"",""time""
""focus"",""19"",""230707""
""focus"",""19"",""238001""
","""event"",""trial"",""time""
""fullscreenenter"",""1"",""1933""
","
","","","7605.10000000149","[""True""]","0","14","3543","2039","","","","","","","","","","","","","","","","","","",""
"pit-instructions","117","1020279","0.0-2.0-25.0-1.0","battery-v0.2","","""event"",""trial"",""time""
""fullscreenenter"",""1"",""1933""
""blur"",""19"",""226935""
""focus"",""19"",""230707""
""blur"",""19"",""235350""
""focus"",""19"",""238001""
","""event"",""trial"",""time""
""blur"",""19"",""226935""
""blur"",""19"",""235350""
","""event"",""trial"",""time""
""focus"",""19"",""230707""
""focus"",""19"",""238001""
","""event"",""trial"",""time""
""fullscreenenter"",""1"",""1933""
","
","","[{""page_index"":0,""viewing_time"":2533}]","2533.199999999255","","","","","","","","","","","","","","","","","","","","","","","",""
"pit-comprehension","118","1024836","0.0-2.0-26.0-0.0","battery-v0.2","","""event"",""trial"",""time""
""fullscreenenter"",""1"",""1933""
""blur"",""19"",""226935""
""focus"",""19"",""230707""
""blur"",""19"",""235350""
""focus"",""19"",""238001""
","""event"",""trial"",""time""
""blur"",""19"",""226935""
""blur"",""19"",""235350""
","""event"",""trial"",""time""
""focus"",""19"",""230707""
""focus"",""19"",""238001""
","""event"",""trial"",""time""
""fullscreenenter"",""1"",""1933""
","
","","","4555.10000000149","[""False""]","0","14","3543","2039","","","","","","","","","","","","","","","","","","",""
"pit-instructions","119","1052094","0.0-2.0-26.0-1.0","battery-v0.2","","""event"",""trial"",""time""
""fullscreenenter"",""1"",""1933""
""blur"",""19"",""226935""
""focus"",""19"",""230707""
""blur"",""19"",""235350""
""focus"",""19"",""238001""
","""event"",""trial"",""time""
""blur"",""19"",""226935""
""blur"",""19"",""235350""
","""event"",""trial"",""time""
""focus"",""19"",""230707""
""focus"",""19"",""238001""
","""event"",""trial"",""time""
""fullscreenenter"",""1"",""1933""
","
","","[{""page_index"":0,""viewing_time"":27213.900000000373}]","27214.200000001118","","","","","","","","","","","","","","","","","","","","","","","",""
"pit-instructions","120","1080586","0.0-3.0","battery-v0.2","","""event"",""trial"",""time""
""fullscreenenter"",""1"",""1933""
""blur"",""19"",""226935""
""focus"",""19"",""230707""
""blur"",""19"",""235350""
""focus"",""19"",""238001""
","""event"",""trial"",""time""
""blur"",""19"",""226935""
""blur"",""19"",""235350""
","""event"",""trial"",""time""
""focus"",""19"",""230707""
""focus"",""19"",""238001""
","""event"",""trial"",""time""
""fullscreenenter"",""1"",""1933""
","
","","[{""page_index"":0,""viewing_time"":7836.299999998882},{""page_index"":1,""viewing_time"":9935.200000001118},{""page_index"":2,""viewing_time"":10718.699999999255}]","28490.400000000373","","","","","","","","","","","","","","","","","","","","","","","",""
"pit-trial","121","1084587","0.0-4.0","battery-v0.2","","""event"",""trial"",""time""
""fullscreenenter"",""1"",""1933""
""blur"",""19"",""226935""
""focus"",""19"",""230707""
""blur"",""19"",""235350""
""focus"",""19"",""238001""
","""event"",""trial"",""time""
""blur"",""19"",""226935""
""blur"",""19"",""235350""
","""event"",""trial"",""time""
""focus"",""19"",""230707""
""focus"",""19"",""238001""
","""event"",""trial"",""time""
""fullscreenenter"",""1"",""1933""
","
","","","1128.5","","","14","3543","2039","&#9728;","elianto","#f73b6a7A","-1"," ","0","0","[1983.5999999996275]","1","1","","","3543","1","0","4","lose","no-go","1"
"pit-trial","122","1088085","0.0-5.0","battery-v0.2","","""event"",""trial"",""time""
""fullscreenenter"",""1"",""1933""
""blur"",""19"",""226935""
""focus"",""19"",""230707""
""blur"",""19"",""235350""
""focus"",""19"",""238001""
","""event"",""trial"",""time""
""blur"",""19"",""226935""
""blur"",""19"",""235350""
","""event"",""trial"",""time""
""focus"",""19"",""230707""
""focus"",""19"",""238001""
","""event"",""trial"",""time""
""fullscreenenter"",""1"",""1933""
","
","","","626.7000000011176","","","14","3543","2039","&#9730;","elianto","#3366ff99"," "," ","1","+10","[1482.0999999996275]","1","1","","","3543","2","1","1","win","go","0"
"pit-trial","123","1092971","0.0-6.0","battery-v0.2","","""event"",""trial"",""time""
""fullscreenenter"",""1"",""1933""
""blur"",""19"",""226935""
""focus"",""19"",""230707""
""blur"",""19"",""235350""
""focus"",""19"",""238001""
","""event"",""trial"",""time""
""blur"",""19"",""226935""
""blur"",""19"",""235350""
","""event"",""trial"",""time""
""focus"",""19"",""230707""
""focus"",""19"",""238001""
","""event"",""trial"",""time""
""fullscreenenter"",""1"",""1933""
","
","","","-1","","","14","3543","2039","&#9752;","elianto","#f73b6a7A"," ","-1","0","-10","[]","0","1","","","3543","3","3","3","lose","go","0"
"pit-trial","124","1096480","0.0-7.0","battery-v0.2","","""event"",""trial"",""time""
""fullscreenenter"",""1"",""1933""
""blur"",""19"",""226935""
""focus"",""19"",""230707""
""blur"",""19"",""235350""
""focus"",""19"",""238001""
","""event"",""trial"",""time""
""blur"",""19"",""226935""
""blur"",""19"",""235350""
","""event"",""trial"",""time""
""focus"",""19"",""230707""
""focus"",""19"",""238001""
","""event"",""trial"",""time""
""fullscreenenter"",""1"",""1933""
","
","","","646.5","","","14","3543","2039","&#9733;","elianto","#3366ff99","-1"," ","0","0","[1502.0999999996275]","1","1","","","3543","4","2","2","win","no-go","0"
"pit-trial","125","1101365","0.0-8.0","battery-v0.2","","""event"",""trial"",""time""
""fullscreenenter"",""1"",""1933""
""blur"",""19"",""226935""
""focus"",""19"",""230707""
""blur"",""19"",""235350""
""focus"",""19"",""238001""
","""event"",""trial"",""time""
""blur"",""19"",""226935""
""blur"",""19"",""235350""
","""event"",""trial"",""time""
""focus"",""19"",""230707""
""focus"",""19"",""238001""
","""event"",""trial"",""time""
""fullscreenenter"",""1"",""1933""
","
","","","-1","","","14","3543","2039","&#9752;","elianto","#f73b6a7A"," ","-1","0","-10","[4449.699999999255]","1","1","","","3543","5","3","3","lose","go","0"
"pit-trial","126","1104474","0.0-9.0","battery-v0.2","","""event"",""trial"",""time""
""fullscreenenter"",""1"",""1933""
""blur"",""19"",""226935""
""focus"",""19"",""230707""
""blur"",""19"",""235350""
""focus"",""19"",""238001""
","""event"",""trial"",""time""
""blur"",""19"",""226935""
""blur"",""19"",""235350""
","""event"",""trial"",""time""
""focus"",""19"",""230707""
""focus"",""19"",""238001""
","""event"",""trial"",""time""
""fullscreenenter"",""1"",""1933""
","
","","","248.5","","","14","3543","2039","&#9728;","elianto","#f73b6a7A","-1"," ","0","-10","[610.5,1098.7000000011176,1612.5,2025.4000000003725,2514.4000000003725,3003.4000000003725]","6","1","","","3543","6","0","4","lose","no-go","0"
"pit-trial","127","1108292","0.0-10.0","battery-v0.2","","""event"",""trial"",""time""
""fullscreenenter"",""1"",""1933""
""blur"",""19"",""226935""
""focus"",""19"",""230707""
""blur"",""19"",""235350""
""focus"",""19"",""238001""
","""event"",""trial"",""time""
""blur"",""19"",""226935""
""blur"",""19"",""235350""
","""event"",""trial"",""time""
""focus"",""19"",""230707""
""focus"",""19"",""238001""
","""event"",""trial"",""time""
""fullscreenenter"",""1"",""1933""
","
","","","951.2999999988824","","","14","3543","2039","&#9730;","elianto","#3366ff99"," "," ","1","0","[484.5,1807.5999999996275]","2","1","","","3543","7","1","1","win","go","1"
"pit-trial","128","1111836","0.0-11.0","battery-v0.2","","""event"",""trial"",""time""
""fullscreenenter"",""1"",""1933""
""blur"",""19"",""226935""
""focus"",""19"",""230707""
""blur"",""19"",""235350""
""focus"",""19"",""238001""
","""event"",""trial"",""time""
""blur"",""19"",""226935""
""blur"",""19"",""235350""
","""event"",""trial"",""time""
""focus"",""19"",""230707""
""focus"",""19"",""238001""
","""event"",""trial"",""time""
""fullscreenenter"",""1"",""1933""
","
","","","684.1999999992549","","","14","3543","2039","&#9733;","elianto","#3366ff99","-1"," ","0","0","[1538.5999999996275]","1","1","","","3543","8","2","2","win","no-go","0"
"pit-trial","129","1115212","0.0-12.0","battery-v0.2","","""event"",""trial"",""time""
""fullscreenenter"",""1"",""1933""
""blur"",""19"",""226935""
""focus"",""19"",""230707""
""blur"",""19"",""235350""
""focus"",""19"",""238001""
","""event"",""trial"",""time""
""blur"",""19"",""226935""
""blur"",""19"",""235350""
","""event"",""trial"",""time""
""focus"",""19"",""230707""
""focus"",""19"",""238001""
","""event"",""trial"",""time""
""fullscreenenter"",""1"",""1933""
","
","","","511.40000000037253","","","14","3543","2039","&#9728;","elianto","#f73b6a7A","-1"," ","0","-10","[1366]","1","1","","","3543","9","0","4","lose","no-go","0"
"pit-trial","130","1120076","0.0-13.0","battery-v0.2","","""event"",""trial"",""time""
""fullscreenenter"",""1"",""1933""
""blur"",""19"",""226935""
""focus"",""19"",""230707""
""blur"",""19"",""235350""
""focus"",""19"",""238001""
","""event"",""trial"",""time""
""blur"",""19"",""226935""
""blur"",""19"",""235350""
","""event"",""trial"",""time""
""focus"",""19"",""230707""
""focus"",""19"",""238001""
","""event"",""trial"",""time""
""fullscreenenter"",""1"",""1933""
","
","","","-1","","","14","3543","2039","&#9730;","elianto","#3366ff99"," ","-1","0","+10","[2927.7000000011176]","1","1","","","3543","10","1","1","win","go","1"
"pit-trial","131","1123324","0.0-14.0","battery-v0.2","","""event"",""trial"",""time""
""fullscreenenter"",""1"",""1933""
""blur"",""19"",""226935""
""focus"",""19"",""230707""
""blur"",""19"",""235350""
""focus"",""19"",""238001""
","""event"",""trial"",""time""
""blur"",""19"",""226935""
""blur"",""19"",""235350""
","""event"",""trial"",""time""
""focus"",""19"",""230707""
""focus"",""19"",""238001""
","""event"",""trial"",""time""
""fullscreenenter"",""1"",""1933""
","
","","","388.80000000074506","","","14","3543","2039","&#9733;","elianto","#3366ff99","-1"," ","0","0","[779.2000000011176,1243.2000000011176]","2","1","","","3543","11","2","2","win","no-go","0"
"pit-trial","132","1127263","0.0-15.0","battery-v0.2","","""event"",""trial"",""time""
""fullscreenenter"",""1"",""1933""
""blur"",""19"",""226935""
""focus"",""19"",""230707""
""blur"",""19"",""235350""
""focus"",""19"",""238001""
","""event"",""trial"",""time""
""blur"",""19"",""226935""
""blur"",""19"",""235350""
","""event"",""trial"",""time""
""focus"",""19"",""230707""
""focus"",""19"",""238001""
","""event"",""trial"",""time""
""fullscreenenter"",""1"",""1933""
","
","","","1069","","","14","3543","2039","&#9752;","elianto","#f73b6a7A"," "," ","1","0","[1923.4000000003725]","1","1","","","3543","12","3","3","lose","go","0"
"pit-trial","133","1130852","0.0-16.0","battery-v0.2","","""event"",""trial"",""time""
""fullscreenenter"",""1"",""1933""
""blur"",""19"",""226935""
""focus"",""19"",""230707""
""blur"",""19"",""235350""
""focus"",""19"",""238001""
","""event"",""trial"",""time""
""blur"",""19"",""226935""
""blur"",""19"",""235350""
","""event"",""trial"",""time""
""focus"",""19"",""230707""
""focus"",""19"",""238001""
","""event"",""trial"",""time""
""fullscreenenter"",""1"",""1933""
","
","","","733.5","","","14","3543","2039","&#9752;","elianto","#f73b6a7A"," "," ","1","-10","[1585.199999999255]","1","1","","","3543","13","3","3","lose","go","1"
"pit-trial","134","1134732","0.0-17.0","battery-v0.2","","""event"",""trial"",""time""
""fullscreenenter"",""1"",""1933""
""blur"",""19"",""226935""
""focus"",""19"",""230707""
""blur"",""19"",""235350""
""focus"",""19"",""238001""
","""event"",""trial"",""time""
""blur"",""19"",""226935""
""blur"",""19"",""235350""
","""event"",""trial"",""time""
""focus"",""19"",""230707""
""focus"",""19"",""238001""
","""event"",""trial"",""time""
""fullscreenenter"",""1"",""1933""
","
","","","1019.5","","","14","3543","2039","&#9728;","elianto","#f73b6a7A","-1"," ","0","-10","[1874.9000000003725]","1","1","","","3543","14","0","4","lose","no-go","0"
"pit-trial","135","1139595","0.0-18.0","battery-v0.2","","""event"",""trial"",""time""
""fullscreenenter"",""1"",""1933""
""blur"",""19"",""226935""
""focus"",""19"",""230707""
""blur"",""19"",""235350""
""focus"",""19"",""238001""
","""event"",""trial"",""time""
""blur"",""19"",""226935""
""blur"",""19"",""235350""
","""event"",""trial"",""time""
""focus"",""19"",""230707""
""focus"",""19"",""238001""
","""event"",""trial"",""time""
""fullscreenenter"",""1"",""1933""
","
","","","-1","","","14","3543","2039","&#9733;","elianto","#3366ff99","-1","-1","1","+10","[2987.5]","1","1","","","3543","15","2","2","win","no-go","0"
"pit-trial","136","1144461","0.0-19.0","battery-v0.2","","""event"",""trial"",""time""
""fullscreenenter"",""1"",""1933""
""blur"",""19"",""226935""
""focus"",""19"",""230707""
""blur"",""19"",""235350""
""focus"",""19"",""238001""
","""event"",""trial"",""time""
""blur"",""19"",""226935""
""blur"",""19"",""235350""
","""event"",""trial"",""time""
""focus"",""19"",""230707""
""focus"",""19"",""238001""
","""event"",""trial"",""time""
""fullscreenenter"",""1"",""1933""
","
","","","-1","","","14","3543","2039","&#9730;","elianto","#3366ff99"," ","-1","0","0","[3698]","1","1","","","3543","16","1","1","win","go","0"
"pit-trial","137","1147860","0.0-20.0","battery-v0.2","","""event"",""trial"",""time""
""fullscreenenter"",""1"",""1933""
""blur"",""19"",""226935""
""focus"",""19"",""230707""
""blur"",""19"",""235350""
""focus"",""19"",""238001""
","""event"",""trial"",""time""
""blur"",""19"",""226935""
""blur"",""19"",""235350""
","""event"",""trial"",""time""
""focus"",""19"",""230707""
""focus"",""19"",""238001""
","""event"",""trial"",""time""
""fullscreenenter"",""1"",""1933""
","
","","","541.8000000007451","","","14","3543","2039","&#9728;","elianto","#f73b6a7A","-1"," ","0","-10","[1396.300000000745]","1","1","","","3543","17","0","4","lose","no-go","0"
"pit-trial","138","1151340","0.0-21.0","battery-v0.2","","""event"",""trial"",""time""
""fullscreenenter"",""1"",""1933""
""blur"",""19"",""226935""
""focus"",""19"",""230707""
""blur"",""19"",""235350""
""focus"",""19"",""238001""
","""event"",""trial"",""time""
""blur"",""19"",""226935""
""blur"",""19"",""235350""
","""event"",""trial"",""time""
""focus"",""19"",""230707""
""focus"",""19"",""238001""
","""event"",""trial"",""time""
""fullscreenenter"",""1"",""1933""
","
","","","616.4000000003725","","","14","3543","2039","&#9733;","elianto","#3366ff99","-1"," ","0","0","[1470.199999999255,2313.300000000745]","2","1","","","3543","18","2","2","win","no-go","0"
"pit-trial","139","1154412","0.0-22.0","battery-v0.2","","""event"",""trial"",""time""
""fullscreenenter"",""1"",""1933""
""blur"",""19"",""226935""
""focus"",""19"",""230707""
""blur"",""19"",""235350""
""focus"",""19"",""238001""
","""event"",""trial"",""time""
""blur"",""19"",""226935""
""blur"",""19"",""235350""
","""event"",""trial"",""time""
""focus"",""19"",""230707""
""focus"",""19"",""238001""
","""event"",""trial"",""time""
""fullscreenenter"",""1"",""1933""
","
","","","214.2999999988824","","","14","3543","2039","&#9730;","elianto","#3366ff99"," "," ","1","+10","[1068.5999999996275]","1","1","","","3543","19","1","1","win","go","0"
"pit-trial","140","1157764","0.0-23.0","battery-v0.2","","""event"",""trial"",""time""
""fullscreenenter"",""1"",""1933""
""blur"",""19"",""226935""
""focus"",""19"",""230707""
""blur"",""19"",""235350""
""focus"",""19"",""238001""
","""event"",""trial"",""time""
""blur"",""19"",""226935""
""blur"",""19"",""235350""
","""event"",""trial"",""time""
""focus"",""19"",""230707""
""focus"",""19"",""238001""
","""event"",""trial"",""time""
""fullscreenenter"",""1"",""1933""
","
","","","490.69999999925494","","","14","3543","2039","&#9752;","elianto","#f73b6a7A"," "," ","1","0","[1344.7999999988824]","1","1","","","3543","20","3","3","lose","go","0"
"pit-instructions","141","1170954","0.0-24.0","battery-v0.2","","""event"",""trial"",""time""
""fullscreenenter"",""1"",""1933""
""blur"",""19"",""226935""
""focus"",""19"",""230707""
""blur"",""19"",""235350""
""focus"",""19"",""238001""
","""event"",""trial"",""time""
""blur"",""19"",""226935""
""blur"",""19"",""235350""
","""event"",""trial"",""time""
""focus"",""19"",""230707""
""focus"",""19"",""238001""
","""event"",""trial"",""time""
""fullscreenenter"",""1"",""1933""
","
","","[{""page_index"":0,""viewing_time"":5983.699999999255},{""page_index"":1,""viewing_time"":7204.9000000003725}]","13189.199999999255","","","","","","","","","","","","","","","","","","","","","","","",""
"pit-trial","142","1174973","0.0-25.0","battery-v0.2","","""event"",""trial"",""time""
""fullscreenenter"",""1"",""1933""
""blur"",""19"",""226935""
""focus"",""19"",""230707""
""blur"",""19"",""235350""
""focus"",""19"",""238001""
","""event"",""trial"",""time""
""blur"",""19"",""226935""
""blur"",""19"",""235350""
","""event"",""trial"",""time""
""focus"",""19"",""230707""
""focus"",""19"",""238001""
","""event"",""trial"",""time""
""fullscreenenter"",""1"",""1933""
","
","","","1158.1000000014901","","","14","3543","2039","m","elianto","#f73b6a7A","-1"," ","0","0","[2011.3999999985099]","1","2","","","3543","21","0","4","lose","no-go","1"
"pit-trial","143","1178197","0.0-26.0","battery-v0.2","","""event"",""trial"",""time""
""fullscreenenter"",""1"",""1933""
""blur"",""19"",""226935""
""focus"",""19"",""230707""
""blur"",""19"",""235350""
""focus"",""19"",""238001""
","""event"",""trial"",""time""
""blur"",""19"",""226935""
""blur"",""19"",""235350""
","""event"",""trial"",""time""
""focus"",""19"",""230707""
""focus"",""19"",""238001""
","""event"",""trial"",""time""
""fullscreenenter"",""1"",""1933""
","
","","","362.19999999925494","","","14","3543","2039","r","elianto","#3366ff99"," "," ","1","+10","[1216.9000000003725]","1","2","","","3543","22","1","1","win","go","0"
"pit-trial","144","1181696","0.0-27.0","battery-v0.2","","""event"",""trial"",""time""
""fullscreenenter"",""1"",""1933""
""blur"",""19"",""226935""
""focus"",""19"",""230707""
""blur"",""19"",""235350""
""focus"",""19"",""238001""
","""event"",""trial"",""time""
""blur"",""19"",""226935""
""blur"",""19"",""235350""
","""event"",""trial"",""time""
""focus"",""19"",""230707""
""focus"",""19"",""238001""
","""event"",""trial"",""time""
""fullscreenenter"",""1"",""1933""
","
","","","637.2999999988824","","","14","3543","2039","h","elianto","#f73b6a7A"," "," ","1","0","[1491.199999999255]","1","2","","","3543","23","3","3","lose","go","0"
"pit-trial","145","1184903","0.0-28.0","battery-v0.2","","""event"",""trial"",""time""
""fullscreenenter"",""1"",""1933""
""blur"",""19"",""226935""
""focus"",""19"",""230707""
""blur"",""19"",""235350""
""focus"",""19"",""238001""
","""event"",""trial"",""time""
""blur"",""19"",""226935""
""blur"",""19"",""235350""
","""event"",""trial"",""time""
""focus"",""19"",""230707""
""focus"",""19"",""238001""
","""event"",""trial"",""time""
""fullscreenenter"",""1"",""1933""
","
","","","331.1000000014901","","","14","3543","2039","y","elianto","#f73b6a7A","-1"," ","0","-10","[1188.7000000011176]","1","2","","","3543","24","2","4","lose","no-go","0"
"pit-trial","146","1188423","0.0-29.0","battery-v0.2","","""event"",""trial"",""time""
""fullscreenenter"",""1"",""1933""
""blur"",""19"",""226935""
""focus"",""19"",""230707""
""blur"",""19"",""235350""
""focus"",""19"",""238001""
","""event"",""trial"",""time""
""blur"",""19"",""226935""
""blur"",""19"",""235350""
","""event"",""trial"",""time""
""focus"",""19"",""230707""
""focus"",""19"",""238001""
","""event"",""trial"",""time""
""fullscreenenter"",""1"",""1933""
","
","","","655","","","14","3543","2039","r","elianto","#3366ff99"," "," ","1","0","[1506.0999999996275]","1","2","","","3543","25","1","1","win","go","1"
"pit-trial","147","1193292","0.0-30.0","battery-v0.2","","""event"",""trial"",""time""
""fullscreenenter"",""1"",""1933""
""blur"",""19"",""226935""
""focus"",""19"",""230707""
""blur"",""19"",""235350""
""focus"",""19"",""238001""
","""event"",""trial"",""time""
""blur"",""19"",""226935""
""blur"",""19"",""235350""
","""event"",""trial"",""time""
""focus"",""19"",""230707""
""focus"",""19"",""238001""
","""event"",""trial"",""time""
""fullscreenenter"",""1"",""1933""
","
","","","-1","","","14","3543","2039","y","elianto","#f73b6a7A","-1","-1","1","-10","[]","0","2","","","3543","26","2","4","lose","no-go","1"
"pit-trial","148","1197067","0.0-31.0","battery-v0.2","","""event"",""trial"",""time""
""fullscreenenter"",""1"",""1933""
""blur"",""19"",""226935""
""focus"",""19"",""230707""
""blur"",""19"",""235350""
""focus"",""19"",""238001""
","""event"",""trial"",""time""
""blur"",""19"",""226935""
""blur"",""19"",""235350""
","""event"",""trial"",""time""
""focus"",""19"",""230707""
""focus"",""19"",""238001""
","""event"",""trial"",""time""
""fullscreenenter"",""1"",""1933""
","
","","","906.4000000003725","","","14","3543","2039","h","elianto","#f73b6a7A"," "," ","1","0","[284.5,1761.5]","2","2","","","3543","27","3","3","lose","go","0"
"pit-trial","149","1201316","0.0-32.0","battery-v0.2","","""event"",""trial"",""time""
""fullscreenenter"",""1"",""1933""
""blur"",""19"",""226935""
""focus"",""19"",""230707""
""blur"",""19"",""235350""
""focus"",""19"",""238001""
","""event"",""trial"",""time""
""blur"",""19"",""226935""
""blur"",""19"",""235350""
","""event"",""trial"",""time""
""focus"",""19"",""230707""
""focus"",""19"",""238001""
","""event"",""trial"",""time""
""fullscreenenter"",""1"",""1933""
","
","","","1390.0999999996275","","","14","3543","2039","m","elianto","#f73b6a7A","-1"," ","0","-10","[2245]","1","2","","","3543","28","0","4","lose","no-go","0"
"pit-trial","150","1206180","0.0-33.0","battery-v0.2","","""event"",""trial"",""time""
""fullscreenenter"",""1"",""1933""
""blur"",""19"",""226935""
""focus"",""19"",""230707""
""blur"",""19"",""235350""
""focus"",""19"",""238001""
","""event"",""trial"",""time""
""blur"",""19"",""226935""
""blur"",""19"",""235350""
","""event"",""trial"",""time""
""focus"",""19"",""230707""
""focus"",""19"",""238001""
","""event"",""trial"",""time""
""fullscreenenter"",""1"",""1933""
","
","","","-1","","","14","3543","2039","m","elianto","#f73b6a7A","-1","-1","1","0","[]","0","2","","","3543","29","0","4","lose","no-go","0"
"pit-trial","151","1211045","0.0-34.0","battery-v0.2","","""event"",""trial"",""time""
""fullscreenenter"",""1"",""1933""
""blur"",""19"",""226935""
""focus"",""19"",""230707""
""blur"",""19"",""235350""
""focus"",""19"",""238001""
","""event"",""trial"",""time""
""blur"",""19"",""226935""
""blur"",""19"",""235350""
","""event"",""trial"",""time""
""focus"",""19"",""230707""
""focus"",""19"",""238001""
","""event"",""trial"",""time""
""fullscreenenter"",""1"",""1933""
","
","","","-1","","","14","3543","2039","r","elianto","#3366ff99"," ","-1","0","0","[]","0","2","","","3543","30","1","1","win","go","0"
"pit-trial","152","1215188","0.0-35.0","battery-v0.2","","""event"",""trial"",""time""
""fullscreenenter"",""1"",""1933""
""blur"",""19"",""226935""
""focus"",""19"",""230707""
""blur"",""19"",""235350""
""focus"",""19"",""238001""
","""event"",""trial"",""time""
""blur"",""19"",""226935""
""blur"",""19"",""235350""
","""event"",""trial"",""time""
""focus"",""19"",""230707""
""focus"",""19"",""238001""
","""event"",""trial"",""time""
""fullscreenenter"",""1"",""1933""
","
","","","1285.0999999996275","","","14","3543","2039","y","elianto","#f73b6a7A","-1"," ","0","0","[2137.9000000003725]","1","2","","","3543","31","2","4","lose","no-go","1"
"pit-trial","153","1218819","0.0-36.0","battery-v0.2","","""event"",""trial"",""time""
""fullscreenenter"",""1"",""1933""
""blur"",""19"",""226935""
""focus"",""19"",""230707""
""blur"",""19"",""235350""
""focus"",""19"",""238001""
","""event"",""trial"",""time""
""blur"",""19"",""226935""
""blur"",""19"",""235350""
","""event"",""trial"",""time""
""focus"",""19"",""230707""
""focus"",""19"",""238001""
","""event"",""trial"",""time""
""fullscreenenter"",""1"",""1933""
","
","","","770","","","14","3543","2039","h","elianto","#f73b6a7A"," "," ","1","-10","[1621.2999999988824,2819.2999999988824,3181.199999999255,3443.5]","4","2","","","3543","32","3","3","lose","go","1"
"pit-trial","154","1221859","0.0-37.0","battery-v0.2","","""event"",""trial"",""time""
""fullscreenenter"",""1"",""1933""
""blur"",""19"",""226935""
""focus"",""19"",""230707""
""blur"",""19"",""235350""
""focus"",""19"",""238001""
","""event"",""trial"",""time""
""blur"",""19"",""226935""
""blur"",""19"",""235350""
","""event"",""trial"",""time""
""focus"",""19"",""230707""
""focus"",""19"",""238001""
","""event"",""trial"",""time""
""fullscreenenter"",""1"",""1933""
","
","","","180.40000000037253","","","14","3543","2039","y","elianto","#f73b6a7A","-1"," ","0","-10","[98.5,259.5,572.3000000007451,1034.7000000011176,1321.5999999996275,1911.5,2173.5999999996275,2459.5,2696.5]","9","2","","","3543","33","2","4","lose","no-go","0"
"pit-trial","155","1225452","0.0-38.0","battery-v0.2","","""event"",""trial"",""time""
""fullscreenenter"",""1"",""1933""
""blur"",""19"",""226935""
""focus"",""19"",""230707""
""blur"",""19"",""235350""
""focus"",""19"",""238001""
","""event"",""trial"",""time""
""blur"",""19"",""226935""
""blur"",""19"",""235350""
","""event"",""trial"",""time""
""focus"",""19"",""230707""
""focus"",""19"",""238001""
","""event"",""trial"",""time""
""fullscreenenter"",""1"",""1933""
","
","","","732.0999999996275","","","14","3543","2039","r","elianto","#3366ff99"," "," ","1","0","[1587.800000000745]","1","2","","","3543","34","1","1","win","go","1"
"pit-trial","156","1229004","0.0-39.0","battery-v0.2","","""event"",""trial"",""time""
""fullscreenenter"",""1"",""1933""
""blur"",""19"",""226935""
""focus"",""19"",""230707""
""blur"",""19"",""235350""
""focus"",""19"",""238001""
","""event"",""trial"",""time""
""blur"",""19"",""226935""
""blur"",""19"",""235350""
","""event"",""trial"",""time""
""focus"",""19"",""230707""
""focus"",""19"",""238001""
","""event"",""trial"",""time""
""fullscreenenter"",""1"",""1933""
","
","","","691.4000000003725","","","14","3543","2039","h","elianto","#f73b6a7A"," "," ","1","-10","[1546]","1","2","","","3543","35","3","3","lose","go","1"
"pit-trial","157","1232196","0.0-40.0","battery-v0.2","","""event"",""trial"",""time""
""fullscreenenter"",""1"",""1933""
