"trial_type","trial_index","time_elapsed","internal_node_id","task_version","subject_id","interactions","blur_events","focus_events","fullscreenenter_events","fullscreenexit_events","success","view_history","rt","responses","num_errors","age","subject","participantId","rune","rune_set","hex","correct","choice","accuracy","outcome","keys","total_keys","block","practice","value","sub","trial","stimulus","robot","valence","action","sham"
"pavlovia","0","16","0.0-0.0","battery-v0.2","","""event"",""trial"",""time""
""fullscreenenter"",""1"",""1075""
","
","
","""event"",""trial"",""time""
""fullscreenenter"",""1"",""1075""
","
","","","","","","","","","","","","","","","","","","","","","","","","","","",""
"fullscreen","1","2066","0.0-1.0","battery-v0.2","","""event"",""trial"",""time""
""fullscreenenter"",""1"",""1075""
","
","
","""event"",""trial"",""time""
""fullscreenenter"",""1"",""1075""
","
","true","","","","","","","","","","","","","","","","","","","","","","","","","",""
"pit-instructions","2","5676","0.0-2.0-0.0","battery-v0.2","","""event"",""trial"",""time""
""fullscreenenter"",""1"",""1075""
","
","
","""event"",""trial"",""time""
""fullscreenenter"",""1"",""1075""
","
","","[{""page_index"":0,""viewing_time"":3605.100000023842}]","3605.399999976158","","","","","","","","","","","","","","","","","","","","","","","",""
"pit-comprehension","3","8468","0.0-2.0-1.0-0.0","battery-v0.2","","""event"",""trial"",""time""
""fullscreenenter"",""1"",""1075""
","
","
","""event"",""trial"",""time""
""fullscreenenter"",""1"",""1075""
","
","","","2790.100000023842","[""shark""]","0","18","18250","6920","","","","","","","","","","","","","","","","","","",""
"pit-instructions","4","9597","0.0-2.0-1.0-1.0","battery-v0.2","","""event"",""trial"",""time""
""fullscreenenter"",""1"",""1075""
","
","
","""event"",""trial"",""time""
""fullscreenenter"",""1"",""1075""
","
","","[{""page_index"":0,""viewing_time"":1124.6000000238419}]","1124.7000000476837","","","","","","","","","","","","","","","","","","","","","","","",""
"pit-comprehension","5","12518","0.0-2.0-2.0-0.0","battery-v0.2","","""event"",""trial"",""time""
""fullscreenenter"",""1"",""1075""
","
","
","""event"",""trial"",""time""
""fullscreenenter"",""1"",""1075""
","
","","","2919.399999976158","[""tiger""]","0","18","18250","6920","","","","","","","","","","","","","","","","","","",""
"pit-instructions","6","13293","0.0-2.0-2.0-1.0","battery-v0.2","","""event"",""trial"",""time""
""fullscreenenter"",""1"",""1075""
","
","
","""event"",""trial"",""time""
""fullscreenenter"",""1"",""1075""
","
","","[{""page_index"":0,""viewing_time"":772.9000000357628}]","773","","","","","","","","","","","","","","","","","","","","","","","",""
"pit-instructions","7","104217","0.0-2.0-3.0","battery-v0.2","","""event"",""trial"",""time""
""fullscreenenter"",""1"",""1075""
","
","
","""event"",""trial"",""time""
""fullscreenenter"",""1"",""1075""
","
","","[{""page_index"":0,""viewing_time"":8708.300000011921},{""page_index"":1,""viewing_time"":5719.100000023842},{""page_index"":2,""viewing_time"":6638.699999988079},{""page_index"":3,""viewing_time"":5325.899999976158},{""page_index"":4,""viewing_time"":5365.900000035763},{""page_index"":5,""viewing_time"":5511.199999988079},{""page_index"":6,""viewing_time"":6501.800000011921},{""page_index"":7,""viewing_time"":6161.699999988079},{""page_index"":8,""viewing_time"":6071.199999988079},{""page_index"":9,""viewing_time"":8349.800000011921},{""page_index"":10,""viewing_time"":7182.100000023842},{""page_index"":11,""viewing_time"":7508.399999976158},{""page_index"":12,""viewing_time"":6300.399999976158},{""page_index"":13,""viewing_time"":5577.600000023842}]","90923.40000003576","","","","","","","","","","","","","","","","","","","","","","","",""
"pit-trial","8","107846","0.0-2.0-4.0-0.0","battery-v0.2","","""event"",""trial"",""time""
""fullscreenenter"",""1"",""1075""
","
","
","""event"",""trial"",""time""
""fullscreenenter"",""1"",""1075""
","
","","","772.0999999642372","","","18","18250","6920","&#9784;","elianto","#FFFFF080"," "," ","1","&#10004","[1621.7999999523163]","1","0","0","","","","","","","",""
"pit-trial","9","111313","0.0-2.0-4.1-0.1","battery-v0.2","","""event"",""trial"",""time""
""fullscreenenter"",""1"",""1075""
","
","
","""event"",""trial"",""time""
""fullscreenenter"",""1"",""1075""
","
","","","608.3999999761581","","","18","18250","6920","&#9784;","elianto","#FFFFF080"," "," ","1","&#10004","[1459.699999988079]","1","0","0","","","","","","","",""
"pit-trial","10","114844","0.0-2.0-4.2-0.2","battery-v0.2","","""event"",""trial"",""time""
""fullscreenenter"",""1"",""1075""
","
","
","""event"",""trial"",""time""
""fullscreenenter"",""1"",""1075""
","
","","","673.6999999880791","","","18","18250","6920","&#9784;","elianto","#FFFFF080"," "," ","1","&#10004","[1524.699999988079]","1","0","0","","","","","","","",""
"pit-trial","11","118238","0.0-2.0-4.3-0.3","battery-v0.2","","""event"",""trial"",""time""
""fullscreenenter"",""1"",""1075""
","
","
","""event"",""trial"",""time""
""fullscreenenter"",""1"",""1075""
","
","","","537.6000000238419","","","18","18250","6920","&#9784;","elianto","#FFFFF080"," "," ","1","&#10004","[1387.5]","1","0","0","","","","","","","",""
"pit-trial","12","121642","0.0-2.0-4.4-0.4","battery-v0.2","","""event"",""trial"",""time""
""fullscreenenter"",""1"",""1075""
","
","
","""event"",""trial"",""time""
""fullscreenenter"",""1"",""1075""
","
","","","548.2000000476837","","","18","18250","6920","&#9784;","elianto","#FFFFF080"," "," ","1","&#10004","[1398.7999999523163]","1","0","0","","","","","","","",""
"pit-instructions","13","141492","0.0-2.0-5.0","battery-v0.2","","""event"",""trial"",""time""
""fullscreenenter"",""1"",""1075""
","
","
","""event"",""trial"",""time""
""fullscreenenter"",""1"",""1075""
","
","","[{""page_index"":0,""viewing_time"":4654.300000011921},{""page_index"":1,""viewing_time"":5038.300000011921},{""page_index"":2,""viewing_time"":4458.100000023842},{""page_index"":3,""viewing_time"":5695.5}]","19846.5","","","","","","","","","","","","","","","","","","","","","","","",""
"pit-trial","14","146349","0.0-2.0-6.0-0.0","battery-v0.2","","""event"",""trial"",""time""
""fullscreenenter"",""1"",""1075""
","
","
","""event"",""trial"",""time""
""fullscreenenter"",""1"",""1075""
","
","","","-1","","","18","18250","6920","&#9854;","elianto","#FFFFF080","-1","-1","1","&#10004","[]","0","0","1","","","","","","","",""
"pit-trial","15","151204","0.0-2.0-6.1-0.1","battery-v0.2","","""event"",""trial"",""time""
""fullscreenenter"",""1"",""1075""
","
","
","""event"",""trial"",""time""
""fullscreenenter"",""1"",""1075""
","
","","","-1","","","18","18250","6920","&#9854;","elianto","#FFFFF080","-1","-1","1","&#10004","[]","0","0","1","","","","","","","",""
"pit-trial","16","156062","0.0-2.0-6.2-0.2","battery-v0.2","","""event"",""trial"",""time""
""fullscreenenter"",""1"",""1075""
","
","
","""event"",""trial"",""time""
""fullscreenenter"",""1"",""1075""
","
","","","-1","","","18","18250","6920","&#9854;","elianto","#FFFFF080","-1","-1","1","&#10004","[]","0","0","1","","","","","","","",""
"pit-trial","17","160920","0.0-2.0-6.3-0.3","battery-v0.2","","""event"",""trial"",""time""
""fullscreenenter"",""1"",""1075""
","
","
","""event"",""trial"",""time""
""fullscreenenter"",""1"",""1075""
","
","","","-1","","","18","18250","6920","&#9854;","elianto","#FFFFF080","-1","-1","1","&#10004","[]","0","0","1","","","","","","","",""
"pit-trial","18","165778","0.0-2.0-6.4-0.4","battery-v0.2","","""event"",""trial"",""time""
""fullscreenenter"",""1"",""1075""
","
","
","""event"",""trial"",""time""
""fullscreenenter"",""1"",""1075""
","
","","","-1","","","18","18250","6920","&#9854;","elianto","#FFFFF080","-1","-1","1","&#10004","[]","0","0","1","","","","","","","",""
"pit-instructions","19","281071","0.0-2.0-7.0","battery-v0.2","","""event"",""trial"",""time""
""fullscreenenter"",""1"",""1075""
","
","
","""event"",""trial"",""time""
""fullscreenenter"",""1"",""1075""
","
","","[{""page_index"":0,""viewing_time"":5428.800000011921},{""page_index"":1,""viewing_time"":6393.699999988079},{""page_index"":2,""viewing_time"":5481.300000011921},{""page_index"":3,""viewing_time"":6011.599999964237},{""page_index"":4,""viewing_time"":5185.600000023842},{""page_index"":5,""viewing_time"":6251.099999964237},{""page_index"":6,""viewing_time"":4095.300000011921},{""page_index"":7,""viewing_time"":8166.900000035763},{""page_index"":8,""viewing_time"":8204.5},{""page_index"":9,""viewing_time"":6059},{""page_index"":10,""viewing_time"":6684.299999952316},{""page_index"":11,""viewing_time"":4269.300000011921},{""page_index"":12,""viewing_time"":8041.800000011921},{""page_index"":13,""viewing_time"":7275},{""page_index"":14,""viewing_time"":7025.600000023842},{""page_index"":15,""viewing_time"":6378.5},{""page_index"":16,""viewing_time"":7061.399999976158},{""page_index"":17,""viewing_time"":7275.899999976158}]","115290","","","","","","","","","","","","","","","","","","","","","","","",""
"pit-trial","20","284631","0.0-2.0-8.0-0.0","battery-v0.2","","""event"",""trial"",""time""
""fullscreenenter"",""1"",""1075""
","
","
","""event"",""trial"",""time""
""fullscreenenter"",""1"",""1075""
","
","","","703.1999999880791","","","18","18250","6920","&#9776;","elianto","#3366ff99"," "," ","1","+10","[1554.6000000238419]","1","0","1","","","","","","","",""
"pit-trial","21","288074","0.0-2.0-8.0-1.0","battery-v0.2","","""event"",""trial"",""time""
""fullscreenenter"",""1"",""1075""
","
","
","""event"",""trial"",""time""
""fullscreenenter"",""1"",""1075""
","
","","","587.1000000238419","","","18","18250","6920","&#9776;","elianto","#3366ff99"," "," ","1","+10","[1438.1000000238419]","1","0","1","","","","","","","",""
"pit-trial","22","291423","0.0-2.0-8.0-2.0","battery-v0.2","","""event"",""trial"",""time""
""fullscreenenter"",""1"",""1075""
","
","
","""event"",""trial"",""time""
""fullscreenenter"",""1"",""1075""
","
","","","492.4000000357628","","","18","18250","6920","&#9776;","elianto","#3366ff99"," "," ","1","+10","[1342.6000000238419]","1","0","1","","","","","","","",""
"pit-trial","23","294682","0.0-2.0-8.0-3.0","battery-v0.2","","""event"",""trial"",""time""
""fullscreenenter"",""1"",""1075""
","
","
","""event"",""trial"",""time""
""fullscreenenter"",""1"",""1075""
","
","","","403.69999998807907","","","18","18250","6920","&#9776;","elianto","#3366ff99"," "," ","1","0","[1254.6000000238419]","1","0","1","","","","","","","",""
"pit-trial","24","297930","0.0-2.0-8.0-4.0","battery-v0.2","","""event"",""trial"",""time""
""fullscreenenter"",""1"",""1075""
","
","
","""event"",""trial"",""time""
""fullscreenenter"",""1"",""1075""
","
","","","393.5","","","18","18250","6920","&#9776;","elianto","#3366ff99"," "," ","1","+10","[1244.699999988079]","1","0","1","","","","","","","",""
"pit-trial","25","301180","0.0-2.0-8.1-0.1","battery-v0.2","","""event"",""trial"",""time""
""fullscreenenter"",""1"",""1075""
","
","
","""event"",""trial"",""time""
""fullscreenenter"",""1"",""1075""
","
","","","393.80000001192093","","","18","18250","6920","&#9776;","elianto","#3366ff99"," "," ","1","+10","[1244.5999999642372]","1","0","1","","","","","","","",""
"pit-trial","26","304432","0.0-2.0-8.1-1.1","battery-v0.2","","""event"",""trial"",""time""
""fullscreenenter"",""1"",""1075""
","
","
","""event"",""trial"",""time""
""fullscreenenter"",""1"",""1075""
","
","","","396.5999999642372","","","18","18250","6920","&#9776;","elianto","#3366ff99"," "," ","1","+10","[1247.5999999642372]","1","0","1","","","","","","","",""
"pit-trial","27","307637","0.0-2.0-8.1-2.1","battery-v0.2","","""event"",""trial"",""time""
""fullscreenenter"",""1"",""1075""
","
","
","""event"",""trial"",""time""
""fullscreenenter"",""1"",""1075""
","
","","","347.80000001192093","","","18","18250","6920","&#9776;","elianto","#3366ff99"," "," ","1","+10","[1199.0999999642372]","1","0","1","","","","","","","",""
"pit-trial","28","310873","0.0-2.0-8.1-3.1","battery-v0.2","","""event"",""trial"",""time""
""fullscreenenter"",""1"",""1075""
","
","
","""event"",""trial"",""time""
""fullscreenenter"",""1"",""1075""
","
","","","380.0999999642372","","","18","18250","6920","&#9776;","elianto","#3366ff99"," "," ","1","0","[1231.5999999642372]","1","0","1","","","","","","","",""
"pit-trial","29","314028","0.0-2.0-8.1-4.1","battery-v0.2","","""event"",""trial"",""time""
""fullscreenenter"",""1"",""1075""
","
","
","""event"",""trial"",""time""
""fullscreenenter"",""1"",""1075""
","
","","","301.0999999642372","","","18","18250","6920","&#9776;","elianto","#3366ff99"," "," ","1","+10","[1151.800000011921]","1","0","1","","","","","","","",""
"pit-trial","30","317274","0.0-2.0-8.2-0.2","battery-v0.2","","""event"",""trial"",""time""
""fullscreenenter"",""1"",""1075""
","
","
","""event"",""trial"",""time""
""fullscreenenter"",""1"",""1075""
","
","","","387.7999999523163","","","18","18250","6920","&#9776;","elianto","#3366ff99"," "," ","1","+10","[1238.7999999523163]","1","0","1","","","","","","","",""
"pit-trial","31","320482","0.0-2.0-8.2-1.2","battery-v0.2","","""event"",""trial"",""time""
""fullscreenenter"",""1"",""1075""
","
","
","""event"",""trial"",""time""
""fullscreenenter"",""1"",""1075""
","
","","","351.5","","","18","18250","6920","&#9776;","elianto","#3366ff99"," "," ","1","+10","[1202.4000000357628]","1","0","1","","","","","","","",""
"pit-trial","32","323848","0.0-2.0-8.2-2.2","battery-v0.2","","""event"",""trial"",""time""
""fullscreenenter"",""1"",""1075""
","
","
","""event"",""trial"",""time""
""fullscreenenter"",""1"",""1075""
","
","","","509.7000000476837","","","18","18250","6920","&#9776;","elianto","#3366ff99"," "," ","1","+10","[1360.2000000476837]","1","0","1","","","","","","","",""
"pit-trial","33","327081","0.0-2.0-8.2-3.2","battery-v0.2","","""event"",""trial"",""time""
""fullscreenenter"",""1"",""1075""
","
","
","""event"",""trial"",""time""
""fullscreenenter"",""1"",""1075""
","
","","","376.19999998807907","","","18","18250","6920","&#9776;","elianto","#3366ff99"," "," ","1","0","[1226.8999999761581]","1","0","1","","","","","","","",""
"pit-trial","34","330268","0.0-2.0-8.2-4.2","battery-v0.2","","""event"",""trial"",""time""
""fullscreenenter"",""1"",""1075""
","
","
","""event"",""trial"",""time""
""fullscreenenter"",""1"",""1075""
","
","","","333.2000000476837","","","18","18250","6920","&#9776;","elianto","#3366ff99"," "," ","1","+10","[1184.300000011921]","1","0","1","","","","","","","",""
"call-function","35","330271","0.0-2.0-9.0","battery-v0.2","","""event"",""trial"",""time""
""fullscreenenter"",""1"",""1075""
","
","
","""event"",""trial"",""time""
""fullscreenenter"",""1"",""1075""
","
","","","","","","","","","","","","","","","","","","","","","","","","","","",""
"pit-instructions","36","370613","0.0-2.0-10.0","battery-v0.2","","""event"",""trial"",""time""
""fullscreenenter"",""1"",""1075""
","
","
","""event"",""trial"",""time""
""fullscreenenter"",""1"",""1075""
","
","","[{""page_index"":0,""viewing_time"":6557},{""page_index"":1,""viewing_time"":7529.600000023842},{""page_index"":2,""viewing_time"":9629},{""page_index"":3,""viewing_time"":9224.699999988079},{""page_index"":4,""viewing_time"":7401}]","40341.60000002384","","","","","","","","","","","","","","","","","","","","","","","",""
"pit-trial","37","375468","0.0-2.0-11.0-0.0","battery-v0.2","","""event"",""trial"",""time""
""fullscreenenter"",""1"",""1075""
","
","
","""event"",""trial"",""time""
""fullscreenenter"",""1"",""1075""
","
","","","-1","","","18","18250","6920","&#9761;","elianto","#3366ff99","-1","-1","1","+10","[]","0","0","2","","","","","","","",""
"pit-trial","38","380325","0.0-2.0-11.0-1.0","battery-v0.2","","""event"",""trial"",""time""
""fullscreenenter"",""1"",""1075""
","
","
","""event"",""trial"",""time""
""fullscreenenter"",""1"",""1075""
","
","","","-1","","","18","18250","6920","&#9761;","elianto","#3366ff99","-1","-1","1","+10","[]","0","0","2","","","","","","","",""
"pit-trial","39","385182","0.0-2.0-11.0-2.0","battery-v0.2","","""event"",""trial"",""time""
""fullscreenenter"",""1"",""1075""
","
","
","""event"",""trial"",""time""
""fullscreenenter"",""1"",""1075""
","
","","","-1","","","18","18250","6920","&#9761;","elianto","#3366ff99","-1","-1","1","+10","[]","0","0","2","","","","","","","",""
"pit-trial","40","390038","0.0-2.0-11.0-3.0","battery-v0.2","","""event"",""trial"",""time""
""fullscreenenter"",""1"",""1075""
","
","
","""event"",""trial"",""time""
""fullscreenenter"",""1"",""1075""
","
","","","-1","","","18","18250","6920","&#9761;","elianto","#3366ff99","-1","-1","1","0","[]","0","0","2","","","","","","","",""
"pit-trial","41","394895","0.0-2.0-11.0-4.0","battery-v0.2","","""event"",""trial"",""time""
""fullscreenenter"",""1"",""1075""
","
","
","""event"",""trial"",""time""
""fullscreenenter"",""1"",""1075""
","
","","","-1","","","18","18250","6920","&#9761;","elianto","#3366ff99","-1","-1","1","+10","[]","0","0","2","","","","","","","",""
"pit-trial","42","399752","0.0-2.0-11.1-0.1","battery-v0.2","","""event"",""trial"",""time""
""fullscreenenter"",""1"",""1075""
","
","
","""event"",""trial"",""time""
""fullscreenenter"",""1"",""1075""
","
","","","-1","","","18","18250","6920","&#9761;","elianto","#3366ff99","-1","-1","1","+10","[]","0","0","2","","","","","","","",""
"pit-trial","43","404608","0.0-2.0-11.1-1.1","battery-v0.2","","""event"",""trial"",""time""
""fullscreenenter"",""1"",""1075""
","
","
","""event"",""trial"",""time""
""fullscreenenter"",""1"",""1075""
","
","","","-1","","","18","18250","6920","&#9761;","elianto","#3366ff99","-1","-1","1","+10","[]","0","0","2","","","","","","","",""
"pit-trial","44","409466","0.0-2.0-11.1-2.1","battery-v0.2","","""event"",""trial"",""time""
""fullscreenenter"",""1"",""1075""
","
","
","""event"",""trial"",""time""
""fullscreenenter"",""1"",""1075""
","
","","","-1","","","18","18250","6920","&#9761;","elianto","#3366ff99","-1","-1","1","+10","[]","0","0","2","","","","","","","",""
"pit-trial","45","414324","0.0-2.0-11.1-3.1","battery-v0.2","","""event"",""trial"",""time""
""fullscreenenter"",""1"",""1075""
","
","
","""event"",""trial"",""time""
""fullscreenenter"",""1"",""1075""
","
","","","-1","","","18","18250","6920","&#9761;","elianto","#3366ff99","-1","-1","1","0","[]","0","0","2","","","","","","","",""
"pit-trial","46","419180","0.0-2.0-11.1-4.1","battery-v0.2","","""event"",""trial"",""time""
""fullscreenenter"",""1"",""1075""
","
","
","""event"",""trial"",""time""
""fullscreenenter"",""1"",""1075""
","
","","","-1","","","18","18250","6920","&#9761;","elianto","#3366ff99","-1","-1","1","+10","[]","0","0","2","","","","","","","",""
"pit-trial","47","424036","0.0-2.0-11.2-0.2","battery-v0.2","","""event"",""trial"",""time""
""fullscreenenter"",""1"",""1075""
","
","
","""event"",""trial"",""time""
""fullscreenenter"",""1"",""1075""
","
","","","-1","","","18","18250","6920","&#9761;","elianto","#3366ff99","-1","-1","1","+10","[]","0","0","2","","","","","","","",""
"pit-trial","48","428891","0.0-2.0-11.2-1.2","battery-v0.2","","""event"",""trial"",""time""
""fullscreenenter"",""1"",""1075""
","
","
","""event"",""trial"",""time""
""fullscreenenter"",""1"",""1075""
","
","","","-1","","","18","18250","6920","&#9761;","elianto","#3366ff99","-1","-1","1","+10","[]","0","0","2","","","","","","","",""
"pit-trial","49","433747","0.0-2.0-11.2-2.2","battery-v0.2","","""event"",""trial"",""time""
""fullscreenenter"",""1"",""1075""
","
","
","""event"",""trial"",""time""
""fullscreenenter"",""1"",""1075""
","
","","","-1","","","18","18250","6920","&#9761;","elianto","#3366ff99","-1","-1","1","+10","[]","0","0","2","","","","","","","",""
"pit-trial","50","438604","0.0-2.0-11.2-3.2","battery-v0.2","","""event"",""trial"",""time""
""fullscreenenter"",""1"",""1075""
","
","
","""event"",""trial"",""time""
""fullscreenenter"",""1"",""1075""
","
","","","-1","","","18","18250","6920","&#9761;","elianto","#3366ff99","-1","-1","1","0","[]","0","0","2","","","","","","","",""
"pit-trial","51","443461","0.0-2.0-11.2-4.2","battery-v0.2","","""event"",""trial"",""time""
""fullscreenenter"",""1"",""1075""
","
","
","""event"",""trial"",""time""
""fullscreenenter"",""1"",""1075""
","
","","","-1","","","18","18250","6920","&#9761;","elianto","#3366ff99","-1","-1","1","+10","[]","0","0","2","","","","","","","",""
"pit-trial","52","448317","0.0-2.0-11.3-0.3","battery-v0.2","","""event"",""trial"",""time""
""fullscreenenter"",""1"",""1075""
","
","
","""event"",""trial"",""time""
""fullscreenenter"",""1"",""1075""
","
","","","-1","","","18","18250","6920","&#9761;","elianto","#3366ff99","-1","-1","1","+10","[]","0","0","2","","","","","","","",""
"pit-trial","53","453172","0.0-2.0-11.3-1.3","battery-v0.2","","""event"",""trial"",""time""
""fullscreenenter"",""1"",""1075""
","
","
","""event"",""trial"",""time""
""fullscreenenter"",""1"",""1075""
","
","","","-1","","","18","18250","6920","&#9761;","elianto","#3366ff99","-1","-1","1","+10","[]","0","0","2","","","","","","","",""
"pit-trial","54","458030","0.0-2.0-11.3-2.3","battery-v0.2","","""event"",""trial"",""time""
""fullscreenenter"",""1"",""1075""
","
","
","""event"",""trial"",""time""
""fullscreenenter"",""1"",""1075""
","
","","","-1","","","18","18250","6920","&#9761;","elianto","#3366ff99","-1","-1","1","+10","[]","0","0","2","","","","","","","",""
"pit-trial","55","462888","0.0-2.0-11.3-3.3","battery-v0.2","","""event"",""trial"",""time""
""fullscreenenter"",""1"",""1075""
","
","
","""event"",""trial"",""time""
""fullscreenenter"",""1"",""1075""
","
","","","-1","","","18","18250","6920","&#9761;","elianto","#3366ff99","-1","-1","1","0","[]","0","0","2","","","","","","","",""
"pit-trial","56","467745","0.0-2.0-11.3-4.3","battery-v0.2","","""event"",""trial"",""time""
""fullscreenenter"",""1"",""1075""
","
","
","""event"",""trial"",""time""
""fullscreenenter"",""1"",""1075""
","
","","","-1","","","18","18250","6920","&#9761;","elianto","#3366ff99","-1","-1","1","+10","[]","0","0","2","","","","","","","",""
"call-function","57","467748","0.0-2.0-12.0","battery-v0.2","","""event"",""trial"",""time""
""fullscreenenter"",""1"",""1075""
","
","
","""event"",""trial"",""time""
""fullscreenenter"",""1"",""1075""
","
","","","","","","","","","","","","","","","","","","","","","","","","","","",""
"pit-instructions","58","500595","0.0-2.0-13.0","battery-v0.2","","""event"",""trial"",""time""
""fullscreenenter"",""1"",""1075""
","
","
","""event"",""trial"",""time""
""fullscreenenter"",""1"",""1075""
","
","","[{""page_index"":0,""viewing_time"":4720.900000035763},{""page_index"":1,""viewing_time"":7246.399999976158},{""page_index"":2,""viewing_time"":3733.199999988079},{""page_index"":3,""viewing_time"":10708.200000047684},{""page_index"":4,""viewing_time"":6437.199999988079}]","32846.30000001192","","","","","","","","","","","","","","","","","","","","","","","",""
"pit-trial","59","505451","0.0-2.0-14.0-0.0","battery-v0.2","","""event"",""trial"",""time""
""fullscreenenter"",""1"",""1075""
","
","
","""event"",""trial"",""time""
""fullscreenenter"",""1"",""1075""
","
","","","-1","","","18","18250","6920","&#9826;","elianto","#f73b6a7A","-1","-1","1","0","[]","0","0","3","","","","","","","",""
"pit-trial","60","510309","0.0-2.0-14.0-1.0","battery-v0.2","","""event"",""trial"",""time""
""fullscreenenter"",""1"",""1075""
","
","
","""event"",""trial"",""time""
""fullscreenenter"",""1"",""1075""
","
","","","-1","","","18","18250","6920","&#9826;","elianto","#f73b6a7A","-1","-1","1","0","[]","0","0","3","","","","","","","",""
"pit-trial","61","515166","0.0-2.0-14.0-2.0","battery-v0.2","","""event"",""trial"",""time""
""fullscreenenter"",""1"",""1075""
","
","
","""event"",""trial"",""time""
""fullscreenenter"",""1"",""1075""
","
","","","-1","","","18","18250","6920","&#9826;","elianto","#f73b6a7A","-1","-1","1","0","[]","0","0","3","","","","","","","",""
"pit-trial","62","520023","0.0-2.0-14.0-3.0","battery-v0.2","","""event"",""trial"",""time""
""fullscreenenter"",""1"",""1075""
","
","
","""event"",""trial"",""time""
""fullscreenenter"",""1"",""1075""
","
","","","-1","","","18","18250","6920","&#9826;","elianto","#f73b6a7A","-1","-1","1","-10","[]","0","0","3","","","","","","","",""
"pit-trial","63","524879","0.0-2.0-14.0-4.0","battery-v0.2","","""event"",""trial"",""time""
""fullscreenenter"",""1"",""1075""
","
","
","""event"",""trial"",""time""
""fullscreenenter"",""1"",""1075""
","
","","","-1","","","18","18250","6920","&#9826;","elianto","#f73b6a7A","-1","-1","1","0","[]","0","0","3","","","","","","","",""
"pit-trial","64","529738","0.0-2.0-14.1-0.1","battery-v0.2","","""event"",""trial"",""time""
""fullscreenenter"",""1"",""1075""
","
","
","""event"",""trial"",""time""
""fullscreenenter"",""1"",""1075""
","
","","","-1","","","18","18250","6920","&#9826;","elianto","#f73b6a7A","-1","-1","1","0","[]","0","0","3","","","","","","","",""
"pit-trial","65","534595","0.0-2.0-14.1-1.1","battery-v0.2","","""event"",""trial"",""time""
""fullscreenenter"",""1"",""1075""
","
","
","""event"",""trial"",""time""
""fullscreenenter"",""1"",""1075""
","
","","","-1","","","18","18250","6920","&#9826;","elianto","#f73b6a7A","-1","-1","1","0","[]","0","0","3","","","","","","","",""
"pit-trial","66","539453","0.0-2.0-14.1-2.1","battery-v0.2","","""event"",""trial"",""time""
""fullscreenenter"",""1"",""1075""
","
","
","""event"",""trial"",""time""
""fullscreenenter"",""1"",""1075""
","
","","","-1","","","18","18250","6920","&#9826;","elianto","#f73b6a7A","-1","-1","1","0","[]","0","0","3","","","","","","","",""
"pit-trial","67","544310","0.0-2.0-14.1-3.1","battery-v0.2","","""event"",""trial"",""time""
""fullscreenenter"",""1"",""1075""
","
","
","""event"",""trial"",""time""
""fullscreenenter"",""1"",""1075""
","
","","","-1","","","18","18250","6920","&#9826;","elianto","#f73b6a7A","-1","-1","1","-10","[]","0","0","3","","","","","","","",""
"pit-trial","68","549168","0.0-2.0-14.1-4.1","battery-v0.2","","""event"",""trial"",""time""
""fullscreenenter"",""1"",""1075""
","
","
","""event"",""trial"",""time""
""fullscreenenter"",""1"",""1075""
","
","","","-1","","","18","18250","6920","&#9826;","elianto","#f73b6a7A","-1","-1","1","0","[]","0","0","3","","","","","","","",""
"pit-trial","69","554026","0.0-2.0-14.2-0.2","battery-v0.2","","""event"",""trial"",""time""
""fullscreenenter"",""1"",""1075""
","
","
","""event"",""trial"",""time""
""fullscreenenter"",""1"",""1075""
","
","","","-1","","","18","18250","6920","&#9826;","elianto","#f73b6a7A","-1","-1","1","0","[]","0","0","3","","","","","","","",""
"pit-trial","70","558882","0.0-2.0-14.2-1.2","battery-v0.2","","""event"",""trial"",""time""
""fullscreenenter"",""1"",""1075""
","
","
","""event"",""trial"",""time""
""fullscreenenter"",""1"",""1075""
","
","","","-1","","","18","18250","6920","&#9826;","elianto","#f73b6a7A","-1","-1","1","0","[]","0","0","3","","","","","","","",""
"pit-trial","71","563739","0.0-2.0-14.2-2.2","battery-v0.2","","""event"",""trial"",""time""
""fullscreenenter"",""1"",""1075""
","
","
","""event"",""trial"",""time""
""fullscreenenter"",""1"",""1075""
","
","","","-1","","","18","18250","6920","&#9826;","elianto","#f73b6a7A","-1","-1","1","0","[]","0","0","3","","","","","","","",""
"pit-trial","72","568596","0.0-2.0-14.2-3.2","battery-v0.2","","""event"",""trial"",""time""
""fullscreenenter"",""1"",""1075""
","
","
","""event"",""trial"",""time""
""fullscreenenter"",""1"",""1075""
","
","","","-1","","","18","18250","6920","&#9826;","elianto","#f73b6a7A","-1","-1","1","-10","[]","0","0","3","","","","","","","",""
"pit-trial","73","573451","0.0-2.0-14.2-4.2","battery-v0.2","","""event"",""trial"",""time""
""fullscreenenter"",""1"",""1075""
","
","
","""event"",""trial"",""time""
""fullscreenenter"",""1"",""1075""
","
","","","-1","","","18","18250","6920","&#9826;","elianto","#f73b6a7A","-1","-1","1","0","[]","0","0","3","","","","","","","",""
"pit-trial","74","578306","0.0-2.0-14.3-0.3","battery-v0.2","","""event"",""trial"",""time""
""fullscreenenter"",""1"",""1075""
","
","
","""event"",""trial"",""time""
""fullscreenenter"",""1"",""1075""
","
","","","-1","","","18","18250","6920","&#9826;","elianto","#f73b6a7A","-1","-1","1","0","[]","0","0","3","","","","","","","",""
"pit-trial","75","583163","0.0-2.0-14.3-1.3","battery-v0.2","","""event"",""trial"",""time""
""fullscreenenter"",""1"",""1075""
","
","
","""event"",""trial"",""time""
""fullscreenenter"",""1"",""1075""
","
","","","-1","","","18","18250","6920","&#9826;","elianto","#f73b6a7A","-1","-1","1","0","[]","0","0","3","","","","","","","",""
"pit-trial","76","588020","0.0-2.0-14.3-2.3","battery-v0.2","","""event"",""trial"",""time""
""fullscreenenter"",""1"",""1075""
","
","
","""event"",""trial"",""time""
""fullscreenenter"",""1"",""1075""
","
","","","-1","","","18","18250","6920","&#9826;","elianto","#f73b6a7A","-1","-1","1","0","[]","0","0","3","","","","","","","",""
"pit-trial","77","592877","0.0-2.0-14.3-3.3","battery-v0.2","","""event"",""trial"",""time""
""fullscreenenter"",""1"",""1075""
","
","
","""event"",""trial"",""time""
""fullscreenenter"",""1"",""1075""
","
","","","-1","","","18","18250","6920","&#9826;","elianto","#f73b6a7A","-1","-1","1","-10","[]","0","0","3","","","","","","","",""
"pit-trial","78","597734","0.0-2.0-14.3-4.3","battery-v0.2","","""event"",""trial"",""time""
""fullscreenenter"",""1"",""1075""
","
","
","""event"",""trial"",""time""
""fullscreenenter"",""1"",""1075""
","
","","","-1","","","18","18250","6920","&#9826;","elianto","#f73b6a7A","-1","-1","1","0","[]","0","0","3","","","","","","","",""
"call-function","79","597737","0.0-2.0-15.0","battery-v0.2","","""event"",""trial"",""time""
""fullscreenenter"",""1"",""1075""
","
","
","""event"",""trial"",""time""
""fullscreenenter"",""1"",""1075""
","
","","","","","","","","","","","","","","","","","","","","","","","","","","",""
"pit-instructions","80","628640","0.0-2.0-16.0","battery-v0.2","","""event"",""trial"",""time""
""fullscreenenter"",""1"",""1075""
","
","
","""event"",""trial"",""time""
""fullscreenenter"",""1"",""1075""
","
","","[{""page_index"":0,""viewing_time"":11329.799999952316},{""page_index"":1,""viewing_time"":9328.900000035763},{""page_index"":2,""viewing_time"":5092.899999976158},{""page_index"":3,""viewing_time"":5149.800000011921}]","30901.799999952316","","","","","","","","","","","","","","","","","","","","","","","",""
"pit-trial","81","632283","0.0-2.0-17.0-0.0","battery-v0.2","","""event"",""trial"",""time""
""fullscreenenter"",""1"",""1075""
","
","
","""event"",""trial"",""time""
""fullscreenenter"",""1"",""1075""
","
","","","788.1000000238419","","","18","18250","6920","&#9789;","elianto","#f73b6a7A"," "," ","1","0","[1638.5999999642372]","1","0","4","","","","","","","",""
"pit-trial","82","635575","0.0-2.0-17.0-1.0","battery-v0.2","","""event"",""trial"",""time""
""fullscreenenter"",""1"",""1075""
","
","
","""event"",""trial"",""time""
""fullscreenenter"",""1"",""1075""
","
","","","436.5","","","18","18250","6920","&#9789;","elianto","#f73b6a7A"," "," ","1","0","[1286.5]","1","0","4","","","","","","","",""
"pit-trial","83","638572","0.0-2.0-17.0-2.0","battery-v0.2","","""event"",""trial"",""time""
""fullscreenenter"",""1"",""1075""
","
","
","""event"",""trial"",""time""
""fullscreenenter"",""1"",""1075""
","
","","","140.0999999642372","","","18","18250","6920","&#9789;","elianto","#f73b6a7A"," "," ","1","0","[990.6999999880791]","1","0","4","","","","","","","",""
"pit-trial","84","641706","0.0-2.0-17.0-3.0","battery-v0.2","","""event"",""trial"",""time""
""fullscreenenter"",""1"",""1075""
","
","
","""event"",""trial"",""time""
""fullscreenenter"",""1"",""1075""
","
","","","279.60000002384186","","","18","18250","6920","&#9789;","elianto","#f73b6a7A"," "," ","1","-10","[1130.199999988079]","1","0","4","","","","","","","",""
"pit-trial","85","644757","0.0-2.0-17.0-4.0","battery-v0.2","","""event"",""trial"",""time""
""fullscreenenter"",""1"",""1075""
","
","
","""event"",""trial"",""time""
""fullscreenenter"",""1"",""1075""
","
","","","194.39999997615814","","","18","18250","6920","&#9789;","elianto","#f73b6a7A"," "," ","1","0","[1045.300000011921]","1","0","4","","","","","","","",""
"pit-trial","86","647795","0.0-2.0-17.1-0.1","battery-v0.2","","""event"",""trial"",""time""
""fullscreenenter"",""1"",""1075""
","
","
","""event"",""trial"",""time""
""fullscreenenter"",""1"",""1075""
","
","","","179.80000001192093","","","18","18250","6920","&#9789;","elianto","#f73b6a7A"," "," ","1","0","[1030.699999988079]","1","0","4","","","","","","","",""
"pit-trial","87","650732","0.0-2.0-17.1-1.1","battery-v0.2","","""event"",""trial"",""time""
""fullscreenenter"",""1"",""1075""
","
","
","""event"",""trial"",""time""
""fullscreenenter"",""1"",""1075""
","
","","","81","","","18","18250","6920","&#9789;","elianto","#f73b6a7A"," "," ","1","0","[931.9000000357628]","1","0","4","","","","","","","",""
"pit-trial","88","653963","0.0-2.0-17.1-2.1","battery-v0.2","","""event"",""trial"",""time""
""fullscreenenter"",""1"",""1075""
","
","
","""event"",""trial"",""time""
""fullscreenenter"",""1"",""1075""
","
","","","373.80000001192093","","","18","18250","6920","&#9789;","elianto","#f73b6a7A"," "," ","1","0","[1224.699999988079]","1","0","4","","","","","","","",""
"pit-trial","89","657166","0.0-2.0-17.1-3.1","battery-v0.2","","""event"",""trial"",""time""
""fullscreenenter"",""1"",""1075""
","
","
","""event"",""trial"",""time""
""fullscreenenter"",""1"",""1075""
","
","","","347.9000000357628","","","18","18250","6920","&#9789;","elianto","#f73b6a7A"," "," ","1","-10","[1199]","1","0","4","","","","","","","",""
"pit-trial","90","660217","0.0-2.0-17.1-4.1","battery-v0.2","","""event"",""trial"",""time""
""fullscreenenter"",""1"",""1075""
","
","
","""event"",""trial"",""time""
""fullscreenenter"",""1"",""1075""
","
","","","197.19999998807907","","","18","18250","6920","&#9789;","elianto","#f73b6a7A"," "," ","1","0","[1048]","1","0","4","","","","","","","",""
"pit-trial","91","663429","0.0-2.0-17.2-0.2","battery-v0.2","","""event"",""trial"",""time""
""fullscreenenter"",""1"",""1075""
","
","
","""event"",""trial"",""time""
""fullscreenenter"",""1"",""1075""
","
","","","354.39999997615814","","","18","18250","6920","&#9789;","elianto","#f73b6a7A"," "," ","1","0","[1205.6000000238419]","1","0","4","","","","","","","",""
"pit-trial","92","666492","0.0-2.0-17.2-1.2","battery-v0.2","","""event"",""trial"",""time""
""fullscreenenter"",""1"",""1075""
","
","
","""event"",""trial"",""time""
""fullscreenenter"",""1"",""1075""
","
","","","207.39999997615814","","","18","18250","6920","&#9789;","elianto","#f73b6a7A"," "," ","1","0","[1058.3999999761581]","1","0","4","","","","","","","",""
"pit-trial","93","669556","0.0-2.0-17.2-2.2","battery-v0.2","","""event"",""trial"",""time""
""fullscreenenter"",""1"",""1075""
","
","
","""event"",""trial"",""time""
""fullscreenenter"",""1"",""1075""
","
","","","208.89999997615814","","","18","18250","6920","&#9789;","elianto","#f73b6a7A"," "," ","1","0","[1059.2999999523163]","1","0","4","","","","","","","",""
"pit-trial","94","672615","0.0-2.0-17.2-3.2","battery-v0.2","","""event"",""trial"",""time""
""fullscreenenter"",""1"",""1075""
","
","
","""event"",""trial"",""time""
""fullscreenenter"",""1"",""1075""
","
","","","203.70000004768372","","","18","18250","6920","&#9789;","elianto","#f73b6a7A"," "," ","1","-10","[1054.4000000357628]","1","0","4","","","","","","","",""
"pit-trial","95","675691","0.0-2.0-17.2-4.2","battery-v0.2","","""event"",""trial"",""time""
""fullscreenenter"",""1"",""1075""
","
","
","""event"",""trial"",""time""
""fullscreenenter"",""1"",""1075""
","
","","","219.20000004768372","","","18","18250","6920","&#9789;","elianto","#f73b6a7A"," "," ","1","0","[1070.1000000238419]","1","0","4","","","","","","","",""
"pit-trial","96","678925","0.0-2.0-17.3-0.3","battery-v0.2","","""event"",""trial"",""time""
""fullscreenenter"",""1"",""1075""
","
","
","""event"",""trial"",""time""
""fullscreenenter"",""1"",""1075""
","
","","","377.80000001192093","","","18","18250","6920","&#9789;","elianto","#f73b6a7A"," "," ","1","0","[1228.0999999642372]","1","0","4","","","","","","","",""
"pit-trial","97","682135","0.0-2.0-17.3-1.3","battery-v0.2","","""event"",""trial"",""time""
""fullscreenenter"",""1"",""1075""
","
","
","""event"",""trial"",""time""
""fullscreenenter"",""1"",""1075""
","
","","","353.69999998807907","","","18","18250","6920","&#9789;","elianto","#f73b6a7A"," "," ","1","0","[1204.699999988079]","1","0","4","","","","","","","",""
"pit-trial","98","685163","0.0-2.0-17.3-2.3","battery-v0.2","","""event"",""trial"",""time""
""fullscreenenter"",""1"",""1075""
","
","
","""event"",""trial"",""time""
""fullscreenenter"",""1"",""1075""
","
","","","171.89999997615814","","","18","18250","6920","&#9789;","elianto","#f73b6a7A"," "," ","1","0","[1022.6000000238419]","1","0","4","","","","","","","",""
"pit-trial","99","688229","0.0-2.0-17.3-3.3","battery-v0.2","","""event"",""trial"",""time""
""fullscreenenter"",""1"",""1075""
","
","
","""event"",""trial"",""time""
""fullscreenenter"",""1"",""1075""
","
","","","209.60000002384186","","","18","18250","6920","&#9789;","elianto","#f73b6a7A"," "," ","1","-10","[1060.199999988079]","1","0","4","","","","","","","",""
"pit-trial","100","691475","0.0-2.0-17.3-4.3","battery-v0.2","","""event"",""trial"",""time""
""fullscreenenter"",""1"",""1075""
","
","
","""event"",""trial"",""time""
""fullscreenenter"",""1"",""1075""
","
","","","389.7000000476837","","","18","18250","6920","&#9789;","elianto","#f73b6a7A"," "," ","1","0","[1240.3999999761581]","1","0","4","","","","","","","",""
"call-function","101","691478","0.0-2.0-18.0","battery-v0.2","","""event"",""trial"",""time""
""fullscreenenter"",""1"",""1075""
","
","
","""event"",""trial"",""time""
""fullscreenenter"",""1"",""1075""
","
","","","","","","","","","","","","","","","","","","","","","","","","","","",""
"pit-instructions","102","755376","0.0-2.0-19.0","battery-v0.2","","""event"",""trial"",""time""
""fullscreenenter"",""1"",""1075""
","
","
","""event"",""trial"",""time""
""fullscreenenter"",""1"",""1075""
","
","","[{""page_index"":0,""viewing_time"":6575.600000023842},{""page_index"":1,""viewing_time"":4688.5},{""page_index"":2,""viewing_time"":8803.099999964237},{""page_index"":3,""viewing_time"":5018.5},{""page_index"":4,""viewing_time"":8661.200000047684},{""page_index"":5,""viewing_time"":10846.299999952316},{""page_index"":6,""viewing_time"":9599.5},{""page_index"":7,""viewing_time"":5359.400000035763},{""page_index"":8,""viewing_time"":4345.199999988079}]","63897.69999998808","","","","","","","","","","","","","","","","","","","","","","","",""
"pit-comprehension","103","759972","0.0-2.0-20.0-0.0","battery-v0.2","","""event"",""trial"",""time""
""fullscreenenter"",""1"",""1075""
","
","
","""event"",""trial"",""time""
""fullscreenenter"",""1"",""1075""
","
","","","4591.900000035763","[""SPACE""]","0","18","18250","6920","","","","","","","","","","","","","","","","","","",""
"pit-instructions","104","764054","0.0-2.0-20.0-1.0","battery-v0.2","","""event"",""trial"",""time""
""fullscreenenter"",""1"",""1075""
","
","
","""event"",""trial"",""time""
""fullscreenenter"",""1"",""1075""
","
","","[{""page_index"":0,""viewing_time"":4068.2999999523163}]","4068.399999976158","","","","","","","","","","","","","","","","","","","","","","","",""
"pit-comprehension","105","769951","0.0-2.0-21.0-0.0","battery-v0.2","","""event"",""trial"",""time""
""fullscreenenter"",""1"",""1075""
","
","
","""event"",""trial"",""time""
""fullscreenenter"",""1"",""1075""
","
","","","5895.200000047684","[""10""]","0","18","18250","6920","","","","","","","","","","","","","","","","","","",""
"pit-instructions","106","771364","0.0-2.0-21.0-1.0","battery-v0.2","","""event"",""trial"",""time""
""fullscreenenter"",""1"",""1075""
","
","
","""event"",""trial"",""time""
""fullscreenenter"",""1"",""1075""
","
","","[{""page_index"":0,""viewing_time"":1394.5}]","1394.800000011921","","","","","","","","","","","","","","","","","","","","","","","",""
"pit-comprehension","107","777805","0.0-2.0-22.0-0.0","battery-v0.2","","""event"",""trial"",""time""
""fullscreenenter"",""1"",""1075""
","
","
","""event"",""trial"",""time""
""fullscreenenter"",""1"",""1075""
","
","","","6438.600000023842","[""0""]","0","18","18250","6920","","","","","","","","","","","","","","","","","","",""
"pit-instructions","108","779313","0.0-2.0-22.0-1.0","battery-v0.2","","""event"",""trial"",""time""
""fullscreenenter"",""1"",""1075""
","
","
","""event"",""trial"",""time""
""fullscreenenter"",""1"",""1075""
","
","","[{""page_index"":0,""viewing_time"":1491.5999999642372}]","1491.8999999761581","","","","","","","","","","","","","","","","","","","","","","","",""
"pit-comprehension","109","787934","0.0-2.0-23.0-0.0","battery-v0.2","","""event"",""trial"",""time""
""fullscreenenter"",""1"",""1075""
","
","
","""event"",""trial"",""time""
""fullscreenenter"",""1"",""1075""
","
","","","8618.199999988079","[""True""]","0","18","18250","6920","","","","","","","","","","","","","","","","","","",""
"pit-instructions","110","789785","0.0-2.0-23.0-1.0","battery-v0.2","","""event"",""trial"",""time""
""fullscreenenter"",""1"",""1075""
","
","
","""event"",""trial"",""time""
""fullscreenenter"",""1"",""1075""
","
","","[{""page_index"":0,""viewing_time"":1838.5}]","1838.8999999761581","","","","","","","","","","","","","","","","","","","","","","","",""
"pit-comprehension","111","797197","0.0-2.0-24.0-0.0","battery-v0.2","","""event"",""trial"",""time""
""fullscreenenter"",""1"",""1075""
","
","
","""event"",""trial"",""time""
""fullscreenenter"",""1"",""1075""
","
","","","7409.599999964237","[""True""]","0","18","18250","6920","","","","","","","","","","","","","","","","","","",""
"pit-instructions","112","798909","0.0-2.0-24.0-1.0","battery-v0.2","","""event"",""trial"",""time""
""fullscreenenter"",""1"",""1075""
","
","
","""event"",""trial"",""time""
""fullscreenenter"",""1"",""1075""
","
","","[{""page_index"":0,""viewing_time"":1695.4000000357628}]","1695.7000000476837","","","","","","","","","","","","","","","","","","","","","","","",""
"pit-comprehension","113","805322","0.0-2.0-25.0-0.0","battery-v0.2","","""event"",""trial"",""time""
""fullscreenenter"",""1"",""1075""
","
","
","""event"",""trial"",""time""
""fullscreenenter"",""1"",""1075""
","
","","","6409.699999988079","[""True""]","0","18","18250","6920","","","","","","","","","","","","","","","","","","",""
"pit-instructions","114","806972","0.0-2.0-25.0-1.0","battery-v0.2","","""event"",""trial"",""time""
""fullscreenenter"",""1"",""1075""
","
","
","""event"",""trial"",""time""
""fullscreenenter"",""1"",""1075""
","
","","[{""page_index"":0,""viewing_time"":1634.800000011921}]","1635.1000000238419","","","","","","","","","","","","","","","","","","","","","","","",""
"pit-comprehension","115","814709","0.0-2.0-26.0-0.0","battery-v0.2","","""event"",""trial"",""time""
""fullscreenenter"",""1"",""1075""
","
","
","""event"",""trial"",""time""
""fullscreenenter"",""1"",""1075""
","
","","","7734.899999976158","[""False""]","0","18","18250","6920","","","","","","","","","","","","","","","","","","",""
"pit-instructions","116","816517","0.0-2.0-26.0-1.0","battery-v0.2","","""event"",""trial"",""time""
""fullscreenenter"",""1"",""1075""
","
","
","""event"",""trial"",""time""
""fullscreenenter"",""1"",""1075""
","
","","[{""page_index"":0,""viewing_time"":1791.6000000238419}]","1791.800000011921","","","","","","","","","","","","","","","","","","","","","","","",""
"pit-instructions","117","834601","0.0-3.0","battery-v0.2","","""event"",""trial"",""time""
""fullscreenenter"",""1"",""1075""
","
","
","""event"",""trial"",""time""
""fullscreenenter"",""1"",""1075""
","
","","[{""page_index"":0,""viewing_time"":6438},{""page_index"":1,""viewing_time"":5086.100000023842},{""page_index"":2,""viewing_time"":6558.800000011921}]","18083.19999998808","","","","","","","","","","","","","","","","","","","","","","","",""
"pit-trial","118","837964","0.0-4.0","battery-v0.2","","""event"",""trial"",""time""
""fullscreenenter"",""1"",""1075""
","
","
","""event"",""trial"",""time""
""fullscreenenter"",""1"",""1075""
","
","","","503.19999998807907","","","18","18250","6920","&#9733;","elianto","#3366ff99","-1"," ","0","0","[1354.0999999642372]","1","1","","","18250","1","2","2","win","no-go","0"
"pit-trial","119","841543","0.0-5.0","battery-v0.2","","""event"",""trial"",""time""
""fullscreenenter"",""1"",""1075""
","
","
","""event"",""trial"",""time""
""fullscreenenter"",""1"",""1075""
","
","","","722.4000000357628","","","18","18250","6920","&#9730;","elianto","#3366ff99"," "," ","1","+10","[1572.5999999642372]","1","1","","","18250","2","1","1","win","go","0"
"pit-trial","120","845165","0.0-6.0","battery-v0.2","","""event"",""trial"",""time""
""fullscreenenter"",""1"",""1075""
","
","
","""event"",""trial"",""time""
""fullscreenenter"",""1"",""1075""
","
","","","764.5","","","18","18250","6920","&#9752;","elianto","#f73b6a7A"," "," ","1","-10","[1615.6000000238419]","1","1","","","18250","3","3","3","lose","go","1"
"pit-trial","121","848763","0.0-7.0","battery-v0.2","","""event"",""trial"",""time""
""fullscreenenter"",""1"",""1075""
","
","
","""event"",""trial"",""time""
""fullscreenenter"",""1"",""1075""
","
","","","741.5","","","18","18250","6920","&#9728;","elianto","#f73b6a7A","-1"," ","0","0","[1591.699999988079]","1","1","","","18250","4","0","4","lose","no-go","1"
"pit-trial","122","853620","0.0-8.0","battery-v0.2","","""event"",""trial"",""time""
""fullscreenenter"",""1"",""1075""
","
","
","""event"",""trial"",""time""
""fullscreenenter"",""1"",""1075""
","
","","","-1","","","18","18250","6920","&#9733;","elianto","#3366ff99","-1","-1","1","+10","[]","0","1","","","18250","5","2","2","win","no-go","0"
"pit-trial","123","857089","0.0-9.0","battery-v0.2","","""event"",""trial"",""time""
""fullscreenenter"",""1"",""1075""
","
","
","""event"",""trial"",""time""
""fullscreenenter"",""1"",""1075""
","
","","","613.5","","","18","18250","6920","&#9730;","elianto","#3366ff99"," "," ","1","+10","[1464.7000000476837]","1","1","","","18250","6","1","1","win","go","0"
"pit-trial","124","860456","0.0-10.0","battery-v0.2","","""event"",""trial"",""time""
""fullscreenenter"",""1"",""1075""
","
","
","""event"",""trial"",""time""
""fullscreenenter"",""1"",""1075""
","
","","","510.5","","","18","18250","6920","&#9728;","elianto","#f73b6a7A","-1"," ","0","-10","[1361.1000000238419]","1","1","","","18250","7","0","4","lose","no-go","0"
"pit-trial","125","863900","0.0-11.0","battery-v0.2","","""event"",""trial"",""time""
""fullscreenenter"",""1"",""1075""
","
","
","""event"",""trial"",""time""
""fullscreenenter"",""1"",""1075""
","
","","","587.1000000238419","","","18","18250","6920","&#9752;","elianto","#f73b6a7A"," "," ","1","-10","[1438.1000000238419]","1","1","","","18250","8","3","3","lose","go","1"
"pit-trial","126","867606","0.0-12.0","battery-v0.2","","""event"",""trial"",""time""
""fullscreenenter"",""1"",""1075""
","
","
","""event"",""trial"",""time""
""fullscreenenter"",""1"",""1075""
","
","","","850.8999999761581","","","18","18250","6920","&#9730;","elianto","#3366ff99"," "," ","1","+10","[1701.800000011921]","1","1","","","18250","9","1","1","win","go","0"
"pit-trial","127","872094","0.0-13.0","battery-v0.2","","""event"",""trial"",""time""
""fullscreenenter"",""1"",""1075""
","
","
","""event"",""trial"",""time""
""fullscreenenter"",""1"",""1075""
","
","","","1631.6000000238419","","","18","18250","6920","&#9752;","elianto","#f73b6a7A"," "," ","1","-10","[2483.199999988079]","1","1","","","18250","10","3","3","lose","go","1"
"pit-trial","128","876951","0.0-14.0","battery-v0.2","","""event"",""trial"",""time""
""fullscreenenter"",""1"",""1075""
","
","
","""event"",""trial"",""time""
""fullscreenenter"",""1"",""1075""
","
","","","-1","","","18","18250","6920","&#9728;","elianto","#f73b6a7A","-1","-1","1","0","[]","0","1","","","18250","11","0","4","lose","no-go","0"
"pit-trial","129","880641","0.0-15.0","battery-v0.2","","""event"",""trial"",""time""
""fullscreenenter"",""1"",""1075""
","
","
","""event"",""trial"",""time""
""fullscreenenter"",""1"",""1075""
","
","","","832.6999999880791","","","18","18250","6920","&#9733;","elianto","#3366ff99","-1"," ","0","+10","[1683.5]","1","1","","","18250","12","2","2","win","no-go","1"
"pit-trial","130","885499","0.0-16.0","battery-v0.2","","""event"",""trial"",""time""
""fullscreenenter"",""1"",""1075""
","
","
","""event"",""trial"",""time""
""fullscreenenter"",""1"",""1075""
","
","","","-1","","","18","18250","6920","&#9728;","elianto","#f73b6a7A","-1","-1","1","0","[]","0","1","","","18250","13","0","4","lose","no-go","0"
"pit-trial","131","890355","0.0-17.0","battery-v0.2","","""event"",""trial"",""time""
""fullscreenenter"",""1"",""1075""
","
","
","""event"",""trial"",""time""
""fullscreenenter"",""1"",""1075""
","
","","","-1","","","18","18250","6920","&#9752;","elianto","#f73b6a7A"," ","-1","0","-10","[]","0","1","","","18250","14","3","3","lose","go","0"
"pit-trial","132","893967","0.0-18.0","battery-v0.2","","""event"",""trial"",""time""
""fullscreenenter"",""1"",""1075""
","
","
","""event"",""trial"",""time""
""fullscreenenter"",""1"",""1075""
","
","","","758.0999999642372","","","18","18250","6920","&#9733;","elianto","#3366ff99","-1"," ","0","0","[1609.3999999761581]","1","1","","","18250","15","2","2","win","no-go","0"
"pit-trial","133","897257","0.0-19.0","battery-v0.2","","""event"",""trial"",""time""
""fullscreenenter"",""1"",""1075""
","
","
","""event"",""trial"",""time""
""fullscreenenter"",""1"",""1075""
","
","","","433.7000000476837","","","18","18250","6920","&#9730;","elianto","#3366ff99"," "," ","1","0","[1284.6000000238419]","1","1","","","18250","16","1","1","win","go","1"
"pit-trial","134","902114","0.0-20.0","battery-v0.2","","""event"",""trial"",""time""
""fullscreenenter"",""1"",""1075""
","
","
","""event"",""trial"",""time""
""fullscreenenter"",""1"",""1075""
","
","","","-1","","","18","18250","6920","&#9752;","elianto","#f73b6a7A"," ","-1","0","0","[]","0","1","","","18250","17","3","3","lose","go","1"
"pit-trial","135","906971","0.0-21.0","battery-v0.2","","""event"",""trial"",""time""
""fullscreenenter"",""1"",""1075""
","
","
","""event"",""trial"",""time""
""fullscreenenter"",""1"",""1075""
","
","","","-1","","","18","18250","6920","&#9728;","elianto","#f73b6a7A","-1","-1","1","0","[]","0","1","","","18250","18","0","4","lose","no-go","0"
"pit-trial","136","910410","0.0-22.0","battery-v0.2","","""event"",""trial"",""time""
""fullscreenenter"",""1"",""1075""
","
","
","""event"",""trial"",""time""
""fullscreenenter"",""1"",""1075""
","
","","","580.3999999761581","","","18","18250","6920","&#9730;","elianto","#3366ff99"," "," ","1","0","[1431.699999988079]","1","1","","","18250","19","1","1","win","go","1"
"pit-trial","137","913690","0.0-23.0","battery-v0.2","","""event"",""trial"",""time""
""fullscreenenter"",""1"",""1075""
","
","
","""event"",""trial"",""time""
""fullscreenenter"",""1"",""1075""
","
","","","423.89999997615814","","","18","18250","6920","&#9733;","elianto","#3366ff99","-1"," ","0","0","[1275.1000000238419]","1","1","","","18250","20","2","2","win","no-go","0"
"pit-instructions","138","925408","0.0-24.0","battery-v0.2","","""event"",""trial"",""time""
""fullscreenenter"",""1"",""1075""
","
","
","""event"",""trial"",""time""
""fullscreenenter"",""1"",""1075""
","
","","[{""page_index"":0,""viewing_time"":5534.299999952316},{""page_index"":1,""viewing_time"":6181.800000011921}]","11716.299999952316","","","","","","","","","","","","","","","","","","","","","","","",""
"pit-trial","139","929038","0.0-25.0","battery-v0.2","","""event"",""trial"",""time""
""fullscreenenter"",""1"",""1075""
","
","
","""event"",""trial"",""time""
""fullscreenenter"",""1"",""1075""
","
","","","775","","","18","18250","6920","t","elianto","#f73b6a7A","-1"," ","0","-10","[1625.8999999761581]","1","2","","","18250","21","2","4","lose","no-go","0"
"pit-trial","140","933103","0.0-26.0","battery-v0.2","","""event"",""trial"",""time""
""fullscreenenter"",""1"",""1075""
","
","
","""event"",""trial"",""time""
""fullscreenenter"",""1"",""1075""
","
","","","1209.5","","","18","18250","6920","n","elianto","#f73b6a7A","-1"," ","0","-10","[2060.099999964237]","1","2","","","18250","22","0","4","lose","no-go","0"
"pit-trial","141","936476","0.0-27.0","battery-v0.2","","""event"",""trial"",""time""
""fullscreenenter"",""1"",""1075""
","
","
","""event"",""trial"",""time""
""fullscreenenter"",""1"",""1075""
","
","","","517.5999999642372","","","18","18250","6920","f","elianto","#3366ff99"," "," ","1","+10","[1368.3999999761581]","1","2","","","18250","23","1","1","win","go","0"
"pit-trial","142","939912","0.0-28.0","battery-v0.2","","""event"",""trial"",""time""
""fullscreenenter"",""1"",""1075""
","
","
","""event"",""trial"",""time""
""fullscreenenter"",""1"",""1075""
","
","","","579.3000000119209","","","18","18250","6920","b","elianto","#f73b6a7A"," "," ","1","0","[1430]","1","2","","","18250","24","3","3","lose","go","0"
"pit-trial","143","944770","0.0-29.0","battery-v0.2","","""event"",""trial"",""time""
""fullscreenenter"",""1"",""1075""
","
","
","""event"",""trial"",""time""
""fullscreenenter"",""1"",""1075""
","
","","","-1","","","18","18250","6920","n","elianto","#f73b6a7A","-1","-1","1","0","[]","0","2","","","18250","25","0","4","lose","no-go","0"
"pit-trial","144","948260","0.0-30.0","battery-v0.2","","""event"",""trial"",""time""
""fullscreenenter"",""1"",""1075""
","
","
","""event"",""trial"",""time""
""fullscreenenter"",""1"",""1075""
","
","","","633.5","","","18","18250","6920","f","elianto","#3366ff99"," "," ","1","+10","[1484.300000011921]","1","2","","","18250","26","1","1","win","go","0"
"pit-trial","145","953117","0.0-31.0","battery-v0.2","","""event"",""trial"",""time""
""fullscreenenter"",""1"",""1075""
","
","
","""event"",""trial"",""time""
""fullscreenenter"",""1"",""1075""
","
","","","-1","","","18","18250","6920","t","elianto","#f73b6a7A","-1","-1","1","0","[]","0","2","","","18250","27","2","4","lose","no-go","0"
"pit-trial","146","956932","0.0-32.0","battery-v0.2","","""event"",""trial"",""time""
""fullscreenenter"",""1"",""1075""
","
","
","""event"",""trial"",""time""
""fullscreenenter"",""1"",""1075""
","
","","","957.6999999880791","","","18","18250","6920","b","elianto","#f73b6a7A"," "," ","1","0","[1808.5999999642372]","1","2","","","18250","28","3","3","lose","go","0"
"pit-trial","147","961789","0.0-33.0","battery-v0.2","","""event"",""trial"",""time""
""fullscreenenter"",""1"",""1075""
","
","
","""event"",""trial"",""time""
""fullscreenenter"",""1"",""1075""
","
","","","-1","","","18","18250","6920","t","elianto","#f73b6a7A","-1","-1","1","0","[]","0","2","","","18250","29","2","4","lose","no-go","0"
"pit-trial","148","965361","0.0-34.0","battery-v0.2","","""event"",""trial"",""time""
""fullscreenenter"",""1"",""1075""
","
","
","""event"",""trial"",""time""
""fullscreenenter"",""1"",""1075""
","
","","","715.3000000119209","","","18","18250","6920","b","elianto","#f73b6a7A"," "," ","1","0","[1566.199999988079]","1","2","","","18250","30","3","3","lose","go","0"
"pit-trial","149","969442","0.0-35.0","battery-v0.2","","""event"",""trial"",""time""
""fullscreenenter"",""1"",""1075""
","
","
","""event"",""trial"",""time""
""fullscreenenter"",""1"",""1075""
","
","","","1225.6000000238419","","","18","18250","6920","f","elianto","#3366ff99"," "," ","1","+10","[2075.899999976158]","1","2","","","18250","31","1","1","win","go","0"
"pit-trial","150","974298","0.0-36.0","battery-v0.2","","""event"",""trial"",""time""
""fullscreenenter"",""1"",""1075""
","
","
","""event"",""trial"",""time""
""fullscreenenter"",""1"",""1075""
","
","","","-1","","","18","18250","6920","n","elianto","#f73b6a7A","-1","-1","1","0","[]","0","2","","","18250","32","0","4","lose","no-go","0"
"pit-trial","151","978015","0.0-37.0","battery-v0.2","","""event"",""trial"",""time""
""fullscreenenter"",""1"",""1075""
","
","
","""event"",""trial"",""time""
""fullscreenenter"",""1"",""1075""
","
","","","861.7000000476837","","","18","18250","6920","f","elianto","#3366ff99"," "," ","1","+10","[1713]","1","2","","","18250","33","1","1","win","go","0"
"pit-trial","152","982871","0.0-38.0","battery-v0.2","","""event"",""trial"",""time""
""fullscreenenter"",""1"",""1075""
","
","
","""event"",""trial"",""time""
""fullscreenenter"",""1"",""1075""
","
","","","-1","","","18","18250","6920","t","elianto","#f73b6a7A","-1","-1","1","0","[]","0","2","","","18250","34","2","4","lose","no-go","0"
"pit-trial","153","987729","0.0-39.0","battery-v0.2","","""event"",""trial"",""time""
""fullscreenenter"",""1"",""1075""
","
","
","""event"",""trial"",""time""
""fullscreenenter"",""1"",""1075""
","
","","","-1","","","18","18250","6920","n","elianto","#f73b6a7A","-1","-1","1","0","[]","0","2","","","18250","35","0","4","lose","no-go","0"
"pit-trial","154","991059","0.0-40.0","battery-v0.2","","""event"",""trial"",""time""
""fullscreenenter"",""1"",""1075""
","
","
","""event"",""trial"",""time""
""fullscreenenter"",""1"",""1075""
","
","","","474","","","18","18250","6920","b","elianto","#f73b6a7A"," "," ","1","-10","[1324.699999988079]","1","2","","","18250","36","3","3","lose","go","1"
"pit-trial","155","995917","0.0-41.0","battery-v0.2","","""event"",""trial"",""time""
""fullscreenenter"",""1"",""1075""
","
","
","""event"",""trial"",""time""
""fullscreenenter"",""1"",""1075""
","
","","","-1","","","18","18250","6920","n","elianto","#f73b6a7A","-1","-1","1","0","[]","0","2","","","18250","37","0","4","lose","no-go","0"
"pit-trial","156","1000776","0.0-42.0","battery-v0.2","","""event"",""trial"",""time""
""fullscreenenter"",""1"",""1075""
","
","
","""event"",""trial"",""time""
""fullscreenenter"",""1"",""1075""
","
","","","-1","","","18","18250","6920","t","elianto","#f73b6a7A","-1","-1","1","0","[]","0","2","","","18250","38","2","4","lose","no-go","0"
"pit-trial","157","1004422","0.0-43.0","battery-v0.2","","""event"",""trial"",""time""
""fullscreenenter"",""1"",""1075""
","
","
","""event"",""trial"",""time""
""fullscreenenter"",""1"",""1075""
","
","","","789.5","","","18","18250","6920","b","elianto","#f73b6a7A"," "," ","1","0","[1640.300000011921]","1","2","","","18250","39","3","3","lose","go","0"
"pit-trial","158","1007798","0.0-44.0","battery-v0.2","","""event"",""trial"",""time""
""fullscreenenter"",""1"",""1075""
","
","
","""event"",""trial"",""time""
""fullscreenenter"",""1"",""1075""
","
","","","520.6999999880791","","","18","18250","6920","f","elianto","#3366ff99"," "," ","1","+10","[1371.199999988079]","1","2","","","18250","40","1","1","win","go","0"
"pit-trial","159","1011310","0.0-45.0","battery-v0.2","","""event"",""trial"",""time""
""fullscreenenter"",""1"",""1075""
","
","
","""event"",""trial"",""time""
""fullscreenenter"",""1"",""1075""
","
","","","656.1999999880791","","","18","18250","6920","f","elianto","#3366ff99"," "," ","1","+10","[1506.9000000357628]","1","2","","","18250","41","1","1","win","go","0"
"pit-trial","160","1016169","0.0-46.0","battery-v0.2","","""event"",""trial"",""time""
""fullscreenenter"",""1"",""1075""
","
","
","""event"",""trial"",""time""
""fullscreenenter"",""1"",""1075""
","
","","","-1","","","18","18250","6920","n","elianto","#f73b6a7A","-1","-1","1","-10","[]","0","2","","","18250","42","0","4","lose","no-go","1"
"pit-trial","161","1019881","0.0-47.0","battery-v0.2","","""event"",""trial"",""time""
""fullscreenenter"",""1"",""1075""
","
","
","""event"",""trial"",""time""
""fullscreenenter"",""1"",""1075""
","
","","","857.1000000238419","","","18","18250","6920","b","elianto","#f73b6a7A"," "," ","1","0","[1708.1000000238419]","1","2","","","18250","43","3","3","lose","go","0"
"pit-trial","162","1024738","0.0-48.0","battery-v0.2","","""event"",""trial"",""time""
""fullscreenenter"",""1"",""1075""
","
","
","""event"",""trial"",""time""
""fullscreenenter"",""1"",""1075""
","
","","","-1","","","18","18250","6920","t","elianto","#f73b6a7A","-1","-1","1","0","[]","0","2","","","18250","44","2","4","lose","no-go","0"
"pit-trial","163","1028583","0.0-49.0","battery-v0.2","","""event"",""trial"",""time""
""fullscreenenter"",""1"",""1075""
","
","
","""event"",""trial"",""time""
""fullscreenenter"",""1"",""1075""
","
","","","986.6000000238419","","","18","18250","6920","b","elianto","#f73b6a7A"," "," ","1","-10","[1837.5]","1","2","","","18250","45","3","3","lose","go","1"
"pit-trial","164","1033440","0.0-50.0","battery-v0.2","","""event"",""trial"",""time""
""fullscreenenter"",""1"",""1075""
","
","
","""event"",""trial"",""time""
""fullscreenenter"",""1"",""1075""
","
","","","-1","","","18","18250","6920","n","elianto","#f73b6a7A","-1","-1","1","0","[]","0","2","","","18250","46","0","4","lose","no-go","0"
"pit-trial","165","1037671","0.0-51.0","battery-v0.2","","""event"",""trial"",""time""
""fullscreenenter"",""1"",""1075""
","
","
","""event"",""trial"",""time""
""fullscreenenter"",""1"",""1075""
","
","","","1372.5999999642372","","","18","18250","6920","c","elianto","#3366ff99","-1"," ","0","0","[2224]","1","2","","","18250","47","4","2","win","no-go","0"
"pit-trial","166","1042527","0.0-52.0","battery-v0.2","","""event"",""trial"",""time""
""fullscreenenter"",""1"",""1075""
","
","
","""event"",""trial"",""time""
""fullscreenenter"",""1"",""1075""
","
","","","-1","","","18","18250","6920","t","elianto","#f73b6a7A","-1","-1","1","0","[]","0","2","","","18250","48","2","4","lose","no-go","0"
"pit-trial","167","1047384","0.0-53.0","battery-v0.2","","""event"",""trial"",""time""
""fullscreenenter"",""1"",""1075""
","
","
","""event"",""trial"",""time""
""fullscreenenter"",""1"",""1075""
","
","","","-1","","","18","18250","6920","c","elianto","#3366ff99","-1","-1","1","+10","[]","0","2","","","18250","49","4","2","win","no-go","0"
"pit-trial","168","1050793","0.0-54.0","battery-v0.2","","""event"",""trial"",""time""
""fullscreenenter"",""1"",""1075""
","
","
","""event"",""trial"",""time""
""fullscreenenter"",""1"",""1075""
","
","","","553.6000000238419","","","18","18250","6920","f","elianto","#3366ff99"," "," ","1","+10","[1404.5]","1","2","","","18250","50","1","1","win","go","0"
"pit-trial","169","1055649","0.0-55.0","battery-v0.2","","""event"",""trial"",""time""
""fullscreenenter"",""1"",""1075""
","
","
","""event"",""trial"",""time""
""fullscreenenter"",""1"",""1075""
","
","","","-1","","","18","18250","6920","n","elianto","#f73b6a7A","-1","-1","1","-10","[]","0","2","","","18250","51","0","4","lose","no-go","1"
"pit-trial","170","1059827","0.0-56.0","battery-v0.2","","""event"",""trial"",""time""
""fullscreenenter"",""1"",""1075""
","
","
","""event"",""trial"",""time""
""fullscreenenter"",""1"",""1075""
","
","","","1321.9000000357628","","","18","18250","6920","b","elianto","#f73b6a7A"," "," ","1","0","[2172.5]","1","2","","","18250","52","3","3","lose","go","0"
"pit-trial","171","1064683","0.0-57.0","battery-v0.2","","""event"",""trial"",""time""
""fullscreenenter"",""1"",""1075""
","
","
","""event"",""trial"",""time""
""fullscreenenter"",""1"",""1075""
","
","","","-1","","","18","18250","6920","t","elianto","#f73b6a7A","-1","-1","1","0","[]","0","2","","","18250","53","2","4","lose","no-go","0"
"pit-trial","172","1069539","0.0-58.0","battery-v0.2","","""event"",""trial"",""time""
""fullscreenenter"",""1"",""1075""
","
","
","""event"",""trial"",""time""
""fullscreenenter"",""1"",""1075""
","
","","","-1","","","18","18250","6920","c","elianto","#3366ff99","-1","-1","1","+10","[]","0","2","","","18250","54","4","2","win","no-go","0"
"pit-trial","173","1074397","0.0-59.0","battery-v0.2","","""event"",""trial"",""time""
""fullscreenenter"",""1"",""1075""
","
","
","""event"",""trial"",""time""
""fullscreenenter"",""1"",""1075""
","
","","","-1","","","18","18250","6920","n","elianto","#f73b6a7A","-1","-1","1","0","[]","0","2","","","18250","55","0","4","lose","no-go","0"
"pit-trial","174","1078440","0.0-60.0","battery-v0.2","","""event"",""trial"",""time""
""fullscreenenter"",""1"",""1075""
","
","
","""event"",""trial"",""time""
""fullscreenenter"",""1"",""1075""
","
","","","1186.1000000238419","","","18","18250","6920","f","elianto","#3366ff99"," "," ","1","+10","[2037.300000011921]","1","2","","","18250","56","1","1","win","go","0"
"pit-trial","175","1082513","0.0-61.0","battery-v0.2","","""event"",""trial"",""time""
""fullscreenenter"",""1"",""1075""
","
","
","""event"",""trial"",""time""
""fullscreenenter"",""1"",""1075""
","
","","","1215.800000011921","","","18","18250","6920","b","elianto","#f73b6a7A"," "," ","1","0","[2067.300000011921]","1","2","","","18250","57","3","3","lose","go","0"
"pit-trial","176","1087371","0.0-62.0","battery-v0.2","","""event"",""trial"",""time""
""fullscreenenter"",""1"",""1075""
","
","
","""event"",""trial"",""time""
""fullscreenenter"",""1"",""1075""
","
","","","-1","","","18","18250","6920","n","elianto","#f73b6a7A","-1","-1","1","0","[]","0","2","","","18250","58","0","4","lose","no-go","0"
"pit-trial","177","1091086","0.0-63.0","battery-v0.2","","""event"",""trial"",""time""
""fullscreenenter"",""1"",""1075""
","
","
","""event"",""trial"",""time""
""fullscreenenter"",""1"",""1075""
","
","","","859","","","18","18250","6920","f","elianto","#3366ff99"," "," ","1","0","[1710.2999999523163]","1","2","","","18250","59","1","1","win","go","1"
"pit-trial","178","1095942","0.0-64.0","battery-v0.2","","""event"",""trial"",""time""
""fullscreenenter"",""1"",""1075""
","
","
","""event"",""trial"",""time""
""fullscreenenter"",""1"",""1075""
","
","","","-1","","","18","18250","6920","c","elianto","#3366ff99","-1","-1","1","+10","[]","0","2","","","18250","60","4","2","win","no-go","0"
"pit-trial","179","1100799","0.0-65.0","battery-v0.2","","""event"",""trial"",""time""
""fullscreenenter"",""1"",""1075""
","
","
","""event"",""trial"",""time""
""fullscreenenter"",""1"",""1075""
","
","","","-1","","","18","18250","6920","t","elianto","#f73b6a7A","-1","-1","1","0","[]","0","2","","","18250","61","2","4","lose","no-go","0"
"pit-trial","180","1104694","0.0-66.0","battery-v0.2","","""event"",""trial"",""time""
""fullscreenenter"",""1"",""1075""
","
","
","""event"",""trial"",""time""
""fullscreenenter"",""1"",""1075""
","
","","","1039.5999999642372","","","18","18250","6920","f","elianto","#3366ff99"," "," ","1","+10","[1890.7999999523163]","1","2","","","18250","62","1","1","win","go","0"
"pit-trial","181","1109552","0.0-67.0","battery-v0.2","","""event"",""trial"",""time""
""fullscreenenter"",""1"",""1075""
","
","
","""event"",""trial"",""time""
""fullscreenenter"",""1"",""1075""
","
","","","-1","","","18","18250","6920","c","elianto","#3366ff99","-1","-1","1","+10","[]","0","2","","","18250","63","4","2","win","no-go","0"
"pit-trial","182","1113434","0.0-68.0","battery-v0.2","","""event"",""trial"",""time""
""fullscreenenter"",""1"",""1075""
","
","
","""event"",""trial"",""time""
""fullscreenenter"",""1"",""1075""
","
","","","1026.5","","","18","18250","6920","b","elianto","#f73b6a7A"," "," ","1","0","[1877.6000000238419]","1","2","","","18250","64","3","3","lose","go","0"
"pit-trial","183","1118289","0.0-69.0","battery-v0.2","","""event"",""trial"",""time""
""fullscreenenter"",""1"",""1075""
","
","
","""event"",""trial"",""time""
""fullscreenenter"",""1"",""1075""
","
","","","-1","","","18","18250","6920","c","elianto","#3366ff99","-1","-1","1","+10","[]","0","2","","","18250","65","4","2","win","no-go","0"
"pit-trial","184","1122296","0.0-70.0","battery-v0.2","","""event"",""trial"",""time""
""fullscreenenter"",""1"",""1075""
","
","
","""event"",""trial"",""time""
""fullscreenenter"",""1"",""1075""
","
","","","1150","","","18","18250","6920","b","elianto","#f73b6a7A"," "," ","1","0","[2001.5]","1","2","","","18250","66","3","3","lose","go","0"
"pit-trial","185","1127154","0.0-71.0","battery-v0.2","","""event"",""trial"",""time""
""fullscreenenter"",""1"",""1075""
","
","
","""event"",""trial"",""time""
""fullscreenenter"",""1"",""1075""
","
","","","-1","","","18","18250","6920","t","elianto","#f73b6a7A","-1","-1","1","0","[]","0","2","","","18250","67","2","4","lose","no-go","0"
"pit-trial","186","1130702","0.0-72.0","battery-v0.2","","""event"",""trial"",""time""
""fullscreenenter"",""1"",""1075""
","
","
","""event"",""trial"",""time""
""fullscreenenter"",""1"",""1075""
","
","","","690.9000000357628","","","18","18250","6920","f","elianto","#3366ff99"," "," ","1","0","[1542.0999999642372]","1","2","","","18250","68","1","1","win","go","1"
"pit-trial","187","1134656","0.0-73.0","battery-v0.2","","""event"",""trial"",""time""
""fullscreenenter"",""1"",""1075""
","
","
","""event"",""trial"",""time""
""fullscreenenter"",""1"",""1075""
","
","","","1097.699999988079","","","18","18250","6920","z","elianto","#3366ff99"," "," ","1","+10","[1948.800000011921]","1","2","","","18250","69","5","1","win","go","0"
"pit-trial","188","1138208","0.0-74.0","battery-v0.2","","""event"",""trial"",""time""
""fullscreenenter"",""1"",""1075""
","
","
","""event"",""trial"",""time""
""fullscreenenter"",""1"",""1075""
","
","","","695.9000000357628","","","18","18250","6920","f","elianto","#3366ff99"," "," ","1","+10","[1547.1000000238419]","1","2","","","18250","70","1","1","win","go","0"
"pit-trial","189","1141810","0.0-75.0","battery-v0.2","","""event"",""trial"",""time""
""fullscreenenter"",""1"",""1075""
","
","
","""event"",""trial"",""time""
""fullscreenenter"",""1"",""1075""
","
","","","747.1999999880791","","","18","18250","6920","b","elianto","#f73b6a7A"," "," ","1","-10","[1597.5999999642372]","1","2","","","18250","71","3","3","lose","go","1"
"pit-trial","190","1146667","0.0-76.0","battery-v0.2","","""event"",""trial"",""time""
""fullscreenenter"",""1"",""1075""
","
","
","""event"",""trial"",""time""
""fullscreenenter"",""1"",""1075""
","
","","","-1","","","18","18250","6920","c","elianto","#3366ff99","-1","-1","1","+10","[]","0","2","","","18250","72","4","2","win","no-go","0"
"pit-trial","191","1150435","0.0-77.0","battery-v0.2","","""event"",""trial"",""time""
""fullscreenenter"",""1"",""1075""
","
","
","""event"",""trial"",""time""
""fullscreenenter"",""1"",""1075""
","
","","","911.5","","","18","18250","6920","z","elianto","#3366ff99"," "," ","1","+10","[1761.800000011921]","1","2","","","18250","73","5","1","win","go","0"
"pit-trial","192","1154134","0.0-78.0","battery-v0.2","","""event"",""trial"",""time""
""fullscreenenter"",""1"",""1075""
","
","
","""event"",""trial"",""time""
""fullscreenenter"",""1"",""1075""
","
","","","842","","","18","18250","6920","f","elianto","#3366ff99"," "," ","1","+10","[1693.199999988079]","1","2","","","18250","74","1","1","win","go","0"
"pit-trial","193","1158992","0.0-79.0","battery-v0.2","","""event"",""trial"",""time""
""fullscreenenter"",""1"",""1075""
","
","
","""event"",""trial"",""time""
""fullscreenenter"",""1"",""1075""
","
","","","-1","","","18","18250","6920","c","elianto","#3366ff99","-1","-1","1","+10","[]","0","2","","","18250","75","4","2","win","no-go","0"
"pit-trial","194","1162832","0.0-80.0","battery-v0.2","","""event"",""trial"",""time""
""fullscreenenter"",""1"",""1075""
","
","
","""event"",""trial"",""time""
""fullscreenenter"",""1"",""1075""
","
","","","984.4000000357628","","","18","18250","6920","b","elianto","#f73b6a7A"," "," ","1","0","[1835.2000000476837]","1","2","","","18250","76","3","3","lose","go","0"
"pit-trial","195","1166974","0.0-81.0","battery-v0.2","","""event"",""trial"",""time""
""fullscreenenter"",""1"",""1075""
","
","
","""event"",""trial"",""time""
""fullscreenenter"",""1"",""1075""
","
","","","1284.300000011921","","","18","18250","6920","h","elianto","#f73b6a7A","-1"," ","0","-10","[2135.300000011921]","1","2","","","18250","77","6","4","lose","no-go","0"
"pit-trial","196","1170626","0.0-82.0","battery-v0.2","","""event"",""trial"",""time""
""fullscreenenter"",""1"",""1075""
","
","
","""event"",""trial"",""time""
""fullscreenenter"",""1"",""1075""
","
","","","796.5","","","18","18250","6920","z","elianto","#3366ff99"," "," ","1","+10","[1647.800000011921]","1","2","","","18250","78","5","1","win","go","0"
"pit-trial","197","1175481","0.0-83.0","battery-v0.2","","""event"",""trial"",""time""
""fullscreenenter"",""1"",""1075""
","
","
","""event"",""trial"",""time""
""fullscreenenter"",""1"",""1075""
","
","","","-1","","","18","18250","6920","c","elianto","#3366ff99","-1","-1","1","+10","[]","0","2","","","18250","79","4","2","win","no-go","0"
"pit-trial","198","1179104","0.0-84.0","battery-v0.2","","""event"",""trial"",""time""
""fullscreenenter"",""1"",""1075""
","
","
","""event"",""trial"",""time""
""fullscreenenter"",""1"",""1075""
","
","","","764.8000000119209","","","18","18250","6920","b","elianto","#f73b6a7A"," "," ","1","0","[1616.5]","1","2","","","18250","80","3","3","lose","go","0"
"pit-trial","199","1183960","0.0-85.0","battery-v0.2","","""event"",""trial"",""time""
""fullscreenenter"",""1"",""1075""
","
","
","""event"",""trial"",""time""
""fullscreenenter"",""1"",""1075""
","
","","","-1","","","18","18250","6920","h","elianto","#f73b6a7A","-1","-1","1","0","[]","0","2","","","18250","81","6","4","lose","no-go","0"
"pit-trial","200","1188818","0.0-86.0","battery-v0.2","","""event"",""trial"",""time""
""fullscreenenter"",""1"",""1075""
","
","
","""event"",""trial"",""time""
""fullscreenenter"",""1"",""1075""
","
","","","-1","","","18","18250","6920","c","elianto","#3366ff99","-1","-1","1","+10","[]","0","2","","","18250","82","4","2","win","no-go","0"
"pit-trial","201","1193674","0.0-87.0","battery-v0.2","","""event"",""trial"",""time""
""fullscreenenter"",""1"",""1075""
","
","
","""event"",""trial"",""time""
""fullscreenenter"",""1"",""1075""
","
","","","-1","","","18","18250","6920","y","elianto","#f73b6a7A"," ","-1","0","-10","[]","0","2","","","18250","83","7","3","lose","go","0"
"pit-trial","202","1198243","0.0-88.0","battery-v0.2","","""event"",""trial"",""time""
""fullscreenenter"",""1"",""1075""
","
","
","""event"",""trial"",""time""
""fullscreenenter"",""1"",""1075""
","
","","","1711.4000000357628","","","18","18250","6920","z","elianto","#3366ff99"," "," ","1","+10","[2561.900000035763]","1","2","","","18250","84","5","1","win","go","0"
"pit-trial","203","1203101","0.0-89.0","battery-v0.2","","""event"",""trial"",""time""
""fullscreenenter"",""1"",""1075""
","
","
","""event"",""trial"",""time""
""fullscreenenter"",""1"",""1075""
","
","","","-1","","","18","18250","6920","c","elianto","#3366ff99","-1","-1","1","+10","[]","0","2","","","18250","85","4","2","win","no-go","0"
"pit-trial","204","1206764","0.0-90.0","battery-v0.2","","""event"",""trial"",""time""
""fullscreenenter"",""1"",""1075""
","
","
","""event"",""trial"",""time""
""fullscreenenter"",""1"",""1075""
","
","","","806.5","","","18","18250","6920","z","elianto","#3366ff99"," "," ","1","+10","[1657.300000011921]","1","2","","","18250","86","5","1","win","go","0"
"pit-trial","205","1211622","0.0-91.0","battery-v0.2","","""event"",""trial"",""time""
""fullscreenenter"",""1"",""1075""
","
","
","""event"",""trial"",""time""
""fullscreenenter"",""1"",""1075""
","
","","","-1","","","18","18250","6920","h","elianto","#f73b6a7A","-1","-1","1","0","[]","0","2","","","18250","87","6","4","lose","no-go","0"
"pit-trial","206","1215112","0.0-92.0","battery-v0.2","","""event"",""trial"",""time""
""fullscreenenter"",""1"",""1075""
","
","
","""event"",""trial"",""time""
""fullscreenenter"",""1"",""1075""
","
","","","634.3999999761581","","","18","18250","6920","y","elianto","#f73b6a7A"," "," ","1","0","[1485.300000011921]","1","2","","","18250","88","7","3","lose","go","0"
"pit-trial","207","1219969","0.0-93.0","battery-v0.2","","""event"",""trial"",""time""
""fullscreenenter"",""1"",""1075""
","
","
","""event"",""trial"",""time""
""fullscreenenter"",""1"",""1075""
","
","","","-1","","","18","18250","6920","c","elianto","#3366ff99","-1","-1","1","+10","[]","0","2","","","18250","89","4","2","win","no-go","0"
"pit-trial","208","1223726","0.0-94.0","battery-v0.2","","""event"",""trial"",""time""
""fullscreenenter"",""1"",""1075""
","
","
","""event"",""trial"",""time""
""fullscreenenter"",""1"",""1075""
","
","","","900.3000000119209","","","18","18250","6920","y","elianto","#f73b6a7A"," "," ","1","0","[1751]","1","2","","","18250","90","7","3","lose","go","0"
"pit-trial","209","1227213","0.0-95.0","battery-v0.2","","""event"",""trial"",""time""
""fullscreenenter"",""1"",""1075""
","
","
","""event"",""trial"",""time""
""fullscreenenter"",""1"",""1075""
","
","","","630.8999999761581","","","18","18250","6920","z","elianto","#3366ff99"," "," ","1","+10","[1481.5999999642372]","1","2","","","18250","91","5","1","win","go","0"
"pit-trial","210","1232071","0.0-96.0","battery-v0.2","","""event"",""trial"",""time""
""fullscreenenter"",""1"",""1075""
","
","
","""event"",""trial"",""time""
""fullscreenenter"",""1"",""1075""
","
","","","-1","","","18","18250","6920","h","elianto","#f73b6a7A","-1","-1","1","0","[]","0","2","","","18250","92","6","4","lose","no-go","0"
"pit-trial","211","1235535","0.0-97.0","battery-v0.2","","""event"",""trial"",""time""
""fullscreenenter"",""1"",""1075""
","
","
","""event"",""trial"",""time""
""fullscreenenter"",""1"",""1075""
","
","","","608.5","","","18","18250","6920","y","elianto","#f73b6a7A"," "," ","1","0","[1459.5]","1","2","","","18250","93","7","3","lose","go","0"
"pit-trial","212","1239011","0.0-98.0","battery-v0.2","","""event"",""trial"",""time""
""fullscreenenter"",""1"",""1075""
","
","
","""event"",""trial"",""time""
""fullscreenenter"",""1"",""1075""
","
","","","620.5","","","18","18250","6920","z","elianto","#3366ff99"," "," ","1","0","[1470.800000011921]","1","2","","","18250","94","5","1","win","go","1"
"pit-trial","213","1243866","0.0-99.0","battery-v0.2","","""event"",""trial"",""time""
""fullscreenenter"",""1"",""1075""
","
","
","""event"",""trial"",""time""
""fullscreenenter"",""1"",""1075""
","
","","","-1","","","18","18250","6920","h","elianto","#f73b6a7A","-1","-1","1","0","[]","0","2","","","18250","95","6","4","lose","no-go","0"
"pit-trial","214","1248723","0.0-100.0","battery-v0.2","","""event"",""trial"",""time""
""fullscreenenter"",""1"",""1075""
","
","
","""event"",""trial"",""time""
""fullscreenenter"",""1"",""1075""
","
","","","-1","","","18","18250","6920","r","elianto","#3366ff99","-1","-1","1","+10","[]","0","2","","","18250","96","8","2","win","no-go","0"
"pit-trial","215","1252854","0.0-101.0","battery-v0.2","","""event"",""trial"",""time""
""fullscreenenter"",""1"",""1075""
","
","
","""event"",""trial"",""time""
""fullscreenenter"",""1"",""1075""
","
","","","1273.800000011921","","","18","18250","6920","y","elianto","#f73b6a7A"," "," ","1","0","[2124.100000023842]","1","2","","","18250","97","7","3","lose","go","0"
"pit-trial","216","1257711","0.0-102.0","battery-v0.2","","""event"",""trial"",""time""
""fullscreenenter"",""1"",""1075""
","
","
","""event"",""trial"",""time""
""fullscreenenter"",""1"",""1075""
","
","","","-1","","","18","18250","6920","h","elianto","#f73b6a7A","-1","-1","1","0","[]","0","2","","","18250","98","6","4","lose","no-go","0"
"pit-trial","217","1262568","0.0-103.0","battery-v0.2","","""event"",""trial"",""time""
""fullscreenenter"",""1"",""1075""
","
","
","""event"",""trial"",""time""
""fullscreenenter"",""1"",""1075""
","
","","","-1","","","18","18250","6920","r","elianto","#3366ff99","-1","-1","1","+10","[]","0","2","","","18250","99","8","2","win","no-go","0"
"pit-trial","218","1266216","0.0-104.0","battery-v0.2","","""event"",""trial"",""time""
""fullscreenenter"",""1"",""1075""
","
","
","""event"",""trial"",""time""
""fullscreenenter"",""1"",""1075""
","
","","","792.1999999880791","","","18","18250","6920","z","elianto","#3366ff99"," "," ","1","+10","[1642.800000011921]","1","2","","","18250","100","5","1","win","go","0"
"pit-trial","219","1271073","0.0-105.0","battery-v0.2","","""event"",""trial"",""time""
""fullscreenenter"",""1"",""1075""
","
","
","""event"",""trial"",""time""
""fullscreenenter"",""1"",""1075""
","
","","","-1","","","18","18250","6920","m","elianto","#3366ff99","-1","-1","1","+10","[]","0","2","","","18250","101","9","2","win","no-go","0"
"pit-trial","220","1274790","0.0-106.0","battery-v0.2","","""event"",""trial"",""time""
""fullscreenenter"",""1"",""1075""
","
","
","""event"",""trial"",""time""
""fullscreenenter"",""1"",""1075""
","
","","","861.2000000476837","","","18","18250","6920","z","elianto","#3366ff99"," "," ","1","+10","[1712.300000011921]","1","2","","","18250","102","5","1","win","go","0"
"pit-trial","221","1279647","0.0-107.0","battery-v0.2","","""event"",""trial"",""time""
""fullscreenenter"",""1"",""1075""
","
","
","""event"",""trial"",""time""
""fullscreenenter"",""1"",""1075""
","
","","","-1","","","18","18250","6920","r","elianto","#3366ff99","-1","-1","1","0","[]","0","2","","","18250","103","8","2","win","no-go","1"
"pit-trial","222","1284503","0.0-108.0","battery-v0.2","","""event"",""trial"",""time""
""fullscreenenter"",""1"",""1075""
","
","
","""event"",""trial"",""time""
""fullscreenenter"",""1"",""1075""
","
","","","-1","","","18","18250","6920","h","elianto","#f73b6a7A","-1","-1","1","0","[]","0","2","","","18250","104","6","4","lose","no-go","0"
"pit-trial","223","1288038","0.0-109.0","battery-v0.2","","""event"",""trial"",""time""
""fullscreenenter"",""1"",""1075""
","
","
","""event"",""trial"",""time""
""fullscreenenter"",""1"",""1075""
","
","","","678.6999999880791","","","18","18250","6920","z","elianto","#3366ff99"," "," ","1","+10","[1529.5999999642372]","1","2","","","18250","105","5","1","win","go","0"
"pit-trial","224","1292893","0.0-110.0","battery-v0.2","","""event"",""trial"",""time""
""fullscreenenter"",""1"",""1075""
","
","
","""event"",""trial"",""time""
""fullscreenenter"",""1"",""1075""
","
","","","-1","","","18","18250","6920","h","elianto","#f73b6a7A","-1","-1","1","0","[]","0","2","","","18250","106","6","4","lose","no-go","0"
"pit-trial","225","1297748","0.0-111.0","battery-v0.2","","""event"",""trial"",""time""
""fullscreenenter"",""1"",""1075""
","
","
","""event"",""trial"",""time""
""fullscreenenter"",""1"",""1075""
","
","","","-1","","","18","18250","6920","r","elianto","#3366ff99","-1","-1","1","+10","[]","0","2","","","18250","107","8","2","win","no-go","0"
"pit-trial","226","1302145","0.0-112.0","battery-v0.2","","""event"",""trial"",""time""
""fullscreenenter"",""1"",""1075""
","
","
","""event"",""trial"",""time""
""fullscreenenter"",""1"",""1075""
","
","","","1539.699999988079","","","18","18250","6920","m","elianto","#3366ff99","-1"," ","0","+10","[2390.699999988079]","1","2","","","18250","108","9","2","win","no-go","1"
"pit-trial","227","1305704","0.0-113.0","battery-v0.2","","""event"",""trial"",""time""
""fullscreenenter"",""1"",""1075""
","
","
","""event"",""trial"",""time""
""fullscreenenter"",""1"",""1075""
","
","","","701.3000000119209","","","18","18250","6920","z","elianto","#3366ff99"," "," ","1","0","[1551.800000011921]","1","2","","","18250","109","5","1","win","go","1"
"pit-trial","228","1310562","0.0-114.0","battery-v0.2","","""event"",""trial"",""time""
""fullscreenenter"",""1"",""1075""
","
","
","""event"",""trial"",""time""
""fullscreenenter"",""1"",""1075""
","
","","","-1","","","18","18250","6920","r","elianto","#3366ff99","-1","-1","1","+10","[]","0","2","","","18250","110","8","2","win","no-go","0"
"pit-trial","229","1315419","0.0-115.0","battery-v0.2","","""event"",""trial"",""time""
""fullscreenenter"",""1"",""1075""
","
","
","""event"",""trial"",""time""
""fullscreenenter"",""1"",""1075""
","
","","","-1","","","18","18250","6920","h","elianto","#f73b6a7A","-1","-1","1","0","[]","0","2","","","18250","111","6","4","lose","no-go","0"
"pit-trial","230","1318924","0.0-116.0","battery-v0.2","","""event"",""trial"",""time""
""fullscreenenter"",""1"",""1075""
","
","
","""event"",""trial"",""time""
""fullscreenenter"",""1"",""1075""
","
","","","648.0999999642372","","","18","18250","6920","m","elianto","#3366ff99","-1"," ","0","0","[1499.5]","1","2","","","18250","112","9","2","win","no-go","0"
"pit-trial","231","1322728","0.0-117.0","battery-v0.2","","""event"",""trial"",""time""
""fullscreenenter"",""1"",""1075""
","
","
","""event"",""trial"",""time""
""fullscreenenter"",""1"",""1075""
","
","","","947.8999999761581","","","18","18250","6920","z","elianto","#3366ff99"," "," ","1","+10","[1798.6000000238419]","1","2","","","18250","113","5","1","win","go","0"
"pit-trial","232","1326717","0.0-118.0","battery-v0.2","","""event"",""trial"",""time""
""fullscreenenter"",""1"",""1075""
","
","
","""event"",""trial"",""time""
""fullscreenenter"",""1"",""1075""
","
","","","1133","","","18","18250","6920","y","elianto","#f73b6a7A"," "," ","1","0","[1983.800000011921]","1","2","","","18250","114","7","3","lose","go","0"
"pit-trial","233","1331574","0.0-119.0","battery-v0.2","","""event"",""trial"",""time""
""fullscreenenter"",""1"",""1075""
","
","
","""event"",""trial"",""time""
""fullscreenenter"",""1"",""1075""
","
","","","-1","","","18","18250","6920","r","elianto","#3366ff99","-1","-1","1","+10","[]","0","2","","","18250","115","8","2","win","no-go","0"
"pit-trial","234","1335460","0.0-120.0","battery-v0.2","","""event"",""trial"",""time""
""fullscreenenter"",""1"",""1075""
","
","
","""event"",""trial"",""time""
""fullscreenenter"",""1"",""1075""
","
","","","1029.6000000238419","","","18","18250","6920","m","elianto","#3366ff99","-1"," ","0","0","[1879.6000000238419]","1","2","","","18250","116","9","2","win","no-go","0"
"pit-trial","235","1340317","0.0-121.0","battery-v0.2","","""event"",""trial"",""time""
""fullscreenenter"",""1"",""1075""
","
","
","""event"",""trial"",""time""
""fullscreenenter"",""1"",""1075""
","
","","","-1","","","18","18250","6920","r","elianto","#3366ff99","-1","-1","1","+10","[]","0","2","","","18250","117","8","2","win","no-go","0"
"pit-trial","236","1345173","0.0-122.0","battery-v0.2","","""event"",""trial"",""time""
""fullscreenenter"",""1"",""1075""
","
","
","""event"",""trial"",""time""
""fullscreenenter"",""1"",""1075""
","
","","","-1","","","18","18250","6920","h","elianto","#f73b6a7A","-1","-1","1","0","[]","0","2","","","18250","118","6","4","lose","no-go","0"
"pit-trial","237","1350030","0.0-123.0","battery-v0.2","","""event"",""trial"",""time""
""fullscreenenter"",""1"",""1075""
","
","
","""event"",""trial"",""time""
""fullscreenenter"",""1"",""1075""
","
","","","-1","","","18","18250","6920","m","elianto","#3366ff99","-1","-1","1","+10","[]","0","2","","","18250","119","9","2","win","no-go","0"
"pit-trial","238","1354224","0.0-124.0","battery-v0.2","","""event"",""trial"",""time""
""fullscreenenter"",""1"",""1075""
","
","
","""event"",""trial"",""time""
""fullscreenenter"",""1"",""1075""
","
","","","1340","","","18","18250","6920","z","elianto","#3366ff99"," "," ","1","0","[2190.199999988079]","1","2","","","18250","120","5","1","win","go","1"
"pit-trial","239","1359082","0.0-125.0","battery-v0.2","","""event"",""trial"",""time""
""fullscreenenter"",""1"",""1075""
","
","
","""event"",""trial"",""time""
""fullscreenenter"",""1"",""1075""
","
","","","-1","","","18","18250","6920","m","elianto","#3366ff99","-1","-1","1","+10","[]","0","2","","","18250","121","9","2","win","no-go","0"
"pit-trial","240","1363023","0.0-126.0","battery-v0.2","","""event"",""trial"",""time""
""fullscreenenter"",""1"",""1075""
","
","
","""event"",""trial"",""time""
""fullscreenenter"",""1"",""1075""
","
","","","1085.300000011921","","","18","18250","6920","z","elianto","#3366ff99"," "," ","1","0","[1936.199999988079]","1","2","","","18250","122","5","1","win","go","1"
"pit-trial","241","1367880","0.0-127.0","battery-v0.2","","""event"",""trial"",""time""
""fullscreenenter"",""1"",""1075""
","
","
","""event"",""trial"",""time""
""fullscreenenter"",""1"",""1075""
","
","","","-1","","","18","18250","6920","r","elianto","#3366ff99","-1","-1","1","+10","[]","0","2","","","18250","123","8","2","win","no-go","0"
"pit-trial","242","1371792","0.0-128.0","battery-v0.2","","""event"",""trial"",""time""
""fullscreenenter"",""1"",""1075""
","
","
","""event"",""trial"",""time""
""fullscreenenter"",""1"",""1075""
","
","","","1054.9000000357628","","","18","18250","6920","y","elianto","#f73b6a7A"," "," ","1","0","[1905.3999999761581]","1","2","","","18250","124","7","3","lose","go","0"
"pit-trial","243","1376650","0.0-129.0","battery-v0.2","","""event"",""trial"",""time""
""fullscreenenter"",""1"",""1075""
","
","
","""event"",""trial"",""time""
""fullscreenenter"",""1"",""1075""
","
","","","-1","","","18","18250","6920","h","elianto","#f73b6a7A","-1","-1","1","0","[]","0","2","","","18250","125","6","4","lose","no-go","0"
"pit-trial","244","1381508","0.0-130.0","battery-v0.2","","""event"",""trial"",""time""
""fullscreenenter"",""1"",""1075""
","
","
","""event"",""trial"",""time""
""fullscreenenter"",""1"",""1075""
","
","","","-1","","","18","18250","6920","m","elianto","#3366ff99","-1","-1","1","+10","[]","0","2","","","18250","126","9","2","win","no-go","0"
"pit-trial","245","1386365","0.0-131.0","battery-v0.2","","""event"",""trial"",""time""
""fullscreenenter"",""1"",""1075""
","
","
","""event"",""trial"",""time""
""fullscreenenter"",""1"",""1075""
","
","","","-1","","","18","18250","6920","r","elianto","#3366ff99","-1","-1","1","+10","[]","0","2","","","18250","127","8","2","win","no-go","0"
"pit-trial","246","1390602","0.0-132.0","battery-v0.2","","""event"",""trial"",""time""
""fullscreenenter"",""1"",""1075""
","
","
","""event"",""trial"",""time""
""fullscreenenter"",""1"",""1075""
","
","","","1379.800000011921","","","18","18250","6920","y","elianto","#f73b6a7A"," "," ","1","0","[2230.300000011921]","1","2","","","18250","128","7","3","lose","go","0"
"pit-trial","247","1394572","0.0-133.0","battery-v0.2","","""event"",""trial"",""time""
""fullscreenenter"",""1"",""1075""
","
","
","""event"",""trial"",""time""
""fullscreenenter"",""1"",""1075""
","
","","","1114","","","18","18250","6920","y","elianto","#f73b6a7A"," "," ","1","0","[1964.4000000357628]","1","2","","","18250","129","7","3","lose","go","0"
"pit-trial","248","1399429","0.0-134.0","battery-v0.2","","""event"",""trial"",""time""
""fullscreenenter"",""1"",""1075""
","
","
","""event"",""trial"",""time""
""fullscreenenter"",""1"",""1075""
","
","","","-1","","","18","18250","6920","m","elianto","#3366ff99","-1","-1","1","+10","[]","0","2","","","18250","130","9","2","win","no-go","0"
"pit-trial","249","1404286","0.0-135.0","battery-v0.2","","""event"",""trial"",""time""
""fullscreenenter"",""1"",""1075""
","
","
","""event"",""trial"",""time""
""fullscreenenter"",""1"",""1075""
","
","","","-1","","","18","18250","6920","h","elianto","#f73b6a7A","-1","-1","1","0","[]","0","2","","","18250","131","6","4","lose","no-go","0"
"pit-trial","250","1409144","0.0-136.0","battery-v0.2","","""event"",""trial"",""time""
""fullscreenenter"",""1"",""1075""
","
","
","""event"",""trial"",""time""
""fullscreenenter"",""1"",""1075""
","
","","","-1","","","18","18250","6920","r","elianto","#3366ff99","-1","-1","1","+10","[]","0","2","","","18250","132","8","2","win","no-go","0"
"pit-trial","251","1414000","0.0-137.0","battery-v0.2","","""event"",""trial"",""time""
""fullscreenenter"",""1"",""1075""
","
","
","""event"",""trial"",""time""
""fullscreenenter"",""1"",""1075""
","
","","","-1","","","18","18250","6920","r","elianto","#3366ff99","-1","-1","1","+10","[]","0","2","","","18250","133","8","2","win","no-go","0"
"pit-trial","252","1418856","0.0-138.0","battery-v0.2","","""event"",""trial"",""time""
""fullscreenenter"",""1"",""1075""
","
","
","""event"",""trial"",""time""
""fullscreenenter"",""1"",""1075""
","
","","","-1","","","18","18250","6920","m","elianto","#3366ff99","-1","-1","1","+10","[]","0","2","","","18250","134","9","2","win","no-go","0"
"pit-trial","253","1423715","0.0-139.0","battery-v0.2","","""event"",""trial"",""time""
""fullscreenenter"",""1"",""1075""
","
","
","""event"",""trial"",""time""
""fullscreenenter"",""1"",""1075""
","
","","","-1","","","18","18250","6920","h","elianto","#f73b6a7A","-1","-1","1","0","[]","0","2","","","18250","135","6","4","lose","no-go","0"
"pit-trial","254","1428149","0.0-140.0","battery-v0.2","","""event"",""trial"",""time""
""fullscreenenter"",""1"",""1075""
","
","
","""event"",""trial"",""time""
""fullscreenenter"",""1"",""1075""
","
","","","1578.1000000238419","","","18","18250","6920","y","elianto","#f73b6a7A"," "," ","1","0","[2428.100000023842]","1","2","","","18250","136","7","3","lose","go","0"
"pit-trial","255","1433006","0.0-141.0","battery-v0.2","","""event"",""trial"",""time""
""fullscreenenter"",""1"",""1075""
","
","
","""event"",""trial"",""time""
""fullscreenenter"",""1"",""1075""
","
","","","-1","","","18","18250","6920","h","elianto","#f73b6a7A","-1","-1","1","0","[]","0","2","","","18250","137","6","4","lose","no-go","0"
"pit-trial","256","1437862","0.0-142.0","battery-v0.2","","""event"",""trial"",""time""
""fullscreenenter"",""1"",""1075""
","
","
","""event"",""trial"",""time""
""fullscreenenter"",""1"",""1075""
","
","","","-1","","","18","18250","6920","r","elianto","#3366ff99","-1","-1","1","+10","[]","0","2","","","18250","138","8","2","win","no-go","0"
"pit-trial","257","1442112","0.0-143.0","battery-v0.2","","""event"",""trial"",""time""
""fullscreenenter"",""1"",""1075""
","
","
","""event"",""trial"",""time""
""fullscreenenter"",""1"",""1075""
","
","","","1393.8999999761581","","","18","18250","6920","y","elianto","#f73b6a7A"," "," ","1","0","[2244.199999988079]","1","2","","","18250","139","7","3","lose","go","0"
"pit-trial","258","1446968","0.0-144.0","battery-v0.2","","""event"",""trial"",""time""
""fullscreenenter"",""1"",""1075""
","
","
","""event"",""trial"",""time""
""fullscreenenter"",""1"",""1075""
","
","","","-1","","","18","18250","6920","m","elianto","#3366ff99","-1","-1","1","0","[]","0","2","","","18250","140","9","2","win","no-go","1"
"pit-instructions","259","1466622","0.0-145.0","battery-v0.2","","""event"",""trial"",""time""
""fullscreenenter"",""1"",""1075""
","
","
","""event"",""trial"",""time""
""fullscreenenter"",""1"",""1075""
","
","","[{""page_index"":0,""viewing_time"":6162.699999988079},{""page_index"":1,""viewing_time"":13487.600000023842}]","19650.600000023842","","","","","","","","","","","","","","","","","","","","","","","",""
"pit-trial","260","1471481","0.0-146.0","battery-v0.2","","""event"",""trial"",""time""
""fullscreenenter"",""1"",""1075""
","
","
","""event"",""trial"",""time""
""fullscreenenter"",""1"",""1075""
","
","","","-1","","","18","18250","6920","e","elianto","#f73b6a7A"," ","-1","0","0","[]","0","3","","","18250","141","2","3","lose","go","1"
"pit-trial","261","1476339","0.0-147.0","battery-v0.2","","""event"",""trial"",""time""
""fullscreenenter"",""1"",""1075""
","
","
","""event"",""trial"",""time""
""fullscreenenter"",""1"",""1075""
","
","","","-1","","","18","18250","6920","j","elianto","#f73b6a7A"," ","-1","0","-10","[]","0","3","","","18250","142","0","3","lose","go","0"
"pit-trial","262","1481196","0.0-148.0","battery-v0.2","","""event"",""trial"",""time""
""fullscreenenter"",""1"",""1075""
","
","
","""event"",""trial"",""time""
""fullscreenenter"",""1"",""1075""
","
","","","-1","","","18","18250","6920","w","elianto","#f73b6a7A","-1","-1","1","0","[]","0","3","","","18250","143","3","4","lose","no-go","0"
"pit-trial","263","1486051","0.0-149.0","battery-v0.2","","""event"",""trial"",""time""
""fullscreenenter"",""1"",""1075""
","
","
","""event"",""trial"",""time""
""fullscreenenter"",""1"",""1075""
","
","","","-1","","","18","18250","6920","d","elianto","#3366ff99","-1","-1","1","+10","[]","0","3","","","18250","144","1","2","win","no-go","0"
"pit-trial","264","1490907","0.0-150.0","battery-v0.2","","""event"",""trial"",""time""
""fullscreenenter"",""1"",""1075""
","
","
","""event"",""trial"",""time""
""fullscreenenter"",""1"",""1075""
","
","","","-1","","","18","18250","6920","d","elianto","#3366ff99","-1","-1","1","+10","[]","0","3","","","18250","145","1","2","win","no-go","0"
"pit-trial","265","1494659","0.0-151.0","battery-v0.2","","""event"",""trial"",""time""
""fullscreenenter"",""1"",""1075""
","
","
","""event"",""trial"",""time""
""fullscreenenter"",""1"",""1075""
","
","","","895.1999999880791","","","18","18250","6920","j","elianto","#f73b6a7A"," "," ","1","0","[1745.3999999761581]","1","3","","","18250","146","0","3","lose","go","0"
"pit-trial","266","1499516","0.0-152.0","battery-v0.2","","""event"",""trial"",""time""
""fullscreenenter"",""1"",""1075""
","
","
","""event"",""trial"",""time""
""fullscreenenter"",""1"",""1075""
","
","","","-1","","","18","18250","6920","e","elianto","#f73b6a7A"," ","-1","0","-10","[]","0","3","","","18250","147","2","3","lose","go","0"
"pit-trial","267","1504374","0.0-153.0","battery-v0.2","","""event"",""trial"",""time""
""fullscreenenter"",""1"",""1075""
","
","
","""event"",""trial"",""time""
""fullscreenenter"",""1"",""1075""
","
