"trial_type","trial_index","time_elapsed","internal_node_id","task_version","subject_id","interactions","blur_events","focus_events","fullscreenenter_events","fullscreenexit_events","success","view_history","rt","responses","num_errors","age","subject","participantId","rune","rune_set","hex","correct","choice","accuracy","outcome","keys","total_keys","block","practice","value","sub","trial","stimulus","robot","valence","action","sham"
"pavlovia","0","11","0.0-0.0","battery-v0.2","","""event"",""trial"",""time""
""fullscreenenter"",""1"",""6324""
","
","
","""event"",""trial"",""time""
""fullscreenenter"",""1"",""6324""
","
","","","","","","","","","","","","","","","","","","","","","","","","","","",""
"fullscreen","1","7280","0.0-1.0","battery-v0.2","","""event"",""trial"",""time""
""fullscreenenter"",""1"",""6324""
","
","
","""event"",""trial"",""time""
""fullscreenenter"",""1"",""6324""
","
","true","","","","","","","","","","","","","","","","","","","","","","","","","",""
"pit-instructions","2","12082","0.0-2.0-0.0","battery-v0.2","","""event"",""trial"",""time""
""fullscreenenter"",""1"",""6324""
","
","
","""event"",""trial"",""time""
""fullscreenenter"",""1"",""6324""
","
","","[{""page_index"":0,""viewing_time"":4798.199999988079}]","4798.699999988079","","","","","","","","","","","","","","","","","","","","","","","",""
"pit-comprehension","3","15397","0.0-2.0-1.0-0.0","battery-v0.2","","""event"",""trial"",""time""
""fullscreenenter"",""1"",""6324""
","
","
","""event"",""trial"",""time""
""fullscreenenter"",""1"",""6324""
","
","","","3310.800000011921","[""shark""]","0","12","9101","4211","","","","","","","","","","","","","","","","","","",""
"pit-instructions","4","16996","0.0-2.0-1.0-1.0","battery-v0.2","","""event"",""trial"",""time""
""fullscreenenter"",""1"",""6324""
","
","
","""event"",""trial"",""time""
""fullscreenenter"",""1"",""6324""
","
","","[{""page_index"":0,""viewing_time"":1579.1000000238419}]","1579.5","","","","","","","","","","","","","","","","","","","","","","","",""
"pit-comprehension","5","19111","0.0-2.0-2.0-0.0","battery-v0.2","","""event"",""trial"",""time""
""fullscreenenter"",""1"",""6324""
","
","
","""event"",""trial"",""time""
""fullscreenenter"",""1"",""6324""
","
","","","2112.7000000476837","[""tiger""]","0","12","9101","4211","","","","","","","","","","","","","","","","","","",""
"pit-instructions","6","20032","0.0-2.0-2.0-1.0","battery-v0.2","","""event"",""trial"",""time""
""fullscreenenter"",""1"",""6324""
","
","
","""event"",""trial"",""time""
""fullscreenenter"",""1"",""6324""
","
","","[{""page_index"":0,""viewing_time"":916}]","916.3999999761581","","","","","","","","","","","","","","","","","","","","","","","",""
"pit-instructions","7","123460","0.0-2.0-3.0","battery-v0.2","","""event"",""trial"",""time""
""fullscreenenter"",""1"",""6324""
","
","
","""event"",""trial"",""time""
""fullscreenenter"",""1"",""6324""
","
","","[{""page_index"":0,""viewing_time"":9860.5},{""page_index"":1,""viewing_time"":7095.699999988079},{""page_index"":2,""viewing_time"":6087.600000023842},{""page_index"":3,""viewing_time"":5420},{""page_index"":4,""viewing_time"":6012.199999988079},{""page_index"":5,""viewing_time"":6201.300000011921},{""page_index"":6,""viewing_time"":7420},{""page_index"":7,""viewing_time"":7613.300000011921},{""page_index"":8,""viewing_time"":7950.599999964237},{""page_index"":9,""viewing_time"":9570.5},{""page_index"":10,""viewing_time"":8648.900000035763},{""page_index"":11,""viewing_time"":8555},{""page_index"":12,""viewing_time"":6542.899999976158},{""page_index"":13,""viewing_time"":6445.199999988079}]","103424.39999997616","","","","","","","","","","","","","","","","","","","","","","","",""
"pit-trial","8","127109","0.0-2.0-4.0-0.0","battery-v0.2","","""event"",""trial"",""time""
""fullscreenenter"",""1"",""6324""
","
","
","""event"",""trial"",""time""
""fullscreenenter"",""1"",""6324""
","
","","","782.3000000119209","","","12","9101","4211","&#9784;","elianto","#FFFFF080"," "," ","1","&#10004","[1644.6000000238419]","1","0","0","","","","","","","",""
"pit-trial","9","130596","0.0-2.0-4.1-0.1","battery-v0.2","","""event"",""trial"",""time""
""fullscreenenter"",""1"",""6324""
","
","
","""event"",""trial"",""time""
""fullscreenenter"",""1"",""6324""
","
","","","611.8000000119209","","","12","9101","4211","&#9784;","elianto","#FFFFF080"," "," ","1","&#10004","[1470.0999999642372]","1","0","0","","","","","","","",""
"pit-trial","10","134457","0.0-2.0-4.2-0.2","battery-v0.2","","""event"",""trial"",""time""
""fullscreenenter"",""1"",""6324""
","
","
","""event"",""trial"",""time""
""fullscreenenter"",""1"",""6324""
","
","","","1001","","","12","9101","4211","&#9784;","elianto","#FFFFF080"," "," ","1","&#10004","[1855.8999999761581]","1","0","0","","","","","","","",""
"pit-trial","11","137711","0.0-2.0-4.3-0.3","battery-v0.2","","""event"",""trial"",""time""
""fullscreenenter"",""1"",""6324""
","
","
","""event"",""trial"",""time""
""fullscreenenter"",""1"",""6324""
","
","","","398.5999999642372","","","12","9101","4211","&#9784;","elianto","#FFFFF080"," "," ","1","&#10004","[1249.5]","1","0","0","","","","","","","",""
"pit-trial","12","141109","0.0-2.0-4.4-0.4","battery-v0.2","","""event"",""trial"",""time""
""fullscreenenter"",""1"",""6324""
","
","
","""event"",""trial"",""time""
""fullscreenenter"",""1"",""6324""
","
","","","536.5","","","12","9101","4211","&#9784;","elianto","#FFFFF080"," "," ","1","&#10004","[1392.5999999642372]","1","0","0","","","","","","","",""
"pit-instructions","13","161716","0.0-2.0-5.0","battery-v0.2","","""event"",""trial"",""time""
""fullscreenenter"",""1"",""6324""
","
","
","""event"",""trial"",""time""
""fullscreenenter"",""1"",""6324""
","
","","[{""page_index"":0,""viewing_time"":5023.699999988079},{""page_index"":1,""viewing_time"":5078.199999988079},{""page_index"":2,""viewing_time"":5200.100000023842},{""page_index"":3,""viewing_time"":5301.300000011921}]","20603.69999998808","","","","","","","","","","","","","","","","","","","","","","","",""
"pit-trial","14","166578","0.0-2.0-6.0-0.0","battery-v0.2","","""event"",""trial"",""time""
""fullscreenenter"",""1"",""6324""
","
","
","""event"",""trial"",""time""
""fullscreenenter"",""1"",""6324""
","
","","","-1","","","12","9101","4211","&#9854;","elianto","#FFFFF080","-1","-1","1","&#10004","[]","0","0","1","","","","","","","",""
"pit-trial","15","171437","0.0-2.0-6.1-0.1","battery-v0.2","","""event"",""trial"",""time""
""fullscreenenter"",""1"",""6324""
","
","
","""event"",""trial"",""time""
""fullscreenenter"",""1"",""6324""
","
","","","-1","","","12","9101","4211","&#9854;","elianto","#FFFFF080","-1","-1","1","&#10004","[]","0","0","1","","","","","","","",""
"pit-trial","16","176297","0.0-2.0-6.2-0.2","battery-v0.2","","""event"",""trial"",""time""
""fullscreenenter"",""1"",""6324""
","
","
","""event"",""trial"",""time""
""fullscreenenter"",""1"",""6324""
","
","","","-1","","","12","9101","4211","&#9854;","elianto","#FFFFF080","-1","-1","1","&#10004","[]","0","0","1","","","","","","","",""
"pit-trial","17","181167","0.0-2.0-6.3-0.3","battery-v0.2","","""event"",""trial"",""time""
""fullscreenenter"",""1"",""6324""
","
","
","""event"",""trial"",""time""
""fullscreenenter"",""1"",""6324""
","
","","","-1","","","12","9101","4211","&#9854;","elianto","#FFFFF080","-1","-1","1","&#10004","[]","0","0","1","","","","","","","",""
"pit-trial","18","186044","0.0-2.0-6.4-0.4","battery-v0.2","","""event"",""trial"",""time""
""fullscreenenter"",""1"",""6324""
","
","
","""event"",""trial"",""time""
""fullscreenenter"",""1"",""6324""
","
","","","-1","","","12","9101","4211","&#9854;","elianto","#FFFFF080","-1","-1","1","&#10004","[]","0","0","1","","","","","","","",""
"pit-instructions","19","306742","0.0-2.0-7.0","battery-v0.2","","""event"",""trial"",""time""
""fullscreenenter"",""1"",""6324""
","
","
","""event"",""trial"",""time""
""fullscreenenter"",""1"",""6324""
","
","","[{""page_index"":0,""viewing_time"":5861.399999976158},{""page_index"":1,""viewing_time"":7366.800000011921},{""page_index"":2,""viewing_time"":6232.800000011921},{""page_index"":3,""viewing_time"":6397},{""page_index"":4,""viewing_time"":5661.300000011921},{""page_index"":5,""viewing_time"":5432.599999964237},{""page_index"":6,""viewing_time"":4529.900000035763},{""page_index"":7,""viewing_time"":7646.599999964237},{""page_index"":8,""viewing_time"":6711.800000011921},{""page_index"":9,""viewing_time"":6307.800000011921},{""page_index"":10,""viewing_time"":10115.300000011921},{""page_index"":11,""viewing_time"":6085.699999988079},{""page_index"":12,""viewing_time"":6850.600000023842},{""page_index"":13,""viewing_time"":7381.299999952316},{""page_index"":14,""viewing_time"":7341.700000047684},{""page_index"":15,""viewing_time"":6754.699999988079},{""page_index"":16,""viewing_time"":6008.399999976158},{""page_index"":17,""viewing_time"":8009.400000035763}]","120695.60000002384","","","","","","","","","","","","","","","","","","","","","","","",""
"pit-trial","20","310348","0.0-2.0-8.0-0.0","battery-v0.2","","""event"",""trial"",""time""
""fullscreenenter"",""1"",""6324""
","
","
","""event"",""trial"",""time""
""fullscreenenter"",""1"",""6324""
","
","","","753.3000000119209","","","12","9101","4211","&#9776;","elianto","#3366ff99"," "," ","1","+10","[1603.3999999761581]","1","0","1","","","","","","","",""
"pit-trial","21","313881","0.0-2.0-8.0-1.0","battery-v0.2","","""event"",""trial"",""time""
""fullscreenenter"",""1"",""6324""
","
","
","""event"",""trial"",""time""
""fullscreenenter"",""1"",""6324""
","
","","","672.1000000238419","","","12","9101","4211","&#9776;","elianto","#3366ff99"," "," ","1","+10","[1530.1000000238419]","1","0","1","","","","","","","",""
"pit-trial","22","317207","0.0-2.0-8.0-2.0","battery-v0.2","","""event"",""trial"",""time""
""fullscreenenter"",""1"",""6324""
","
","
","""event"",""trial"",""time""
""fullscreenenter"",""1"",""6324""
","
","","","471","","","12","9101","4211","&#9776;","elianto","#3366ff99"," "," ","1","+10","[1324]","1","0","1","","","","","","","",""
"pit-trial","23","320651","0.0-2.0-8.0-3.0","battery-v0.2","","""event"",""trial"",""time""
""fullscreenenter"",""1"",""6324""
","
","
","""event"",""trial"",""time""
""fullscreenenter"",""1"",""6324""
","
","","","587.5999999642372","","","12","9101","4211","&#9776;","elianto","#3366ff99"," "," ","1","0","[1441.3999999761581]","1","0","1","","","","","","","",""
"pit-trial","24","324076","0.0-2.0-8.0-4.0","battery-v0.2","","""event"",""trial"",""time""
""fullscreenenter"",""1"",""6324""
","
","
","""event"",""trial"",""time""
""fullscreenenter"",""1"",""6324""
","
","","","563.7000000476837","","","12","9101","4211","&#9776;","elianto","#3366ff99"," "," ","1","+10","[1416.3999999761581]","1","0","1","","","","","","","",""
"pit-trial","25","327680","0.0-2.0-8.1-0.1","battery-v0.2","","""event"",""trial"",""time""
""fullscreenenter"",""1"",""6324""
","
","
","""event"",""trial"",""time""
""fullscreenenter"",""1"",""6324""
","
","","","746.6999999880791","","","12","9101","4211","&#9776;","elianto","#3366ff99"," "," ","1","+10","[1599.5]","1","0","1","","","","","","","",""
"pit-trial","26","331103","0.0-2.0-8.1-1.1","battery-v0.2","","""event"",""trial"",""time""
""fullscreenenter"",""1"",""6324""
","
","
","""event"",""trial"",""time""
""fullscreenenter"",""1"",""6324""
","
","","","556.5","","","12","9101","4211","&#9776;","elianto","#3366ff99"," "," ","1","+10","[1408.3999999761581]","1","0","1","","","","","","","",""
"pit-trial","27","334498","0.0-2.0-8.1-2.1","battery-v0.2","","""event"",""trial"",""time""
""fullscreenenter"",""1"",""6324""
","
","
","""event"",""trial"",""time""
""fullscreenenter"",""1"",""6324""
","
","","","539.1000000238419","","","12","9101","4211","&#9776;","elianto","#3366ff99"," "," ","1","+10","[1390.1000000238419]","1","0","1","","","","","","","",""
"pit-trial","28","338024","0.0-2.0-8.1-3.1","battery-v0.2","","""event"",""trial"",""time""
""fullscreenenter"",""1"",""6324""
","
","
","""event"",""trial"",""time""
""fullscreenenter"",""1"",""6324""
","
","","","669.6000000238419","","","12","9101","4211","&#9776;","elianto","#3366ff99"," "," ","1","0","[1523.4000000357628]","1","0","1","","","","","","","",""
"pit-trial","29","341461","0.0-2.0-8.1-4.1","battery-v0.2","","""event"",""trial"",""time""
""fullscreenenter"",""1"",""6324""
","
","
","""event"",""trial"",""time""
""fullscreenenter"",""1"",""6324""
","
","","","584.4000000357628","","","12","9101","4211","&#9776;","elianto","#3366ff99"," "," ","1","+10","[1434.6000000238419]","1","0","1","","","","","","","",""
"pit-trial","30","345267","0.0-2.0-8.2-0.2","battery-v0.2","","""event"",""trial"",""time""
""fullscreenenter"",""1"",""6324""
","
","
","""event"",""trial"",""time""
""fullscreenenter"",""1"",""6324""
","
","","","952.3000000119209","","","12","9101","4211","&#9776;","elianto","#3366ff99"," "," ","1","+10","[1803]","1","0","1","","","","","","","",""
"pit-trial","31","348508","0.0-2.0-8.2-1.2","battery-v0.2","","""event"",""trial"",""time""
""fullscreenenter"",""1"",""6324""
","
","
","""event"",""trial"",""time""
""fullscreenenter"",""1"",""6324""
","
","","","387.89999997615814","","","12","9101","4211","&#9776;","elianto","#3366ff99"," "," ","1","+10","[1238.3999999761581]","1","0","1","","","","","","","",""
"pit-trial","32","351711","0.0-2.0-8.2-2.2","battery-v0.2","","""event"",""trial"",""time""
""fullscreenenter"",""1"",""6324""
","
","
","""event"",""trial"",""time""
""fullscreenenter"",""1"",""6324""
","
","","","348.5999999642372","","","12","9101","4211","&#9776;","elianto","#3366ff99"," "," ","1","+10","[1199]","1","0","1","","","","","","","",""
"pit-trial","33","354980","0.0-2.0-8.2-3.2","battery-v0.2","","""event"",""trial"",""time""
""fullscreenenter"",""1"",""6324""
","
","
","""event"",""trial"",""time""
""fullscreenenter"",""1"",""6324""
","
","","","415.9000000357628","","","12","9101","4211","&#9776;","elianto","#3366ff99"," "," ","1","0","[1266.3999999761581]","1","0","1","","","","","","","",""
"pit-trial","34","358417","0.0-2.0-8.2-4.2","battery-v0.2","","""event"",""trial"",""time""
""fullscreenenter"",""1"",""6324""
","
","
","""event"",""trial"",""time""
""fullscreenenter"",""1"",""6324""
","
","","","584.8000000119209","","","12","9101","4211","&#9776;","elianto","#3366ff99"," "," ","1","+10","[1435.4000000357628]","1","0","1","","","","","","","",""
"call-function","35","358419","0.0-2.0-9.0","battery-v0.2","","""event"",""trial"",""time""
""fullscreenenter"",""1"",""6324""
","
","
","""event"",""trial"",""time""
""fullscreenenter"",""1"",""6324""
","
","","","","","","","","","","","","","","","","","","","","","","","","","","",""
"pit-instructions","36","401618","0.0-2.0-10.0","battery-v0.2","","""event"",""trial"",""time""
""fullscreenenter"",""1"",""6324""
","
","
","""event"",""trial"",""time""
""fullscreenenter"",""1"",""6324""
","
","","[{""page_index"":0,""viewing_time"":6320},{""page_index"":1,""viewing_time"":7126.599999964237},{""page_index"":2,""viewing_time"":13037},{""page_index"":3,""viewing_time"":9018.800000011921},{""page_index"":4,""viewing_time"":7696.199999988079}]","43199","","","","","","","","","","","","","","","","","","","","","","","",""
"pit-trial","37","406473","0.0-2.0-11.0-0.0","battery-v0.2","","""event"",""trial"",""time""
""fullscreenenter"",""1"",""6324""
","
","
","""event"",""trial"",""time""
""fullscreenenter"",""1"",""6324""
","
","","","-1","","","12","9101","4211","&#9761;","elianto","#3366ff99","-1","-1","1","+10","[]","0","0","2","","","","","","","",""
"pit-trial","38","411326","0.0-2.0-11.0-1.0","battery-v0.2","","""event"",""trial"",""time""
""fullscreenenter"",""1"",""6324""
","
","
","""event"",""trial"",""time""
""fullscreenenter"",""1"",""6324""
","
","","","-1","","","12","9101","4211","&#9761;","elianto","#3366ff99","-1","-1","1","+10","[]","0","0","2","","","","","","","",""
"pit-trial","39","416201","0.0-2.0-11.0-2.0","battery-v0.2","","""event"",""trial"",""time""
""fullscreenenter"",""1"",""6324""
","
","
","""event"",""trial"",""time""
""fullscreenenter"",""1"",""6324""
","
","","","-1","","","12","9101","4211","&#9761;","elianto","#3366ff99","-1","-1","1","+10","[]","0","0","2","","","","","","","",""
"pit-trial","40","421068","0.0-2.0-11.0-3.0","battery-v0.2","","""event"",""trial"",""time""
""fullscreenenter"",""1"",""6324""
","
","
","""event"",""trial"",""time""
""fullscreenenter"",""1"",""6324""
","
","","","-1","","","12","9101","4211","&#9761;","elianto","#3366ff99","-1","-1","1","0","[]","0","0","2","","","","","","","",""
"pit-trial","41","425936","0.0-2.0-11.0-4.0","battery-v0.2","","""event"",""trial"",""time""
""fullscreenenter"",""1"",""6324""
","
","
","""event"",""trial"",""time""
""fullscreenenter"",""1"",""6324""
","
","","","-1","","","12","9101","4211","&#9761;","elianto","#3366ff99","-1","-1","1","+10","[]","0","0","2","","","","","","","",""
"pit-trial","42","430806","0.0-2.0-11.1-0.1","battery-v0.2","","""event"",""trial"",""time""
""fullscreenenter"",""1"",""6324""
","
","
","""event"",""trial"",""time""
""fullscreenenter"",""1"",""6324""
","
","","","-1","","","12","9101","4211","&#9761;","elianto","#3366ff99","-1","-1","1","+10","[]","0","0","2","","","","","","","",""
"pit-trial","43","435661","0.0-2.0-11.1-1.1","battery-v0.2","","""event"",""trial"",""time""
""fullscreenenter"",""1"",""6324""
","
","
","""event"",""trial"",""time""
""fullscreenenter"",""1"",""6324""
","
","","","-1","","","12","9101","4211","&#9761;","elianto","#3366ff99","-1","-1","1","+10","[]","0","0","2","","","","","","","",""
"pit-trial","44","440515","0.0-2.0-11.1-2.1","battery-v0.2","","""event"",""trial"",""time""
""fullscreenenter"",""1"",""6324""
","
","
","""event"",""trial"",""time""
""fullscreenenter"",""1"",""6324""
","
","","","-1","","","12","9101","4211","&#9761;","elianto","#3366ff99","-1","-1","1","+10","[]","0","0","2","","","","","","","",""
"pit-trial","45","445368","0.0-2.0-11.1-3.1","battery-v0.2","","""event"",""trial"",""time""
""fullscreenenter"",""1"",""6324""
","
","
","""event"",""trial"",""time""
""fullscreenenter"",""1"",""6324""
","
","","","-1","","","12","9101","4211","&#9761;","elianto","#3366ff99","-1","-1","1","0","[]","0","0","2","","","","","","","",""
"pit-trial","46","450222","0.0-2.0-11.1-4.1","battery-v0.2","","""event"",""trial"",""time""
""fullscreenenter"",""1"",""6324""
","
","
","""event"",""trial"",""time""
""fullscreenenter"",""1"",""6324""
","
","","","-1","","","12","9101","4211","&#9761;","elianto","#3366ff99","-1","-1","1","+10","[]","0","0","2","","","","","","","",""
"pit-trial","47","455089","0.0-2.0-11.2-0.2","battery-v0.2","","""event"",""trial"",""time""
""fullscreenenter"",""1"",""6324""
","
","
","""event"",""trial"",""time""
""fullscreenenter"",""1"",""6324""
","
","","","-1","","","12","9101","4211","&#9761;","elianto","#3366ff99","-1","-1","1","+10","[]","0","0","2","","","","","","","",""
"pit-trial","48","459943","0.0-2.0-11.2-1.2","battery-v0.2","","""event"",""trial"",""time""
""fullscreenenter"",""1"",""6324""
","
","
","""event"",""trial"",""time""
""fullscreenenter"",""1"",""6324""
","
","","","-1","","","12","9101","4211","&#9761;","elianto","#3366ff99","-1","-1","1","+10","[]","0","0","2","","","","","","","",""
"pit-trial","49","464796","0.0-2.0-11.2-2.2","battery-v0.2","","""event"",""trial"",""time""
""fullscreenenter"",""1"",""6324""
","
","
","""event"",""trial"",""time""
""fullscreenenter"",""1"",""6324""
","
","","","-1","","","12","9101","4211","&#9761;","elianto","#3366ff99","-1","-1","1","+10","[]","0","0","2","","","","","","","",""
"pit-trial","50","469650","0.0-2.0-11.2-3.2","battery-v0.2","","""event"",""trial"",""time""
""fullscreenenter"",""1"",""6324""
","
","
","""event"",""trial"",""time""
""fullscreenenter"",""1"",""6324""
","
","","","-1","","","12","9101","4211","&#9761;","elianto","#3366ff99","-1","-1","1","0","[]","0","0","2","","","","","","","",""
"pit-trial","51","474517","0.0-2.0-11.2-4.2","battery-v0.2","","""event"",""trial"",""time""
""fullscreenenter"",""1"",""6324""
","
","
","""event"",""trial"",""time""
""fullscreenenter"",""1"",""6324""
","
","","","-1","","","12","9101","4211","&#9761;","elianto","#3366ff99","-1","-1","1","+10","[]","0","0","2","","","","","","","",""
"pit-trial","52","479373","0.0-2.0-11.3-0.3","battery-v0.2","","""event"",""trial"",""time""
""fullscreenenter"",""1"",""6324""
","
","
","""event"",""trial"",""time""
""fullscreenenter"",""1"",""6324""
","
","","","-1","","","12","9101","4211","&#9761;","elianto","#3366ff99","-1","-1","1","+10","[]","0","0","2","","","","","","","",""
"pit-trial","53","484229","0.0-2.0-11.3-1.3","battery-v0.2","","""event"",""trial"",""time""
""fullscreenenter"",""1"",""6324""
","
","
","""event"",""trial"",""time""
""fullscreenenter"",""1"",""6324""
","
","","","-1","","","12","9101","4211","&#9761;","elianto","#3366ff99","-1","-1","1","+10","[]","0","0","2","","","","","","","",""
"pit-trial","54","489098","0.0-2.0-11.3-2.3","battery-v0.2","","""event"",""trial"",""time""
""fullscreenenter"",""1"",""6324""
","
","
","""event"",""trial"",""time""
""fullscreenenter"",""1"",""6324""
","
","","","-1","","","12","9101","4211","&#9761;","elianto","#3366ff99","-1","-1","1","+10","[]","0","0","2","","","","","","","",""
"pit-trial","55","493953","0.0-2.0-11.3-3.3","battery-v0.2","","""event"",""trial"",""time""
""fullscreenenter"",""1"",""6324""
","
","
","""event"",""trial"",""time""
""fullscreenenter"",""1"",""6324""
","
","","","-1","","","12","9101","4211","&#9761;","elianto","#3366ff99","-1","-1","1","0","[]","0","0","2","","","","","","","",""
"pit-trial","56","498806","0.0-2.0-11.3-4.3","battery-v0.2","","""event"",""trial"",""time""
""fullscreenenter"",""1"",""6324""
","
","
","""event"",""trial"",""time""
""fullscreenenter"",""1"",""6324""
","
","","","-1","","","12","9101","4211","&#9761;","elianto","#3366ff99","-1","-1","1","+10","[]","0","0","2","","","","","","","",""
"call-function","57","498807","0.0-2.0-12.0","battery-v0.2","","""event"",""trial"",""time""
""fullscreenenter"",""1"",""6324""
","
","
","""event"",""trial"",""time""
""fullscreenenter"",""1"",""6324""
","
","","","","","","","","","","","","","","","","","","","","","","","","","","",""
"pit-instructions","58","531513","0.0-2.0-13.0","battery-v0.2","","""event"",""trial"",""time""
""fullscreenenter"",""1"",""6324""
","
","
","""event"",""trial"",""time""
""fullscreenenter"",""1"",""6324""
","
","","[{""page_index"":0,""viewing_time"":6329.400000035763},{""page_index"":1,""viewing_time"":7320.899999976158},{""page_index"":2,""viewing_time"":3403},{""page_index"":3,""viewing_time"":10050.399999976158},{""page_index"":4,""viewing_time"":5601}]","32705.100000023842","","","","","","","","","","","","","","","","","","","","","","","",""
"pit-trial","59","535852","0.0-2.0-14.0-0.0","battery-v0.2","","""event"",""trial"",""time""
""fullscreenenter"",""1"",""6324""
","
","
","""event"",""trial"",""time""
""fullscreenenter"",""1"",""6324""
","
","","","1476.0999999642372","","","12","9101","4211","&#9826;","elianto","#f73b6a7A","-1"," ","0","-10","[2330.300000011921]","1","0","3","","","","","","","",""
"pit-trial","60","540706","0.0-2.0-14.0-1.0","battery-v0.2","","""event"",""trial"",""time""
""fullscreenenter"",""1"",""6324""
","
","
","""event"",""trial"",""time""
""fullscreenenter"",""1"",""6324""
","
","","","-1","","","12","9101","4211","&#9826;","elianto","#f73b6a7A","-1","-1","1","0","[]","0","0","3","","","","","","","",""
"pit-trial","61","545573","0.0-2.0-14.0-2.0","battery-v0.2","","""event"",""trial"",""time""
""fullscreenenter"",""1"",""6324""
","
","
","""event"",""trial"",""time""
""fullscreenenter"",""1"",""6324""
","
","","","-1","","","12","9101","4211","&#9826;","elianto","#f73b6a7A","-1","-1","1","0","[]","0","0","3","","","","","","","",""
"pit-trial","62","550437","0.0-2.0-14.0-3.0","battery-v0.2","","""event"",""trial"",""time""
""fullscreenenter"",""1"",""6324""
","
","
","""event"",""trial"",""time""
""fullscreenenter"",""1"",""6324""
","
","","","-1","","","12","9101","4211","&#9826;","elianto","#f73b6a7A","-1","-1","1","-10","[]","0","0","3","","","","","","","",""
"pit-trial","63","555290","0.0-2.0-14.0-4.0","battery-v0.2","","""event"",""trial"",""time""
""fullscreenenter"",""1"",""6324""
","
","
","""event"",""trial"",""time""
""fullscreenenter"",""1"",""6324""
","
","","","-1","","","12","9101","4211","&#9826;","elianto","#f73b6a7A","-1","-1","1","0","[]","0","0","3","","","","","","","",""
"pit-trial","64","560169","0.0-2.0-14.1-0.1","battery-v0.2","","""event"",""trial"",""time""
""fullscreenenter"",""1"",""6324""
","
","
","""event"",""trial"",""time""
""fullscreenenter"",""1"",""6324""
","
","","","-1","","","12","9101","4211","&#9826;","elianto","#f73b6a7A","-1","-1","1","0","[]","0","0","3","","","","","","","",""
"pit-trial","65","565023","0.0-2.0-14.1-1.1","battery-v0.2","","""event"",""trial"",""time""
""fullscreenenter"",""1"",""6324""
","
","
","""event"",""trial"",""time""
""fullscreenenter"",""1"",""6324""
","
","","","-1","","","12","9101","4211","&#9826;","elianto","#f73b6a7A","-1","-1","1","0","[]","0","0","3","","","","","","","",""
"pit-trial","66","569885","0.0-2.0-14.1-2.1","battery-v0.2","","""event"",""trial"",""time""
""fullscreenenter"",""1"",""6324""
","
","
","""event"",""trial"",""time""
""fullscreenenter"",""1"",""6324""
","
","","","-1","","","12","9101","4211","&#9826;","elianto","#f73b6a7A","-1","-1","1","0","[]","0","0","3","","","","","","","",""
"pit-trial","67","574738","0.0-2.0-14.1-3.1","battery-v0.2","","""event"",""trial"",""time""
""fullscreenenter"",""1"",""6324""
","
","
","""event"",""trial"",""time""
""fullscreenenter"",""1"",""6324""
","
","","","-1","","","12","9101","4211","&#9826;","elianto","#f73b6a7A","-1","-1","1","-10","[]","0","0","3","","","","","","","",""
"pit-trial","68","579591","0.0-2.0-14.1-4.1","battery-v0.2","","""event"",""trial"",""time""
""fullscreenenter"",""1"",""6324""
","
","
","""event"",""trial"",""time""
""fullscreenenter"",""1"",""6324""
","
","","","-1","","","12","9101","4211","&#9826;","elianto","#f73b6a7A","-1","-1","1","0","[]","0","0","3","","","","","","","",""
"pit-trial","69","584447","0.0-2.0-14.2-0.2","battery-v0.2","","""event"",""trial"",""time""
""fullscreenenter"",""1"",""6324""
","
","
","""event"",""trial"",""time""
""fullscreenenter"",""1"",""6324""
","
","","","-1","","","12","9101","4211","&#9826;","elianto","#f73b6a7A","-1","-1","1","0","[]","0","0","3","","","","","","","",""
"pit-trial","70","589299","0.0-2.0-14.2-1.2","battery-v0.2","","""event"",""trial"",""time""
""fullscreenenter"",""1"",""6324""
","
","
","""event"",""trial"",""time""
""fullscreenenter"",""1"",""6324""
","
","","","-1","","","12","9101","4211","&#9826;","elianto","#f73b6a7A","-1","-1","1","0","[]","0","0","3","","","","","","","",""
"pit-trial","71","594152","0.0-2.0-14.2-2.2","battery-v0.2","","""event"",""trial"",""time""
""fullscreenenter"",""1"",""6324""
","
","
","""event"",""trial"",""time""
""fullscreenenter"",""1"",""6324""
","
","","","-1","","","12","9101","4211","&#9826;","elianto","#f73b6a7A","-1","-1","1","0","[]","0","0","3","","","","","","","",""
"pit-trial","72","599005","0.0-2.0-14.2-3.2","battery-v0.2","","""event"",""trial"",""time""
""fullscreenenter"",""1"",""6324""
","
","
","""event"",""trial"",""time""
""fullscreenenter"",""1"",""6324""
","
","","","-1","","","12","9101","4211","&#9826;","elianto","#f73b6a7A","-1","-1","1","-10","[]","0","0","3","","","","","","","",""
"pit-trial","73","603858","0.0-2.0-14.2-4.2","battery-v0.2","","""event"",""trial"",""time""
""fullscreenenter"",""1"",""6324""
","
","
","""event"",""trial"",""time""
""fullscreenenter"",""1"",""6324""
","
","","","-1","","","12","9101","4211","&#9826;","elianto","#f73b6a7A","-1","-1","1","0","[]","0","0","3","","","","","","","",""
"pit-trial","74","608713","0.0-2.0-14.3-0.3","battery-v0.2","","""event"",""trial"",""time""
""fullscreenenter"",""1"",""6324""
","
","
","""event"",""trial"",""time""
""fullscreenenter"",""1"",""6324""
","
","","","-1","","","12","9101","4211","&#9826;","elianto","#f73b6a7A","-1","-1","1","0","[]","0","0","3","","","","","","","",""
"pit-trial","75","613566","0.0-2.0-14.3-1.3","battery-v0.2","","""event"",""trial"",""time""
""fullscreenenter"",""1"",""6324""
","
","
","""event"",""trial"",""time""
""fullscreenenter"",""1"",""6324""
","
","","","-1","","","12","9101","4211","&#9826;","elianto","#f73b6a7A","-1","-1","1","0","[]","0","0","3","","","","","","","",""
"pit-trial","76","618419","0.0-2.0-14.3-2.3","battery-v0.2","","""event"",""trial"",""time""
""fullscreenenter"",""1"",""6324""
","
","
","""event"",""trial"",""time""
""fullscreenenter"",""1"",""6324""
","
","","","-1","","","12","9101","4211","&#9826;","elianto","#f73b6a7A","-1","-1","1","0","[]","0","0","3","","","","","","","",""
"pit-trial","77","623272","0.0-2.0-14.3-3.3","battery-v0.2","","""event"",""trial"",""time""
""fullscreenenter"",""1"",""6324""
","
","
","""event"",""trial"",""time""
""fullscreenenter"",""1"",""6324""
","
","","","-1","","","12","9101","4211","&#9826;","elianto","#f73b6a7A","-1","-1","1","-10","[]","0","0","3","","","","","","","",""
"pit-trial","78","628128","0.0-2.0-14.3-4.3","battery-v0.2","","""event"",""trial"",""time""
""fullscreenenter"",""1"",""6324""
","
","
","""event"",""trial"",""time""
""fullscreenenter"",""1"",""6324""
","
","","","-1","","","12","9101","4211","&#9826;","elianto","#f73b6a7A","-1","-1","1","0","[]","0","0","3","","","","","","","",""
"call-function","79","628130","0.0-2.0-15.0","battery-v0.2","","""event"",""trial"",""time""
""fullscreenenter"",""1"",""6324""
","
","
","""event"",""trial"",""time""
""fullscreenenter"",""1"",""6324""
","
","","","","","","","","","","","","","","","","","","","","","","","","","","",""
"pit-instructions","80","659635","0.0-2.0-16.0","battery-v0.2","","""event"",""trial"",""time""
""fullscreenenter"",""1"",""6324""
","
","
","""event"",""trial"",""time""
""fullscreenenter"",""1"",""6324""
","
","","[{""page_index"":0,""viewing_time"":12076.800000011921},{""page_index"":1,""viewing_time"":9227.299999952316},{""page_index"":2,""viewing_time"":4778},{""page_index"":3,""viewing_time"":5422.600000023842}]","31505","","","","","","","","","","","","","","","","","","","","","","","",""
"pit-trial","81","662991","0.0-2.0-17.0-0.0","battery-v0.2","","""event"",""trial"",""time""
""fullscreenenter"",""1"",""6324""
","
","
","""event"",""trial"",""time""
""fullscreenenter"",""1"",""6324""
","
","","","502.4000000357628","","","12","9101","4211","&#9789;","elianto","#f73b6a7A"," "," ","1","0","[1353.2000000476837]","1","0","4","","","","","","","",""
"pit-trial","82","666266","0.0-2.0-17.0-1.0","battery-v0.2","","""event"",""trial"",""time""
""fullscreenenter"",""1"",""6324""
","
","
","""event"",""trial"",""time""
""fullscreenenter"",""1"",""6324""
","
","","","413.5","","","12","9101","4211","&#9789;","elianto","#f73b6a7A"," "," ","1","0","[1271.5]","1","0","4","","","","","","","",""
"pit-trial","83","669573","0.0-2.0-17.0-2.0","battery-v0.2","","""event"",""trial"",""time""
""fullscreenenter"",""1"",""6324""
","
","
","""event"",""trial"",""time""
""fullscreenenter"",""1"",""6324""
","
","","","455.19999998807907","","","12","9101","4211","&#9789;","elianto","#f73b6a7A"," "," ","1","0","[1305.2999999523163]","1","0","4","","","","","","","",""
"pit-trial","84","672678","0.0-2.0-17.0-3.0","battery-v0.2","","""event"",""trial"",""time""
""fullscreenenter"",""1"",""6324""
","
","
","""event"",""trial"",""time""
""fullscreenenter"",""1"",""6324""
","
","","","233.5","","","12","9101","4211","&#9789;","elianto","#f73b6a7A"," "," ","1","-10","[1093.199999988079]","1","0","4","","","","","","","",""
"pit-trial","85","676376","0.0-2.0-17.0-4.0","battery-v0.2","","""event"",""trial"",""time""
""fullscreenenter"",""1"",""6324""
","
","
","""event"",""trial"",""time""
""fullscreenenter"",""1"",""6324""
","
","","","838.3000000119209","","","12","9101","4211","&#9789;","elianto","#f73b6a7A"," "," ","1","0","[1691.300000011921]","1","0","4","","","","","","","",""
"pit-trial","86","679673","0.0-2.0-17.1-0.1","battery-v0.2","","""event"",""trial"",""time""
""fullscreenenter"",""1"",""6324""
","
","
","""event"",""trial"",""time""
""fullscreenenter"",""1"",""6324""
","
","","","441","","","12","9101","4211","&#9789;","elianto","#f73b6a7A"," "," ","1","0","[1294.5999999642372]","1","0","4","","","","","","","",""
"pit-trial","87","682974","0.0-2.0-17.1-1.1","battery-v0.2","","""event"",""trial"",""time""
""fullscreenenter"",""1"",""6324""
","
","
","""event"",""trial"",""time""
""fullscreenenter"",""1"",""6324""
","
","","","441.7000000476837","","","12","9101","4211","&#9789;","elianto","#f73b6a7A"," "," ","1","0","[1297.800000011921]","1","0","4","","","","","","","",""
"pit-trial","88","686360","0.0-2.0-17.1-2.1","battery-v0.2","","""event"",""trial"",""time""
""fullscreenenter"",""1"",""6324""
","
","
","""event"",""trial"",""time""
""fullscreenenter"",""1"",""6324""
","
","","","525.4000000357628","","","12","9101","4211","&#9789;","elianto","#f73b6a7A"," "," ","1","0","[1383.300000011921]","1","0","4","","","","","","","",""
"pit-trial","89","689948","0.0-2.0-17.1-3.1","battery-v0.2","","""event"",""trial"",""time""
""fullscreenenter"",""1"",""6324""
","
","
","""event"",""trial"",""time""
""fullscreenenter"",""1"",""6324""
","
","","","734.6999999880791","","","12","9101","4211","&#9789;","elianto","#f73b6a7A"," "," ","1","-10","[1585.4000000357628]","1","0","4","","","","","","","",""
"pit-trial","90","693906","0.0-2.0-17.1-4.1","battery-v0.2","","""event"",""trial"",""time""
""fullscreenenter"",""1"",""6324""
","
","
","""event"",""trial"",""time""
""fullscreenenter"",""1"",""6324""
","
","","","1105.3999999761581","","","12","9101","4211","&#9789;","elianto","#f73b6a7A"," "," ","1","0","[1955.800000011921]","1","0","4","","","","","","","",""
"pit-trial","91","697863","0.0-2.0-17.2-0.2","battery-v0.2","","""event"",""trial"",""time""
""fullscreenenter"",""1"",""6324""
","
","
","""event"",""trial"",""time""
""fullscreenenter"",""1"",""6324""
","
","","","1102.699999988079","","","12","9101","4211","&#9789;","elianto","#f73b6a7A"," "," ","1","0","[1953.2999999523163]","1","0","4","","","","","","","",""
"pit-trial","92","701473","0.0-2.0-17.2-1.2","battery-v0.2","","""event"",""trial"",""time""
""fullscreenenter"",""1"",""6324""
","
","
","""event"",""trial"",""time""
""fullscreenenter"",""1"",""6324""
","
","","","756.8999999761581","","","12","9101","4211","&#9789;","elianto","#f73b6a7A"," "," ","1","0","[1607.0999999642372]","1","0","4","","","","","","","",""
"pit-trial","93","704898","0.0-2.0-17.2-2.2","battery-v0.2","","""event"",""trial"",""time""
""fullscreenenter"",""1"",""6324""
","
","
","""event"",""trial"",""time""
""fullscreenenter"",""1"",""6324""
","
","","","572.3999999761581","","","12","9101","4211","&#9789;","elianto","#f73b6a7A"," "," ","1","0","[1422.5]","1","0","4","","","","","","","",""
"pit-trial","94","708148","0.0-2.0-17.2-3.2","battery-v0.2","","""event"",""trial"",""time""
""fullscreenenter"",""1"",""6324""
","
","
","""event"",""trial"",""time""
""fullscreenenter"",""1"",""6324""
","
","","","396.60000002384186","","","12","9101","4211","&#9789;","elianto","#f73b6a7A"," "," ","1","-10","[1247.6000000238419]","1","0","4","","","","","","","",""
"pit-trial","95","711341","0.0-2.0-17.2-4.2","battery-v0.2","","""event"",""trial"",""time""
""fullscreenenter"",""1"",""6324""
","
","
","""event"",""trial"",""time""
""fullscreenenter"",""1"",""6324""
","
","","","340.0999999642372","","","12","9101","4211","&#9789;","elianto","#f73b6a7A"," "," ","1","0","[1190.5]","1","0","4","","","","","","","",""
"pit-trial","96","714414","0.0-2.0-17.3-0.3","battery-v0.2","","""event"",""trial"",""time""
""fullscreenenter"",""1"",""6324""
","
","
","""event"",""trial"",""time""
""fullscreenenter"",""1"",""6324""
","
","","","218.80000001192093","","","12","9101","4211","&#9789;","elianto","#f73b6a7A"," "," ","1","0","[1070]","1","0","4","","","","","","","",""
"pit-trial","97","717341","0.0-2.0-17.3-1.3","battery-v0.2","","""event"",""trial"",""time""
""fullscreenenter"",""1"",""6324""
","
","
","""event"",""trial"",""time""
""fullscreenenter"",""1"",""6324""
","
","","","74.80000001192093","","","12","9101","4211","&#9789;","elianto","#f73b6a7A"," "," ","1","0","[925]","1","0","4","","","","","","","",""
"pit-trial","98","720544","0.0-2.0-17.3-2.3","battery-v0.2","","""event"",""trial"",""time""
""fullscreenenter"",""1"",""6324""
","
","
","""event"",""trial"",""time""
""fullscreenenter"",""1"",""6324""
","
","","","349.2000000476837","","","12","9101","4211","&#9789;","elianto","#f73b6a7A"," "," ","1","0","[1200.6000000238419]","1","0","4","","","","","","","",""
"pit-trial","99","723521","0.0-2.0-17.3-3.3","battery-v0.2","","""event"",""trial"",""time""
""fullscreenenter"",""1"",""6324""
","
","
","""event"",""trial"",""time""
""fullscreenenter"",""1"",""6324""
","
","","","124.30000001192093","","","12","9101","4211","&#9789;","elianto","#f73b6a7A"," "," ","1","-10","[974.6999999880791]","1","0","4","","","","","","","",""
"pit-trial","100","726766","0.0-2.0-17.3-4.3","battery-v0.2","","""event"",""trial"",""time""
""fullscreenenter"",""1"",""6324""
","
","
","""event"",""trial"",""time""
""fullscreenenter"",""1"",""6324""
","
","","","390.5999999642372","","","12","9101","4211","&#9789;","elianto","#f73b6a7A"," "," ","1","0","[1241]","1","0","4","","","","","","","",""
"call-function","101","726767","0.0-2.0-18.0","battery-v0.2","","""event"",""trial"",""time""
""fullscreenenter"",""1"",""6324""
","
","
","""event"",""trial"",""time""
""fullscreenenter"",""1"",""6324""
","
","","","","","","","","","","","","","","","","","","","","","","","","","","",""
"pit-instructions","102","799875","0.0-2.0-19.0","battery-v0.2","","""event"",""trial"",""time""
""fullscreenenter"",""1"",""6324""
","
","
","""event"",""trial"",""time""
""fullscreenenter"",""1"",""6324""
","
","","[{""page_index"":0,""viewing_time"":7126.5},{""page_index"":1,""viewing_time"":6524.300000011921},{""page_index"":2,""viewing_time"":15711.599999964237},{""page_index"":3,""viewing_time"":7728.199999988079},{""page_index"":4,""viewing_time"":8620.900000035763},{""page_index"":5,""viewing_time"":8490.199999988079},{""page_index"":6,""viewing_time"":8332.899999976158},{""page_index"":7,""viewing_time"":6317.300000011921},{""page_index"":8,""viewing_time"":4254.300000011921}]","73106.59999996424","","","","","","","","","","","","","","","","","","","","","","","",""
"pit-comprehension","103","805944","0.0-2.0-20.0-0.0","battery-v0.2","","""event"",""trial"",""time""
""fullscreenenter"",""1"",""6324""
","
","
","""event"",""trial"",""time""
""fullscreenenter"",""1"",""6324""
","
","","","6066.399999976158","[""SPACE""]","0","12","9101","4211","","","","","","","","","","","","","","","","","","",""
"pit-instructions","104","808737","0.0-2.0-20.0-1.0","battery-v0.2","","""event"",""trial"",""time""
""fullscreenenter"",""1"",""6324""
","
","
","""event"",""trial"",""time""
""fullscreenenter"",""1"",""6324""
","
","","[{""page_index"":0,""viewing_time"":2754.5}]","2754.800000011921","","","","","","","","","","","","","","","","","","","","","","","",""
"pit-comprehension","105","814281","0.0-2.0-21.0-0.0","battery-v0.2","","""event"",""trial"",""time""
""fullscreenenter"",""1"",""6324""
","
","
","""event"",""trial"",""time""
""fullscreenenter"",""1"",""6324""
","
","","","5539.5","[""10""]","0","12","9101","4211","","","","","","","","","","","","","","","","","","",""
"pit-instructions","106","819237","0.0-2.0-21.0-1.0","battery-v0.2","","""event"",""trial"",""time""
""fullscreenenter"",""1"",""6324""
","
","
","""event"",""trial"",""time""
""fullscreenenter"",""1"",""6324""
","
","","[{""page_index"":0,""viewing_time"":4925.799999952316}]","4926.099999964237","","","","","","","","","","","","","","","","","","","","","","","",""
"pit-comprehension","107","826289","0.0-2.0-22.0-0.0","battery-v0.2","","""event"",""trial"",""time""
""fullscreenenter"",""1"",""6324""
","
","
","""event"",""trial"",""time""
""fullscreenenter"",""1"",""6324""
","
","","","7050","[""0""]","0","12","9101","4211","","","","","","","","","","","","","","","","","","",""
"pit-instructions","108","828755","0.0-2.0-22.0-1.0","battery-v0.2","","""event"",""trial"",""time""
""fullscreenenter"",""1"",""6324""
","
","
","""event"",""trial"",""time""
""fullscreenenter"",""1"",""6324""
","
","","[{""page_index"":0,""viewing_time"":2431.7000000476837}]","2432","","","","","","","","","","","","","","","","","","","","","","","",""
"pit-comprehension","109","838242","0.0-2.0-23.0-0.0","battery-v0.2","","""event"",""trial"",""time""
""fullscreenenter"",""1"",""6324""
","
","
","""event"",""trial"",""time""
""fullscreenenter"",""1"",""6324""
","
","","","9484.299999952316","[""True""]","0","12","9101","4211","","","","","","","","","","","","","","","","","","",""
"pit-instructions","110","841250","0.0-2.0-23.0-1.0","battery-v0.2","","""event"",""trial"",""time""
""fullscreenenter"",""1"",""6324""
","
","
","""event"",""trial"",""time""
""fullscreenenter"",""1"",""6324""
","
","","[{""page_index"":0,""viewing_time"":2973.400000035763}]","2973.699999988079","","","","","","","","","","","","","","","","","","","","","","","",""
"pit-comprehension","111","848998","0.0-2.0-24.0-0.0","battery-v0.2","","""event"",""trial"",""time""
""fullscreenenter"",""1"",""6324""
","
","
","""event"",""trial"",""time""
""fullscreenenter"",""1"",""6324""
","
","","","7744.699999988079","[""True""]","0","12","9101","4211","","","","","","","","","","","","","","","","","","",""
"pit-instructions","112","851357","0.0-2.0-24.0-1.0","battery-v0.2","","""event"",""trial"",""time""
""fullscreenenter"",""1"",""6324""
","
","
","""event"",""trial"",""time""
""fullscreenenter"",""1"",""6324""
","
","","[{""page_index"":0,""viewing_time"":2326.7000000476837}]","2327.100000023842","","","","","","","","","","","","","","","","","","","","","","","",""
"pit-comprehension","113","858571","0.0-2.0-25.0-0.0","battery-v0.2","","""event"",""trial"",""time""
""fullscreenenter"",""1"",""6324""
","
","
","""event"",""trial"",""time""
""fullscreenenter"",""1"",""6324""
","
","","","7209.900000035763","[""True""]","0","12","9101","4211","","","","","","","","","","","","","","","","","","",""
"pit-instructions","114","860845","0.0-2.0-25.0-1.0","battery-v0.2","","""event"",""trial"",""time""
""fullscreenenter"",""1"",""6324""
","
","
","""event"",""trial"",""time""
""fullscreenenter"",""1"",""6324""
","
","","[{""page_index"":0,""viewing_time"":2240.300000011921}]","2240.699999988079","","","","","","","","","","","","","","","","","","","","","","","",""
"pit-comprehension","115","866175","0.0-2.0-26.0-0.0","battery-v0.2","","""event"",""trial"",""time""
""fullscreenenter"",""1"",""6324""
","
","
","""event"",""trial"",""time""
""fullscreenenter"",""1"",""6324""
","
","","","5326.699999988079","[""False""]","0","12","9101","4211","","","","","","","","","","","","","","","","","","",""
"pit-instructions","116","868573","0.0-2.0-26.0-1.0","battery-v0.2","","""event"",""trial"",""time""
""fullscreenenter"",""1"",""6324""
","
","
","""event"",""trial"",""time""
""fullscreenenter"",""1"",""6324""
","
","","[{""page_index"":0,""viewing_time"":2333.899999976158}]","2334.199999988079","","","","","","","","","","","","","","","","","","","","","","","",""
"pit-instructions","117","886908","0.0-3.0","battery-v0.2","","""event"",""trial"",""time""
""fullscreenenter"",""1"",""6324""
","
","
","""event"",""trial"",""time""
""fullscreenenter"",""1"",""6324""
","
","","[{""page_index"":0,""viewing_time"":4093.599999964237},{""page_index"":1,""viewing_time"":6156},{""page_index"":2,""viewing_time"":8084.200000047684}]","18334.30000001192","","","","","","","","","","","","","","","","","","","","","","","",""
"pit-trial","118","891116","0.0-4.0","battery-v0.2","","""event"",""trial"",""time""
""fullscreenenter"",""1"",""6324""
","
","
","""event"",""trial"",""time""
""fullscreenenter"",""1"",""6324""
","
","","","1338","","","12","9101","4211","&#9728;","elianto","#f73b6a7A","-1"," ","0","-10","[2191.899999976158]","1","1","","","9101","1","0","4","lose","no-go","0"
"pit-trial","119","894702","0.0-5.0","battery-v0.2","","""event"",""trial"",""time""
""fullscreenenter"",""1"",""6324""
","
","
","""event"",""trial"",""time""
""fullscreenenter"",""1"",""6324""
","
","","","730.4000000357628","","","12","9101","4211","&#9730;","elianto","#3366ff99"," "," ","1","+10","[1580.3999999761581]","1","1","","","9101","2","1","1","win","go","0"
"pit-trial","120","898770","0.0-6.0","battery-v0.2","","""event"",""trial"",""time""
""fullscreenenter"",""1"",""6324""
","
","
","""event"",""trial"",""time""
""fullscreenenter"",""1"",""6324""
","
","","","1206.3999999761581","","","12","9101","4211","&#9752;","elianto","#f73b6a7A"," "," ","1","0","[2057.599999964237]","1","1","","","9101","3","3","3","lose","go","0"
"pit-trial","121","902508","0.0-7.0","battery-v0.2","","""event"",""trial"",""time""
""fullscreenenter"",""1"",""6324""
","
","
","""event"",""trial"",""time""
""fullscreenenter"",""1"",""6324""
","
","","","882.3999999761581","","","12","9101","4211","&#9733;","elianto","#3366ff99","-1"," ","0","+10","[1736.4000000357628]","1","1","","","9101","4","2","2","win","no-go","1"
"pit-trial","122","907369","0.0-8.0","battery-v0.2","","""event"",""trial"",""time""
""fullscreenenter"",""1"",""6324""
","
","
","""event"",""trial"",""time""
""fullscreenenter"",""1"",""6324""
","
","","","-1","","","12","9101","4211","&#9728;","elianto","#f73b6a7A","-1","-1","1","0","[]","0","1","","","9101","5","0","4","lose","no-go","0"
"pit-trial","123","910997","0.0-9.0","battery-v0.2","","""event"",""trial"",""time""
""fullscreenenter"",""1"",""6324""
","
","
","""event"",""trial"",""time""
""fullscreenenter"",""1"",""6324""
","
","","","770.6999999880791","","","12","9101","4211","&#9730;","elianto","#3366ff99"," "," ","1","+10","[1625.3999999761581]","1","1","","","9101","6","1","1","win","go","0"
"pit-trial","124","914455","0.0-10.0","battery-v0.2","","""event"",""trial"",""time""
""fullscreenenter"",""1"",""6324""
","
","
","""event"",""trial"",""time""
""fullscreenenter"",""1"",""6324""
","
","","","597","","","12","9101","4211","&#9733;","elianto","#3366ff99","-1"," ","0","0","[1455]","1","1","","","9101","7","2","2","win","no-go","0"
"pit-trial","125","918358","0.0-11.0","battery-v0.2","","""event"",""trial"",""time""
""fullscreenenter"",""1"",""6324""
","
","
","""event"",""trial"",""time""
""fullscreenenter"",""1"",""6324""
","
","","","1048.699999988079","","","12","9101","4211","&#9752;","elianto","#f73b6a7A"," "," ","1","-10","[1900.0999999642372]","1","1","","","9101","8","3","3","lose","go","1"
"pit-trial","126","922070","0.0-12.0","battery-v0.2","","""event"",""trial"",""time""
""fullscreenenter"",""1"",""6324""
","
","
","""event"",""trial"",""time""
""fullscreenenter"",""1"",""6324""
","
","","","857.3000000119209","","","12","9101","4211","&#9752;","elianto","#f73b6a7A"," "," ","1","0","[1708]","1","1","","","9101","9","3","3","lose","go","0"
"pit-trial","127","926923","0.0-13.0","battery-v0.2","","""event"",""trial"",""time""
""fullscreenenter"",""1"",""6324""
","
","
","""event"",""trial"",""time""
""fullscreenenter"",""1"",""6324""
","
","","","-1","","","12","9101","4211","&#9728;","elianto","#f73b6a7A","-1","-1","1","0","[]","0","1","","","9101","10","0","4","lose","no-go","0"
"pit-trial","128","930391","0.0-14.0","battery-v0.2","","""event"",""trial"",""time""
""fullscreenenter"",""1"",""6324""
","
","
","""event"",""trial"",""time""
""fullscreenenter"",""1"",""6324""
","
","","","612.5999999642372","","","12","9101","4211","&#9730;","elianto","#3366ff99"," "," ","1","+10","[1464.199999988079]","1","1","","","9101","11","1","1","win","go","0"
"pit-trial","129","934370","0.0-15.0","battery-v0.2","","""event"",""trial"",""time""
""fullscreenenter"",""1"",""6324""
","
","
","""event"",""trial"",""time""
""fullscreenenter"",""1"",""6324""
","
","","","1126","","","12","9101","4211","&#9733;","elianto","#3366ff99","-1"," ","0","0","[1976.5]","1","1","","","9101","12","2","2","win","no-go","0"
"pit-trial","130","938053","0.0-16.0","battery-v0.2","","""event"",""trial"",""time""
""fullscreenenter"",""1"",""6324""
","
","
","""event"",""trial"",""time""
""fullscreenenter"",""1"",""6324""
","
","","","829.5999999642372","","","12","9101","4211","&#9730;","elianto","#3366ff99"," "," ","1","+10","[1680.2999999523163]","1","1","","","9101","13","1","1","win","go","0"
"pit-trial","131","942907","0.0-17.0","battery-v0.2","","""event"",""trial"",""time""
""fullscreenenter"",""1"",""6324""
","
","
","""event"",""trial"",""time""
""fullscreenenter"",""1"",""6324""
","
","","","-1","","","12","9101","4211","&#9728;","elianto","#f73b6a7A","-1","-1","1","-10","[]","0","1","","","9101","14","0","4","lose","no-go","1"
"pit-trial","132","947759","0.0-18.0","battery-v0.2","","""event"",""trial"",""time""
""fullscreenenter"",""1"",""6324""
","
","
","""event"",""trial"",""time""
""fullscreenenter"",""1"",""6324""
","
","","","-1","","","12","9101","4211","&#9752;","elianto","#f73b6a7A"," ","-1","0","-10","[4814.699999988079]","1","1","","","9101","15","3","3","lose","go","0"
"pit-trial","133","951762","0.0-19.0","battery-v0.2","","""event"",""trial"",""time""
""fullscreenenter"",""1"",""6324""
","
","
","""event"",""trial"",""time""
""fullscreenenter"",""1"",""6324""
","
","","","1148.300000011921","","","12","9101","4211","&#9733;","elianto","#3366ff99","-1"," ","0","0","[1999.7000000476837]","1","1","","","9101","16","2","2","win","no-go","0"
"pit-trial","134","955223","0.0-20.0","battery-v0.2","","""event"",""trial"",""time""
""fullscreenenter"",""1"",""6324""
","
","
","""event"",""trial"",""time""
""fullscreenenter"",""1"",""6324""
","
","","","608.3000000119209","","","12","9101","4211","&#9730;","elianto","#3366ff99"," "," ","1","+10","[1458.5]","1","1","","","9101","17","1","1","win","go","0"
"pit-trial","135","960077","0.0-21.0","battery-v0.2","","""event"",""trial"",""time""
""fullscreenenter"",""1"",""6324""
","
","
","""event"",""trial"",""time""
""fullscreenenter"",""1"",""6324""
","
","","","-1","","","12","9101","4211","&#9733;","elianto","#3366ff99","-1","-1","1","+10","[]","0","1","","","9101","18","2","2","win","no-go","0"
"pit-trial","136","963915","0.0-22.0","battery-v0.2","","""event"",""trial"",""time""
""fullscreenenter"",""1"",""6324""
","
","
","""event"",""trial"",""time""
""fullscreenenter"",""1"",""6324""
","
","","","984.1000000238419","","","12","9101","4211","&#9752;","elianto","#f73b6a7A"," "," ","1","0","[1835.300000011921]","1","1","","","9101","19","3","3","lose","go","0"
"pit-trial","137","968769","0.0-23.0","battery-v0.2","","""event"",""trial"",""time""
""fullscreenenter"",""1"",""6324""
","
","
","""event"",""trial"",""time""
""fullscreenenter"",""1"",""6324""
","
","","","-1","","","12","9101","4211","&#9728;","elianto","#f73b6a7A","-1","-1","1","0","[]","0","1","","","9101","20","0","4","lose","no-go","0"
"pit-instructions","138","980321","0.0-24.0","battery-v0.2","","""event"",""trial"",""time""
""fullscreenenter"",""1"",""6324""
","
","
","""event"",""trial"",""time""
""fullscreenenter"",""1"",""6324""
","
","","[{""page_index"":0,""viewing_time"":5406},{""page_index"":1,""viewing_time"":6144.399999976158}]","11550.800000011921","","","","","","","","","","","","","","","","","","","","","","","",""
"pit-trial","139","985197","0.0-25.0","battery-v0.2","","""event"",""trial"",""time""
""fullscreenenter"",""1"",""6324""
","
","
","""event"",""trial"",""time""
""fullscreenenter"",""1"",""6324""
","
","","","-1","","","12","9101","4211","j","elianto","#f73b6a7A","-1","-1","1","0","[]","0","2","","","9101","21","0","4","lose","no-go","0"
"pit-trial","140","989300","0.0-26.0","battery-v0.2","","""event"",""trial"",""time""
""fullscreenenter"",""1"",""6324""
","
","
","""event"",""trial"",""time""
""fullscreenenter"",""1"",""6324""
","
","","","1236.9000000357628","","","12","9101","4211","e","elianto","#f73b6a7A","-1"," ","0","0","[2087.899999976158]","1","2","","","9101","22","2","4","lose","no-go","1"
"pit-trial","141","994167","0.0-27.0","battery-v0.2","","""event"",""trial"",""time""
""fullscreenenter"",""1"",""6324""
","
","
","""event"",""trial"",""time""
""fullscreenenter"",""1"",""6324""
","
","","","-1","","","12","9101","4211","w","elianto","#f73b6a7A"," ","-1","0","-10","[]","0","2","","","9101","23","3","3","lose","go","0"
"pit-trial","142","997883","0.0-28.0","battery-v0.2","","""event"",""trial"",""time""
""fullscreenenter"",""1"",""6324""
","
","
","""event"",""trial"",""time""
""fullscreenenter"",""1"",""6324""
","
","","","848.2999999523163","","","12","9101","4211","d","elianto","#3366ff99"," "," ","1","+10","[1704]","1","2","","","9101","24","1","1","win","go","0"
"pit-trial","143","1002737","0.0-29.0","battery-v0.2","","""event"",""trial"",""time""
""fullscreenenter"",""1"",""6324""
","
","
","""event"",""trial"",""time""
""fullscreenenter"",""1"",""6324""
","
","","","-1","","","12","9101","4211","j","elianto","#f73b6a7A","-1","-1","1","0","[]","0","2","","","9101","25","0","4","lose","no-go","0"
"pit-trial","144","1007386","0.0-30.0","battery-v0.2","","""event"",""trial"",""time""
""fullscreenenter"",""1"",""6324""
","
","
","""event"",""trial"",""time""
""fullscreenenter"",""1"",""6324""
","
","","","1786.7000000476837","","","12","9101","4211","w","elianto","#f73b6a7A"," "," ","1","0","[2640.900000035763]","1","2","","","9101","26","3","3","lose","go","0"
"pit-trial","145","1011792","0.0-31.0","battery-v0.2","","""event"",""trial"",""time""
""fullscreenenter"",""1"",""6324""
","
","
","""event"",""trial"",""time""
""fullscreenenter"",""1"",""6324""
","
","","","1551.1000000238419","","","12","9101","4211","d","elianto","#3366ff99"," "," ","1","+10","[2403]","1","2","","","9101","27","1","1","win","go","0"
"pit-trial","146","1016647","0.0-32.0","battery-v0.2","","""event"",""trial"",""time""
""fullscreenenter"",""1"",""6324""
","
","
","""event"",""trial"",""time""
""fullscreenenter"",""1"",""6324""
","
","","","-1","","","12","9101","4211","e","elianto","#f73b6a7A","-1","-1","1","0","[]","0","2","","","9101","28","2","4","lose","no-go","0"
"pit-trial","147","1020914","0.0-33.0","battery-v0.2","","""event"",""trial"",""time""
""fullscreenenter"",""1"",""6324""
","
","
","""event"",""trial"",""time""
""fullscreenenter"",""1"",""6324""
","
","","","1414.800000011921","","","12","9101","4211","j","elianto","#f73b6a7A","-1"," ","0","-10","[2264.900000035763]","1","2","","","9101","29","0","4","lose","no-go","0"
"pit-trial","148","1024806","0.0-34.0","battery-v0.2","","""event"",""trial"",""time""
""fullscreenenter"",""1"",""6324""
","
","
","""event"",""trial"",""time""
""fullscreenenter"",""1"",""6324""
","
","","","1038.9000000357628","","","12","9101","4211","d","elianto","#3366ff99"," "," ","1","+10","[1889.6000000238419]","1","2","","","9101","30","1","1","win","go","0"
"pit-trial","149","1029661","0.0-35.0","battery-v0.2","","""event"",""trial"",""time""
""fullscreenenter"",""1"",""6324""
","
","
","""event"",""trial"",""time""
""fullscreenenter"",""1"",""6324""
","
","","","-1","","","12","9101","4211","w","elianto","#f73b6a7A"," ","-1","0","-10","[]","0","2","","","9101","31","3","3","lose","go","0"
"pit-trial","150","1033773","0.0-36.0","battery-v0.2","","""event"",""trial"",""time""
""fullscreenenter"",""1"",""6324""
","
","
","""event"",""trial"",""time""
""fullscreenenter"",""1"",""6324""
","
","","","1258.199999988079","","","12","9101","4211","e","elianto","#f73b6a7A","-1"," ","0","-10","[2108.199999988079]","1","2","","","9101","32","2","4","lose","no-go","0"
"pit-trial","151","1038328","0.0-37.0","battery-v0.2","","""event"",""trial"",""time""
""fullscreenenter"",""1"",""6324""
","
","
","""event"",""trial"",""time""
""fullscreenenter"",""1"",""6324""
","
","","","1700.5999999642372","","","12","9101","4211","w","elianto","#f73b6a7A"," "," ","1","0","[2551.300000011921]","1","2","","","9101","33","3","3","lose","go","0"
"pit-trial","152","1043181","0.0-38.0","battery-v0.2","","""event"",""trial"",""time""
""fullscreenenter"",""1"",""6324""
","
","
","""event"",""trial"",""time""
""fullscreenenter"",""1"",""6324""
","
","","","-1","","","12","9101","4211","e","elianto","#f73b6a7A","-1","-1","1","0","[]","0","2","","","9101","34","2","4","lose","no-go","0"
"pit-trial","153","1047357","0.0-39.0","battery-v0.2","","""event"",""trial"",""time""
""fullscreenenter"",""1"",""6324""
","
","
","""event"",""trial"",""time""
""fullscreenenter"",""1"",""6324""
","
","","","1321.199999988079","","","12","9101","4211","j","elianto","#f73b6a7A","-1"," ","0","0","[2171.599999964237]","1","2","","","9101","35","0","4","lose","no-go","1"
"pit-trial","154","1051991","0.0-40.0","battery-v0.2","","""event"",""trial"",""time""
""fullscreenenter"",""1"",""6324""
","
","
","""event"",""trial"",""time""
""fullscreenenter"",""1"",""6324""
","
","","","1780.699999988079","","","12","9101","4211","d","elianto","#3366ff99"," "," ","1","+10","[2630.699999988079]","1","2","","","9101","36","1","1","win","go","0"
"pit-trial","155","1056844","0.0-41.0","battery-v0.2","","""event"",""trial"",""time""
""fullscreenenter"",""1"",""6324""
","
","
","""event"",""trial"",""time""
""fullscreenenter"",""1"",""6324""
","
","","","-1","","","12","9101","4211","e","elianto","#f73b6a7A","-1","-1","1","-10","[]","0","2","","","9101","37","2","4","lose","no-go","1"
"pit-trial","156","1060547","0.0-42.0","battery-v0.2","","""event"",""trial"",""time""
""fullscreenenter"",""1"",""6324""
","
","
","""event"",""trial"",""time""
""fullscreenenter"",""1"",""6324""
","
","","","849.1000000238419","","","12","9101","4211","d","elianto","#3366ff99"," "," ","1","+10","[1700.300000011921]","1","2","","","9101","38","1","1","win","go","0"
"pit-trial","157","1064444","0.0-43.0","battery-v0.2","","""event"",""trial"",""time""
""fullscreenenter"",""1"",""6324""
","
","
","""event"",""trial"",""time""
""fullscreenenter"",""1"",""6324""
","
","","","1043.5","","","12","9101","4211","w","elianto","#f73b6a7A"," "," ","1","0","[1894.300000011921]","1","2","","","9101","39","3","3","lose","go","0"
"pit-trial","158","1068430","0.0-44.0","battery-v0.2","","""event"",""trial"",""time""
""fullscreenenter"",""1"",""6324""
","
","
","""event"",""trial"",""time""
""fullscreenenter"",""1"",""6324""
","
","","","1132.9000000357628","","","12","9101","4211","j","elianto","#f73b6a7A","-1"," ","0","-10","[1983.1000000238419]","1","2","","","9101","40","0","4","lose","no-go","0"
"pit-trial","159","1072476","0.0-45.0","battery-v0.2","","""event"",""trial"",""time""
""fullscreenenter"",""1"",""6324""
","
","
","""event"",""trial"",""time""
""fullscreenenter"",""1"",""6324""
","
","","","1192.3999999761581","","","12","9101","4211","w","elianto","#f73b6a7A"," "," ","1","0","[2042.699999988079]","1","2","","","9101","41","3","3","lose","go","0"
"pit-trial","160","1076290","0.0-46.0","battery-v0.2","","""event"",""trial"",""time""
""fullscreenenter"",""1"",""6324""
","
","
","""event"",""trial"",""time""
""fullscreenenter"",""1"",""6324""
","
","","","952.0999999642372","","","12","9101","4211","d","elianto","#3366ff99"," "," ","1","+10","[1809.3999999761581]","1","2","","","9101","42","1","1","win","go","0"
"pit-trial","161","1081143","0.0-47.0","battery-v0.2","","""event"",""trial"",""time""
""fullscreenenter"",""1"",""6324""
","
","
","""event"",""trial"",""time""
""fullscreenenter"",""1"",""6324""
","
","","","-1","","","12","9101","4211","e","elianto","#f73b6a7A","-1","-1","1","-10","[]","0","2","","","9101","43","2","4","lose","no-go","1"
"pit-trial","162","1085144","0.0-48.0","battery-v0.2","","""event"",""trial"",""time""
""fullscreenenter"",""1"",""6324""
","
","
","""event"",""trial"",""time""
""fullscreenenter"",""1"",""6324""
","
","","","1147.3999999761581","","","12","9101","4211","j","elianto","#f73b6a7A","-1"," ","0","-10","[1998.5]","1","2","","","9101","44","0","4","lose","no-go","0"
"pit-trial","163","1089998","0.0-49.0","battery-v0.2","","""event"",""trial"",""time""
""fullscreenenter"",""1"",""6324""
","
","
","""event"",""trial"",""time""
""fullscreenenter"",""1"",""6324""
","
","","","-1","","","12","9101","4211","e","elianto","#f73b6a7A","-1","-1","1","-10","[]","0","2","","","9101","45","2","4","lose","no-go","1"
"pit-trial","164","1093977","0.0-50.0","battery-v0.2","","""event"",""trial"",""time""
""fullscreenenter"",""1"",""6324""
","
","
","""event"",""trial"",""time""
""fullscreenenter"",""1"",""6324""
","
","","","1125.199999988079","","","12","9101","4211","j","elianto","#f73b6a7A","-1"," ","0","-10","[1976.300000011921]","1","2","","","9101","46","0","4","lose","no-go","0"
"pit-trial","165","1097771","0.0-51.0","battery-v0.2","","""event"",""trial"",""time""
""fullscreenenter"",""1"",""6324""
","
","
","""event"",""trial"",""time""
""fullscreenenter"",""1"",""6324""
","
","","","940","","","12","9101","4211","w","elianto","#f73b6a7A"," "," ","1","0","[1790.5]","1","2","","","9101","47","3","3","lose","go","0"
"pit-trial","166","1102624","0.0-52.0","battery-v0.2","","""event"",""trial"",""time""
""fullscreenenter"",""1"",""6324""
","
","
","""event"",""trial"",""time""
""fullscreenenter"",""1"",""6324""
","
","","","-1","","","12","9101","4211","s","elianto","#3366ff99","-1","-1","1","+10","[]","0","2","","","9101","48","4","2","win","no-go","0"
"pit-trial","167","1106762","0.0-53.0","battery-v0.2","","""event"",""trial"",""time""
""fullscreenenter"",""1"",""6324""
","
","
","""event"",""trial"",""time""
""fullscreenenter"",""1"",""6324""
","
","","","1285","","","12","9101","4211","d","elianto","#3366ff99"," "," ","1","+10","[2134.899999976158]","1","2","","","9101","49","1","1","win","go","0"
"pit-trial","168","1111616","0.0-54.0","battery-v0.2","","""event"",""trial"",""time""
""fullscreenenter"",""1"",""6324""
","
","
","""event"",""trial"",""time""
""fullscreenenter"",""1"",""6324""
","
","","","-1","","","12","9101","4211","j","elianto","#f73b6a7A","-1","-1","1","0","[]","0","2","","","9101","50","0","4","lose","no-go","0"
"pit-trial","169","1116470","0.0-55.0","battery-v0.2","","""event"",""trial"",""time""
""fullscreenenter"",""1"",""6324""
","
","
","""event"",""trial"",""time""
""fullscreenenter"",""1"",""6324""
","
","","","-1","","","12","9101","4211","s","elianto","#3366ff99","-1","-1","1","+10","[]","0","2","","","9101","51","4","2","win","no-go","0"
"pit-trial","170","1120533","0.0-56.0","battery-v0.2","","""event"",""trial"",""time""
""fullscreenenter"",""1"",""6324""
","
","
","""event"",""trial"",""time""
""fullscreenenter"",""1"",""6324""
","
","","","1210.699999988079","","","12","9101","4211","w","elianto","#f73b6a7A"," "," ","1","0","[2060.699999988079]","1","2","","","9101","52","3","3","lose","go","0"
"pit-trial","171","1125386","0.0-57.0","battery-v0.2","","""event"",""trial"",""time""
""fullscreenenter"",""1"",""6324""
","
","
","""event"",""trial"",""time""
""fullscreenenter"",""1"",""6324""
","
","","","-1","","","12","9101","4211","j","elianto","#f73b6a7A","-1","-1","1","0","[]","0","2","","","9101","53","0","4","lose","no-go","0"
"pit-trial","172","1129471","0.0-58.0","battery-v0.2","","""event"",""trial"",""time""
""fullscreenenter"",""1"",""6324""
","
","
","""event"",""trial"",""time""
""fullscreenenter"",""1"",""6324""
","
","","","1231.1000000238419","","","12","9101","4211","e","elianto","#f73b6a7A","-1"," ","0","-10","[2081.800000011921]","1","2","","","9101","54","2","4","lose","no-go","0"
"pit-trial","173","1133244","0.0-59.0","battery-v0.2","","""event"",""trial"",""time""
""fullscreenenter"",""1"",""6324""
","
","
","""event"",""trial"",""time""
""fullscreenenter"",""1"",""6324""
","
","","","918.1999999880791","","","12","9101","4211","d","elianto","#3366ff99"," "," ","1","+10","[1768.9000000357628]","1","2","","","9101","55","1","1","win","go","0"
"pit-trial","174","1138097","0.0-60.0","battery-v0.2","","""event"",""trial"",""time""
""fullscreenenter"",""1"",""6324""
","
","
","""event"",""trial"",""time""
""fullscreenenter"",""1"",""6324""
","
","","","-1","","","12","9101","4211","s","elianto","#3366ff99","-1","-1","1","0","[]","0","2","","","9101","56","4","2","win","no-go","1"
"pit-trial","175","1142950","0.0-61.0","battery-v0.2","","""event"",""trial"",""time""
""fullscreenenter"",""1"",""6324""
","
","
","""event"",""trial"",""time""
""fullscreenenter"",""1"",""6324""
","
","","","-1","","","12","9101","4211","s","elianto","#3366ff99","-1","-1","1","+10","[]","0","2","","","9101","57","4","2","win","no-go","0"
"pit-trial","176","1147803","0.0-62.0","battery-v0.2","","""event"",""trial"",""time""
""fullscreenenter"",""1"",""6324""
","
","
","""event"",""trial"",""time""
""fullscreenenter"",""1"",""6324""
","
","","","-1","","","12","9101","4211","j","elianto","#f73b6a7A","-1","-1","1","0","[]","0","2","","","9101","58","0","4","lose","no-go","0"
"pit-trial","177","1151808","0.0-63.0","battery-v0.2","","""event"",""trial"",""time""
""fullscreenenter"",""1"",""6324""
","
","
","""event"",""trial"",""time""
""fullscreenenter"",""1"",""6324""
","
","","","1150.7999999523163","","","12","9101","4211","d","elianto","#3366ff99"," "," ","1","+10","[2001.300000011921]","1","2","","","9101","59","1","1","win","go","0"
"pit-trial","178","1156515","0.0-64.0","battery-v0.2","","""event"",""trial"",""time""
""fullscreenenter"",""1"",""6324""
","
","
","""event"",""trial"",""time""
""fullscreenenter"",""1"",""6324""
","
","","","1852","","","12","9101","4211","w","elianto","#f73b6a7A"," "," ","1","0","[2703.300000011921]","1","2","","","9101","60","3","3","lose","go","0"
"pit-trial","179","1160983","0.0-65.0","battery-v0.2","","""event"",""trial"",""time""
""fullscreenenter"",""1"",""6324""
","
","
","""event"",""trial"",""time""
""fullscreenenter"",""1"",""6324""
","
","","","1613.4000000357628","","","12","9101","4211","d","elianto","#3366ff99"," "," ","1","+10","[2464.900000035763]","1","2","","","9101","61","1","1","win","go","0"
"pit-trial","180","1165835","0.0-66.0","battery-v0.2","","""event"",""trial"",""time""
""fullscreenenter"",""1"",""6324""
","
","
","""event"",""trial"",""time""
""fullscreenenter"",""1"",""6324""
","
","","","-1","","","12","9101","4211","s","elianto","#3366ff99","-1","-1","1","+10","[]","0","2","","","9101","62","4","2","win","no-go","0"
"pit-trial","181","1170688","0.0-67.0","battery-v0.2","","""event"",""trial"",""time""
""fullscreenenter"",""1"",""6324""
","
","
","""event"",""trial"",""time""
""fullscreenenter"",""1"",""6324""
","
","","","-1","","","12","9101","4211","e","elianto","#f73b6a7A","-1","-1","1","0","[]","0","2","","","9101","63","2","4","lose","no-go","0"
"pit-trial","182","1174424","0.0-68.0","battery-v0.2","","""event"",""trial"",""time""
""fullscreenenter"",""1"",""6324""
","
","
","""event"",""trial"",""time""
""fullscreenenter"",""1"",""6324""
","
","","","881.3999999761581","","","12","9101","4211","w","elianto","#f73b6a7A"," "," ","1","0","[1732.4000000357628]","1","2","","","9101","64","3","3","lose","go","0"
"pit-trial","183","1178283","0.0-69.0","battery-v0.2","","""event"",""trial"",""time""
""fullscreenenter"",""1"",""6324""
","
","
","""event"",""trial"",""time""
""fullscreenenter"",""1"",""6324""
","
","","","1004.9000000357628","","","12","9101","4211","d","elianto","#3366ff99"," "," ","1","+10","[1855.300000011921]","1","2","","","9101","65","1","1","win","go","0"
"pit-trial","184","1183136","0.0-70.0","battery-v0.2","","""event"",""trial"",""time""
""fullscreenenter"",""1"",""6324""
","
","
","""event"",""trial"",""time""
""fullscreenenter"",""1"",""6324""
","
","","","-1","","","12","9101","4211","s","elianto","#3366ff99","-1","-1","1","+10","[]","0","2","","","9101","66","4","2","win","no-go","0"
"pit-trial","185","1187990","0.0-71.0","battery-v0.2","","""event"",""trial"",""time""
""fullscreenenter"",""1"",""6324""
","
","
","""event"",""trial"",""time""
""fullscreenenter"",""1"",""6324""
","
","","","-1","","","12","9101","4211","e","elianto","#f73b6a7A","-1","-1","1","0","[]","0","2","","","9101","67","2","4","lose","no-go","0"
"pit-trial","186","1191819","0.0-72.0","battery-v0.2","","""event"",""trial"",""time""
""fullscreenenter"",""1"",""6324""
","
","
","""event"",""trial"",""time""
""fullscreenenter"",""1"",""6324""
","
","","","975.8999999761581","","","12","9101","4211","w","elianto","#f73b6a7A"," "," ","1","-10","[1826.699999988079]","1","2","","","9101","68","3","3","lose","go","1"
"pit-trial","187","1196672","0.0-73.0","battery-v0.2","","""event"",""trial"",""time""
""fullscreenenter"",""1"",""6324""
","
","
","""event"",""trial"",""time""
""fullscreenenter"",""1"",""6324""
","
","","","-1","","","12","9101","4211","p","elianto","#3366ff99"," ","-1","0","0","[]","0","2","","","9101","69","5","1","win","go","0"
"pit-trial","188","1200968","0.0-74.0","battery-v0.2","","""event"",""trial"",""time""
""fullscreenenter"",""1"",""6324""
","
","
","""event"",""trial"",""time""
""fullscreenenter"",""1"",""6324""
","
","","","1441.199999988079","","","12","9101","4211","w","elianto","#f73b6a7A"," "," ","1","0","[2292]","1","2","","","9101","70","3","3","lose","go","0"
"pit-trial","189","1205331","0.0-75.0","battery-v0.2","","""event"",""trial"",""time""
""fullscreenenter"",""1"",""6324""
","
","
","""event"",""trial"",""time""
""fullscreenenter"",""1"",""6324""
","
","","","1508.8999999761581","","","12","9101","4211","d","elianto","#3366ff99"," "," ","1","+10","[2358.900000035763]","1","2","","","9101","71","1","1","win","go","0"
"pit-trial","190","1210185","0.0-76.0","battery-v0.2","","""event"",""trial"",""time""
""fullscreenenter"",""1"",""6324""
","
","
","""event"",""trial"",""time""
""fullscreenenter"",""1"",""6324""
","
","","","-1","","","12","9101","4211","s","elianto","#3366ff99","-1","-1","1","+10","[]","0","2","","","9101","72","4","2","win","no-go","0"
"pit-trial","191","1215039","0.0-77.0","battery-v0.2","","""event"",""trial"",""time""
""fullscreenenter"",""1"",""6324""
","
","
","""event"",""trial"",""time""
""fullscreenenter"",""1"",""6324""
","
","","","-1","","","12","9101","4211","s","elianto","#3366ff99","-1","-1","1","+10","[]","0","2","","","9101","73","4","2","win","no-go","0"
"pit-trial","192","1219171","0.0-78.0","battery-v0.2","","""event"",""trial"",""time""
""fullscreenenter"",""1"",""6324""
","
","
","""event"",""trial"",""time""
""fullscreenenter"",""1"",""6324""
","
","","","1278.4000000357628","","","12","9101","4211","d","elianto","#3366ff99"," "," ","1","+10","[2129.099999964237]","1","2","","","9101","74","1","1","win","go","0"
"pit-trial","193","1223172","0.0-79.0","battery-v0.2","","""event"",""trial"",""time""
""fullscreenenter"",""1"",""6324""
","
","
","""event"",""trial"",""time""
""fullscreenenter"",""1"",""6324""
","
","","","1148.800000011921","","","12","9101","4211","w","elianto","#f73b6a7A"," "," ","1","0","[1999.300000011921]","1","2","","","9101","75","3","3","lose","go","0"
"pit-trial","194","1227794","0.0-80.0","battery-v0.2","","""event"",""trial"",""time""
""fullscreenenter"",""1"",""6324""
","
","
","""event"",""trial"",""time""
""fullscreenenter"",""1"",""6324""
","
","","","1768.7999999523163","","","12","9101","4211","p","elianto","#3366ff99"," "," ","1","+10","[2619.099999964237]","1","2","","","9101","76","5","1","win","go","0"
"pit-trial","195","1231920","0.0-81.0","battery-v0.2","","""event"",""trial"",""time""
""fullscreenenter"",""1"",""6324""
","
","
","""event"",""trial"",""time""
""fullscreenenter"",""1"",""6324""
","
","","","1273","","","12","9101","4211","w","elianto","#f73b6a7A"," "," ","1","-10","[2123.400000035763]","1","2","","","9101","77","3","3","lose","go","1"
"pit-trial","196","1236773","0.0-82.0","battery-v0.2","","""event"",""trial"",""time""
""fullscreenenter"",""1"",""6324""
","
","
","""event"",""trial"",""time""
""fullscreenenter"",""1"",""6324""
","
","","","-1","","","12","9101","4211","g","elianto","#f73b6a7A","-1","-1","1","-10","[]","0","2","","","9101","78","6","4","lose","no-go","1"
"pit-trial","197","1241626","0.0-83.0","battery-v0.2","","""event"",""trial"",""time""
""fullscreenenter"",""1"",""6324""
","
","
","""event"",""trial"",""time""
""fullscreenenter"",""1"",""6324""
","
","","","-1","","","12","9101","4211","s","elianto","#3366ff99","-1","-1","1","+10","[]","0","2","","","9101","79","4","2","win","no-go","0"
"pit-trial","198","1245843","0.0-84.0","battery-v0.2","","""event"",""trial"",""time""
""fullscreenenter"",""1"",""6324""
","
","
","""event"",""trial"",""time""
""fullscreenenter"",""1"",""6324""
","
","","","1363.7999999523163","","","12","9101","4211","p","elianto","#3366ff99"," "," ","1","+10","[2214]","1","2","","","9101","80","5","1","win","go","0"
"pit-trial","199","1250453","0.0-85.0","battery-v0.2","","""event"",""trial"",""time""
""fullscreenenter"",""1"",""6324""
","
","
","""event"",""trial"",""time""
""fullscreenenter"",""1"",""6324""
","
","","","1757.1000000238419","","","12","9101","4211","a","elianto","#f73b6a7A"," "," ","1","0","[2607.399999976158]","1","2","","","9101","81","7","3","lose","go","0"
"pit-trial","200","1254581","0.0-86.0","battery-v0.2","","""event"",""trial"",""time""
""fullscreenenter"",""1"",""6324""
","
","
","""event"",""trial"",""time""
""fullscreenenter"",""1"",""6324""
","
","","","1273.699999988079","","","12","9101","4211","g","elianto","#f73b6a7A","-1"," ","0","-10","[2124.400000035763]","1","2","","","9101","82","6","4","lose","no-go","0"
"pit-trial","201","1258453","0.0-87.0","battery-v0.2","","""event"",""trial"",""time""
""fullscreenenter"",""1"",""6324""
","
","
","""event"",""trial"",""time""
""fullscreenenter"",""1"",""6324""
","
","","","1018.3999999761581","","","12","9101","4211","p","elianto","#3366ff99"," "," ","1","+10","[1868.7999999523163]","1","2","","","9101","83","5","1","win","go","0"
"pit-trial","202","1263309","0.0-88.0","battery-v0.2","","""event"",""trial"",""time""
""fullscreenenter"",""1"",""6324""
","
","
","""event"",""trial"",""time""
""fullscreenenter"",""1"",""6324""
","
","","","-1","","","12","9101","4211","s","elianto","#3366ff99","-1","-1","1","+10","[]","0","2","","","9101","84","4","2","win","no-go","0"
"pit-trial","203","1267767","0.0-89.0","battery-v0.2","","""event"",""trial"",""time""
""fullscreenenter"",""1"",""6324""
","
","
","""event"",""trial"",""time""
""fullscreenenter"",""1"",""6324""
","
","","","1605.7999999523163","","","12","9101","4211","a","elianto","#f73b6a7A"," "," ","1","0","[2456.400000035763]","1","2","","","9101","85","7","3","lose","go","0"
"pit-trial","204","1272161","0.0-90.0","battery-v0.2","","""event"",""trial"",""time""
""fullscreenenter"",""1"",""6324""
","
","
","""event"",""trial"",""time""
""fullscreenenter"",""1"",""6324""
","
","","","1540.699999988079","","","12","9101","4211","g","elianto","#f73b6a7A","-1"," ","0","-10","[2391.100000023842]","1","2","","","9101","86","6","4","lose","no-go","0"
"pit-trial","205","1277014","0.0-91.0","battery-v0.2","","""event"",""trial"",""time""
""fullscreenenter"",""1"",""6324""
","
","
","""event"",""trial"",""time""
""fullscreenenter"",""1"",""6324""
","
","","","-1","","","12","9101","4211","s","elianto","#3366ff99","-1","-1","1","+10","[]","0","2","","","9101","87","4","2","win","no-go","0"
"pit-trial","206","1281089","0.0-92.0","battery-v0.2","","""event"",""trial"",""time""
""fullscreenenter"",""1"",""6324""
","
","
","""event"",""trial"",""time""
""fullscreenenter"",""1"",""6324""
","
","","","1221.800000011921","","","12","9101","4211","p","elianto","#3366ff99"," "," ","1","0","[2072.600000023842]","1","2","","","9101","88","5","1","win","go","1"
"pit-trial","207","1285202","0.0-93.0","battery-v0.2","","""event"",""trial"",""time""
""fullscreenenter"",""1"",""6324""
","
","
","""event"",""trial"",""time""
""fullscreenenter"",""1"",""6324""
","
","","","1260.5","","","12","9101","4211","p","elianto","#3366ff99"," "," ","1","0","[2111]","1","2","","","9101","89","5","1","win","go","1"
"pit-trial","208","1290055","0.0-94.0","battery-v0.2","","""event"",""trial"",""time""
""fullscreenenter"",""1"",""6324""
","
","
","""event"",""trial"",""time""
""fullscreenenter"",""1"",""6324""
","
","","","-1","","","12","9101","4211","g","elianto","#f73b6a7A","-1","-1","1","-10","[]","0","2","","","9101","90","6","4","lose","no-go","1"
"pit-trial","209","1293972","0.0-95.0","battery-v0.2","","""event"",""trial"",""time""
""fullscreenenter"",""1"",""6324""
","
","
","""event"",""trial"",""time""
""fullscreenenter"",""1"",""6324""
","
","","","1064.6000000238419","","","12","9101","4211","a","elianto","#f73b6a7A"," "," ","1","0","[1914.8999999761581]","1","2","","","9101","91","7","3","lose","go","0"
"pit-trial","210","1298709","0.0-96.0","battery-v0.2","","""event"",""trial"",""time""
""fullscreenenter"",""1"",""6324""
","
","
","""event"",""trial"",""time""
""fullscreenenter"",""1"",""6324""
","
","","","1884.300000011921","","","12","9101","4211","s","elianto","#3366ff99","-1"," ","0","0","[2735.300000011921]","1","2","","","9101","92","4","2","win","no-go","0"
"pit-trial","211","1302632","0.0-97.0","battery-v0.2","","""event"",""trial"",""time""
""fullscreenenter"",""1"",""6324""
","
","
","""event"",""trial"",""time""
""fullscreenenter"",""1"",""6324""
","
","","","1068.8999999761581","","","12","9101","4211","p","elianto","#3366ff99"," "," ","1","+10","[1919.699999988079]","1","2","","","9101","93","5","1","win","go","0"
"pit-trial","212","1307486","0.0-98.0","battery-v0.2","","""event"",""trial"",""time""
""fullscreenenter"",""1"",""6324""
","
","
","""event"",""trial"",""time""
""fullscreenenter"",""1"",""6324""
","
","","","-1","","","12","9101","4211","g","elianto","#f73b6a7A","-1","-1","1","0","[]","0","2","","","9101","94","6","4","lose","no-go","0"
"pit-trial","213","1311864","0.0-99.0","battery-v0.2","","""event"",""trial"",""time""
""fullscreenenter"",""1"",""6324""
","
","
","""event"",""trial"",""time""
""fullscreenenter"",""1"",""6324""
","
","","","1523.4000000357628","","","12","9101","4211","l","elianto","#3366ff99","-1"," ","0","0","[2374.7000000476837]","1","2","","","9101","95","8","2","win","no-go","0"
"pit-trial","214","1315858","0.0-100.0","battery-v0.2","","""event"",""trial"",""time""
""fullscreenenter"",""1"",""6324""
","
","
","""event"",""trial"",""time""
""fullscreenenter"",""1"",""6324""
","
","","","1140.5","","","12","9101","4211","a","elianto","#f73b6a7A"," "," ","1","0","[1990.6000000238419]","1","2","","","9101","96","7","3","lose","go","0"
"pit-trial","215","1319827","0.0-101.0","battery-v0.2","","""event"",""trial"",""time""
""fullscreenenter"",""1"",""6324""
","
","
","""event"",""trial"",""time""
""fullscreenenter"",""1"",""6324""
","
","","","1114.9000000357628","","","12","9101","4211","a","elianto","#f73b6a7A"," "," ","1","0","[1965.4000000357628]","1","2","","","9101","97","7","3","lose","go","0"
"pit-trial","216","1323756","0.0-102.0","battery-v0.2","","""event"",""trial"",""time""
""fullscreenenter"",""1"",""6324""
","
","
","""event"",""trial"",""time""
""fullscreenenter"",""1"",""6324""
","
","","","1072.7000000476837","","","12","9101","4211","p","elianto","#3366ff99"," "," ","1","+10","[1924.800000011921]","1","2","","","9101","98","5","1","win","go","0"
"pit-trial","217","1328610","0.0-103.0","battery-v0.2","","""event"",""trial"",""time""
""fullscreenenter"",""1"",""6324""
","
","
","""event"",""trial"",""time""
""fullscreenenter"",""1"",""6324""
","
","","","-1","","","12","9101","4211","g","elianto","#f73b6a7A","-1","-1","1","-10","[]","0","2","","","9101","99","6","4","lose","no-go","1"
"pit-trial","218","1333466","0.0-104.0","battery-v0.2","","""event"",""trial"",""time""
""fullscreenenter"",""1"",""6324""
","
","
","""event"",""trial"",""time""
""fullscreenenter"",""1"",""6324""
","
","","","-1","","","12","9101","4211","l","elianto","#3366ff99","-1","-1","1","+10","[]","0","2","","","9101","100","8","2","win","no-go","0"
"pit-trial","219","1338327","0.0-105.0","battery-v0.2","","""event"",""trial"",""time""
""fullscreenenter"",""1"",""6324""
","
","
","""event"",""trial"",""time""
""fullscreenenter"",""1"",""6324""
","
","","","-1","","","12","9101","4211","l","elianto","#3366ff99","-1","-1","1","+10","[]","0","2","","","9101","101","8","2","win","no-go","0"
"pit-trial","220","1343181","0.0-106.0","battery-v0.2","","""event"",""trial"",""time""
""fullscreenenter"",""1"",""6324""
","
","
","""event"",""trial"",""time""
""fullscreenenter"",""1"",""6324""
","
","","","-1","","","12","9101","4211","p","elianto","#3366ff99"," ","-1","0","0","[2886.199999988079]","1","2","","","9101","102","5","1","win","go","0"
"pit-trial","221","1348033","0.0-107.0","battery-v0.2","","""event"",""trial"",""time""
""fullscreenenter"",""1"",""6324""
","
","
","""event"",""trial"",""time""
""fullscreenenter"",""1"",""6324""
","
","","","-1","","","12","9101","4211","u","elianto","#3366ff99","-1","-1","1","+10","[]","0","2","","","9101","103","9","2","win","no-go","0"
"pit-trial","222","1352888","0.0-108.0","battery-v0.2","","""event"",""trial"",""time""
""fullscreenenter"",""1"",""6324""
","
","
","""event"",""trial"",""time""
""fullscreenenter"",""1"",""6324""
","
","","","-1","","","12","9101","4211","g","elianto","#f73b6a7A","-1","-1","1","0","[]","0","2","","","9101","104","6","4","lose","no-go","0"
"pit-trial","223","1357741","0.0-109.0","battery-v0.2","","""event"",""trial"",""time""
""fullscreenenter"",""1"",""6324""
","
","
","""event"",""trial"",""time""
""fullscreenenter"",""1"",""6324""
","
","","","-1","","","12","9101","4211","g","elianto","#f73b6a7A","-1","-1","1","0","[]","0","2","","","9101","105","6","4","lose","no-go","0"
"pit-trial","224","1362594","0.0-110.0","battery-v0.2","","""event"",""trial"",""time""
""fullscreenenter"",""1"",""6324""
","
","
","""event"",""trial"",""time""
""fullscreenenter"",""1"",""6324""
","
","","","-1","","","12","9101","4211","l","elianto","#3366ff99","-1","-1","1","0","[]","0","2","","","9101","106","8","2","win","no-go","1"
"pit-trial","225","1367448","0.0-111.0","battery-v0.2","","""event"",""trial"",""time""
""fullscreenenter"",""1"",""6324""
","
","
","""event"",""trial"",""time""
""fullscreenenter"",""1"",""6324""
","
","","","-1","","","12","9101","4211","u","elianto","#3366ff99","-1","-1","1","+10","[]","0","2","","","9101","107","9","2","win","no-go","0"
"pit-trial","226","1371105","0.0-112.0","battery-v0.2","","""event"",""trial"",""time""
""fullscreenenter"",""1"",""6324""
","
","
","""event"",""trial"",""time""
""fullscreenenter"",""1"",""6324""
","
","","","802.5","","","12","9101","4211","p","elianto","#3366ff99"," "," ","1","+10","[1652.800000011921]","1","2","","","9101","108","5","1","win","go","0"
"pit-trial","227","1375958","0.0-113.0","battery-v0.2","","""event"",""trial"",""time""
""fullscreenenter"",""1"",""6324""
","
","
","""event"",""trial"",""time""
""fullscreenenter"",""1"",""6324""
","
","","","-1","","","12","9101","4211","u","elianto","#3366ff99","-1","-1","1","0","[]","0","2","","","9101","109","9","2","win","no-go","1"
"pit-trial","228","1379571","0.0-114.0","battery-v0.2","","""event"",""trial"",""time""
""fullscreenenter"",""1"",""6324""
","
","
","""event"",""trial"",""time""
""fullscreenenter"",""1"",""6324""
","
","","","760.1999999880791","","","12","9101","4211","p","elianto","#3366ff99"," "," ","1","+10","[1611.0999999642372]","1","2","","","9101","110","5","1","win","go","0"
"pit-trial","229","1384425","0.0-115.0","battery-v0.2","","""event"",""trial"",""time""
""fullscreenenter"",""1"",""6324""
","
","
","""event"",""trial"",""time""
""fullscreenenter"",""1"",""6324""
","
","","","-1","","","12","9101","4211","g","elianto","#f73b6a7A","-1","-1","1","-10","[]","0","2","","","9101","111","6","4","lose","no-go","1"
"pit-trial","230","1389278","0.0-116.0","battery-v0.2","","""event"",""trial"",""time""
""fullscreenenter"",""1"",""6324""
","
","
","""event"",""trial"",""time""
""fullscreenenter"",""1"",""6324""
","
","","","-1","","","12","9101","4211","l","elianto","#3366ff99","-1","-1","1","+10","[]","0","2","","","9101","112","8","2","win","no-go","0"
"pit-trial","231","1393536","0.0-117.0","battery-v0.2","","""event"",""trial"",""time""
""fullscreenenter"",""1"",""6324""
","
","
","""event"",""trial"",""time""
""fullscreenenter"",""1"",""6324""
","
","","","1403.199999988079","","","12","9101","4211","a","elianto","#f73b6a7A"," "," ","1","0","[2253.899999976158]","1","2","","","9101","113","7","3","lose","go","0"
"pit-trial","232","1398391","0.0-118.0","battery-v0.2","","""event"",""trial"",""time""
""fullscreenenter"",""1"",""6324""
","
","
","""event"",""trial"",""time""
""fullscreenenter"",""1"",""6324""
","
","","","-1","","","12","9101","4211","u","elianto","#3366ff99","-1","-1","1","+10","[]","0","2","","","9101","114","9","2","win","no-go","0"
"pit-trial","233","1402157","0.0-119.0","battery-v0.2","","""event"",""trial"",""time""
""fullscreenenter"",""1"",""6324""
","
","
","""event"",""trial"",""time""
""fullscreenenter"",""1"",""6324""
","
","","","911.3999999761581","","","12","9101","4211","p","elianto","#3366ff99"," "," ","1","+10","[1763.199999988079]","1","2","","","9101","115","5","1","win","go","0"
"pit-trial","234","1407012","0.0-120.0","battery-v0.2","","""event"",""trial"",""time""
""fullscreenenter"",""1"",""6324""
","
","
","""event"",""trial"",""time""
""fullscreenenter"",""1"",""6324""
","
","","","-1","","","12","9101","4211","l","elianto","#3366ff99","-1","-1","1","+10","[]","0","2","","","9101","116","8","2","win","no-go","0"
"pit-trial","235","1411866","0.0-121.0","battery-v0.2","","""event"",""trial"",""time""
""fullscreenenter"",""1"",""6324""
","
","
","""event"",""trial"",""time""
""fullscreenenter"",""1"",""6324""
","
","","","-1","","","12","9101","4211","l","elianto","#3366ff99","-1","-1","1","0","[]","0","2","","","9101","117","8","2","win","no-go","1"
"pit-trial","236","1416718","0.0-122.0","battery-v0.2","","""event"",""trial"",""time""
""fullscreenenter"",""1"",""6324""
","
","
","""event"",""trial"",""time""
""fullscreenenter"",""1"",""6324""
","
","","","-1","","","12","9101","4211","u","elianto","#3366ff99","-1","-1","1","+10","[]","0","2","","","9101","118","9","2","win","no-go","0"
"pit-trial","237","1421573","0.0-123.0","battery-v0.2","","""event"",""trial"",""time""
""fullscreenenter"",""1"",""6324""
","
","
","""event"",""trial"",""time""
""fullscreenenter"",""1"",""6324""
","
","","","-1","","","12","9101","4211","g","elianto","#f73b6a7A","-1","-1","1","0","[]","0","2","","","9101","119","6","4","lose","no-go","0"
"pit-trial","238","1425282","0.0-124.0","battery-v0.2","","""event"",""trial"",""time""
""fullscreenenter"",""1"",""6324""
","
","
","""event"",""trial"",""time""
""fullscreenenter"",""1"",""6324""
","
","","","855.5","","","12","9101","4211","p","elianto","#3366ff99"," "," ","1","+10","[1706.800000011921]","1","2","","","9101","120","5","1","win","go","0"
"pit-trial","239","1428972","0.0-125.0","battery-v0.2","","""event"",""trial"",""time""
""fullscreenenter"",""1"",""6324""
","
","
","""event"",""trial"",""time""
""fullscreenenter"",""1"",""6324""
","
","","","836.7000000476837","","","12","9101","4211","p","elianto","#3366ff99"," "," ","1","0","[1686.9000000357628]","1","2","","","9101","121","5","1","win","go","1"
"pit-trial","240","1433420","0.0-126.0","battery-v0.2","","""event"",""trial"",""time""
""fullscreenenter"",""1"",""6324""
","
","
","""event"",""trial"",""time""
""fullscreenenter"",""1"",""6324""
","
","","","1595.1000000238419","","","12","9101","4211","a","elianto","#f73b6a7A"," "," ","1","0","[2445.100000023842]","1","2","","","9101","122","7","3","lose","go","0"
"pit-trial","241","1438273","0.0-127.0","battery-v0.2","","""event"",""trial"",""time""
""fullscreenenter"",""1"",""6324""
","
","
","""event"",""trial"",""time""
""fullscreenenter"",""1"",""6324""
","
","","","-1","","","12","9101","4211","l","elianto","#3366ff99","-1","-1","1","+10","[]","0","2","","","9101","123","8","2","win","no-go","0"
"pit-trial","242","1443126","0.0-128.0","battery-v0.2","","""event"",""trial"",""time""
""fullscreenenter"",""1"",""6324""
","
","
","""event"",""trial"",""time""
""fullscreenenter"",""1"",""6324""
","
","","","-1","","","12","9101","4211","u","elianto","#3366ff99","-1","-1","1","+10","[]","0","2","","","9101","124","9","2","win","no-go","0"
"pit-trial","243","1447488","0.0-129.0","battery-v0.2","","""event"",""trial"",""time""
""fullscreenenter"",""1"",""6324""
","
","
","""event"",""trial"",""time""
""fullscreenenter"",""1"",""6324""
","
","","","1509.3999999761581","","","12","9101","4211","a","elianto","#f73b6a7A"," "," ","1","0","[2359.5]","1","2","","","9101","125","7","3","lose","go","0"
"pit-trial","244","1452342","0.0-130.0","battery-v0.2","","""event"",""trial"",""time""
""fullscreenenter"",""1"",""6324""
","
","
","""event"",""trial"",""time""
""fullscreenenter"",""1"",""6324""
","
","","","-1","","","12","9101","4211","u","elianto","#3366ff99","-1","-1","1","+10","[]","0","2","","","9101","126","9","2","win","no-go","0"
"pit-trial","245","1457196","0.0-131.0","battery-v0.2","","""event"",""trial"",""time""
""fullscreenenter"",""1"",""6324""
","
","
","""event"",""trial"",""time""
""fullscreenenter"",""1"",""6324""
","
","","","-1","","","12","9101","4211","g","elianto","#f73b6a7A","-1","-1","1","0","[]","0","2","","","9101","127","6","4","lose","no-go","0"
"pit-trial","246","1462050","0.0-132.0","battery-v0.2","","""event"",""trial"",""time""
""fullscreenenter"",""1"",""6324""
","
","
","""event"",""trial"",""time""
""fullscreenenter"",""1"",""6324""
","
","","","-1","","","12","9101","4211","l","elianto","#3366ff99","-1","-1","1","+10","[]","0","2","","","9101","128","8","2","win","no-go","0"
"pit-trial","247","1466905","0.0-133.0","battery-v0.2","","""event"",""trial"",""time""
""fullscreenenter"",""1"",""6324""
","
","
","""event"",""trial"",""time""
""fullscreenenter"",""1"",""6324""
","
","","","-1","","","12","9101","4211","g","elianto","#f73b6a7A","-1","-1","1","-10","[]","0","2","","","9101","129","6","4","lose","no-go","1"
"pit-trial","248","1471759","0.0-134.0","battery-v0.2","","""event"",""trial"",""time""
""fullscreenenter"",""1"",""6324""
","
","
","""event"",""trial"",""time""
""fullscreenenter"",""1"",""6324""
","
","","","-1","","","12","9101","4211","l","elianto","#3366ff99","-1","-1","1","+10","[]","0","2","","","9101","130","8","2","win","no-go","0"
"pit-trial","249","1475840","0.0-135.0","battery-v0.2","","""event"",""trial"",""time""
""fullscreenenter"",""1"",""6324""
","
","
","""event"",""trial"",""time""
""fullscreenenter"",""1"",""6324""
","
","","","1227.6000000238419","","","12","9101","4211","a","elianto","#f73b6a7A"," "," ","1","-10","[2077.899999976158]","1","2","","","9101","131","7","3","lose","go","1"
"pit-trial","250","1480694","0.0-136.0","battery-v0.2","","""event"",""trial"",""time""
""fullscreenenter"",""1"",""6324""
","
","
","""event"",""trial"",""time""
""fullscreenenter"",""1"",""6324""
","
","","","-1","","","12","9101","4211","u","elianto","#3366ff99","-1","-1","1","+10","[]","0","2","","","9101","132","9","2","win","no-go","0"
"pit-trial","251","1485548","0.0-137.0","battery-v0.2","","""event"",""trial"",""time""
""fullscreenenter"",""1"",""6324""
","
","
","""event"",""trial"",""time""
""fullscreenenter"",""1"",""6324""
","
","","","-1","","","12","9101","4211","l","elianto","#3366ff99","-1","-1","1","+10","[]","0","2","","","9101","133","8","2","win","no-go","0"
"pit-trial","252","1490403","0.0-138.0","battery-v0.2","","""event"",""trial"",""time""
""fullscreenenter"",""1"",""6324""
","
","
","""event"",""trial"",""time""
""fullscreenenter"",""1"",""6324""
","
","","","-1","","","12","9101","4211","u","elianto","#3366ff99","-1","-1","1","0","[]","0","2","","","9101","134","9","2","win","no-go","1"
"pit-trial","253","1495257","0.0-139.0","battery-v0.2","","""event"",""trial"",""time""
""fullscreenenter"",""1"",""6324""
","
","
","""event"",""trial"",""time""
""fullscreenenter"",""1"",""6324""
","
","","","-1","","","12","9101","4211","g","elianto","#f73b6a7A","-1","-1","1","0","[]","0","2","","","9101","135","6","4","lose","no-go","0"
"pit-trial","254","1499570","0.0-140.0","battery-v0.2","","""event"",""trial"",""time""
""fullscreenenter"",""1"",""6324""
","
","
","""event"",""trial"",""time""
""fullscreenenter"",""1"",""6324""
","
","","","1460.699999988079","","","12","9101","4211","a","elianto","#f73b6a7A"," "," ","1","0","[2311.600000023842]","1","2","","","9101","136","7","3","lose","go","0"
"pit-trial","255","1504425","0.0-141.0","battery-v0.2","","""event"",""trial"",""time""
""fullscreenenter"",""1"",""6324""
","
","
","""event"",""trial"",""time""
""fullscreenenter"",""1"",""6324""
","
","","","-1","","","12","9101","4211","u","elianto","#3366ff99","-1","-1","1","+10","[]","0","2","","","9101","137","9","2","win","no-go","0"
"pit-trial","256","1508557","0.0-142.0","battery-v0.2","","""event"",""trial"",""time""
""fullscreenenter"",""1"",""6324""
","
","
","""event"",""trial"",""time""
""fullscreenenter"",""1"",""6324""
","
","","","1278.199999988079","","","12","9101","4211","a","elianto","#f73b6a7A"," "," ","1","0","[2129.600000023842]","1","2","","","9101","138","7","3","lose","go","0"
"pit-trial","257","1513411","0.0-143.0","battery-v0.2","","""event"",""trial"",""time""
""fullscreenenter"",""1"",""6324""
","
","
","""event"",""trial"",""time""
""fullscreenenter"",""1"",""6324""
","
","","","-1","","","12","9101","4211","g","elianto","#f73b6a7A","-1","-1","1","0","[]","0","2","","","9101","139","6","4","lose","no-go","0"
"pit-trial","258","1518264","0.0-144.0","battery-v0.2","","""event"",""trial"",""time""
""fullscreenenter"",""1"",""6324""
","
","
","""event"",""trial"",""time""
""fullscreenenter"",""1"",""6324""
","
","","","-1","","","12","9101","4211","l","elianto","#3366ff99","-1","-1","1","+10","[]","0","2","","","9101","140","8","2","win","no-go","0"
"pit-instructions","259","1532578","0.0-145.0","battery-v0.2","","""event"",""trial"",""time""
""fullscreenenter"",""1"",""6324""
","
","
","""event"",""trial"",""time""
""fullscreenenter"",""1"",""6324""
","
","","[{""page_index"":0,""viewing_time"":6289.899999976158},{""page_index"":1,""viewing_time"":8022.199999988079}]","14312.599999964237","","","","","","","","","","","","","","","","","","","","","","","",""
"pit-trial","260","1537442","0.0-146.0","battery-v0.2","","""event"",""trial"",""time""
""fullscreenenter"",""1"",""6324""
","
","
","""event"",""trial"",""time""
""fullscreenenter"",""1"",""6324""
","
","","","-1","","","12","9101","4211","f","elianto","#3366ff99","-1","-1","1","+10","[]","0","3","","","9101","141","1","2","win","no-go","0"
"pit-trial","261","1542300","0.0-147.0","battery-v0.2","","""event"",""trial"",""time""
""fullscreenenter"",""1"",""6324""
","
","
","""event"",""trial"",""time""
""fullscreenenter"",""1"",""6324""
","
","","","-1","","","12","9101","4211","n","elianto","#f73b6a7A"," ","-1","0","0","[]","0","3","","","9101","142","0","3","lose","go","1"
"pit-trial","262","1547156","0.0-148.0","battery-v0.2","","""event"",""trial"",""time""
""fullscreenenter"",""1"",""6324""
","
","
","""event"",""trial"",""time""
""fullscreenenter"",""1"",""6324""
","
","","","-1","","","12","9101","4211","t","elianto","#f73b6a7A"," ","-1","0","-10","[3033.5,3059.100000023842]","2","3","","","9101","143","2","3","lose","go","0"
"pit-trial","263","1551537","0.0-149.0","battery-v0.2","","""event"",""trial"",""time""
""fullscreenenter"",""1"",""6324""
","
","
","""event"",""trial"",""time""
""fullscreenenter"",""1"",""6324""
","
","","","1525.300000011921","","","12","9101","4211","b","elianto","#f73b6a7A","-1"," ","0","-10","[2376.899999976158]","1","3","","","9101","144","3","4","lose","no-go","0"
"pit-trial","264","1556177","0.0-150.0","battery-v0.2","","""event"",""trial"",""time""
""fullscreenenter"",""1"",""6324""
","
","
","""event"",""trial"",""time""
""fullscreenenter"",""1"",""6324""
","
","","","1786.300000011921","","","12","9101","4211","t","elianto","#f73b6a7A"," "," ","1","0","[2637.399999976158]","1","3","","","9101","145","2","3","lose","go","0"
"pit-trial","265","1561040","0.0-151.0","battery-v0.2","","""event"",""trial"",""time""
""fullscreenenter"",""1"",""6324""
","
","
","""event"",""trial"",""time""
""fullscreenenter"",""1"",""6324""
","
","","","-1","","","12","9101","4211","n","elianto","#f73b6a7A"," ","-1","0","0","[]","0","3","","","9101","146","0","3","lose","go","1"
"pit-trial","266","1565894","0.0-152.0","battery-v0.2","","""event"",""trial"",""time""
""fullscreenenter"",""1"",""6324""
","
","
","""event"",""trial"",""time""
""fullscreenenter"",""1"",""6324""
","
","","","-1","","","12","9101","4211","b","elianto","#f73b6a7A","-1","-1","1","0","[]","0","3","","","9101","147","3","4","lose","no-go","0"
"pit-trial","267","1570748","0.0-153.0","battery-v0.2","","""event"",""trial"",""time""
""fullscreenenter"",""1"",""6324""
","
","
","""event"",""trial"",""time""
""fullscreenenter"",""1"",""6324""
","
","","","-1","","","12","9101","4211","f","elianto","#3366ff99","-1","-1","1","+10","[]","0","3","","","9101","148","1","2","win","no-go","0"
"pit-trial","268","1575602","0.0-154.0","battery-v0.2","","""event"",""trial"",""time""
""fullscreenenter"",""1"",""6324""
","
","
","""event"",""trial"",""time""
""fullscreenenter"",""1"",""6324""
","
