"trial_type","trial_index","time_elapsed","internal_node_id","task_version","subject_id","interactions","blur_events","focus_events","fullscreenenter_events","fullscreenexit_events","success","view_history","rt","responses","num_errors","age","subject","participantId","rune","rune_set","hex","correct","choice","accuracy","outcome","keys","total_keys","block","practice","value","sub","trial","stimulus","robot","valence","action","sham"
"pavlovia","0","10","0.0-0.0","battery-v0.2","","""event"",""trial"",""time""
""fullscreenenter"",""1"",""1150""
","
","
","""event"",""trial"",""time""
""fullscreenenter"",""1"",""1150""
","
","","","","","","","","","","","","","","","","","","","","","","","","","","",""
"fullscreen","1","2138","0.0-1.0","battery-v0.2","","""event"",""trial"",""time""
""fullscreenenter"",""1"",""1150""
","
","
","""event"",""trial"",""time""
""fullscreenenter"",""1"",""1150""
","
","true","","","","","","","","","","","","","","","","","","","","","","","","","",""
"pit-instructions","2","9242","0.0-2.0-0.0","battery-v0.2","","""event"",""trial"",""time""
""fullscreenenter"",""1"",""1150""
","
","
","""event"",""trial"",""time""
""fullscreenenter"",""1"",""1150""
","
","","[{""page_index"":0,""viewing_time"":7096.29999999702}]","7096.79999999702","","","","","","","","","","","","","","","","","","","","","","","",""
"pit-comprehension","3","11611","0.0-2.0-1.0-0.0","battery-v0.2","","""event"",""trial"",""time""
""fullscreenenter"",""1"",""1150""
","
","
","""event"",""trial"",""time""
""fullscreenenter"",""1"",""1150""
","
","","","2363.5999999940395","[""shark""]","0","16","18242","6802","","","","","","","","","","","","","","","","","","",""
"pit-instructions","4","12681","0.0-2.0-1.0-1.0","battery-v0.2","","""event"",""trial"",""time""
""fullscreenenter"",""1"",""1150""
","
","
","""event"",""trial"",""time""
""fullscreenenter"",""1"",""1150""
","
","","[{""page_index"":0,""viewing_time"":1050.5999999940395}]","1051.0999999940395","","","","","","","","","","","","","","","","","","","","","","","",""
"pit-comprehension","5","15402","0.0-2.0-2.0-0.0","battery-v0.2","","""event"",""trial"",""time""
""fullscreenenter"",""1"",""1150""
","
","
","""event"",""trial"",""time""
""fullscreenenter"",""1"",""1150""
","
","","","2715.7000000029802","[""tiger""]","0","16","18242","6802","","","","","","","","","","","","","","","","","","",""
"pit-instructions","6","16649","0.0-2.0-2.0-1.0","battery-v0.2","","""event"",""trial"",""time""
""fullscreenenter"",""1"",""1150""
","
","
","""event"",""trial"",""time""
""fullscreenenter"",""1"",""1150""
","
","","[{""page_index"":0,""viewing_time"":1243}]","1243.4000000059605","","","","","","","","","","","","","","","","","","","","","","","",""
"pit-instructions","7","162681","0.0-2.0-3.0","battery-v0.2","","""event"",""trial"",""time""
""fullscreenenter"",""1"",""1150""
","
","
","""event"",""trial"",""time""
""fullscreenenter"",""1"",""1150""
","
","","[{""page_index"":0,""viewing_time"":22267.60000000894},{""page_index"":1,""viewing_time"":21360.20000000298},{""page_index"":2,""viewing_time"":10488},{""page_index"":3,""viewing_time"":8295.699999988079},{""page_index"":4,""viewing_time"":10455.90000000596},{""page_index"":5,""viewing_time"":11961},{""page_index"":6,""viewing_time"":6607.20000000298},{""page_index"":7,""viewing_time"":6192.20000000298},{""page_index"":8,""viewing_time"":8928.5},{""page_index"":9,""viewing_time"":7495.5999999940395},{""page_index"":10,""viewing_time"":11135.5},{""page_index"":11,""viewing_time"":8984.20000000298},{""page_index"":12,""viewing_time"":7104.29999999702},{""page_index"":13,""viewing_time"":4751.70000000298}]","146028.10000000894","","","","","","","","","","","","","","","","","","","","","","","",""
"pit-trial","8","166543","0.0-2.0-4.0-0.0","battery-v0.2","","""event"",""trial"",""time""
""fullscreenenter"",""1"",""1150""
","
","
","""event"",""trial"",""time""
""fullscreenenter"",""1"",""1150""
","
","","","1006.5","","","16","18242","6802","&#9784;","elianto","#FFFFF080"," "," ","1","&#10004","[1856.6000000089407]","1","0","0","","","","","","","",""
"pit-trial","9","170027","0.0-2.0-4.1-0.1","battery-v0.2","","""event"",""trial"",""time""
""fullscreenenter"",""1"",""1150""
","
","
","""event"",""trial"",""time""
""fullscreenenter"",""1"",""1150""
","
","","","629","","","16","18242","6802","&#9784;","elianto","#FFFFF080"," "," ","1","&#10004","[1479.4000000059605]","1","0","0","","","","","","","",""
"pit-trial","10","173300","0.0-2.0-4.2-0.2","battery-v0.2","","""event"",""trial"",""time""
""fullscreenenter"",""1"",""1150""
","
","
","""event"",""trial"",""time""
""fullscreenenter"",""1"",""1150""
","
","","","418.29999999701977","","","16","18242","6802","&#9784;","elianto","#FFFFF080"," "," ","1","&#10004","[1269.2999999970198]","1","0","0","","","","","","","",""
"pit-trial","11","176504","0.0-2.0-4.3-0.3","battery-v0.2","","""event"",""trial"",""time""
""fullscreenenter"",""1"",""1150""
","
","
","""event"",""trial"",""time""
""fullscreenenter"",""1"",""1150""
","
","","","349.70000000298023","","","16","18242","6802","&#9784;","elianto","#FFFFF080"," "," ","1","&#10004","[1200.7999999970198]","1","0","0","","","","","","","",""
"pit-trial","12","179770","0.0-2.0-4.4-0.4","battery-v0.2","","""event"",""trial"",""time""
""fullscreenenter"",""1"",""1150""
","
","
","""event"",""trial"",""time""
""fullscreenenter"",""1"",""1150""
","
","","","409.20000000298023","","","16","18242","6802","&#9784;","elianto","#FFFFF080"," "," ","1","&#10004","[1260.5]","1","0","0","","","","","","","",""
"pit-instructions","13","202818","0.0-2.0-5.0","battery-v0.2","","""event"",""trial"",""time""
""fullscreenenter"",""1"",""1150""
","
","
","""event"",""trial"",""time""
""fullscreenenter"",""1"",""1150""
","
","","[{""page_index"":0,""viewing_time"":6571.70000000298},{""page_index"":1,""viewing_time"":5520.29999999702},{""page_index"":2,""viewing_time"":4688},{""page_index"":3,""viewing_time"":6264.0999999940395}]","23044.5","","","","","","","","","","","","","","","","","","","","","","","",""
"pit-trial","14","207672","0.0-2.0-6.0-0.0","battery-v0.2","","""event"",""trial"",""time""
""fullscreenenter"",""1"",""1150""
","
","
","""event"",""trial"",""time""
""fullscreenenter"",""1"",""1150""
","
","","","-1","","","16","18242","6802","&#9854;","elianto","#FFFFF080","-1","-1","1","&#10004","[]","0","0","1","","","","","","","",""
"pit-trial","15","212527","0.0-2.0-6.1-0.1","battery-v0.2","","""event"",""trial"",""time""
""fullscreenenter"",""1"",""1150""
","
","
","""event"",""trial"",""time""
""fullscreenenter"",""1"",""1150""
","
","","","-1","","","16","18242","6802","&#9854;","elianto","#FFFFF080","-1","-1","1","&#10004","[]","0","0","1","","","","","","","",""
"pit-trial","16","217381","0.0-2.0-6.2-0.2","battery-v0.2","","""event"",""trial"",""time""
""fullscreenenter"",""1"",""1150""
","
","
","""event"",""trial"",""time""
""fullscreenenter"",""1"",""1150""
","
","","","-1","","","16","18242","6802","&#9854;","elianto","#FFFFF080","-1","-1","1","&#10004","[]","0","0","1","","","","","","","",""
"pit-trial","17","222236","0.0-2.0-6.3-0.3","battery-v0.2","","""event"",""trial"",""time""
""fullscreenenter"",""1"",""1150""
","
","
","""event"",""trial"",""time""
""fullscreenenter"",""1"",""1150""
","
","","","-1","","","16","18242","6802","&#9854;","elianto","#FFFFF080","-1","-1","1","&#10004","[]","0","0","1","","","","","","","",""
"pit-trial","18","227091","0.0-2.0-6.4-0.4","battery-v0.2","","""event"",""trial"",""time""
""fullscreenenter"",""1"",""1150""
","
","
","""event"",""trial"",""time""
""fullscreenenter"",""1"",""1150""
","
","","","-1","","","16","18242","6802","&#9854;","elianto","#FFFFF080","-1","-1","1","&#10004","[]","0","0","1","","","","","","","",""
"pit-instructions","19","364993","0.0-2.0-7.0","battery-v0.2","","""event"",""trial"",""time""
""fullscreenenter"",""1"",""1150""
","
","
","""event"",""trial"",""time""
""fullscreenenter"",""1"",""1150""
","
","","[{""page_index"":0,""viewing_time"":13041.89999999106},{""page_index"":1,""viewing_time"":14328.40000000596},{""page_index"":2,""viewing_time"":6712.0999999940395},{""page_index"":3,""viewing_time"":5839.70000000298},{""page_index"":4,""viewing_time"":5312.29999999702},{""page_index"":5,""viewing_time"":7591.70000000298},{""page_index"":6,""viewing_time"":4568.29999999702},{""page_index"":7,""viewing_time"":7367.800000011921},{""page_index"":8,""viewing_time"":6944.29999999702},{""page_index"":9,""viewing_time"":5789.899999991059},{""page_index"":10,""viewing_time"":6177.70000000298},{""page_index"":11,""viewing_time"":4135.600000008941},{""page_index"":12,""viewing_time"":7600.5},{""page_index"":13,""viewing_time"":8968.5},{""page_index"":14,""viewing_time"":8119.5},{""page_index"":15,""viewing_time"":8016.899999991059},{""page_index"":16,""viewing_time"":9207},{""page_index"":17,""viewing_time"":8176}]","137898.5","","","","","","","","","","","","","","","","","","","","","","","",""
"pit-trial","20","369848","0.0-2.0-8.0-0.0","battery-v0.2","","""event"",""trial"",""time""
""fullscreenenter"",""1"",""1150""
","
","
","""event"",""trial"",""time""
""fullscreenenter"",""1"",""1150""
","
","","","-1","","","16","18242","6802","&#9776;","elianto","#3366ff99"," ","-1","0","0","[]","0","0","1","","","","","","","",""
"pit-trial","21","374703","0.0-2.0-8.0-1.0","battery-v0.2","","""event"",""trial"",""time""
""fullscreenenter"",""1"",""1150""
","
","
","""event"",""trial"",""time""
""fullscreenenter"",""1"",""1150""
","
","","","-1","","","16","18242","6802","&#9776;","elianto","#3366ff99"," ","-1","0","0","[]","0","0","1","","","","","","","",""
"pit-trial","22","379558","0.0-2.0-8.0-2.0","battery-v0.2","","""event"",""trial"",""time""
""fullscreenenter"",""1"",""1150""
","
","
","""event"",""trial"",""time""
""fullscreenenter"",""1"",""1150""
","
","","","-1","","","16","18242","6802","&#9776;","elianto","#3366ff99"," ","-1","0","0","[]","0","0","1","","","","","","","",""
"pit-trial","23","384412","0.0-2.0-8.0-3.0","battery-v0.2","","""event"",""trial"",""time""
""fullscreenenter"",""1"",""1150""
","
","
","""event"",""trial"",""time""
""fullscreenenter"",""1"",""1150""
","
","","","-1","","","16","18242","6802","&#9776;","elianto","#3366ff99"," ","-1","0","+10","[3549.2999999970198]","1","0","1","","","","","","","",""
"pit-trial","24","387639","0.0-2.0-8.0-4.0","battery-v0.2","","""event"",""trial"",""time""
""fullscreenenter"",""1"",""1150""
","
","
","""event"",""trial"",""time""
""fullscreenenter"",""1"",""1150""
","
","","","373.59999999403954","","","16","18242","6802","&#9776;","elianto","#3366ff99"," "," ","1","+10","[1224.7999999970198]","1","0","1","","","","","","","",""
"pit-trial","25","390829","0.0-2.0-8.1-0.1","battery-v0.2","","""event"",""trial"",""time""
""fullscreenenter"",""1"",""1150""
","
","
","""event"",""trial"",""time""
""fullscreenenter"",""1"",""1150""
","
","","","334.19999998807907","","","16","18242","6802","&#9776;","elianto","#3366ff99"," "," ","1","+10","[1184.8999999910593]","1","0","1","","","","","","","",""
"pit-trial","26","395683","0.0-2.0-8.1-1.1","battery-v0.2","","""event"",""trial"",""time""
""fullscreenenter"",""1"",""1150""
","
","
","""event"",""trial"",""time""
""fullscreenenter"",""1"",""1150""
","
","","","-1","","","16","18242","6802","&#9776;","elianto","#3366ff99"," ","-1","0","0","[3232.699999988079]","1","0","1","","","","","","","",""
"pit-trial","27","399099","0.0-2.0-8.1-2.1","battery-v0.2","","""event"",""trial"",""time""
""fullscreenenter"",""1"",""1150""
","
","
","""event"",""trial"",""time""
""fullscreenenter"",""1"",""1150""
","
","","","561.7000000029802","","","16","18242","6802","&#9776;","elianto","#3366ff99"," "," ","1","+10","[1412.2000000029802]","1","0","1","","","","","","","",""
"pit-trial","28","402369","0.0-2.0-8.1-3.1","battery-v0.2","","""event"",""trial"",""time""
""fullscreenenter"",""1"",""1150""
","
","
","""event"",""trial"",""time""
""fullscreenenter"",""1"",""1150""
","
","","","414.79999999701977","","","16","18242","6802","&#9776;","elianto","#3366ff99"," "," ","1","0","[1265.7999999970198]","1","0","1","","","","","","","",""
"pit-trial","29","405721","0.0-2.0-8.1-4.1","battery-v0.2","","""event"",""trial"",""time""
""fullscreenenter"",""1"",""1150""
","
","
","""event"",""trial"",""time""
""fullscreenenter"",""1"",""1150""
","
","","","498","","","16","18242","6802","&#9776;","elianto","#3366ff99"," "," ","1","+10","[1348.2999999970198]","1","0","1","","","","","","","",""
"pit-trial","30","409090","0.0-2.0-8.2-0.2","battery-v0.2","","""event"",""trial"",""time""
""fullscreenenter"",""1"",""1150""
","
","
","""event"",""trial"",""time""
""fullscreenenter"",""1"",""1150""
","
","","","512.8999999910593","","","16","18242","6802","&#9776;","elianto","#3366ff99"," "," ","1","+10","[1363.0999999940395]","1","0","1","","","","","","","",""
"pit-trial","31","412652","0.0-2.0-8.2-1.2","battery-v0.2","","""event"",""trial"",""time""
""fullscreenenter"",""1"",""1150""
","
","
","""event"",""trial"",""time""
""fullscreenenter"",""1"",""1150""
","
","","","704.5","","","16","18242","6802","&#9776;","elianto","#3366ff99"," "," ","1","+10","[1555.5]","1","0","1","","","","","","","",""
"pit-trial","32","416061","0.0-2.0-8.2-2.2","battery-v0.2","","""event"",""trial"",""time""
""fullscreenenter"",""1"",""1150""
","
","
","""event"",""trial"",""time""
""fullscreenenter"",""1"",""1150""
","
","","","552.2999999970198","","","16","18242","6802","&#9776;","elianto","#3366ff99"," "," ","1","+10","[1403.5999999940395]","1","0","1","","","","","","","",""
"pit-trial","33","419433","0.0-2.0-8.2-3.2","battery-v0.2","","""event"",""trial"",""time""
""fullscreenenter"",""1"",""1150""
","
","
","""event"",""trial"",""time""
""fullscreenenter"",""1"",""1150""
","
","","","516.9000000059605","","","16","18242","6802","&#9776;","elianto","#3366ff99"," "," ","1","0","[1367]","1","0","1","","","","","","","",""
"pit-trial","34","424289","0.0-2.0-8.2-4.2","battery-v0.2","","""event"",""trial"",""time""
""fullscreenenter"",""1"",""1150""
","
","
","""event"",""trial"",""time""
""fullscreenenter"",""1"",""1150""
","
","","","-1","","","16","18242","6802","&#9776;","elianto","#3366ff99"," ","-1","0","0","[]","0","0","1","","","","","","","",""
"call-function","35","424294","0.0-2.0-9.0","battery-v0.2","","""event"",""trial"",""time""
""fullscreenenter"",""1"",""1150""
","
","
","""event"",""trial"",""time""
""fullscreenenter"",""1"",""1150""
","
","","","","","","","","","","","","","","","","","","","","","","","","","","",""
"pit-instructions","36","478219","0.0-2.0-10.0","battery-v0.2","","""event"",""trial"",""time""
""fullscreenenter"",""1"",""1150""
","
","
","""event"",""trial"",""time""
""fullscreenenter"",""1"",""1150""
","
","","[{""page_index"":0,""viewing_time"":11666.29999999702},{""page_index"":1,""viewing_time"":11935.59999999404},{""page_index"":2,""viewing_time"":13519.20000000298},{""page_index"":3,""viewing_time"":8776.5},{""page_index"":4,""viewing_time"":8024.4000000059605}]","53922.89999999106","","","","","","","","","","","","","","","","","","","","","","","",""
"pit-trial","37","483074","0.0-2.0-11.0-0.0","battery-v0.2","","""event"",""trial"",""time""
""fullscreenenter"",""1"",""1150""
","
","
","""event"",""trial"",""time""
""fullscreenenter"",""1"",""1150""
","
","","","-1","","","16","18242","6802","&#9761;","elianto","#3366ff99","-1","-1","1","+10","[]","0","0","2","","","","","","","",""
"pit-trial","38","487929","0.0-2.0-11.0-1.0","battery-v0.2","","""event"",""trial"",""time""
""fullscreenenter"",""1"",""1150""
","
","
","""event"",""trial"",""time""
""fullscreenenter"",""1"",""1150""
","
","","","-1","","","16","18242","6802","&#9761;","elianto","#3366ff99","-1","-1","1","+10","[]","0","0","2","","","","","","","",""
"pit-trial","39","492785","0.0-2.0-11.0-2.0","battery-v0.2","","""event"",""trial"",""time""
""fullscreenenter"",""1"",""1150""
","
","
","""event"",""trial"",""time""
""fullscreenenter"",""1"",""1150""
","
","","","-1","","","16","18242","6802","&#9761;","elianto","#3366ff99","-1","-1","1","+10","[]","0","0","2","","","","","","","",""
"pit-trial","40","497638","0.0-2.0-11.0-3.0","battery-v0.2","","""event"",""trial"",""time""
""fullscreenenter"",""1"",""1150""
","
","
","""event"",""trial"",""time""
""fullscreenenter"",""1"",""1150""
","
","","","-1","","","16","18242","6802","&#9761;","elianto","#3366ff99","-1","-1","1","0","[]","0","0","2","","","","","","","",""
"pit-trial","41","502493","0.0-2.0-11.0-4.0","battery-v0.2","","""event"",""trial"",""time""
""fullscreenenter"",""1"",""1150""
","
","
","""event"",""trial"",""time""
""fullscreenenter"",""1"",""1150""
","
","","","-1","","","16","18242","6802","&#9761;","elianto","#3366ff99","-1","-1","1","+10","[]","0","0","2","","","","","","","",""
"pit-trial","42","507348","0.0-2.0-11.1-0.1","battery-v0.2","","""event"",""trial"",""time""
""fullscreenenter"",""1"",""1150""
","
","
","""event"",""trial"",""time""
""fullscreenenter"",""1"",""1150""
","
","","","-1","","","16","18242","6802","&#9761;","elianto","#3366ff99","-1","-1","1","+10","[]","0","0","2","","","","","","","",""
"pit-trial","43","512205","0.0-2.0-11.1-1.1","battery-v0.2","","""event"",""trial"",""time""
""fullscreenenter"",""1"",""1150""
","
","
","""event"",""trial"",""time""
""fullscreenenter"",""1"",""1150""
","
","","","-1","","","16","18242","6802","&#9761;","elianto","#3366ff99","-1","-1","1","+10","[]","0","0","2","","","","","","","",""
"pit-trial","44","517061","0.0-2.0-11.1-2.1","battery-v0.2","","""event"",""trial"",""time""
""fullscreenenter"",""1"",""1150""
","
","
","""event"",""trial"",""time""
""fullscreenenter"",""1"",""1150""
","
","","","-1","","","16","18242","6802","&#9761;","elianto","#3366ff99","-1","-1","1","+10","[]","0","0","2","","","","","","","",""
"pit-trial","45","521917","0.0-2.0-11.1-3.1","battery-v0.2","","""event"",""trial"",""time""
""fullscreenenter"",""1"",""1150""
","
","
","""event"",""trial"",""time""
""fullscreenenter"",""1"",""1150""
","
","","","-1","","","16","18242","6802","&#9761;","elianto","#3366ff99","-1","-1","1","0","[]","0","0","2","","","","","","","",""
"pit-trial","46","526772","0.0-2.0-11.1-4.1","battery-v0.2","","""event"",""trial"",""time""
""fullscreenenter"",""1"",""1150""
","
","
","""event"",""trial"",""time""
""fullscreenenter"",""1"",""1150""
","
","","","-1","","","16","18242","6802","&#9761;","elianto","#3366ff99","-1","-1","1","+10","[]","0","0","2","","","","","","","",""
"pit-trial","47","531626","0.0-2.0-11.2-0.2","battery-v0.2","","""event"",""trial"",""time""
""fullscreenenter"",""1"",""1150""
","
","
","""event"",""trial"",""time""
""fullscreenenter"",""1"",""1150""
","
","","","-1","","","16","18242","6802","&#9761;","elianto","#3366ff99","-1","-1","1","+10","[]","0","0","2","","","","","","","",""
"pit-trial","48","536481","0.0-2.0-11.2-1.2","battery-v0.2","","""event"",""trial"",""time""
""fullscreenenter"",""1"",""1150""
","
","
","""event"",""trial"",""time""
""fullscreenenter"",""1"",""1150""
","
","","","-1","","","16","18242","6802","&#9761;","elianto","#3366ff99","-1","-1","1","+10","[]","0","0","2","","","","","","","",""
"pit-trial","49","541337","0.0-2.0-11.2-2.2","battery-v0.2","","""event"",""trial"",""time""
""fullscreenenter"",""1"",""1150""
","
","
","""event"",""trial"",""time""
""fullscreenenter"",""1"",""1150""
","
","","","-1","","","16","18242","6802","&#9761;","elianto","#3366ff99","-1","-1","1","+10","[]","0","0","2","","","","","","","",""
"pit-trial","50","546194","0.0-2.0-11.2-3.2","battery-v0.2","","""event"",""trial"",""time""
""fullscreenenter"",""1"",""1150""
","
","
","""event"",""trial"",""time""
""fullscreenenter"",""1"",""1150""
","
","","","-1","","","16","18242","6802","&#9761;","elianto","#3366ff99","-1","-1","1","0","[]","0","0","2","","","","","","","",""
"pit-trial","51","551050","0.0-2.0-11.2-4.2","battery-v0.2","","""event"",""trial"",""time""
""fullscreenenter"",""1"",""1150""
","
","
","""event"",""trial"",""time""
""fullscreenenter"",""1"",""1150""
","
","","","-1","","","16","18242","6802","&#9761;","elianto","#3366ff99","-1","-1","1","+10","[]","0","0","2","","","","","","","",""
"pit-trial","52","555906","0.0-2.0-11.3-0.3","battery-v0.2","","""event"",""trial"",""time""
""fullscreenenter"",""1"",""1150""
","
","
","""event"",""trial"",""time""
""fullscreenenter"",""1"",""1150""
","
","","","-1","","","16","18242","6802","&#9761;","elianto","#3366ff99","-1","-1","1","+10","[]","0","0","2","","","","","","","",""
"pit-trial","53","560762","0.0-2.0-11.3-1.3","battery-v0.2","","""event"",""trial"",""time""
""fullscreenenter"",""1"",""1150""
","
","
","""event"",""trial"",""time""
""fullscreenenter"",""1"",""1150""
","
","","","-1","","","16","18242","6802","&#9761;","elianto","#3366ff99","-1","-1","1","+10","[]","0","0","2","","","","","","","",""
"pit-trial","54","565617","0.0-2.0-11.3-2.3","battery-v0.2","","""event"",""trial"",""time""
""fullscreenenter"",""1"",""1150""
","
","
","""event"",""trial"",""time""
""fullscreenenter"",""1"",""1150""
","
","","","-1","","","16","18242","6802","&#9761;","elianto","#3366ff99","-1","-1","1","+10","[]","0","0","2","","","","","","","",""
"pit-trial","55","570473","0.0-2.0-11.3-3.3","battery-v0.2","","""event"",""trial"",""time""
""fullscreenenter"",""1"",""1150""
","
","
","""event"",""trial"",""time""
""fullscreenenter"",""1"",""1150""
","
","","","-1","","","16","18242","6802","&#9761;","elianto","#3366ff99","-1","-1","1","0","[]","0","0","2","","","","","","","",""
"pit-trial","56","575329","0.0-2.0-11.3-4.3","battery-v0.2","","""event"",""trial"",""time""
""fullscreenenter"",""1"",""1150""
","
","
","""event"",""trial"",""time""
""fullscreenenter"",""1"",""1150""
","
","","","-1","","","16","18242","6802","&#9761;","elianto","#3366ff99","-1","-1","1","+10","[]","0","0","2","","","","","","","",""
"call-function","57","575331","0.0-2.0-12.0","battery-v0.2","","""event"",""trial"",""time""
""fullscreenenter"",""1"",""1150""
","
","
","""event"",""trial"",""time""
""fullscreenenter"",""1"",""1150""
","
","","","","","","","","","","","","","","","","","","","","","","","","","","",""
"pit-instructions","58","650985","0.0-2.0-13.0","battery-v0.2","","""event"",""trial"",""time""
""fullscreenenter"",""1"",""1150""
","
","
","""event"",""trial"",""time""
""fullscreenenter"",""1"",""1150""
","
","","[{""page_index"":0,""viewing_time"":10349.29999999702},{""page_index"":1,""viewing_time"":21032.59999999404},{""page_index"":2,""viewing_time"":12056.40000000596},{""page_index"":3,""viewing_time"":20191},{""page_index"":4,""viewing_time"":12023.79999999702}]","75653.59999999404","","","","","","","","","","","","","","","","","","","","","","","",""
"pit-trial","59","655839","0.0-2.0-14.0-0.0","battery-v0.2","","""event"",""trial"",""time""
""fullscreenenter"",""1"",""1150""
","
","
","""event"",""trial"",""time""
""fullscreenenter"",""1"",""1150""
","
","","","-1","","","16","18242","6802","&#9826;","elianto","#f73b6a7A","-1","-1","1","0","[]","0","0","3","","","","","","","",""
"pit-trial","60","660694","0.0-2.0-14.0-1.0","battery-v0.2","","""event"",""trial"",""time""
""fullscreenenter"",""1"",""1150""
","
","
","""event"",""trial"",""time""
""fullscreenenter"",""1"",""1150""
","
","","","-1","","","16","18242","6802","&#9826;","elianto","#f73b6a7A","-1","-1","1","0","[]","0","0","3","","","","","","","",""
"pit-trial","61","665548","0.0-2.0-14.0-2.0","battery-v0.2","","""event"",""trial"",""time""
""fullscreenenter"",""1"",""1150""
","
","
","""event"",""trial"",""time""
""fullscreenenter"",""1"",""1150""
","
","","","-1","","","16","18242","6802","&#9826;","elianto","#f73b6a7A","-1","-1","1","0","[]","0","0","3","","","","","","","",""
"pit-trial","62","670402","0.0-2.0-14.0-3.0","battery-v0.2","","""event"",""trial"",""time""
""fullscreenenter"",""1"",""1150""
","
","
","""event"",""trial"",""time""
""fullscreenenter"",""1"",""1150""
","
","","","-1","","","16","18242","6802","&#9826;","elianto","#f73b6a7A","-1","-1","1","-10","[]","0","0","3","","","","","","","",""
"pit-trial","63","675257","0.0-2.0-14.0-4.0","battery-v0.2","","""event"",""trial"",""time""
""fullscreenenter"",""1"",""1150""
","
","
","""event"",""trial"",""time""
""fullscreenenter"",""1"",""1150""
","
","","","-1","","","16","18242","6802","&#9826;","elianto","#f73b6a7A","-1","-1","1","0","[]","0","0","3","","","","","","","",""
"pit-trial","64","680112","0.0-2.0-14.1-0.1","battery-v0.2","","""event"",""trial"",""time""
""fullscreenenter"",""1"",""1150""
","
","
","""event"",""trial"",""time""
""fullscreenenter"",""1"",""1150""
","
","","","-1","","","16","18242","6802","&#9826;","elianto","#f73b6a7A","-1","-1","1","0","[]","0","0","3","","","","","","","",""
"pit-trial","65","684968","0.0-2.0-14.1-1.1","battery-v0.2","","""event"",""trial"",""time""
""fullscreenenter"",""1"",""1150""
","
","
","""event"",""trial"",""time""
""fullscreenenter"",""1"",""1150""
","
","","","-1","","","16","18242","6802","&#9826;","elianto","#f73b6a7A","-1","-1","1","0","[]","0","0","3","","","","","","","",""
"pit-trial","66","689824","0.0-2.0-14.1-2.1","battery-v0.2","","""event"",""trial"",""time""
""fullscreenenter"",""1"",""1150""
","
","
","""event"",""trial"",""time""
""fullscreenenter"",""1"",""1150""
","
","","","-1","","","16","18242","6802","&#9826;","elianto","#f73b6a7A","-1","-1","1","0","[]","0","0","3","","","","","","","",""
"pit-trial","67","694677","0.0-2.0-14.1-3.1","battery-v0.2","","""event"",""trial"",""time""
""fullscreenenter"",""1"",""1150""
","
","
","""event"",""trial"",""time""
""fullscreenenter"",""1"",""1150""
","
","","","-1","","","16","18242","6802","&#9826;","elianto","#f73b6a7A","-1","-1","1","-10","[]","0","0","3","","","","","","","",""
"pit-trial","68","699533","0.0-2.0-14.1-4.1","battery-v0.2","","""event"",""trial"",""time""
""fullscreenenter"",""1"",""1150""
","
","
","""event"",""trial"",""time""
""fullscreenenter"",""1"",""1150""
","
","","","-1","","","16","18242","6802","&#9826;","elianto","#f73b6a7A","-1","-1","1","0","[]","0","0","3","","","","","","","",""
"pit-trial","69","704388","0.0-2.0-14.2-0.2","battery-v0.2","","""event"",""trial"",""time""
""fullscreenenter"",""1"",""1150""
","
","
","""event"",""trial"",""time""
""fullscreenenter"",""1"",""1150""
","
","","","-1","","","16","18242","6802","&#9826;","elianto","#f73b6a7A","-1","-1","1","0","[]","0","0","3","","","","","","","",""
"pit-trial","70","709244","0.0-2.0-14.2-1.2","battery-v0.2","","""event"",""trial"",""time""
""fullscreenenter"",""1"",""1150""
","
","
","""event"",""trial"",""time""
""fullscreenenter"",""1"",""1150""
","
","","","-1","","","16","18242","6802","&#9826;","elianto","#f73b6a7A","-1","-1","1","0","[]","0","0","3","","","","","","","",""
"pit-trial","71","714099","0.0-2.0-14.2-2.2","battery-v0.2","","""event"",""trial"",""time""
""fullscreenenter"",""1"",""1150""
","
","
","""event"",""trial"",""time""
""fullscreenenter"",""1"",""1150""
","
","","","-1","","","16","18242","6802","&#9826;","elianto","#f73b6a7A","-1","-1","1","0","[]","0","0","3","","","","","","","",""
"pit-trial","72","718955","0.0-2.0-14.2-3.2","battery-v0.2","","""event"",""trial"",""time""
""fullscreenenter"",""1"",""1150""
","
","
","""event"",""trial"",""time""
""fullscreenenter"",""1"",""1150""
","
","","","-1","","","16","18242","6802","&#9826;","elianto","#f73b6a7A","-1","-1","1","-10","[]","0","0","3","","","","","","","",""
"pit-trial","73","723812","0.0-2.0-14.2-4.2","battery-v0.2","","""event"",""trial"",""time""
""fullscreenenter"",""1"",""1150""
","
","
","""event"",""trial"",""time""
""fullscreenenter"",""1"",""1150""
","
","","","-1","","","16","18242","6802","&#9826;","elianto","#f73b6a7A","-1","-1","1","0","[]","0","0","3","","","","","","","",""
"pit-trial","74","728669","0.0-2.0-14.3-0.3","battery-v0.2","","""event"",""trial"",""time""
""fullscreenenter"",""1"",""1150""
","
","
","""event"",""trial"",""time""
""fullscreenenter"",""1"",""1150""
","
","","","-1","","","16","18242","6802","&#9826;","elianto","#f73b6a7A","-1","-1","1","0","[]","0","0","3","","","","","","","",""
"pit-trial","75","733524","0.0-2.0-14.3-1.3","battery-v0.2","","""event"",""trial"",""time""
""fullscreenenter"",""1"",""1150""
","
","
","""event"",""trial"",""time""
""fullscreenenter"",""1"",""1150""
","
","","","-1","","","16","18242","6802","&#9826;","elianto","#f73b6a7A","-1","-1","1","0","[]","0","0","3","","","","","","","",""
"pit-trial","76","738379","0.0-2.0-14.3-2.3","battery-v0.2","","""event"",""trial"",""time""
""fullscreenenter"",""1"",""1150""
","
","
","""event"",""trial"",""time""
""fullscreenenter"",""1"",""1150""
","
","","","-1","","","16","18242","6802","&#9826;","elianto","#f73b6a7A","-1","-1","1","0","[]","0","0","3","","","","","","","",""
"pit-trial","77","743235","0.0-2.0-14.3-3.3","battery-v0.2","","""event"",""trial"",""time""
""fullscreenenter"",""1"",""1150""
","
","
","""event"",""trial"",""time""
""fullscreenenter"",""1"",""1150""
","
","","","-1","","","16","18242","6802","&#9826;","elianto","#f73b6a7A","-1","-1","1","-10","[]","0","0","3","","","","","","","",""
"pit-trial","78","748091","0.0-2.0-14.3-4.3","battery-v0.2","","""event"",""trial"",""time""
""fullscreenenter"",""1"",""1150""
","
","
","""event"",""trial"",""time""
""fullscreenenter"",""1"",""1150""
","
","","","-1","","","16","18242","6802","&#9826;","elianto","#f73b6a7A","-1","-1","1","0","[]","0","0","3","","","","","","","",""
"call-function","79","748096","0.0-2.0-15.0","battery-v0.2","","""event"",""trial"",""time""
""fullscreenenter"",""1"",""1150""
","
","
","""event"",""trial"",""time""
""fullscreenenter"",""1"",""1150""
","
","","","","","","","","","","","","","","","","","","","","","","","","","","",""
"pit-instructions","80","776105","0.0-2.0-16.0","battery-v0.2","","""event"",""trial"",""time""
""fullscreenenter"",""1"",""1150""
","
","
","""event"",""trial"",""time""
""fullscreenenter"",""1"",""1150""
","
","","[{""page_index"":0,""viewing_time"":6864.70000000298},{""page_index"":1,""viewing_time"":9711},{""page_index"":2,""viewing_time"":6304},{""page_index"":3,""viewing_time"":5127.600000008941}]","28007.70000000298","","","","","","","","","","","","","","","","","","","","","","","",""
"pit-trial","81","780959","0.0-2.0-17.0-0.0","battery-v0.2","","""event"",""trial"",""time""
""fullscreenenter"",""1"",""1150""
","
","
","""event"",""trial"",""time""
""fullscreenenter"",""1"",""1150""
","
","","","-1","","","16","18242","6802","&#9789;","elianto","#f73b6a7A"," ","-1","0","-10","[]","0","0","4","","","","","","","",""
"pit-trial","82","785814","0.0-2.0-17.0-1.0","battery-v0.2","","""event"",""trial"",""time""
""fullscreenenter"",""1"",""1150""
","
","
","""event"",""trial"",""time""
""fullscreenenter"",""1"",""1150""
","
","","","-1","","","16","18242","6802","&#9789;","elianto","#f73b6a7A"," ","-1","0","-10","[]","0","0","4","","","","","","","",""
"pit-trial","83","790668","0.0-2.0-17.0-2.0","battery-v0.2","","""event"",""trial"",""time""
""fullscreenenter"",""1"",""1150""
","
","
","""event"",""trial"",""time""
""fullscreenenter"",""1"",""1150""
","
","","","-1","","","16","18242","6802","&#9789;","elianto","#f73b6a7A"," ","-1","0","-10","[]","0","0","4","","","","","","","",""
"pit-trial","84","795521","0.0-2.0-17.0-3.0","battery-v0.2","","""event"",""trial"",""time""
""fullscreenenter"",""1"",""1150""
","
","
","""event"",""trial"",""time""
""fullscreenenter"",""1"",""1150""
","
","","","-1","","","16","18242","6802","&#9789;","elianto","#f73b6a7A"," ","-1","0","0","[]","0","0","4","","","","","","","",""
"pit-trial","85","800376","0.0-2.0-17.0-4.0","battery-v0.2","","""event"",""trial"",""time""
""fullscreenenter"",""1"",""1150""
","
","
","""event"",""trial"",""time""
""fullscreenenter"",""1"",""1150""
","
","","","-1","","","16","18242","6802","&#9789;","elianto","#f73b6a7A"," ","-1","0","-10","[]","0","0","4","","","","","","","",""
"pit-trial","86","805232","0.0-2.0-17.1-0.1","battery-v0.2","","""event"",""trial"",""time""
""fullscreenenter"",""1"",""1150""
","
","
","""event"",""trial"",""time""
""fullscreenenter"",""1"",""1150""
","
","","","-1","","","16","18242","6802","&#9789;","elianto","#f73b6a7A"," ","-1","0","-10","[]","0","0","4","","","","","","","",""
"pit-trial","87","810086","0.0-2.0-17.1-1.1","battery-v0.2","","""event"",""trial"",""time""
""fullscreenenter"",""1"",""1150""
","
","
","""event"",""trial"",""time""
""fullscreenenter"",""1"",""1150""
","
","","","-1","","","16","18242","6802","&#9789;","elianto","#f73b6a7A"," ","-1","0","-10","[]","0","0","4","","","","","","","",""
"pit-trial","88","814941","0.0-2.0-17.1-2.1","battery-v0.2","","""event"",""trial"",""time""
""fullscreenenter"",""1"",""1150""
","
","
","""event"",""trial"",""time""
""fullscreenenter"",""1"",""1150""
","
","","","-1","","","16","18242","6802","&#9789;","elianto","#f73b6a7A"," ","-1","0","-10","[]","0","0","4","","","","","","","",""
"pit-trial","89","819797","0.0-2.0-17.1-3.1","battery-v0.2","","""event"",""trial"",""time""
""fullscreenenter"",""1"",""1150""
","
","
","""event"",""trial"",""time""
""fullscreenenter"",""1"",""1150""
","
","","","-1","","","16","18242","6802","&#9789;","elianto","#f73b6a7A"," ","-1","0","0","[]","0","0","4","","","","","","","",""
"pit-trial","90","824653","0.0-2.0-17.1-4.1","battery-v0.2","","""event"",""trial"",""time""
""fullscreenenter"",""1"",""1150""
","
","
","""event"",""trial"",""time""
""fullscreenenter"",""1"",""1150""
","
","","","-1","","","16","18242","6802","&#9789;","elianto","#f73b6a7A"," ","-1","0","-10","[]","0","0","4","","","","","","","",""
"pit-trial","91","829508","0.0-2.0-17.2-0.2","battery-v0.2","","""event"",""trial"",""time""
""fullscreenenter"",""1"",""1150""
","
","
","""event"",""trial"",""time""
""fullscreenenter"",""1"",""1150""
","
","","","-1","","","16","18242","6802","&#9789;","elianto","#f73b6a7A"," ","-1","0","-10","[]","0","0","4","","","","","","","",""
"pit-trial","92","834364","0.0-2.0-17.2-1.2","battery-v0.2","","""event"",""trial"",""time""
""fullscreenenter"",""1"",""1150""
","
","
","""event"",""trial"",""time""
""fullscreenenter"",""1"",""1150""
","
","","","-1","","","16","18242","6802","&#9789;","elianto","#f73b6a7A"," ","-1","0","-10","[]","0","0","4","","","","","","","",""
"pit-trial","93","839218","0.0-2.0-17.2-2.2","battery-v0.2","","""event"",""trial"",""time""
""fullscreenenter"",""1"",""1150""
","
","
","""event"",""trial"",""time""
""fullscreenenter"",""1"",""1150""
","
","","","-1","","","16","18242","6802","&#9789;","elianto","#f73b6a7A"," ","-1","0","-10","[]","0","0","4","","","","","","","",""
"pit-trial","94","844075","0.0-2.0-17.2-3.2","battery-v0.2","","""event"",""trial"",""time""
""fullscreenenter"",""1"",""1150""
","
","
","""event"",""trial"",""time""
""fullscreenenter"",""1"",""1150""
","
","","","-1","","","16","18242","6802","&#9789;","elianto","#f73b6a7A"," ","-1","0","0","[]","0","0","4","","","","","","","",""
"pit-trial","95","848930","0.0-2.0-17.2-4.2","battery-v0.2","","""event"",""trial"",""time""
""fullscreenenter"",""1"",""1150""
","
","
","""event"",""trial"",""time""
""fullscreenenter"",""1"",""1150""
","
","","","-1","","","16","18242","6802","&#9789;","elianto","#f73b6a7A"," ","-1","0","-10","[]","0","0","4","","","","","","","",""
"pit-trial","96","853784","0.0-2.0-17.3-0.3","battery-v0.2","","""event"",""trial"",""time""
""fullscreenenter"",""1"",""1150""
","
","
","""event"",""trial"",""time""
""fullscreenenter"",""1"",""1150""
","
","","","-1","","","16","18242","6802","&#9789;","elianto","#f73b6a7A"," ","-1","0","-10","[]","0","0","4","","","","","","","",""
"pit-trial","97","858638","0.0-2.0-17.3-1.3","battery-v0.2","","""event"",""trial"",""time""
""fullscreenenter"",""1"",""1150""
","
","
","""event"",""trial"",""time""
""fullscreenenter"",""1"",""1150""
","
","","","-1","","","16","18242","6802","&#9789;","elianto","#f73b6a7A"," ","-1","0","-10","[]","0","0","4","","","","","","","",""
"pit-trial","98","863495","0.0-2.0-17.3-2.3","battery-v0.2","","""event"",""trial"",""time""
""fullscreenenter"",""1"",""1150""
","
","
","""event"",""trial"",""time""
""fullscreenenter"",""1"",""1150""
","
","","","-1","","","16","18242","6802","&#9789;","elianto","#f73b6a7A"," ","-1","0","-10","[]","0","0","4","","","","","","","",""
"pit-trial","99","868351","0.0-2.0-17.3-3.3","battery-v0.2","","""event"",""trial"",""time""
""fullscreenenter"",""1"",""1150""
","
","
","""event"",""trial"",""time""
""fullscreenenter"",""1"",""1150""
","
","","","-1","","","16","18242","6802","&#9789;","elianto","#f73b6a7A"," ","-1","0","0","[]","0","0","4","","","","","","","",""
"pit-trial","100","873207","0.0-2.0-17.3-4.3","battery-v0.2","","""event"",""trial"",""time""
""fullscreenenter"",""1"",""1150""
","
","
","""event"",""trial"",""time""
""fullscreenenter"",""1"",""1150""
","
","","","-1","","","16","18242","6802","&#9789;","elianto","#f73b6a7A"," ","-1","0","-10","[]","0","0","4","","","","","","","",""
"call-function","101","873209","0.0-2.0-18.0","battery-v0.2","","""event"",""trial"",""time""
""fullscreenenter"",""1"",""1150""
","
","
","""event"",""trial"",""time""
""fullscreenenter"",""1"",""1150""
","
","","","","","","","","","","","","","","","","","","","","","","","","","","",""
"pit-instructions","102","986865","0.0-2.0-19.0","battery-v0.2","","""event"",""trial"",""time""
""fullscreenenter"",""1"",""1150""
","
","
","""event"",""trial"",""time""
""fullscreenenter"",""1"",""1150""
","
","","[{""page_index"":0,""viewing_time"":11343.5},{""page_index"":1,""viewing_time"":15199.60000000894},{""page_index"":2,""viewing_time"":17383.59999999404},{""page_index"":3,""viewing_time"":14664.40000000596},{""page_index"":4,""viewing_time"":11520},{""page_index"":5,""viewing_time"":12239.89999999106},{""page_index"":6,""viewing_time"":11088.10000000894},{""page_index"":7,""viewing_time"":13856},{""page_index"":8,""viewing_time"":6359.699999988079}]","113655.29999999702","","","","","","","","","","","","","","","","","","","","","","","",""
"pit-comprehension","103","991307","0.0-2.0-20.0-0.0","battery-v0.2","","""event"",""trial"",""time""
""fullscreenenter"",""1"",""1150""
","
","
","""event"",""trial"",""time""
""fullscreenenter"",""1"",""1150""
","
","","","4436","[""SPACE""]","0","16","18242","6802","","","","","","","","","","","","","","","","","","",""
"pit-instructions","104","998353","0.0-2.0-20.0-1.0","battery-v0.2","","""event"",""trial"",""time""
""fullscreenenter"",""1"",""1150""
","
","
","""event"",""trial"",""time""
""fullscreenenter"",""1"",""1150""
","
","","[{""page_index"":0,""viewing_time"":7010.600000008941}]","7011","","","","","","","","","","","","","","","","","","","","","","","",""
"pit-comprehension","105","1003317","0.0-2.0-21.0-0.0","battery-v0.2","","""event"",""trial"",""time""
""fullscreenenter"",""1"",""1150""
","
","
","""event"",""trial"",""time""
""fullscreenenter"",""1"",""1150""
","
","","","4957.100000008941","[""10""]","0","16","18242","6802","","","","","","","","","","","","","","","","","","",""
"pit-instructions","106","1005425","0.0-2.0-21.0-1.0","battery-v0.2","","""event"",""trial"",""time""
""fullscreenenter"",""1"",""1150""
","
","
","""event"",""trial"",""time""
""fullscreenenter"",""1"",""1150""
","
","","[{""page_index"":0,""viewing_time"":2070.3999999910593}]","2070.699999988079","","","","","","","","","","","","","","","","","","","","","","","",""
"pit-comprehension","107","1013411","0.0-2.0-22.0-0.0","battery-v0.2","","""event"",""trial"",""time""
""fullscreenenter"",""1"",""1150""
","
","
","""event"",""trial"",""time""
""fullscreenenter"",""1"",""1150""
","
","","","7981.0999999940395","[""0""]","0","16","18242","6802","","","","","","","","","","","","","","","","","","",""
"pit-instructions","108","1015249","0.0-2.0-22.0-1.0","battery-v0.2","","""event"",""trial"",""time""
""fullscreenenter"",""1"",""1150""
","
","
","""event"",""trial"",""time""
""fullscreenenter"",""1"",""1150""
","
","","[{""page_index"":0,""viewing_time"":1796.5999999940395}]","1796.7999999970198","","","","","","","","","","","","","","","","","","","","","","","",""
"pit-comprehension","109","1023762","0.0-2.0-23.0-0.0","battery-v0.2","","""event"",""trial"",""time""
""fullscreenenter"",""1"",""1150""
","
","
","""event"",""trial"",""time""
""fullscreenenter"",""1"",""1150""
","
","","","8508.5","[""True""]","0","16","18242","6802","","","","","","","","","","","","","","","","","","",""
"pit-instructions","110","1025529","0.0-2.0-23.0-1.0","battery-v0.2","","""event"",""trial"",""time""
""fullscreenenter"",""1"",""1150""
","
","
","""event"",""trial"",""time""
""fullscreenenter"",""1"",""1150""
","
","","[{""page_index"":0,""viewing_time"":1729.5}]","1729.9000000059605","","","","","","","","","","","","","","","","","","","","","","","",""
"pit-comprehension","111","1033242","0.0-2.0-24.0-0.0","battery-v0.2","","""event"",""trial"",""time""
""fullscreenenter"",""1"",""1150""
","
","
","""event"",""trial"",""time""
""fullscreenenter"",""1"",""1150""
","
","","","7708.100000008941","[""True""]","0","16","18242","6802","","","","","","","","","","","","","","","","","","",""
"pit-instructions","112","1038242","0.0-2.0-24.0-1.0","battery-v0.2","","""event"",""trial"",""time""
""fullscreenenter"",""1"",""1150""
","
","
","""event"",""trial"",""time""
""fullscreenenter"",""1"",""1150""
","
","","[{""page_index"":0,""viewing_time"":4956.300000011921}]","4956.70000000298","","","","","","","","","","","","","","","","","","","","","","","",""
"pit-comprehension","113","1044810","0.0-2.0-25.0-0.0","battery-v0.2","","""event"",""trial"",""time""
""fullscreenenter"",""1"",""1150""
","
","
","""event"",""trial"",""time""
""fullscreenenter"",""1"",""1150""
","
","","","6562.9000000059605","[""True""]","0","16","18242","6802","","","","","","","","","","","","","","","","","","",""
"pit-instructions","114","1049777","0.0-2.0-25.0-1.0","battery-v0.2","","""event"",""trial"",""time""
""fullscreenenter"",""1"",""1150""
","
","
","""event"",""trial"",""time""
""fullscreenenter"",""1"",""1150""
","
","","[{""page_index"":0,""viewing_time"":4927.899999991059}]","4928.29999999702","","","","","","","","","","","","","","","","","","","","","","","",""
"pit-comprehension","115","1054658","0.0-2.0-26.0-0.0","battery-v0.2","","""event"",""trial"",""time""
""fullscreenenter"",""1"",""1150""
","
","
","""event"",""trial"",""time""
""fullscreenenter"",""1"",""1150""
","
","","","4876.600000008941","[""False""]","0","16","18242","6802","","","","","","","","","","","","","","","","","","",""
"pit-instructions","116","1060322","0.0-2.0-26.0-1.0","battery-v0.2","","""event"",""trial"",""time""
""fullscreenenter"",""1"",""1150""
","
","
","""event"",""trial"",""time""
""fullscreenenter"",""1"",""1150""
","
","","[{""page_index"":0,""viewing_time"":5618.5}]","5618.9000000059605","","","","","","","","","","","","","","","","","","","","","","","",""
"pit-instructions","117","1077273","0.0-3.0","battery-v0.2","","""event"",""trial"",""time""
""fullscreenenter"",""1"",""1150""
","
","
","""event"",""trial"",""time""
""fullscreenenter"",""1"",""1150""
","
","","[{""page_index"":0,""viewing_time"":4132.70000000298},{""page_index"":1,""viewing_time"":5167.0999999940395},{""page_index"":2,""viewing_time"":7648.4000000059605}]","16948.5","","","","","","","","","","","","","","","","","","","","","","","",""
"pit-trial","118","1082130","0.0-4.0","battery-v0.2","","""event"",""trial"",""time""
""fullscreenenter"",""1"",""1150""
","
","
","""event"",""trial"",""time""
""fullscreenenter"",""1"",""1150""
","
","","","-1","","","16","18242","6802","&#9728;","elianto","#f73b6a7A","-1","-1","1","0","[3834]","1","1","","","18242","1","0","4","lose","no-go","0"
"pit-trial","119","1085404","0.0-5.0","battery-v0.2","","""event"",""trial"",""time""
""fullscreenenter"",""1"",""1150""
","
","
","""event"",""trial"",""time""
""fullscreenenter"",""1"",""1150""
","
","","","420.70000000298023","","","16","18242","6802","&#9730;","elianto","#3366ff99"," "," ","1","+10","[1271.199999988079]","1","1","","","18242","2","1","1","win","go","0"
"pit-trial","120","1089626","0.0-6.0","battery-v0.2","","""event"",""trial"",""time""
""fullscreenenter"",""1"",""1150""
","
","
","""event"",""trial"",""time""
""fullscreenenter"",""1"",""1150""
","
","","","1367.9000000059605","","","16","18242","6802","&#9733;","elianto","#3366ff99","-1"," ","0","0","[2218.4000000059605]","1","1","","","18242","3","2","2","win","no-go","0"
"pit-trial","121","1092695","0.0-7.0","battery-v0.2","","""event"",""trial"",""time""
""fullscreenenter"",""1"",""1150""
","
","
","""event"",""trial"",""time""
""fullscreenenter"",""1"",""1150""
","
","","","215.79999999701977","","","16","18242","6802","&#9752;","elianto","#f73b6a7A"," "," ","1","-10","[438.70000000298023,1066.0999999940395]","2","1","","","18242","4","3","3","lose","go","1"
"pit-trial","122","1097548","0.0-8.0","battery-v0.2","","""event"",""trial"",""time""
""fullscreenenter"",""1"",""1150""
","
","
","""event"",""trial"",""time""
""fullscreenenter"",""1"",""1150""
","
","","","-1","","","16","18242","6802","&#9733;","elianto","#3366ff99","-1","-1","1","+10","[2871.6000000089407]","1","1","","","18242","5","2","2","win","no-go","0"
"pit-trial","123","1101574","0.0-9.0","battery-v0.2","","""event"",""trial"",""time""
""fullscreenenter"",""1"",""1150""
","
","
","""event"",""trial"",""time""
""fullscreenenter"",""1"",""1150""
","
","","","1170.7999999970198","","","16","18242","6802","&#9728;","elianto","#f73b6a7A","-1"," ","0","-10","[2021.7999999970198]","1","1","","","18242","6","0","4","lose","no-go","0"
"pit-trial","124","1106255","0.0-10.0","battery-v0.2","","""event"",""trial"",""time""
""fullscreenenter"",""1"",""1150""
","
","
","""event"",""trial"",""time""
""fullscreenenter"",""1"",""1150""
","
","","","1826.9000000059605","","","16","18242","6802","&#9752;","elianto","#f73b6a7A"," "," ","1","0","[2677.7999999970198]","1","1","","","18242","7","3","3","lose","go","0"
"pit-trial","125","1109336","0.0-11.0","battery-v0.2","","""event"",""trial"",""time""
""fullscreenenter"",""1"",""1150""
","
","
","""event"",""trial"",""time""
""fullscreenenter"",""1"",""1150""
","
","","","227.5","","","16","18242","6802","&#9730;","elianto","#3366ff99"," "," ","1","+10","[1077.5999999940395]","1","1","","","18242","8","1","1","win","go","0"
"pit-trial","126","1112968","0.0-12.0","battery-v0.2","","""event"",""trial"",""time""
""fullscreenenter"",""1"",""1150""
","
","
","""event"",""trial"",""time""
""fullscreenenter"",""1"",""1150""
","
","","","777.9000000059605","","","16","18242","6802","&#9733;","elianto","#3366ff99","-1"," ","0","+10","[99.5,1628.300000011921]","2","1","","","18242","9","2","2","win","no-go","1"
"pit-trial","127","1116099","0.0-13.0","battery-v0.2","","""event"",""trial"",""time""
""fullscreenenter"",""1"",""1150""
","
","
","""event"",""trial"",""time""
""fullscreenenter"",""1"",""1150""
","
","","","274.70000000298023","","","16","18242","6802","&#9730;","elianto","#3366ff99"," "," ","1","0","[1125.2000000029802]","1","1","","","18242","10","1","1","win","go","1"
"pit-trial","128","1119332","0.0-14.0","battery-v0.2","","""event"",""trial"",""time""
""fullscreenenter"",""1"",""1150""
","
","
","""event"",""trial"",""time""
""fullscreenenter"",""1"",""1150""
","
","","","379.40000000596046","","","16","18242","6802","&#9752;","elianto","#f73b6a7A"," "," ","1","0","[1230]","1","1","","","18242","11","3","3","lose","go","0"
"pit-trial","129","1123703","0.0-15.0","battery-v0.2","","""event"",""trial"",""time""
""fullscreenenter"",""1"",""1150""
","
","
","""event"",""trial"",""time""
""fullscreenenter"",""1"",""1150""
","
","","","1514.800000011921","","","16","18242","6802","&#9728;","elianto","#f73b6a7A","-1"," ","0","-10","[2365.7000000029802]","1","1","","","18242","12","0","4","lose","no-go","0"
"pit-trial","130","1126934","0.0-16.0","battery-v0.2","","""event"",""trial"",""time""
""fullscreenenter"",""1"",""1150""
","
","
","""event"",""trial"",""time""
""fullscreenenter"",""1"",""1150""
","
","","","374.59999999403954","","","16","18242","6802","&#9730;","elianto","#3366ff99"," "," ","1","+10","[1226.1000000089407]","1","1","","","18242","13","1","1","win","go","0"
"pit-trial","131","1130063","0.0-17.0","battery-v0.2","","""event"",""trial"",""time""
""fullscreenenter"",""1"",""1150""
","
","
","""event"",""trial"",""time""
""fullscreenenter"",""1"",""1150""
","
","","","273.59999999403954","","","16","18242","6802","&#9733;","elianto","#3366ff99","-1"," ","0","0","[1125.2999999970198]","1","1","","","18242","14","2","2","win","no-go","0"
"pit-trial","132","1134919","0.0-18.0","battery-v0.2","","""event"",""trial"",""time""
""fullscreenenter"",""1"",""1150""
","
","
","""event"",""trial"",""time""
""fullscreenenter"",""1"",""1150""
","
","","","-1","","","16","18242","6802","&#9728;","elianto","#f73b6a7A","-1","-1","1","-10","[3353.699999988079]","1","1","","","18242","15","0","4","lose","no-go","1"
"pit-trial","133","1138540","0.0-19.0","battery-v0.2","","""event"",""trial"",""time""
""fullscreenenter"",""1"",""1150""
","
","
","""event"",""trial"",""time""
""fullscreenenter"",""1"",""1150""
","
","","","764.7999999970198","","","16","18242","6802","&#9752;","elianto","#f73b6a7A"," "," ","1","0","[1615.699999988079]","1","1","","","18242","16","3","3","lose","go","0"
"pit-trial","134","1143396","0.0-20.0","battery-v0.2","","""event"",""trial"",""time""
""fullscreenenter"",""1"",""1150""
","
","
","""event"",""trial"",""time""
""fullscreenenter"",""1"",""1150""
","
","","","-1","","","16","18242","6802","&#9730;","elianto","#3366ff99"," ","-1","0","0","[]","0","1","","","18242","17","1","1","win","go","0"
"pit-trial","135","1146311","0.0-21.0","battery-v0.2","","""event"",""trial"",""time""
""fullscreenenter"",""1"",""1150""
","
","
","""event"",""trial"",""time""
""fullscreenenter"",""1"",""1150""
","
","","","59","","","16","18242","6802","&#9728;","elianto","#f73b6a7A","-1"," ","0","-10","[909.7000000029802]","1","1","","","18242","18","0","4","lose","no-go","0"
"pit-trial","136","1149499","0.0-22.0","battery-v0.2","","""event"",""trial"",""time""
""fullscreenenter"",""1"",""1150""
","
","
","""event"",""trial"",""time""
""fullscreenenter"",""1"",""1150""
","
","","","334.70000000298023","","","16","18242","6802","&#9752;","elianto","#f73b6a7A"," "," ","1","0","[1185.2999999970198]","1","1","","","18242","19","3","3","lose","go","0"
"pit-trial","137","1154354","0.0-23.0","battery-v0.2","","""event"",""trial"",""time""
""fullscreenenter"",""1"",""1150""
","
","
","""event"",""trial"",""time""
""fullscreenenter"",""1"",""1150""
","
","","","-1","","","16","18242","6802","&#9733;","elianto","#3366ff99","-1","-1","1","+10","[]","0","1","","","18242","20","2","2","win","no-go","0"
"pit-instructions","138","1166705","0.0-24.0","battery-v0.2","","""event"",""trial"",""time""
""fullscreenenter"",""1"",""1150""
","
","
","""event"",""trial"",""time""
""fullscreenenter"",""1"",""1150""
","
","","[{""page_index"":0,""viewing_time"":5658.5},{""page_index"":1,""viewing_time"":6688.70000000298}]","12347.70000000298","","","","","","","","","","","","","","","","","","","","","","","",""
"pit-trial","139","1170835","0.0-25.0","battery-v0.2","","""event"",""trial"",""time""
""fullscreenenter"",""1"",""1150""
","
","
","""event"",""trial"",""time""
""fullscreenenter"",""1"",""1150""
","
","","","1275","","","16","18242","6802","u","elianto","#f73b6a7A"," "," ","1","0","[2125.4000000059605]","1","2","","","18242","21","0","3","lose","go","0"
"pit-trial","140","1174822","0.0-26.0","battery-v0.2","","""event"",""trial"",""time""
""fullscreenenter"",""1"",""1150""
","
","
","""event"",""trial"",""time""
""fullscreenenter"",""1"",""1150""
","
","","","1134.2000000029802","","","16","18242","6802","g","elianto","#f73b6a7A","-1"," ","0","-10","[1984.5]","1","2","","","18242","22","3","4","lose","no-go","0"
"pit-trial","141","1179326","0.0-27.0","battery-v0.2","","""event"",""trial"",""time""
""fullscreenenter"",""1"",""1150""
","
","
","""event"",""trial"",""time""
""fullscreenenter"",""1"",""1150""
","
","","","1649.2000000029802","","","16","18242","6802","a","elianto","#f73b6a7A"," "," ","1","0","[2500.0999999940395]","1","2","","","18242","23","2","3","lose","go","0"
"pit-trial","142","1182825","0.0-28.0","battery-v0.2","","""event"",""trial"",""time""
""fullscreenenter"",""1"",""1150""
","
","
","""event"",""trial"",""time""
""fullscreenenter"",""1"",""1150""
","
","","","646.4000000059605","","","16","18242","6802","l","elianto","#3366ff99","-1"," ","0","+10","[1496.7999999970198]","1","2","","","18242","24","1","2","win","no-go","1"
"pit-trial","143","1186525","0.0-29.0","battery-v0.2","","""event"",""trial"",""time""
""fullscreenenter"",""1"",""1150""
","
","
","""event"",""trial"",""time""
""fullscreenenter"",""1"",""1150""
","
","","","846.0999999940395","","","16","18242","6802","g","elianto","#f73b6a7A","-1"," ","0","-10","[1696.5]","1","2","","","18242","25","3","4","lose","no-go","0"
"pit-trial","144","1190025","0.0-30.0","battery-v0.2","","""event"",""trial"",""time""
""fullscreenenter"",""1"",""1150""
","
","
","""event"",""trial"",""time""
""fullscreenenter"",""1"",""1150""
","
","","","645.3999999910593","","","16","18242","6802","l","elianto","#3366ff99","-1"," ","0","0","[1496.0999999940395]","1","2","","","18242","26","1","2","win","no-go","0"
"pit-trial","145","1194765","0.0-31.0","battery-v0.2","","""event"",""trial"",""time""
""fullscreenenter"",""1"",""1150""
","
","
","""event"",""trial"",""time""
""fullscreenenter"",""1"",""1150""
","
","","","1887.5999999940395","","","16","18242","6802","a","elianto","#f73b6a7A"," "," ","1","0","[2737.7999999970198]","1","2","","","18242","27","2","3","lose","go","0"
"pit-trial","146","1199139","0.0-32.0","battery-v0.2","","""event"",""trial"",""time""
""fullscreenenter"",""1"",""1150""
","
","
","""event"",""trial"",""time""
""fullscreenenter"",""1"",""1150""
","
","","","1519.7999999970198","","","16","18242","6802","u","elianto","#f73b6a7A"," "," ","1","0","[2370.199999988079]","1","2","","","18242","28","0","3","lose","go","0"
"pit-trial","147","1202719","0.0-33.0","battery-v0.2","","""event"",""trial"",""time""
""fullscreenenter"",""1"",""1150""
","
","
","""event"",""trial"",""time""
""fullscreenenter"",""1"",""1150""
","
","","","725.8000000119209","","","16","18242","6802","l","elianto","#3366ff99","-1"," ","0","0","[1576.9000000059605]","1","2","","","18242","29","1","2","win","no-go","0"
"pit-trial","148","1207573","0.0-34.0","battery-v0.2","","""event"",""trial"",""time""
""fullscreenenter"",""1"",""1150""
","
","
","""event"",""trial"",""time""
""fullscreenenter"",""1"",""1150""
","
","","","-1","","","16","18242","6802","a","elianto","#f73b6a7A"," ","-1","0","-10","[]","0","2","","","18242","30","2","3","lose","go","0"
"pit-trial","149","1211747","0.0-35.0","battery-v0.2","","""event"",""trial"",""time""
""fullscreenenter"",""1"",""1150""
","
","
","""event"",""trial"",""time""
""fullscreenenter"",""1"",""1150""
","
","","","1319.7999999970198","","","16","18242","6802","u","elianto","#f73b6a7A"," "," ","1","0","[2169.9000000059605]","1","2","","","18242","31","0","3","lose","go","0"
"pit-trial","150","1216603","0.0-36.0","battery-v0.2","","""event"",""trial"",""time""
""fullscreenenter"",""1"",""1150""
","
","
","""event"",""trial"",""time""
""fullscreenenter"",""1"",""1150""
","
","","","-1","","","16","18242","6802","g","elianto","#f73b6a7A","-1","-1","1","0","[3717.2999999970198]","1","2","","","18242","32","3","4","lose","no-go","0"
"pit-trial","151","1220978","0.0-37.0","battery-v0.2","","""event"",""trial"",""time""
""fullscreenenter"",""1"",""1150""
","
","
","""event"",""trial"",""time""
""fullscreenenter"",""1"",""1150""
","
","","","1520.800000011921","","","16","18242","6802","g","elianto","#f73b6a7A","-1"," ","0","-10","[2371.2999999970198]","1","2","","","18242","33","3","4","lose","no-go","0"
"pit-trial","152","1225835","0.0-38.0","battery-v0.2","","""event"",""trial"",""time""
""fullscreenenter"",""1"",""1150""
","
","
","""event"",""trial"",""time""
""fullscreenenter"",""1"",""1150""
","
","","","-1","","","16","18242","6802","a","elianto","#f73b6a7A"," ","-1","0","-10","[3062.1000000089407]","1","2","","","18242","34","2","3","lose","go","0"
"pit-trial","153","1230691","0.0-39.0","battery-v0.2","","""event"",""trial"",""time""
""fullscreenenter"",""1"",""1150""
","
","
","""event"",""trial"",""time""
""fullscreenenter"",""1"",""1150""
","
","","","-1","","","16","18242","6802","u","elianto","#f73b6a7A"," ","-1","0","-10","[]","0","2","","","18242","35","0","3","lose","go","0"
"pit-trial","154","1235328","0.0-40.0","battery-v0.2","","""event"",""trial"",""time""
""fullscreenenter"",""1"",""1150""
","
","
","""event"",""trial"",""time""
""fullscreenenter"",""1"",""1150""
","
","","","1781","","","16","18242","6802","l","elianto","#3366ff99","-1"," ","0","+10","[834.7999999970198,2632.3999999910593]","2","2","","","18242","36","1","2","win","no-go","1"
"pit-trial","155","1240185","0.0-41.0","battery-v0.2","","""event"",""trial"",""time""
""fullscreenenter"",""1"",""1150""
","
","
","""event"",""trial"",""time""
""fullscreenenter"",""1"",""1150""
","
","","","-1","","","16","18242","6802","g","elianto","#f73b6a7A","-1","-1","1","0","[3344.7999999970198]","1","2","","","18242","37","3","4","lose","no-go","0"
"pit-trial","156","1243898","0.0-42.0","battery-v0.2","","""event"",""trial"",""time""
""fullscreenenter"",""1"",""1150""
","
","
","""event"",""trial"",""time""
""fullscreenenter"",""1"",""1150""
","
","","","856.5999999940395","","","16","18242","6802","l","elianto","#3366ff99","-1"," ","0","0","[1707.7000000029802]","1","2","","","18242","38","1","2","win","no-go","0"
"pit-trial","157","1248754","0.0-43.0","battery-v0.2","","""event"",""trial"",""time""
""fullscreenenter"",""1"",""1150""
","
","
","""event"",""trial"",""time""
""fullscreenenter"",""1"",""1150""
","
","","","-1","","","16","18242","6802","u","elianto","#f73b6a7A"," ","-1","0","-10","[]","0","2","","","18242","39","0","3","lose","go","0"
"pit-trial","158","1253610","0.0-44.0","battery-v0.2","","""event"",""trial"",""time""
""fullscreenenter"",""1"",""1150""
","
","
","""event"",""trial"",""time""
""fullscreenenter"",""1"",""1150""
","
","","","-1","","","16","18242","6802","a","elianto","#f73b6a7A"," ","-1","0","-10","[]","0","2","","","18242","40","2","3","lose","go","0"
"pit-trial","159","1258466","0.0-45.0","battery-v0.2","","""event"",""trial"",""time""
""fullscreenenter"",""1"",""1150""
","
","
","""event"",""trial"",""time""
""fullscreenenter"",""1"",""1150""
","
","","","-1","","","16","18242","6802","g","elianto","#f73b6a7A","-1","-1","1","-10","[]","0","2","","","18242","41","3","4","lose","no-go","1"
"pit-trial","160","1263322","0.0-46.0","battery-v0.2","","""event"",""trial"",""time""
""fullscreenenter"",""1"",""1150""
","
","
","""event"",""trial"",""time""
""fullscreenenter"",""1"",""1150""
","
","","","-1","","","16","18242","6802","a","elianto","#f73b6a7A"," ","-1","0","0","[3250.2000000029802]","1","2","","","18242","42","2","3","lose","go","1"
"pit-trial","161","1268177","0.0-47.0","battery-v0.2","","""event"",""trial"",""time""
""fullscreenenter"",""1"",""1150""
","
","
","""event"",""trial"",""time""
""fullscreenenter"",""1"",""1150""
","
","","","-1","","","16","18242","6802","u","elianto","#f73b6a7A"," ","-1","0","-10","[]","0","2","","","18242","43","0","3","lose","go","0"
"pit-trial","162","1273033","0.0-48.0","battery-v0.2","","""event"",""trial"",""time""
""fullscreenenter"",""1"",""1150""
","
","
","""event"",""trial"",""time""
""fullscreenenter"",""1"",""1150""
","
","","","-1","","","16","18242","6802","l","elianto","#3366ff99","-1","-1","1","+10","[3343.4000000059605]","1","2","","","18242","44","1","2","win","no-go","0"
"pit-trial","163","1277889","0.0-49.0","battery-v0.2","","""event"",""trial"",""time""
""fullscreenenter"",""1"",""1150""
","
","
","""event"",""trial"",""time""
""fullscreenenter"",""1"",""1150""
","
","","","-1","","","16","18242","6802","u","elianto","#f73b6a7A"," ","-1","0","-10","[]","0","2","","","18242","45","0","3","lose","go","0"
"pit-trial","164","1282449","0.0-50.0","battery-v0.2","","""event"",""trial"",""time""
""fullscreenenter"",""1"",""1150""
","
","
","""event"",""trial"",""time""
""fullscreenenter"",""1"",""1150""
","
","","","1705","","","16","18242","6802","l","elianto","#3366ff99","-1"," ","0","0","[2555.2999999970198]","1","2","","","18242","46","1","2","win","no-go","0"
"pit-trial","165","1287306","0.0-51.0","battery-v0.2","","""event"",""trial"",""time""
""fullscreenenter"",""1"",""1150""
","
","
","""event"",""trial"",""time""
""fullscreenenter"",""1"",""1150""
","
","","","-1","","","16","18242","6802","g","elianto","#f73b6a7A","-1","-1","1","0","[3481.7000000029802]","1","2","","","18242","47","3","4","lose","no-go","0"
"pit-trial","166","1292162","0.0-52.0","battery-v0.2","","""event"",""trial"",""time""
""fullscreenenter"",""1"",""1150""
","
","
","""event"",""trial"",""time""
""fullscreenenter"",""1"",""1150""
","
","","","-1","","","16","18242","6802","a","elianto","#f73b6a7A"," ","-1","0","-10","[]","0","2","","","18242","48","2","3","lose","go","0"
"pit-trial","167","1297019","0.0-53.0","battery-v0.2","","""event"",""trial"",""time""
""fullscreenenter"",""1"",""1150""
","
","
","""event"",""trial"",""time""
""fullscreenenter"",""1"",""1150""
","
","","","-1","","","16","18242","6802","u","elianto","#f73b6a7A"," ","-1","0","-10","[2935]","1","2","","","18242","49","0","3","lose","go","0"
"pit-trial","168","1300654","0.0-54.0","battery-v0.2","","""event"",""trial"",""time""
""fullscreenenter"",""1"",""1150""
","
","
","""event"",""trial"",""time""
""fullscreenenter"",""1"",""1150""
","
","","","779.5999999940395","","","16","18242","6802","l","elianto","#3366ff99","-1"," ","0","+10","[1630.5]","1","2","","","18242","50","1","2","win","no-go","1"
"pit-trial","169","1305510","0.0-55.0","battery-v0.2","","""event"",""trial"",""time""
""fullscreenenter"",""1"",""1150""
","
","
","""event"",""trial"",""time""
""fullscreenenter"",""1"",""1150""
","
","","","-1","","","16","18242","6802","g","elianto","#f73b6a7A","-1","-1","1","-10","[]","0","2","","","18242","51","3","4","lose","no-go","1"
"pit-trial","170","1310365","0.0-56.0","battery-v0.2","","""event"",""trial"",""time""
""fullscreenenter"",""1"",""1150""
","
","
","""event"",""trial"",""time""
""fullscreenenter"",""1"",""1150""
","
","","","-1","","","16","18242","6802","a","elianto","#f73b6a7A"," ","-1","0","-10","[]","0","2","","","18242","52","2","3","lose","go","0"
"pit-trial","171","1315221","0.0-57.0","battery-v0.2","","""event"",""trial"",""time""
""fullscreenenter"",""1"",""1150""
","
","
","""event"",""trial"",""time""
""fullscreenenter"",""1"",""1150""
","
","","","-1","","","16","18242","6802","u","elianto","#f73b6a7A"," ","-1","0","-10","[]","0","2","","","18242","53","0","3","lose","go","0"
"pit-trial","172","1320075","0.0-58.0","battery-v0.2","","""event"",""trial"",""time""
""fullscreenenter"",""1"",""1150""
","
","
","""event"",""trial"",""time""
""fullscreenenter"",""1"",""1150""
","
","","","-1","","","16","18242","6802","l","elianto","#3366ff99","-1","-1","1","+10","[3196.2999999970198]","1","2","","","18242","54","1","2","win","no-go","0"
"pit-trial","173","1324931","0.0-59.0","battery-v0.2","","""event"",""trial"",""time""
""fullscreenenter"",""1"",""1150""
","
","
","""event"",""trial"",""time""
""fullscreenenter"",""1"",""1150""
","
","","","-1","","","16","18242","6802","g","elianto","#f73b6a7A","-1","-1","1","-10","[]","0","2","","","18242","55","3","4","lose","no-go","1"
"pit-trial","174","1329787","0.0-60.0","battery-v0.2","","""event"",""trial"",""time""
""fullscreenenter"",""1"",""1150""
","
","
","""event"",""trial"",""time""
""fullscreenenter"",""1"",""1150""
","
","","","-1","","","16","18242","6802","a","elianto","#f73b6a7A"," ","-1","0","-10","[]","0","2","","","18242","56","2","3","lose","go","0"
"pit-trial","175","1334642","0.0-61.0","battery-v0.2","","""event"",""trial"",""time""
""fullscreenenter"",""1"",""1150""
","
","
","""event"",""trial"",""time""
""fullscreenenter"",""1"",""1150""
","
","","","-1","","","16","18242","6802","u","elianto","#f73b6a7A"," ","-1","0","0","[3931.2000000029802]","1","2","","","18242","57","0","3","lose","go","1"
"pit-trial","176","1339496","0.0-62.0","battery-v0.2","","""event"",""trial"",""time""
""fullscreenenter"",""1"",""1150""
","
","
","""event"",""trial"",""time""
""fullscreenenter"",""1"",""1150""
","
","","","-1","","","16","18242","6802","p","elianto","#3366ff99"," ","-1","0","0","[3727.5999999940395]","1","2","","","18242","58","4","1","win","go","0"
"pit-trial","177","1344352","0.0-63.0","battery-v0.2","","""event"",""trial"",""time""
""fullscreenenter"",""1"",""1150""
","
","
","""event"",""trial"",""time""
""fullscreenenter"",""1"",""1150""
","
","","","-1","","","16","18242","6802","g","elianto","#f73b6a7A","-1","-1","1","-10","[]","0","2","","","18242","59","3","4","lose","no-go","1"
"pit-trial","178","1349208","0.0-64.0","battery-v0.2","","""event"",""trial"",""time""
""fullscreenenter"",""1"",""1150""
","
","
","""event"",""trial"",""time""
""fullscreenenter"",""1"",""1150""
","
","","","-1","","","16","18242","6802","a","elianto","#f73b6a7A"," ","-1","0","-10","[]","0","2","","","18242","60","2","3","lose","go","0"
"pit-trial","179","1354064","0.0-65.0","battery-v0.2","","""event"",""trial"",""time""
""fullscreenenter"",""1"",""1150""
","
","
","""event"",""trial"",""time""
""fullscreenenter"",""1"",""1150""
","
","","","-1","","","16","18242","6802","p","elianto","#3366ff99"," ","-1","0","0","[3304]","1","2","","","18242","61","4","1","win","go","0"
"pit-trial","180","1358918","0.0-66.0","battery-v0.2","","""event"",""trial"",""time""
""fullscreenenter"",""1"",""1150""
","
","
","""event"",""trial"",""time""
""fullscreenenter"",""1"",""1150""
","
","","","-1","","","16","18242","6802","a","elianto","#f73b6a7A"," ","-1","0","-10","[]","0","2","","","18242","62","2","3","lose","go","0"
"pit-trial","181","1363774","0.0-67.0","battery-v0.2","","""event"",""trial"",""time""
""fullscreenenter"",""1"",""1150""
","
","
","""event"",""trial"",""time""
""fullscreenenter"",""1"",""1150""
","
","","","-1","","","16","18242","6802","g","elianto","#f73b6a7A","-1","-1","1","0","[4673.20000000298]","1","2","","","18242","63","3","4","lose","no-go","0"
"pit-trial","182","1367346","0.0-68.0","battery-v0.2","","""event"",""trial"",""time""
""fullscreenenter"",""1"",""1150""
","
","
","""event"",""trial"",""time""
""fullscreenenter"",""1"",""1150""
","
","","","715.1999999880791","","","16","18242","6802","l","elianto","#3366ff99","-1"," ","0","0","[1565.9000000059605]","1","2","","","18242","64","1","2","win","no-go","0"
"pit-trial","183","1370846","0.0-69.0","battery-v0.2","","""event"",""trial"",""time""
""fullscreenenter"",""1"",""1150""
","
","
","""event"",""trial"",""time""
""fullscreenenter"",""1"",""1150""
","
","","","643.7000000029802","","","16","18242","6802","s","elianto","#3366ff99","-1"," ","0","0","[1495]","1","2","","","18242","65","5","2","win","no-go","0"
"pit-trial","184","1374590","0.0-70.0","battery-v0.2","","""event"",""trial"",""time""
""fullscreenenter"",""1"",""1150""
","
","
","""event"",""trial"",""time""
""fullscreenenter"",""1"",""1150""
","
","","","887.0999999940395","","","16","18242","6802","g","elianto","#f73b6a7A","-1"," ","0","-10","[1737.7999999970198]","1","2","","","18242","66","3","4","lose","no-go","0"
"pit-trial","185","1378269","0.0-71.0","battery-v0.2","","""event"",""trial"",""time""
""fullscreenenter"",""1"",""1150""
","
","
","""event"",""trial"",""time""
""fullscreenenter"",""1"",""1150""
","
","","","824.1000000089407","","","16","18242","6802","l","elianto","#3366ff99","-1"," ","0","0","[1674.800000011921]","1","2","","","18242","67","1","2","win","no-go","0"
"pit-trial","186","1382045","0.0-72.0","battery-v0.2","","""event"",""trial"",""time""
""fullscreenenter"",""1"",""1150""
","
","
","""event"",""trial"",""time""
""fullscreenenter"",""1"",""1150""
","
","","","920.0999999940395","","","16","18242","6802","p","elianto","#3366ff99"," "," ","1","+10","[1770.7999999970198]","1","2","","","18242","68","4","1","win","go","0"
"pit-trial","187","1385473","0.0-73.0","battery-v0.2","","""event"",""trial"",""time""
""fullscreenenter"",""1"",""1150""
","
","
","""event"",""trial"",""time""
""fullscreenenter"",""1"",""1150""
","
","","","571.0999999940395","","","16","18242","6802","l","elianto","#3366ff99","-1"," ","0","+10","[1422.0999999940395]","1","2","","","18242","69","1","2","win","no-go","1"
"pit-trial","188","1388926","0.0-74.0","battery-v0.2","","""event"",""trial"",""time""
""fullscreenenter"",""1"",""1150""
","
","
","""event"",""trial"",""time""
""fullscreenenter"",""1"",""1150""
","
","","","597","","","16","18242","6802","p","elianto","#3366ff99"," "," ","1","0","[1447.8999999910593]","1","2","","","18242","70","4","1","win","go","1"
"pit-trial","189","1392897","0.0-75.0","battery-v0.2","","""event"",""trial"",""time""
""fullscreenenter"",""1"",""1150""
","
","
","""event"",""trial"",""time""
""fullscreenenter"",""1"",""1150""
","
","","","1114.4000000059605","","","16","18242","6802","s","elianto","#3366ff99","-1"," ","0","0","[1965]","1","2","","","18242","71","5","2","win","no-go","0"
"pit-trial","190","1396770","0.0-76.0","battery-v0.2","","""event"",""trial"",""time""
""fullscreenenter"",""1"",""1150""
","
","
","""event"",""trial"",""time""
""fullscreenenter"",""1"",""1150""
","
","","","1017.3999999910593","","","16","18242","6802","a","elianto","#f73b6a7A"," "," ","1","0","[1867.699999988079]","1","2","","","18242","72","2","3","lose","go","0"
"pit-trial","191","1400364","0.0-77.0","battery-v0.2","","""event"",""trial"",""time""
""fullscreenenter"",""1"",""1150""
","
","
","""event"",""trial"",""time""
""fullscreenenter"",""1"",""1150""
","
","","","738.5","","","16","18242","6802","l","elianto","#3366ff99","-1"," ","0","0","[1589.7000000029802]","1","2","","","18242","73","1","2","win","no-go","0"
"pit-trial","192","1404014","0.0-78.0","battery-v0.2","","""event"",""trial"",""time""
""fullscreenenter"",""1"",""1150""
","
","
","""event"",""trial"",""time""
""fullscreenenter"",""1"",""1150""
","
","","","792.5","","","16","18242","6802","p","elianto","#3366ff99"," "," ","1","+10","[1643.4000000059605]","1","2","","","18242","74","4","1","win","go","0"
"pit-trial","193","1408470","0.0-79.0","battery-v0.2","","""event"",""trial"",""time""
""fullscreenenter"",""1"",""1150""
","
","
","""event"",""trial"",""time""
""fullscreenenter"",""1"",""1150""
","
","","","1600.0999999940395","","","16","18242","6802","s","elianto","#3366ff99","-1"," ","0","0","[2451.199999988079]","1","2","","","18242","75","5","2","win","no-go","0"
"pit-trial","194","1413326","0.0-80.0","battery-v0.2","","""event"",""trial"",""time""
""fullscreenenter"",""1"",""1150""
","
","
","""event"",""trial"",""time""
""fullscreenenter"",""1"",""1150""
","
","","","-1","","","16","18242","6802","g","elianto","#f73b6a7A","-1","-1","1","0","[3279.0999999940395]","1","2","","","18242","76","3","4","lose","no-go","0"
"pit-trial","195","1416700","0.0-81.0","battery-v0.2","","""event"",""trial"",""time""
""fullscreenenter"",""1"",""1150""
","
","
","""event"",""trial"",""time""
""fullscreenenter"",""1"",""1150""
","
","","","517.7999999970198","","","16","18242","6802","p","elianto","#3366ff99"," "," ","1","+10","[1368.699999988079]","1","2","","","18242","77","4","1","win","go","0"
"pit-trial","196","1421556","0.0-82.0","battery-v0.2","","""event"",""trial"",""time""
""fullscreenenter"",""1"",""1150""
","
","
","""event"",""trial"",""time""
""fullscreenenter"",""1"",""1150""
","
","","","-1","","","16","18242","6802","s","elianto","#3366ff99","-1","-1","1","+10","[3221.2000000029802]","1","2","","","18242","78","5","2","win","no-go","0"
"pit-trial","197","1426413","0.0-83.0","battery-v0.2","","""event"",""trial"",""time""
""fullscreenenter"",""1"",""1150""
","
","
","""event"",""trial"",""time""
""fullscreenenter"",""1"",""1150""
","
","","","-1","","","16","18242","6802","g","elianto","#f73b6a7A","-1","-1","1","-10","[]","0","2","","","18242","79","3","4","lose","no-go","1"
"pit-trial","198","1429853","0.0-84.0","battery-v0.2","","""event"",""trial"",""time""
""fullscreenenter"",""1"",""1150""
","
","
","""event"",""trial"",""time""
""fullscreenenter"",""1"",""1150""
","
","","","584.7000000029802","","","16","18242","6802","p","elianto","#3366ff99"," "," ","1","+10","[1435]","1","2","","","18242","80","4","1","win","go","0"
"pit-trial","199","1434708","0.0-85.0","battery-v0.2","","""event"",""trial"",""time""
""fullscreenenter"",""1"",""1150""
","
","
","""event"",""trial"",""time""
""fullscreenenter"",""1"",""1150""
","
","","","-1","","","16","18242","6802","g","elianto","#f73b6a7A","-1","-1","1","0","[3315.7999999970198]","1","2","","","18242","81","3","4","lose","no-go","0"
"pit-trial","200","1438206","0.0-86.0","battery-v0.2","","""event"",""trial"",""time""
""fullscreenenter"",""1"",""1150""
","
","
","""event"",""trial"",""time""
""fullscreenenter"",""1"",""1150""
","
","","","642.2000000029802","","","16","18242","6802","s","elianto","#3366ff99","-1"," ","0","0","[1493]","1","2","","","18242","82","5","2","win","no-go","0"
"pit-trial","201","1443062","0.0-87.0","battery-v0.2","","""event"",""trial"",""time""
""fullscreenenter"",""1"",""1150""
","
","
","""event"",""trial"",""time""
""fullscreenenter"",""1"",""1150""
","
","","","-1","","","16","18242","6802","e","elianto","#f73b6a7A","-1","-1","1","0","[3338.3999999910593]","1","2","","","18242","83","7","4","lose","no-go","0"
"pit-trial","202","1446647","0.0-88.0","battery-v0.2","","""event"",""trial"",""time""
""fullscreenenter"",""1"",""1150""
","
","
","""event"",""trial"",""time""
""fullscreenenter"",""1"",""1150""
","
","","","730","","","16","18242","6802","p","elianto","#3366ff99"," "," ","1","0","[1580.5999999940395]","1","2","","","18242","84","4","1","win","go","1"
"pit-trial","203","1451502","0.0-89.0","battery-v0.2","","""event"",""trial"",""time""
""fullscreenenter"",""1"",""1150""
","
","
","""event"",""trial"",""time""
""fullscreenenter"",""1"",""1150""
","
","","","-1","","","16","18242","6802","e","elianto","#f73b6a7A","-1","-1","1","0","[3201.5]","1","2","","","18242","85","7","4","lose","no-go","0"
"pit-trial","204","1454941","0.0-90.0","battery-v0.2","","""event"",""trial"",""time""
""fullscreenenter"",""1"",""1150""
","
","
","""event"",""trial"",""time""
""fullscreenenter"",""1"",""1150""
","
","","","583","","","16","18242","6802","s","elianto","#3366ff99","-1"," ","0","0","[1435.5999999940395]","1","2","","","18242","86","5","2","win","no-go","0"
"pit-trial","205","1459797","0.0-91.0","battery-v0.2","","""event"",""trial"",""time""
""fullscreenenter"",""1"",""1150""
","
","
","""event"",""trial"",""time""
""fullscreenenter"",""1"",""1150""
","
","","","-1","","","16","18242","6802","w","elianto","#f73b6a7A"," ","-1","0","-10","[]","0","2","","","18242","87","6","3","lose","go","0"
"pit-trial","206","1463290","0.0-92.0","battery-v0.2","","""event"",""trial"",""time""
""fullscreenenter"",""1"",""1150""
","
","
","""event"",""trial"",""time""
""fullscreenenter"",""1"",""1150""
","
","","","635.2000000029802","","","16","18242","6802","p","elianto","#3366ff99"," "," ","1","0","[1486.0999999940395]","1","2","","","18242","88","4","1","win","go","1"
"pit-trial","207","1467648","0.0-93.0","battery-v0.2","","""event"",""trial"",""time""
""fullscreenenter"",""1"",""1150""
","
","
","""event"",""trial"",""time""
""fullscreenenter"",""1"",""1150""
","
","","","1502.7000000029802","","","16","18242","6802","s","elianto","#3366ff99","-1"," ","0","+10","[2352.9000000059605]","1","2","","","18242","89","5","2","win","no-go","1"
"pit-trial","208","1471231","0.0-94.0","battery-v0.2","","""event"",""trial"",""time""
""fullscreenenter"",""1"",""1150""
","
","
","""event"",""trial"",""time""
""fullscreenenter"",""1"",""1150""
","
","","","726.0999999940395","","","16","18242","6802","p","elianto","#3366ff99"," "," ","1","+10","[1577.4000000059605]","1","2","","","18242","90","4","1","win","go","0"
"pit-trial","209","1476087","0.0-95.0","battery-v0.2","","""event"",""trial"",""time""
""fullscreenenter"",""1"",""1150""
","
","
","""event"",""trial"",""time""
""fullscreenenter"",""1"",""1150""
","
","","","-1","","","16","18242","6802","e","elianto","#f73b6a7A","-1","-1","1","-10","[]","0","2","","","18242","91","7","4","lose","no-go","1"
"pit-trial","210","1479851","0.0-96.0","battery-v0.2","","""event"",""trial"",""time""
""fullscreenenter"",""1"",""1150""
","
","
","""event"",""trial"",""time""
""fullscreenenter"",""1"",""1150""
","
","","","908.4000000059605","","","16","18242","6802","w","elianto","#f73b6a7A"," "," ","1","-10","[1759.0999999940395]","1","2","","","18242","92","6","3","lose","go","1"
"pit-trial","211","1483358","0.0-97.0","battery-v0.2","","""event"",""trial"",""time""
""fullscreenenter"",""1"",""1150""
","
","
","""event"",""trial"",""time""
""fullscreenenter"",""1"",""1150""
","
","","","651.1999999880791","","","16","18242","6802","s","elianto","#3366ff99","-1"," ","0","0","[1502.2000000029802]","1","2","","","18242","93","5","2","win","no-go","0"
"pit-trial","212","1488214","0.0-98.0","battery-v0.2","","""event"",""trial"",""time""
""fullscreenenter"",""1"",""1150""
","
","
","""event"",""trial"",""time""
""fullscreenenter"",""1"",""1150""
","
","","","-1","","","16","18242","6802","w","elianto","#f73b6a7A"," ","-1","0","-10","[]","0","2","","","18242","94","6","3","lose","go","0"
"pit-trial","213","1492021","0.0-99.0","battery-v0.2","","""event"",""trial"",""time""
""fullscreenenter"",""1"",""1150""
","
","
","""event"",""trial"",""time""
""fullscreenenter"",""1"",""1150""
","
","","","953.3999999910593","","","16","18242","6802","d","elianto","#3366ff99"," "," ","1","+10","[1803.7999999970198]","1","2","","","18242","95","8","1","win","go","0"
"pit-trial","214","1496878","0.0-100.0","battery-v0.2","","""event"",""trial"",""time""
""fullscreenenter"",""1"",""1150""
","
","
","""event"",""trial"",""time""
""fullscreenenter"",""1"",""1150""
","
","","","-1","","","16","18242","6802","e","elianto","#f73b6a7A","-1","-1","1","0","[3375.9000000059605]","1","2","","","18242","96","7","4","lose","no-go","0"
"pit-trial","215","1501733","0.0-101.0","battery-v0.2","","""event"",""trial"",""time""
""fullscreenenter"",""1"",""1150""
","
","
","""event"",""trial"",""time""
""fullscreenenter"",""1"",""1150""
","
","","","-1","","","16","18242","6802","e","elianto","#f73b6a7A","-1","-1","1","0","[3274.9000000059605]","1","2","","","18242","97","7","4","lose","no-go","0"
"pit-trial","216","1506589","0.0-102.0","battery-v0.2","","""event"",""trial"",""time""
""fullscreenenter"",""1"",""1150""
","
","
","""event"",""trial"",""time""
""fullscreenenter"",""1"",""1150""
","
","","","-1","","","16","18242","6802","d","elianto","#3366ff99"," ","-1","0","0","[3818.2000000029802]","1","2","","","18242","98","8","1","win","go","0"
"pit-trial","217","1510174","0.0-103.0","battery-v0.2","","""event"",""trial"",""time""
""fullscreenenter"",""1"",""1150""
","
","
","""event"",""trial"",""time""
""fullscreenenter"",""1"",""1150""
","
","","","729.4000000059605","","","16","18242","6802","s","elianto","#3366ff99","-1"," ","0","0","[1579.5]","1","2","","","18242","99","5","2","win","no-go","0"
"pit-trial","218","1515030","0.0-104.0","battery-v0.2","","""event"",""trial"",""time""
""fullscreenenter"",""1"",""1150""
","
","
","""event"",""trial"",""time""
""fullscreenenter"",""1"",""1150""
","
","","","-1","","","16","18242","6802","w","elianto","#f73b6a7A"," ","-1","0","-10","[]","0","2","","","18242","100","6","3","lose","go","0"
"pit-trial","219","1518936","0.0-105.0","battery-v0.2","","""event"",""trial"",""time""
""fullscreenenter"",""1"",""1150""
","
","
","""event"",""trial"",""time""
""fullscreenenter"",""1"",""1150""
","
","","","1051.5","","","16","18242","6802","e","elianto","#f73b6a7A","-1"," ","0","-10","[1901.9000000059605]","1","2","","","18242","101","7","4","lose","no-go","0"
"pit-trial","220","1522422","0.0-106.0","battery-v0.2","","""event"",""trial"",""time""
""fullscreenenter"",""1"",""1150""
","
","
","""event"",""trial"",""time""
""fullscreenenter"",""1"",""1150""
","
","","","631.8999999910593","","","16","18242","6802","s","elianto","#3366ff99","-1"," ","0","0","[1482.7000000029802]","1","2","","","18242","102","5","2","win","no-go","0"
"pit-trial","221","1526673","0.0-107.0","battery-v0.2","","""event"",""trial"",""time""
""fullscreenenter"",""1"",""1150""
","
","
","""event"",""trial"",""time""
""fullscreenenter"",""1"",""1150""
","
","","","1394.5999999940395","","","16","18242","6802","d","elianto","#3366ff99"," "," ","1","0","[2245.0999999940395]","1","2","","","18242","103","8","1","win","go","1"
"pit-trial","222","1530280","0.0-108.0","battery-v0.2","","""event"",""trial"",""time""
""fullscreenenter"",""1"",""1150""
","
","
","""event"",""trial"",""time""
""fullscreenenter"",""1"",""1150""
","
","","","751","","","16","18242","6802","j","elianto","#3366ff99"," "," ","1","+10","[1601.7000000029802]","1","2","","","18242","104","9","1","win","go","0"
"pit-trial","223","1535135","0.0-109.0","battery-v0.2","","""event"",""trial"",""time""
""fullscreenenter"",""1"",""1150""
","
","
","""event"",""trial"",""time""
""fullscreenenter"",""1"",""1150""
","
","","","-1","","","16","18242","6802","j","elianto","#3366ff99"," ","-1","0","0","[3415.1000000089407]","1","2","","","18242","105","9","1","win","go","0"
"pit-trial","224","1539992","0.0-110.0","battery-v0.2","","""event"",""trial"",""time""
""fullscreenenter"",""1"",""1150""
","
","
","""event"",""trial"",""time""
""fullscreenenter"",""1"",""1150""
","
","","","-1","","","16","18242","6802","w","elianto","#f73b6a7A"," ","-1","0","0","[3258.2000000029802]","1","2","","","18242","106","6","3","lose","go","1"
"pit-trial","225","1544544","0.0-111.0","battery-v0.2","","""event"",""trial"",""time""
""fullscreenenter"",""1"",""1150""
","
","
","""event"",""trial"",""time""
""fullscreenenter"",""1"",""1150""
","
","","","1697.5","","","16","18242","6802","d","elianto","#3366ff99"," "," ","1","+10","[2547.5]","1","2","","","18242","107","8","1","win","go","0"
"pit-trial","226","1548796","0.0-112.0","battery-v0.2","","""event"",""trial"",""time""
""fullscreenenter"",""1"",""1150""
","
","
","""event"",""trial"",""time""
""fullscreenenter"",""1"",""1150""
","
","","","1397.2999999970198","","","16","18242","6802","p","elianto","#3366ff99"," "," ","1","+10","[2247.2000000029802]","1","2","","","18242","108","4","1","win","go","0"
"pit-trial","227","1553651","0.0-113.0","battery-v0.2","","""event"",""trial"",""time""
""fullscreenenter"",""1"",""1150""
","
","
","""event"",""trial"",""time""
""fullscreenenter"",""1"",""1150""
","
","","","-1","","","16","18242","6802","w","elianto","#f73b6a7A"," ","-1","0","0","[3409.7000000029802]","1","2","","","18242","109","6","3","lose","go","1"
"pit-trial","228","1558506","0.0-114.0","battery-v0.2","","""event"",""trial"",""time""
""fullscreenenter"",""1"",""1150""
","
","
","""event"",""trial"",""time""
""fullscreenenter"",""1"",""1150""
","
","","","-1","","","16","18242","6802","s","elianto","#3366ff99","-1","-1","1","+10","[3231.7999999970198]","1","2","","","18242","110","5","2","win","no-go","0"
"pit-trial","229","1562697","0.0-115.0","battery-v0.2","","""event"",""trial"",""time""
""fullscreenenter"",""1"",""1150""
","
","
","""event"",""trial"",""time""
""fullscreenenter"",""1"",""1150""
","
","","","1334.699999988079","","","16","18242","6802","j","elianto","#3366ff99"," "," ","1","+10","[2185.3999999910593]","1","2","","","18242","111","9","1","win","go","0"
"pit-trial","230","1566138","0.0-116.0","battery-v0.2","","""event"",""trial"",""time""
""fullscreenenter"",""1"",""1150""
","
","
","""event"",""trial"",""time""
""fullscreenenter"",""1"",""1150""
","
","","","586.3000000119209","","","16","18242","6802","d","elianto","#3366ff99"," "," ","1","0","[1437.2000000029802]","1","2","","","18242","112","8","1","win","go","1"
"pit-trial","231","1570576","0.0-117.0","battery-v0.2","","""event"",""trial"",""time""
""fullscreenenter"",""1"",""1150""
","
","
","""event"",""trial"",""time""
""fullscreenenter"",""1"",""1150""
","
","","","1582.4000000059605","","","16","18242","6802","s","elianto","#3366ff99","-1"," ","0","0","[2432.7999999970198]","1","2","","","18242","113","5","2","win","no-go","0"
"pit-trial","232","1575432","0.0-118.0","battery-v0.2","","""event"",""trial"",""time""
""fullscreenenter"",""1"",""1150""
","
","
","""event"",""trial"",""time""
""fullscreenenter"",""1"",""1150""
","
","","","-1","","","16","18242","6802","w","elianto","#f73b6a7A"," ","-1","0","0","[3265.5]","1","2","","","18242","114","6","3","lose","go","1"
"pit-trial","233","1578854","0.0-119.0","battery-v0.2","","""event"",""trial"",""time""
""fullscreenenter"",""1"",""1150""
","
","
","""event"",""trial"",""time""
""fullscreenenter"",""1"",""1150""
","
","","","568.2999999970198","","","16","18242","6802","j","elianto","#3366ff99"," "," ","1","+10","[1419.199999988079]","1","2","","","18242","115","9","1","win","go","0"
"pit-trial","234","1582221","0.0-120.0","battery-v0.2","","""event"",""trial"",""time""
""fullscreenenter"",""1"",""1150""
","
","
","""event"",""trial"",""time""
""fullscreenenter"",""1"",""1150""
","
","","","513.2000000029802","","","16","18242","6802","d","elianto","#3366ff99"," "," ","1","+10","[1363.7000000029802]","1","2","","","18242","116","8","1","win","go","0"
"pit-trial","235","1587076","0.0-121.0","battery-v0.2","","""event"",""trial"",""time""
""fullscreenenter"",""1"",""1150""
","
","
","""event"",""trial"",""time""
""fullscreenenter"",""1"",""1150""
","
","","","-1","","","16","18242","6802","w","elianto","#f73b6a7A"," ","-1","0","-10","[]","0","2","","","18242","117","6","3","lose","go","0"
"pit-trial","236","1590463","0.0-122.0","battery-v0.2","","""event"",""trial"",""time""
""fullscreenenter"",""1"",""1150""
","
","
","""event"",""trial"",""time""
""fullscreenenter"",""1"",""1150""
","
","","","531.7999999970198","","","16","18242","6802","j","elianto","#3366ff99"," "," ","1","+10","[1381.9000000059605]","1","2","","","18242","118","9","1","win","go","0"
"pit-trial","237","1593890","0.0-123.0","battery-v0.2","","""event"",""trial"",""time""
""fullscreenenter"",""1"",""1150""
","
","
","""event"",""trial"",""time""
""fullscreenenter"",""1"",""1150""
","
","","","573.1999999880791","","","16","18242","6802","s","elianto","#3366ff99","-1"," ","0","0","[1423.6000000089407]","1","2","","","18242","119","5","2","win","no-go","0"
"pit-trial","238","1597227","0.0-124.0","battery-v0.2","","""event"",""trial"",""time""
""fullscreenenter"",""1"",""1150""
","
","
","""event"",""trial"",""time""
""fullscreenenter"",""1"",""1150""
","
","","","481.3999999910593","","","16","18242","6802","d","elianto","#3366ff99"," "," ","1","0","[1332.0999999940395]","1","2","","","18242","120","8","1","win","go","1"
"pit-trial","239","1602082","0.0-125.0","battery-v0.2","","""event"",""trial"",""time""
""fullscreenenter"",""1"",""1150""
","
","
","""event"",""trial"",""time""
""fullscreenenter"",""1"",""1150""
","
","","","-1","","","16","18242","6802","e","elianto","#f73b6a7A","-1","-1","1","0","[3445]","1","2","","","18242","121","7","4","lose","no-go","0"
"pit-trial","240","1606938","0.0-126.0","battery-v0.2","","""event"",""trial"",""time""
""fullscreenenter"",""1"",""1150""
","
","
","""event"",""trial"",""time""
""fullscreenenter"",""1"",""1150""
","
","","","-1","","","16","18242","6802","w","elianto","#f73b6a7A"," ","-1","0","-10","[]","0","2","","","18242","122","6","3","lose","go","0"
"pit-trial","241","1611210","0.0-127.0","battery-v0.2","","""event"",""trial"",""time""
""fullscreenenter"",""1"",""1150""
","
","
","""event"",""trial"",""time""
""fullscreenenter"",""1"",""1150""
","
","","","1416.5999999940395","","","16","18242","6802","d","elianto","#3366ff99"," "," ","1","+10","[2266.5999999940395]","1","2","","","18242","123","8","1","win","go","0"
"pit-trial","242","1616065","0.0-128.0","battery-v0.2","","""event"",""trial"",""time""
""fullscreenenter"",""1"",""1150""
","
","
","""event"",""trial"",""time""
""fullscreenenter"",""1"",""1150""
","
","","","-1","","","16","18242","6802","j","elianto","#3366ff99"," ","-1","0","0","[3461.6000000089407]","1","2","","","18242","124","9","1","win","go","0"
"pit-trial","243","1620922","0.0-129.0","battery-v0.2","","""event"",""trial"",""time""
""fullscreenenter"",""1"",""1150""
","
","
","""event"",""trial"",""time""
""fullscreenenter"",""1"",""1150""
","
","","","-1","","","16","18242","6802","j","elianto","#3366ff99"," ","-1","0","0","[3244.699999988079]","1","2","","","18242","125","9","1","win","go","0"
"pit-trial","244","1625776","0.0-130.0","battery-v0.2","","""event"",""trial"",""time""
""fullscreenenter"",""1"",""1150""
","
","
","""event"",""trial"",""time""
""fullscreenenter"",""1"",""1150""
","
","","","-1","","","16","18242","6802","w","elianto","#f73b6a7A"," ","-1","0","-10","[]","0","2","","","18242","126","6","3","lose","go","0"
"pit-trial","245","1630632","0.0-131.0","battery-v0.2","","""event"",""trial"",""time""
""fullscreenenter"",""1"",""1150""
","
","
","""event"",""trial"",""time""
""fullscreenenter"",""1"",""1150""
","
","","","-1","","","16","18242","6802","e","elianto","#f73b6a7A","-1","-1","1","-10","[]","0","2","","","18242","127","7","4","lose","no-go","1"
"pit-trial","246","1634077","0.0-132.0","battery-v0.2","","""event"",""trial"",""time""
""fullscreenenter"",""1"",""1150""
","
","
","""event"",""trial"",""time""
""fullscreenenter"",""1"",""1150""
","
","","","589.6000000089407","","","16","18242","6802","d","elianto","#3366ff99"," "," ","1","+10","[1440.1000000089407]","1","2","","","18242","128","8","1","win","go","0"
"pit-trial","247","1638085","0.0-133.0","battery-v0.2","","""event"",""trial"",""time""
""fullscreenenter"",""1"",""1150""
","
","
","""event"",""trial"",""time""
""fullscreenenter"",""1"",""1150""
","
","","","1153.5999999940395","","","16","18242","6802","d","elianto","#3366ff99"," "," ","1","+10","[2004.3999999910593]","1","2","","","18242","129","8","1","win","go","0"
"pit-trial","248","1642941","0.0-134.0","battery-v0.2","","""event"",""trial"",""time""
""fullscreenenter"",""1"",""1150""
","
","
","""event"",""trial"",""time""
""fullscreenenter"",""1"",""1150""
","
","","","-1","","","16","18242","6802","w","elianto","#f73b6a7A"," ","-1","0","-10","[3265.2000000029802]","1","2","","","18242","130","6","3","lose","go","0"
"pit-trial","249","1647796","0.0-135.0","battery-v0.2","","""event"",""trial"",""time""
""fullscreenenter"",""1"",""1150""
","
","
","""event"",""trial"",""time""
""fullscreenenter"",""1"",""1150""
","
","","","-1","","","16","18242","6802","j","elianto","#3366ff99"," ","-1","0","+10","[3147.9000000059605]","1","2","","","18242","131","9","1","win","go","1"
"pit-trial","250","1652655","0.0-136.0","battery-v0.2","","""event"",""trial"",""time""
""fullscreenenter"",""1"",""1150""
","
","
","""event"",""trial"",""time""
""fullscreenenter"",""1"",""1150""
","
","","","-1","","","16","18242","6802","e","elianto","#f73b6a7A","-1","-1","1","0","[3345.5]","1","2","","","18242","132","7","4","lose","no-go","0"
"pit-trial","251","1657511","0.0-137.0","battery-v0.2","","""event"",""trial"",""time""
""fullscreenenter"",""1"",""1150""
","
","
","""event"",""trial"",""time""
""fullscreenenter"",""1"",""1150""
","
","","","-1","","","16","18242","6802","j","elianto","#3366ff99"," ","-1","0","0","[3278.2999999970198]","1","2","","","18242","133","9","1","win","go","0"
"pit-trial","252","1662367","0.0-138.0","battery-v0.2","","""event"",""trial"",""time""
""fullscreenenter"",""1"",""1150""
","
","
","""event"",""trial"",""time""
""fullscreenenter"",""1"",""1150""
","
","","","-1","","","16","18242","6802","w","elianto","#f73b6a7A"," ","-1","0","0","[3262.5999999940395]","1","2","","","18242","134","6","3","lose","go","1"
"pit-trial","253","1667223","0.0-139.0","battery-v0.2","","""event"",""trial"",""time""
""fullscreenenter"",""1"",""1150""
","
","
","""event"",""trial"",""time""
""fullscreenenter"",""1"",""1150""
","
","","","-1","","","16","18242","6802","e","elianto","#f73b6a7A","-1","-1","1","0","[3474.4000000059605]","1","2","","","18242","135","7","4","lose","no-go","0"
"pit-trial","254","1672080","0.0-140.0","battery-v0.2","","""event"",""trial"",""time""
""fullscreenenter"",""1"",""1150""
","
","
","""event"",""trial"",""time""
""fullscreenenter"",""1"",""1150""
","
","","","-1","","","16","18242","6802","d","elianto","#3366ff99"," ","-1","0","0","[3478.9000000059605]","1","2","","","18242","136","8","1","win","go","0"
"pit-trial","255","1676938","0.0-141.0","battery-v0.2","","""event"",""trial"",""time""
""fullscreenenter"",""1"",""1150""
","
","
","""event"",""trial"",""time""
""fullscreenenter"",""1"",""1150""
","
","","","-1","","","16","18242","6802","e","elianto","#f73b6a7A","-1","-1","1","0","[3798.2999999970198]","1","2","","","18242","137","7","4","lose","no-go","0"
"pit-trial","256","1681793","0.0-142.0","battery-v0.2","","""event"",""trial"",""time""
""fullscreenenter"",""1"",""1150""
","
","
","""event"",""trial"",""time""
""fullscreenenter"",""1"",""1150""
","
","","","-1","","","16","18242","6802","j","elianto","#3366ff99"," ","-1","0","0","[4427.29999999702]","1","2","","","18242","138","9","1","win","go","0"
"pit-trial","257","1686650","0.0-143.0","battery-v0.2","","""event"",""trial"",""time""
""fullscreenenter"",""1"",""1150""
","
","
","""event"",""trial"",""time""
""fullscreenenter"",""1"",""1150""
","
","","","-1","","","16","18242","6802","d","elianto","#3366ff99"," ","-1","0","0","[3331.2000000029802]","1","2","","","18242","139","8","1","win","go","0"
"pit-trial","258","1691507","0.0-144.0","battery-v0.2","","""event"",""trial"",""time""
""fullscreenenter"",""1"",""1150""
","
","
","""event"",""trial"",""time""
""fullscreenenter"",""1"",""1150""
","
","","","-1","","","16","18242","6802","w","elianto","#f73b6a7A"," ","-1","0","-10","[]","0","2","","","18242","140","6","3","lose","go","0"
"pit-instructions","259","1708961","0.0-145.0","battery-v0.2","","""event"",""trial"",""time""
""fullscreenenter"",""1"",""1150""
","
","
","""event"",""trial"",""time""
""fullscreenenter"",""1"",""1150""
","
","","[{""page_index"":0,""viewing_time"":5660.199999988079},{""page_index"":1,""viewing_time"":11791.90000000596}]","17452.59999999404","","","","","","","","","","","","","","","","","","","","","","","",""
"pit-trial","260","1713818","0.0-146.0","battery-v0.2","","""event"",""trial"",""time""
""fullscreenenter"",""1"",""1150""
","
","
","""event"",""trial"",""time""
""fullscreenenter"",""1"",""1150""
","
","","","-1","","","16","18242","6802","h","elianto","#f73b6a7A"," ","-1","0","-10","[]","0","3","","","18242","141","3","3","lose","go","0"
"pit-trial","261","1718673","0.0-147.0","battery-v0.2","","""event"",""trial"",""time""
""fullscreenenter"",""1"",""1150""
","
","
","""event"",""trial"",""time""
""fullscreenenter"",""1"",""1150""
","
","","","-1","","","16","18242","6802","r","elianto","#3366ff99"," ","-1","0","0","[4658.5999999940395]","1","3","","","18242","142","1","1","win","go","0"
"pit-trial","262","1723528","0.0-148.0","battery-v0.2","","""event"",""trial"",""time""
""fullscreenenter"",""1"",""1150""
","
","
","""event"",""trial"",""time""
""fullscreenenter"",""1"",""1150""
","
","","","-1","","","16","18242","6802","y","elianto","#f73b6a7A","-1","-1","1","0","[]","0","3","","","18242","143","2","4","lose","no-go","0"
"pit-trial","263","1727467","0.0-149.0","battery-v0.2","","""event"",""trial"",""time""
""fullscreenenter"",""1"",""1150""
","
","
","""event"",""trial"",""time""
""fullscreenenter"",""1"",""1150""
","
","","","1084.7000000029802","","","16","18242","6802","m","elianto","#f73b6a7A","-1"," ","0","-10","[1936.2000000029802]","1","3","","","18242","144","0","4","lose","no-go","0"
"pit-trial","264","1732321","0.0-150.0","battery-v0.2","","""event"",""trial"",""time""
""fullscreenenter"",""1"",""1150""
","
","
","""event"",""trial"",""time""
""fullscreenenter"",""1"",""1150""
","
","","","-1","","","16","18242","6802","h","elianto","#f73b6a7A"," ","-1","0","0","[4296.79999999702]","1","3","","","18242","145","3","3","lose","go","1"
"pit-trial","265","1737175","0.0-151.0","battery-v0.2","","""event"",""trial"",""time""
""fullscreenenter"",""1"",""1150""
","
","
","""event"",""trial"",""time""
""fullscreenenter"",""1"",""1150""
","
","","","-1","","","16","18242","6802","r","elianto","#3366ff99"," ","-1","0","0","[3444.5999999940395]","1","3","","","18242","146","1","1","win","go","0"
"pit-trial","266","1742032","0.0-152.0","battery-v0.2","","""event"",""trial"",""time""
""fullscreenenter"",""1"",""1150""
","
","
","""event"",""trial"",""time""
""fullscreenenter"",""1"",""1150""
","
","","","-1","","","16","18242","6802","y","elianto","#f73b6a7A","-1","-1","1","0","[3677.7000000029802]","1","3","","","18242","147","2","4","lose","no-go","0"
"pit-trial","267","1746888","0.0-153.0","battery-v0.2","","""event"",""trial"",""time""
""fullscreenenter"",""1"",""1150""
","
","
","""event"",""trial"",""time""
""fullscreenenter"",""1"",""1150""
","
