"trial_type","trial_index","time_elapsed","internal_node_id","task_version","subject_id","interactions","blur_events","focus_events","fullscreenenter_events","fullscreenexit_events","success","view_history","rt","responses","num_errors","age","subject","participantId","rune","rune_set","hex","correct","choice","accuracy","outcome","keys","total_keys","block","practice","value","sub","trial","stimulus","robot","valence","action","sham"
"pavlovia","0","7","0.0-0.0","battery-v0.2","","""event"",""trial"",""time""
""fullscreenenter"",""1"",""1266""
","
","
","""event"",""trial"",""time""
""fullscreenenter"",""1"",""1266""
","
","","","","","","","","","","","","","","","","","","","","","","","","","","",""
"fullscreen","1","2265","0.0-1.0","battery-v0.2","","""event"",""trial"",""time""
""fullscreenenter"",""1"",""1266""
","
","
","""event"",""trial"",""time""
""fullscreenenter"",""1"",""1266""
","
","true","","","","","","","","","","","","","","","","","","","","","","","","","",""
"pit-instructions","2","9574","0.0-2.0-0.0","battery-v0.2","","""event"",""trial"",""time""
""fullscreenenter"",""1"",""1266""
","
","
","""event"",""trial"",""time""
""fullscreenenter"",""1"",""1266""
","
","","[{""page_index"":0,""viewing_time"":7303.399999976158}]","7304.199999988079","","","","","","","","","","","","","","","","","","","","","","","",""
"pit-comprehension","3","13211","0.0-2.0-1.0-0.0","battery-v0.2","","""event"",""trial"",""time""
""fullscreenenter"",""1"",""1266""
","
","
","""event"",""trial"",""time""
""fullscreenenter"",""1"",""1266""
","
","","","3630.800000011921","[""shark""]","0","20","9771","4204","","","","","","","","","","","","","","","","","","",""
"pit-instructions","4","16589","0.0-2.0-1.0-1.0","battery-v0.2","","""event"",""trial"",""time""
""fullscreenenter"",""1"",""1266""
","
","
","""event"",""trial"",""time""
""fullscreenenter"",""1"",""1266""
","
","","[{""page_index"":0,""viewing_time"":3367.800000011921}]","3368.100000023842","","","","","","","","","","","","","","","","","","","","","","","",""
"pit-comprehension","5","18376","0.0-2.0-2.0-0.0","battery-v0.2","","""event"",""trial"",""time""
""fullscreenenter"",""1"",""1266""
","
","
","""event"",""trial"",""time""
""fullscreenenter"",""1"",""1266""
","
","","","1780.5","[""tiger""]","0","20","9771","4204","","","","","","","","","","","","","","","","","","",""
"pit-instructions","6","21407","0.0-2.0-2.0-1.0","battery-v0.2","","""event"",""trial"",""time""
""fullscreenenter"",""1"",""1266""
","
","
","""event"",""trial"",""time""
""fullscreenenter"",""1"",""1266""
","
","","[{""page_index"":0,""viewing_time"":3024}]","3024.300000011921","","","","","","","","","","","","","","","","","","","","","","","",""
"pit-instructions","7","127050","0.0-2.0-3.0","battery-v0.2","","""event"",""trial"",""time""
""fullscreenenter"",""1"",""1266""
","
","
","""event"",""trial"",""time""
""fullscreenenter"",""1"",""1266""
","
","","[{""page_index"":0,""viewing_time"":7511.599999964237},{""page_index"":1,""viewing_time"":5116.600000023842},{""page_index"":2,""viewing_time"":6202.100000023842},{""page_index"":3,""viewing_time"":7246.799999952316},{""page_index"":4,""viewing_time"":5815.900000035763},{""page_index"":5,""viewing_time"":9064.699999988079},{""page_index"":6,""viewing_time"":6752.100000023842},{""page_index"":7,""viewing_time"":7716.199999988079},{""page_index"":8,""viewing_time"":6049.899999976158},{""page_index"":9,""viewing_time"":10362.600000023842},{""page_index"":10,""viewing_time"":7600.800000011921},{""page_index"":11,""viewing_time"":6385.299999952316},{""page_index"":12,""viewing_time"":9465.800000011921},{""page_index"":13,""viewing_time"":10349.100000023842}]","105640","","","","","","","","","","","","","","","","","","","","","","","",""
"pit-trial","8","131913","0.0-2.0-4.0-0.0","battery-v0.2","","""event"",""trial"",""time""
""fullscreenenter"",""1"",""1266""
","
","
","""event"",""trial"",""time""
""fullscreenenter"",""1"",""1266""
","
","","","-1","","","20","9771","4204","&#9784;","elianto","#FFFFF080"," ","-1","0","&#10060","[]","0","0","0","","","","","","","",""
"pit-trial","9","136778","0.0-2.0-4.1-0.1","battery-v0.2","","""event"",""trial"",""time""
""fullscreenenter"",""1"",""1266""
","
","
","""event"",""trial"",""time""
""fullscreenenter"",""1"",""1266""
","
","","","-1","","","20","9771","4204","&#9784;","elianto","#FFFFF080"," ","-1","0","&#10060","[]","0","0","0","","","","","","","",""
"pit-trial","10","141645","0.0-2.0-4.2-0.2","battery-v0.2","","""event"",""trial"",""time""
""fullscreenenter"",""1"",""1266""
","
","
","""event"",""trial"",""time""
""fullscreenenter"",""1"",""1266""
","
","","","-1","","","20","9771","4204","&#9784;","elianto","#FFFFF080"," ","-1","0","&#10060","[3633.399999976158,4388.5,4615.199999988079,4838.599999964237]","4","0","0","","","","","","","",""
"pit-trial","11","144637","0.0-2.0-4.3-0.3","battery-v0.2","","""event"",""trial"",""time""
""fullscreenenter"",""1"",""1266""
","
","
","""event"",""trial"",""time""
""fullscreenenter"",""1"",""1266""
","
","","","132.30000001192093","","","20","9771","4204","&#9784;","elianto","#FFFFF080"," "," ","1","&#10004","[161.19999998807907,277.39999997615814,793.0999999642372,983.3000000119209,1230.800000011921,1500.5999999642372,1736.699999988079,1954.8999999761581,2152,2378.800000011921,2569.899999976158,2782.899999976158]","12","0","0","","","","","","","",""
"pit-trial","12","149502","0.0-2.0-4.4-0.4","battery-v0.2","","""event"",""trial"",""time""
""fullscreenenter"",""1"",""1266""
","
","
","""event"",""trial"",""time""
""fullscreenenter"",""1"",""1266""
","
","","","-1","","","20","9771","4204","&#9784;","elianto","#FFFFF080"," ","-1","0","&#10060","[334.5,555.7000000476837]","2","0","0","","","","","","","",""
"pit-trial","13","154367","0.0-2.0-4.5-0.5","battery-v0.2","","""event"",""trial"",""time""
""fullscreenenter"",""1"",""1266""
","
","
","""event"",""trial"",""time""
""fullscreenenter"",""1"",""1266""
","
","","","-1","","","20","9771","4204","&#9784;","elianto","#FFFFF080"," ","-1","0","&#10060","[]","0","0","0","","","","","","","",""
"pit-trial","14","159232","0.0-2.0-4.6-0.6","battery-v0.2","","""event"",""trial"",""time""
""fullscreenenter"",""1"",""1266""
","
","
","""event"",""trial"",""time""
""fullscreenenter"",""1"",""1266""
","
","","","-1","","","20","9771","4204","&#9784;","elianto","#FFFFF080"," ","-1","0","&#10060","[]","0","0","0","","","","","","","",""
"pit-instructions","15","174849","0.0-2.0-4.6-1.6-0.6","battery-v0.2","","""event"",""trial"",""time""
""fullscreenenter"",""1"",""1266""
","
","
","""event"",""trial"",""time""
""fullscreenenter"",""1"",""1266""
","
","","[{""page_index"":0,""viewing_time"":6260},{""page_index"":1,""viewing_time"":9348.800000011921}]","15610","","","","","","","","","","","","","","","","","","","","","","","",""
"pit-trial","16","178249","0.0-2.0-4.7-0.7","battery-v0.2","","""event"",""trial"",""time""
""fullscreenenter"",""1"",""1266""
","
","
","""event"",""trial"",""time""
""fullscreenenter"",""1"",""1266""
","
","","","537.7000000476837","","","20","9771","4204","&#9784;","elianto","#FFFFF080"," "," ","1","&#10004","[1388.0999999642372]","1","0","0","","","","","","","",""
"pit-trial","17","181537","0.0-2.0-4.8-0.8","battery-v0.2","","""event"",""trial"",""time""
""fullscreenenter"",""1"",""1266""
","
","
","""event"",""trial"",""time""
""fullscreenenter"",""1"",""1266""
","
","","","426.30000001192093","","","20","9771","4204","&#9784;","elianto","#FFFFF080"," "," ","1","&#10004","[1276.4000000357628]","1","0","0","","","","","","","",""
"pit-trial","18","185054","0.0-2.0-4.9-0.9","battery-v0.2","","""event"",""trial"",""time""
""fullscreenenter"",""1"",""1266""
","
","
","""event"",""trial"",""time""
""fullscreenenter"",""1"",""1266""
","
","","","653.6000000238419","","","20","9771","4204","&#9784;","elianto","#FFFFF080"," "," ","1","&#10004","[1504.300000011921]","1","0","0","","","","","","","",""
"pit-instructions","19","205082","0.0-2.0-5.0","battery-v0.2","","""event"",""trial"",""time""
""fullscreenenter"",""1"",""1266""
","
","
","""event"",""trial"",""time""
""fullscreenenter"",""1"",""1266""
","
","","[{""page_index"":0,""viewing_time"":4802.599999964237},{""page_index"":1,""viewing_time"":5133.100000023842},{""page_index"":2,""viewing_time"":4149.300000011921},{""page_index"":3,""viewing_time"":5935.399999976158}]","20021.5","","","","","","","","","","","","","","","","","","","","","","","",""
"pit-trial","20","209947","0.0-2.0-6.0-0.0","battery-v0.2","","""event"",""trial"",""time""
""fullscreenenter"",""1"",""1266""
","
","
","""event"",""trial"",""time""
""fullscreenenter"",""1"",""1266""
","
","","","-1","","","20","9771","4204","&#9854;","elianto","#FFFFF080","-1","-1","1","&#10004","[]","0","0","1","","","","","","","",""
"pit-trial","21","214816","0.0-2.0-6.1-0.1","battery-v0.2","","""event"",""trial"",""time""
""fullscreenenter"",""1"",""1266""
","
","
","""event"",""trial"",""time""
""fullscreenenter"",""1"",""1266""
","
","","","-1","","","20","9771","4204","&#9854;","elianto","#FFFFF080","-1","-1","1","&#10004","[]","0","0","1","","","","","","","",""
"pit-trial","22","219680","0.0-2.0-6.2-0.2","battery-v0.2","","""event"",""trial"",""time""
""fullscreenenter"",""1"",""1266""
","
","
","""event"",""trial"",""time""
""fullscreenenter"",""1"",""1266""
","
","","","-1","","","20","9771","4204","&#9854;","elianto","#FFFFF080","-1","-1","1","&#10004","[]","0","0","1","","","","","","","",""
"pit-trial","23","224544","0.0-2.0-6.3-0.3","battery-v0.2","","""event"",""trial"",""time""
""fullscreenenter"",""1"",""1266""
","
","
","""event"",""trial"",""time""
""fullscreenenter"",""1"",""1266""
","
","","","-1","","","20","9771","4204","&#9854;","elianto","#FFFFF080","-1","-1","1","&#10004","[]","0","0","1","","","","","","","",""
"pit-trial","24","229408","0.0-2.0-6.4-0.4","battery-v0.2","","""event"",""trial"",""time""
""fullscreenenter"",""1"",""1266""
""blur"",""25"",""380111""
""focus"",""25"",""567446""
""blur"",""25"",""571328""
""focus"",""25"",""571628""
""fullscreenexit"",""25"",""579653""
""blur"",""25"",""581567""
""focus"",""25"",""644466""
""blur"",""25"",""740230""
""focus"",""25"",""766615""
","""event"",""trial"",""time""
""blur"",""25"",""380111""
""blur"",""25"",""571328""
""blur"",""25"",""581567""
""blur"",""25"",""740230""
","""event"",""trial"",""time""
""focus"",""25"",""567446""
""focus"",""25"",""571628""
""focus"",""25"",""644466""
""focus"",""25"",""766615""
","""event"",""trial"",""time""
""fullscreenenter"",""1"",""1266""
","""event"",""trial"",""time""
""fullscreenexit"",""25"",""579653""
","","","-1","","","20","9771","4204","&#9854;","elianto","#FFFFF080","-1","-1","1","&#10004","[]","0","0","1","","","","","","","",""
"pit-instructions","25","784178","0.0-2.0-7.0","battery-v0.2","","""event"",""trial"",""time""
""fullscreenenter"",""1"",""1266""
""blur"",""25"",""380111""
""focus"",""25"",""567446""
""blur"",""25"",""571328""
""focus"",""25"",""571628""
""fullscreenexit"",""25"",""579653""
""blur"",""25"",""581567""
""focus"",""25"",""644466""
""blur"",""25"",""740230""
""focus"",""25"",""766615""
","""event"",""trial"",""time""
""blur"",""25"",""380111""
""blur"",""25"",""571328""
""blur"",""25"",""581567""
""blur"",""25"",""740230""
","""event"",""trial"",""time""
""focus"",""25"",""567446""
""focus"",""25"",""571628""
""focus"",""25"",""644466""
""focus"",""25"",""766615""
","""event"",""trial"",""time""
""fullscreenenter"",""1"",""1266""
","""event"",""trial"",""time""
""fullscreenexit"",""25"",""579653""
","","[{""page_index"":0,""viewing_time"":7078.5},{""page_index"":1,""viewing_time"":6967.599999964237},{""page_index"":2,""viewing_time"":5582.800000011921},{""page_index"":3,""viewing_time"":140760.80000001192},{""page_index"":4,""viewing_time"":5699.800000011921},{""page_index"":5,""viewing_time"":70551.30000001192},{""page_index"":6,""viewing_time"":4930.299999952316},{""page_index"":7,""viewing_time"":8381.800000011921},{""page_index"":8,""viewing_time"":6304.300000011921},{""page_index"":9,""viewing_time"":5645.199999988079},{""page_index"":10,""viewing_time"":6500.699999988079},{""page_index"":11,""viewing_time"":4680.400000035763},{""page_index"":12,""viewing_time"":38201.09999996424},{""page_index"":13,""viewing_time"":7365.300000011921},{""page_index"":14,""viewing_time"":10333},{""page_index"":15,""viewing_time"":30565.100000023842},{""page_index"":16,""viewing_time"":7515.599999964237},{""page_index"":17,""viewing_time"":7419}]","374484.1999999881","","","","","","","","","","","","","","","","","","","","","","","",""
"pit-trial","26","789044","0.0-2.0-8.0-0.0","battery-v0.2","","""event"",""trial"",""time""
""fullscreenenter"",""1"",""1266""
""blur"",""25"",""380111""
""focus"",""25"",""567446""
""blur"",""25"",""571328""
""focus"",""25"",""571628""
""fullscreenexit"",""25"",""579653""
""blur"",""25"",""581567""
""focus"",""25"",""644466""
""blur"",""25"",""740230""
""focus"",""25"",""766615""
","""event"",""trial"",""time""
""blur"",""25"",""380111""
""blur"",""25"",""571328""
""blur"",""25"",""581567""
""blur"",""25"",""740230""
","""event"",""trial"",""time""
""focus"",""25"",""567446""
""focus"",""25"",""571628""
""focus"",""25"",""644466""
""focus"",""25"",""766615""
","""event"",""trial"",""time""
""fullscreenenter"",""1"",""1266""
","""event"",""trial"",""time""
""fullscreenexit"",""25"",""579653""
","","","-1","","","20","9771","4204","&#9776;","elianto","#3366ff99"," ","-1","0","0","[]","0","0","1","","","","","","","",""
"pit-trial","27","793908","0.0-2.0-8.0-1.0","battery-v0.2","","""event"",""trial"",""time""
""fullscreenenter"",""1"",""1266""
""blur"",""25"",""380111""
""focus"",""25"",""567446""
""blur"",""25"",""571328""
""focus"",""25"",""571628""
""fullscreenexit"",""25"",""579653""
""blur"",""25"",""581567""
""focus"",""25"",""644466""
""blur"",""25"",""740230""
""focus"",""25"",""766615""
","""event"",""trial"",""time""
""blur"",""25"",""380111""
""blur"",""25"",""571328""
""blur"",""25"",""581567""
""blur"",""25"",""740230""
","""event"",""trial"",""time""
""focus"",""25"",""567446""
""focus"",""25"",""571628""
""focus"",""25"",""644466""
""focus"",""25"",""766615""
","""event"",""trial"",""time""
""fullscreenenter"",""1"",""1266""
","""event"",""trial"",""time""
""fullscreenexit"",""25"",""579653""
","","","-1","","","20","9771","4204","&#9776;","elianto","#3366ff99"," ","-1","0","0","[118.19999998807907]","1","0","1","","","","","","","",""
"pit-trial","28","798032","0.0-2.0-8.0-2.0","battery-v0.2","","""event"",""trial"",""time""
""fullscreenenter"",""1"",""1266""
""blur"",""25"",""380111""
""focus"",""25"",""567446""
""blur"",""25"",""571328""
""focus"",""25"",""571628""
""fullscreenexit"",""25"",""579653""
""blur"",""25"",""581567""
""focus"",""25"",""644466""
""blur"",""25"",""740230""
""focus"",""25"",""766615""
","""event"",""trial"",""time""
""blur"",""25"",""380111""
""blur"",""25"",""571328""
""blur"",""25"",""581567""
""blur"",""25"",""740230""
","""event"",""trial"",""time""
""focus"",""25"",""567446""
""focus"",""25"",""571628""
""focus"",""25"",""644466""
""focus"",""25"",""766615""
","""event"",""trial"",""time""
""fullscreenenter"",""1"",""1266""
","""event"",""trial"",""time""
""fullscreenexit"",""25"",""579653""
","","","1264.300000011921","","","20","9771","4204","&#9776;","elianto","#3366ff99"," "," ","1","+10","[2115.300000011921]","1","0","1","","","","","","","",""
"pit-trial","29","801113","0.0-2.0-8.0-3.0","battery-v0.2","","""event"",""trial"",""time""
""fullscreenenter"",""1"",""1266""
""blur"",""25"",""380111""
""focus"",""25"",""567446""
""blur"",""25"",""571328""
""focus"",""25"",""571628""
""fullscreenexit"",""25"",""579653""
""blur"",""25"",""581567""
""focus"",""25"",""644466""
""blur"",""25"",""740230""
""focus"",""25"",""766615""
","""event"",""trial"",""time""
""blur"",""25"",""380111""
""blur"",""25"",""571328""
""blur"",""25"",""581567""
""blur"",""25"",""740230""
","""event"",""trial"",""time""
""focus"",""25"",""567446""
""focus"",""25"",""571628""
""focus"",""25"",""644466""
""focus"",""25"",""766615""
","""event"",""trial"",""time""
""fullscreenenter"",""1"",""1266""
","""event"",""trial"",""time""
""fullscreenexit"",""25"",""579653""
","","","223.19999998807907","","","20","9771","4204","&#9776;","elianto","#3366ff99"," "," ","1","0","[1073.3999999761581,2507.399999976158]","2","0","1","","","","","","","",""
"pit-trial","30","805976","0.0-2.0-8.0-4.0","battery-v0.2","","""event"",""trial"",""time""
""fullscreenenter"",""1"",""1266""
""blur"",""25"",""380111""
""focus"",""25"",""567446""
""blur"",""25"",""571328""
""focus"",""25"",""571628""
""fullscreenexit"",""25"",""579653""
""blur"",""25"",""581567""
""focus"",""25"",""644466""
""blur"",""25"",""740230""
""focus"",""25"",""766615""
","""event"",""trial"",""time""
""blur"",""25"",""380111""
""blur"",""25"",""571328""
""blur"",""25"",""581567""
""blur"",""25"",""740230""
","""event"",""trial"",""time""
""focus"",""25"",""567446""
""focus"",""25"",""571628""
""focus"",""25"",""644466""
""focus"",""25"",""766615""
","""event"",""trial"",""time""
""fullscreenenter"",""1"",""1266""
","""event"",""trial"",""time""
""fullscreenexit"",""25"",""579653""
","","","-1","","","20","9771","4204","&#9776;","elianto","#3366ff99"," ","-1","0","0","[]","0","0","1","","","","","","","",""
"pit-trial","31","809137","0.0-2.0-8.1-0.1","battery-v0.2","","""event"",""trial"",""time""
""fullscreenenter"",""1"",""1266""
""blur"",""25"",""380111""
""focus"",""25"",""567446""
""blur"",""25"",""571328""
""focus"",""25"",""571628""
""fullscreenexit"",""25"",""579653""
""blur"",""25"",""581567""
""focus"",""25"",""644466""
""blur"",""25"",""740230""
""focus"",""25"",""766615""
","""event"",""trial"",""time""
""blur"",""25"",""380111""
""blur"",""25"",""571328""
""blur"",""25"",""581567""
""blur"",""25"",""740230""
","""event"",""trial"",""time""
""focus"",""25"",""567446""
""focus"",""25"",""571628""
""focus"",""25"",""644466""
""focus"",""25"",""766615""
","""event"",""trial"",""time""
""fullscreenenter"",""1"",""1266""
","""event"",""trial"",""time""
""fullscreenexit"",""25"",""579653""
","","","301.19999998807907","","","20","9771","4204","&#9776;","elianto","#3366ff99"," "," ","1","+10","[131.5,1151.800000011921]","2","0","1","","","","","","","",""
"pit-trial","32","813803","0.0-2.0-8.1-1.1","battery-v0.2","","""event"",""trial"",""time""
""fullscreenenter"",""1"",""1266""
""blur"",""25"",""380111""
""focus"",""25"",""567446""
""blur"",""25"",""571328""
""focus"",""25"",""571628""
""fullscreenexit"",""25"",""579653""
""blur"",""25"",""581567""
""focus"",""25"",""644466""
""blur"",""25"",""740230""
""focus"",""25"",""766615""
","""event"",""trial"",""time""
""blur"",""25"",""380111""
""blur"",""25"",""571328""
""blur"",""25"",""581567""
""blur"",""25"",""740230""
","""event"",""trial"",""time""
""focus"",""25"",""567446""
""focus"",""25"",""571628""
""focus"",""25"",""644466""
""focus"",""25"",""766615""
","""event"",""trial"",""time""
""fullscreenenter"",""1"",""1266""
","""event"",""trial"",""time""
""fullscreenexit"",""25"",""579653""
","","","1801.5","","","20","9771","4204","&#9776;","elianto","#3366ff99"," "," ","1","+10","[840.8999999761581,2653.199999988079]","2","0","1","","","","","","","",""
"pit-trial","33","817065","0.0-2.0-8.1-2.1","battery-v0.2","","""event"",""trial"",""time""
""fullscreenenter"",""1"",""1266""
""blur"",""25"",""380111""
""focus"",""25"",""567446""
""blur"",""25"",""571328""
""focus"",""25"",""571628""
""fullscreenexit"",""25"",""579653""
""blur"",""25"",""581567""
""focus"",""25"",""644466""
""blur"",""25"",""740230""
""focus"",""25"",""766615""
","""event"",""trial"",""time""
""blur"",""25"",""380111""
""blur"",""25"",""571328""
""blur"",""25"",""581567""
""blur"",""25"",""740230""
","""event"",""trial"",""time""
""focus"",""25"",""567446""
""focus"",""25"",""571628""
""focus"",""25"",""644466""
""focus"",""25"",""766615""
","""event"",""trial"",""time""
""fullscreenenter"",""1"",""1266""
","""event"",""trial"",""time""
""fullscreenexit"",""25"",""579653""
","","","399.69999998807907","","","20","9771","4204","&#9776;","elianto","#3366ff99"," "," ","1","+10","[1250.0999999642372,1700,1956.2999999523163,2372.399999976158,2622.7999999523163,2854]","6","0","1","","","","","","","",""
"pit-trial","34","821753","0.0-2.0-8.1-3.1","battery-v0.2","","""event"",""trial"",""time""
""fullscreenenter"",""1"",""1266""
""blur"",""25"",""380111""
""focus"",""25"",""567446""
""blur"",""25"",""571328""
""focus"",""25"",""571628""
""fullscreenexit"",""25"",""579653""
""blur"",""25"",""581567""
""focus"",""25"",""644466""
""blur"",""25"",""740230""
""focus"",""25"",""766615""
","""event"",""trial"",""time""
""blur"",""25"",""380111""
""blur"",""25"",""571328""
""blur"",""25"",""581567""
""blur"",""25"",""740230""
","""event"",""trial"",""time""
""focus"",""25"",""567446""
""focus"",""25"",""571628""
""focus"",""25"",""644466""
""focus"",""25"",""766615""
","""event"",""trial"",""time""
""fullscreenenter"",""1"",""1266""
","""event"",""trial"",""time""
""fullscreenexit"",""25"",""579653""
","","","1825.2999999523163","","","20","9771","4204","&#9776;","elianto","#3366ff99"," "," ","1","0","[2675.5]","1","0","1","","","","","","","",""
"pit-trial","35","824787","0.0-2.0-8.1-4.1","battery-v0.2","","""event"",""trial"",""time""
""fullscreenenter"",""1"",""1266""
""blur"",""25"",""380111""
""focus"",""25"",""567446""
""blur"",""25"",""571328""
""focus"",""25"",""571628""
""fullscreenexit"",""25"",""579653""
""blur"",""25"",""581567""
""focus"",""25"",""644466""
""blur"",""25"",""740230""
""focus"",""25"",""766615""
","""event"",""trial"",""time""
""blur"",""25"",""380111""
""blur"",""25"",""571328""
""blur"",""25"",""581567""
""blur"",""25"",""740230""
","""event"",""trial"",""time""
""focus"",""25"",""567446""
""focus"",""25"",""571628""
""focus"",""25"",""644466""
""focus"",""25"",""766615""
","""event"",""trial"",""time""
""fullscreenenter"",""1"",""1266""
","""event"",""trial"",""time""
""fullscreenexit"",""25"",""579653""
","","","174.69999998807907","","","20","9771","4204","&#9776;","elianto","#3366ff99"," "," ","1","+10","[1025.5]","1","0","1","","","","","","","",""
"pit-trial","36","827753","0.0-2.0-8.2-0.2","battery-v0.2","","""event"",""trial"",""time""
""fullscreenenter"",""1"",""1266""
""blur"",""25"",""380111""
""focus"",""25"",""567446""
""blur"",""25"",""571328""
""focus"",""25"",""571628""
""fullscreenexit"",""25"",""579653""
""blur"",""25"",""581567""
""focus"",""25"",""644466""
""blur"",""25"",""740230""
""focus"",""25"",""766615""
","""event"",""trial"",""time""
""blur"",""25"",""380111""
""blur"",""25"",""571328""
""blur"",""25"",""581567""
""blur"",""25"",""740230""
","""event"",""trial"",""time""
""focus"",""25"",""567446""
""focus"",""25"",""571628""
""focus"",""25"",""644466""
""focus"",""25"",""766615""
","""event"",""trial"",""time""
""fullscreenenter"",""1"",""1266""
","""event"",""trial"",""time""
""fullscreenexit"",""25"",""579653""
","","","104","","","20","9771","4204","&#9776;","elianto","#3366ff99"," "," ","1","+10","[954.8999999761581]","1","0","1","","","","","","","",""
"pit-trial","37","832270","0.0-2.0-8.2-1.2","battery-v0.2","","""event"",""trial"",""time""
""fullscreenenter"",""1"",""1266""
""blur"",""25"",""380111""
""focus"",""25"",""567446""
""blur"",""25"",""571328""
""focus"",""25"",""571628""
""fullscreenexit"",""25"",""579653""
""blur"",""25"",""581567""
""focus"",""25"",""644466""
""blur"",""25"",""740230""
""focus"",""25"",""766615""
","""event"",""trial"",""time""
""blur"",""25"",""380111""
""blur"",""25"",""571328""
""blur"",""25"",""581567""
""blur"",""25"",""740230""
","""event"",""trial"",""time""
""focus"",""25"",""567446""
""focus"",""25"",""571628""
""focus"",""25"",""644466""
""focus"",""25"",""766615""
","""event"",""trial"",""time""
""fullscreenenter"",""1"",""1266""
","""event"",""trial"",""time""
""fullscreenexit"",""25"",""579653""
","","","1655.8999999761581","","","20","9771","4204","&#9776;","elianto","#3366ff99"," "," ","1","+10","[2506.199999988079]","1","0","1","","","","","","","",""
"pit-trial","38","835285","0.0-2.0-8.2-2.2","battery-v0.2","","""event"",""trial"",""time""
""fullscreenenter"",""1"",""1266""
""blur"",""25"",""380111""
""focus"",""25"",""567446""
""blur"",""25"",""571328""
""focus"",""25"",""571628""
""fullscreenexit"",""25"",""579653""
""blur"",""25"",""581567""
""focus"",""25"",""644466""
""blur"",""25"",""740230""
""focus"",""25"",""766615""
","""event"",""trial"",""time""
""blur"",""25"",""380111""
""blur"",""25"",""571328""
""blur"",""25"",""581567""
""blur"",""25"",""740230""
","""event"",""trial"",""time""
""focus"",""25"",""567446""
""focus"",""25"",""571628""
""focus"",""25"",""644466""
""focus"",""25"",""766615""
","""event"",""trial"",""time""
""fullscreenenter"",""1"",""1266""
","""event"",""trial"",""time""
""fullscreenexit"",""25"",""579653""
","","","156.19999998807907","","","20","9771","4204","&#9776;","elianto","#3366ff99"," "," ","1","+10","[1007.1000000238419]","1","0","1","","","","","","","",""
"pit-trial","39","838269","0.0-2.0-8.2-3.2","battery-v0.2","","""event"",""trial"",""time""
""fullscreenenter"",""1"",""1266""
""blur"",""25"",""380111""
""focus"",""25"",""567446""
""blur"",""25"",""571328""
""focus"",""25"",""571628""
""fullscreenexit"",""25"",""579653""
""blur"",""25"",""581567""
""focus"",""25"",""644466""
""blur"",""25"",""740230""
""focus"",""25"",""766615""
","""event"",""trial"",""time""
""blur"",""25"",""380111""
""blur"",""25"",""571328""
""blur"",""25"",""581567""
""blur"",""25"",""740230""
","""event"",""trial"",""time""
""focus"",""25"",""567446""
""focus"",""25"",""571628""
""focus"",""25"",""644466""
""focus"",""25"",""766615""
","""event"",""trial"",""time""
""fullscreenenter"",""1"",""1266""
","""event"",""trial"",""time""
""fullscreenexit"",""25"",""579653""
","","","125.30000001192093","","","20","9771","4204","&#9776;","elianto","#3366ff99"," "," ","1","0","[976.5]","1","0","1","","","","","","","",""
"pit-trial","40","841468","0.0-2.0-8.2-4.2","battery-v0.2","","""event"",""trial"",""time""
""fullscreenenter"",""1"",""1266""
""blur"",""25"",""380111""
""focus"",""25"",""567446""
""blur"",""25"",""571328""
""focus"",""25"",""571628""
""fullscreenexit"",""25"",""579653""
""blur"",""25"",""581567""
""focus"",""25"",""644466""
""blur"",""25"",""740230""
""focus"",""25"",""766615""
","""event"",""trial"",""time""
""blur"",""25"",""380111""
""blur"",""25"",""571328""
""blur"",""25"",""581567""
""blur"",""25"",""740230""
","""event"",""trial"",""time""
""focus"",""25"",""567446""
""focus"",""25"",""571628""
""focus"",""25"",""644466""
""focus"",""25"",""766615""
","""event"",""trial"",""time""
""fullscreenenter"",""1"",""1266""
","""event"",""trial"",""time""
""fullscreenexit"",""25"",""579653""
","","","334.89999997615814","","","20","9771","4204","&#9776;","elianto","#3366ff99"," "," ","1","+10","[1185.3999999761581]","1","0","1","","","","","","","",""
"call-function","41","841475","0.0-2.0-9.0","battery-v0.2","","""event"",""trial"",""time""
""fullscreenenter"",""1"",""1266""
""blur"",""25"",""380111""
""focus"",""25"",""567446""
""blur"",""25"",""571328""
""focus"",""25"",""571628""
""fullscreenexit"",""25"",""579653""
""blur"",""25"",""581567""
""focus"",""25"",""644466""
""blur"",""25"",""740230""
""focus"",""25"",""766615""
","""event"",""trial"",""time""
""blur"",""25"",""380111""
""blur"",""25"",""571328""
""blur"",""25"",""581567""
""blur"",""25"",""740230""
","""event"",""trial"",""time""
""focus"",""25"",""567446""
""focus"",""25"",""571628""
""focus"",""25"",""644466""
""focus"",""25"",""766615""
","""event"",""trial"",""time""
""fullscreenenter"",""1"",""1266""
","""event"",""trial"",""time""
""fullscreenexit"",""25"",""579653""
","","","","","","","","","","","","","","","","","","","","","","","","","","",""
"pit-instructions","42","879571","0.0-2.0-10.0","battery-v0.2","","""event"",""trial"",""time""
""fullscreenenter"",""1"",""1266""
""blur"",""25"",""380111""
""focus"",""25"",""567446""
""blur"",""25"",""571328""
""focus"",""25"",""571628""
""fullscreenexit"",""25"",""579653""
""blur"",""25"",""581567""
""focus"",""25"",""644466""
""blur"",""25"",""740230""
""focus"",""25"",""766615""
","""event"",""trial"",""time""
""blur"",""25"",""380111""
""blur"",""25"",""571328""
""blur"",""25"",""581567""
""blur"",""25"",""740230""
","""event"",""trial"",""time""
""focus"",""25"",""567446""
""focus"",""25"",""571628""
""focus"",""25"",""644466""
""focus"",""25"",""766615""
","""event"",""trial"",""time""
""fullscreenenter"",""1"",""1266""
","""event"",""trial"",""time""
""fullscreenexit"",""25"",""579653""
","","[{""page_index"":0,""viewing_time"":6820.599999964237},{""page_index"":1,""viewing_time"":6259},{""page_index"":2,""viewing_time"":9148.699999988079},{""page_index"":3,""viewing_time"":8465.800000011921},{""page_index"":4,""viewing_time"":7399.699999988079}]","38095.09999996424","","","","","","","","","","","","","","","","","","","","","","","",""
"pit-trial","43","884433","0.0-2.0-11.0-0.0","battery-v0.2","","""event"",""trial"",""time""
""fullscreenenter"",""1"",""1266""
""blur"",""25"",""380111""
""focus"",""25"",""567446""
""blur"",""25"",""571328""
""focus"",""25"",""571628""
""fullscreenexit"",""25"",""579653""
""blur"",""25"",""581567""
""focus"",""25"",""644466""
""blur"",""25"",""740230""
""focus"",""25"",""766615""
","""event"",""trial"",""time""
""blur"",""25"",""380111""
""blur"",""25"",""571328""
""blur"",""25"",""581567""
""blur"",""25"",""740230""
","""event"",""trial"",""time""
""focus"",""25"",""567446""
""focus"",""25"",""571628""
""focus"",""25"",""644466""
""focus"",""25"",""766615""
","""event"",""trial"",""time""
""fullscreenenter"",""1"",""1266""
","""event"",""trial"",""time""
""fullscreenexit"",""25"",""579653""
","","","-1","","","20","9771","4204","&#9761;","elianto","#3366ff99","-1","-1","1","+10","[]","0","0","2","","","","","","","",""
"pit-trial","44","888095","0.0-2.0-11.0-1.0","battery-v0.2","","""event"",""trial"",""time""
""fullscreenenter"",""1"",""1266""
""blur"",""25"",""380111""
""focus"",""25"",""567446""
""blur"",""25"",""571328""
""focus"",""25"",""571628""
""fullscreenexit"",""25"",""579653""
""blur"",""25"",""581567""
""focus"",""25"",""644466""
""blur"",""25"",""740230""
""focus"",""25"",""766615""
","""event"",""trial"",""time""
""blur"",""25"",""380111""
""blur"",""25"",""571328""
""blur"",""25"",""581567""
""blur"",""25"",""740230""
","""event"",""trial"",""time""
""focus"",""25"",""567446""
""focus"",""25"",""571628""
""focus"",""25"",""644466""
""focus"",""25"",""766615""
","""event"",""trial"",""time""
""fullscreenenter"",""1"",""1266""
","""event"",""trial"",""time""
""fullscreenexit"",""25"",""579653""
","","","797.5999999642372","","","20","9771","4204","&#9761;","elianto","#3366ff99","-1"," ","0","0","[1649.1000000238419]","1","0","2","","","","","","","",""
"pit-trial","45","891592","0.0-2.0-11.0-2.0","battery-v0.2","","""event"",""trial"",""time""
""fullscreenenter"",""1"",""1266""
""blur"",""25"",""380111""
""focus"",""25"",""567446""
""blur"",""25"",""571328""
""focus"",""25"",""571628""
""fullscreenexit"",""25"",""579653""
""blur"",""25"",""581567""
""focus"",""25"",""644466""
""blur"",""25"",""740230""
""focus"",""25"",""766615""
","""event"",""trial"",""time""
""blur"",""25"",""380111""
""blur"",""25"",""571328""
""blur"",""25"",""581567""
""blur"",""25"",""740230""
","""event"",""trial"",""time""
""focus"",""25"",""567446""
""focus"",""25"",""571628""
""focus"",""25"",""644466""
""focus"",""25"",""766615""
","""event"",""trial"",""time""
""fullscreenenter"",""1"",""1266""
","""event"",""trial"",""time""
""fullscreenexit"",""25"",""579653""
","","","633.0999999642372","","","20","9771","4204","&#9761;","elianto","#3366ff99","-1"," ","0","0","[1483.5]","1","0","2","","","","","","","",""
"pit-trial","46","895075","0.0-2.0-11.0-3.0","battery-v0.2","","""event"",""trial"",""time""
""fullscreenenter"",""1"",""1266""
""blur"",""25"",""380111""
""focus"",""25"",""567446""
""blur"",""25"",""571328""
""focus"",""25"",""571628""
""fullscreenexit"",""25"",""579653""
""blur"",""25"",""581567""
""focus"",""25"",""644466""
""blur"",""25"",""740230""
""focus"",""25"",""766615""
","""event"",""trial"",""time""
""blur"",""25"",""380111""
""blur"",""25"",""571328""
""blur"",""25"",""581567""
""blur"",""25"",""740230""
","""event"",""trial"",""time""
""focus"",""25"",""567446""
""focus"",""25"",""571628""
""focus"",""25"",""644466""
""focus"",""25"",""766615""
","""event"",""trial"",""time""
""fullscreenenter"",""1"",""1266""
","""event"",""trial"",""time""
""fullscreenexit"",""25"",""579653""
","","","622.8999999761581","","","20","9771","4204","&#9761;","elianto","#3366ff99","-1"," ","0","+10","[1473.1000000238419]","1","0","2","","","","","","","",""
"pit-trial","47","899936","0.0-2.0-11.0-4.0","battery-v0.2","","""event"",""trial"",""time""
""fullscreenenter"",""1"",""1266""
""blur"",""25"",""380111""
""focus"",""25"",""567446""
""blur"",""25"",""571328""
""focus"",""25"",""571628""
""fullscreenexit"",""25"",""579653""
""blur"",""25"",""581567""
""focus"",""25"",""644466""
""blur"",""25"",""740230""
""focus"",""25"",""766615""
","""event"",""trial"",""time""
""blur"",""25"",""380111""
""blur"",""25"",""571328""
""blur"",""25"",""581567""
""blur"",""25"",""740230""
","""event"",""trial"",""time""
""focus"",""25"",""567446""
""focus"",""25"",""571628""
""focus"",""25"",""644466""
""focus"",""25"",""766615""
","""event"",""trial"",""time""
""fullscreenenter"",""1"",""1266""
","""event"",""trial"",""time""
""fullscreenexit"",""25"",""579653""
","","","-1","","","20","9771","4204","&#9761;","elianto","#3366ff99","-1","-1","1","+10","[]","0","0","2","","","","","","","",""
"pit-trial","48","904799","0.0-2.0-11.1-0.1","battery-v0.2","","""event"",""trial"",""time""
""fullscreenenter"",""1"",""1266""
""blur"",""25"",""380111""
""focus"",""25"",""567446""
""blur"",""25"",""571328""
""focus"",""25"",""571628""
""fullscreenexit"",""25"",""579653""
""blur"",""25"",""581567""
""focus"",""25"",""644466""
""blur"",""25"",""740230""
""focus"",""25"",""766615""
","""event"",""trial"",""time""
""blur"",""25"",""380111""
""blur"",""25"",""571328""
""blur"",""25"",""581567""
""blur"",""25"",""740230""
","""event"",""trial"",""time""
""focus"",""25"",""567446""
""focus"",""25"",""571628""
""focus"",""25"",""644466""
""focus"",""25"",""766615""
","""event"",""trial"",""time""
""fullscreenenter"",""1"",""1266""
","""event"",""trial"",""time""
""fullscreenexit"",""25"",""579653""
","","","-1","","","20","9771","4204","&#9761;","elianto","#3366ff99","-1","-1","1","+10","[]","0","0","2","","","","","","","",""
"pit-trial","49","909672","0.0-2.0-11.1-1.1","battery-v0.2","","""event"",""trial"",""time""
""fullscreenenter"",""1"",""1266""
""blur"",""25"",""380111""
""focus"",""25"",""567446""
""blur"",""25"",""571328""
""focus"",""25"",""571628""
""fullscreenexit"",""25"",""579653""
""blur"",""25"",""581567""
""focus"",""25"",""644466""
""blur"",""25"",""740230""
""focus"",""25"",""766615""
","""event"",""trial"",""time""
""blur"",""25"",""380111""
""blur"",""25"",""571328""
""blur"",""25"",""581567""
""blur"",""25"",""740230""
","""event"",""trial"",""time""
""focus"",""25"",""567446""
""focus"",""25"",""571628""
""focus"",""25"",""644466""
""focus"",""25"",""766615""
","""event"",""trial"",""time""
""fullscreenenter"",""1"",""1266""
","""event"",""trial"",""time""
""fullscreenexit"",""25"",""579653""
","","","-1","","","20","9771","4204","&#9761;","elianto","#3366ff99","-1","-1","1","+10","[]","0","0","2","","","","","","","",""
"pit-trial","50","914535","0.0-2.0-11.1-2.1","battery-v0.2","","""event"",""trial"",""time""
""fullscreenenter"",""1"",""1266""
""blur"",""25"",""380111""
""focus"",""25"",""567446""
""blur"",""25"",""571328""
""focus"",""25"",""571628""
""fullscreenexit"",""25"",""579653""
""blur"",""25"",""581567""
""focus"",""25"",""644466""
""blur"",""25"",""740230""
""focus"",""25"",""766615""
","""event"",""trial"",""time""
""blur"",""25"",""380111""
""blur"",""25"",""571328""
""blur"",""25"",""581567""
""blur"",""25"",""740230""
","""event"",""trial"",""time""
""focus"",""25"",""567446""
""focus"",""25"",""571628""
""focus"",""25"",""644466""
""focus"",""25"",""766615""
","""event"",""trial"",""time""
""fullscreenenter"",""1"",""1266""
","""event"",""trial"",""time""
""fullscreenexit"",""25"",""579653""
","","","-1","","","20","9771","4204","&#9761;","elianto","#3366ff99","-1","-1","1","+10","[]","0","0","2","","","","","","","",""
"pit-trial","51","919399","0.0-2.0-11.1-3.1","battery-v0.2","","""event"",""trial"",""time""
""fullscreenenter"",""1"",""1266""
""blur"",""25"",""380111""
""focus"",""25"",""567446""
""blur"",""25"",""571328""
""focus"",""25"",""571628""
""fullscreenexit"",""25"",""579653""
""blur"",""25"",""581567""
""focus"",""25"",""644466""
""blur"",""25"",""740230""
""focus"",""25"",""766615""
","""event"",""trial"",""time""
""blur"",""25"",""380111""
""blur"",""25"",""571328""
""blur"",""25"",""581567""
""blur"",""25"",""740230""
","""event"",""trial"",""time""
""focus"",""25"",""567446""
""focus"",""25"",""571628""
""focus"",""25"",""644466""
""focus"",""25"",""766615""
","""event"",""trial"",""time""
""fullscreenenter"",""1"",""1266""
","""event"",""trial"",""time""
""fullscreenexit"",""25"",""579653""
","","","-1","","","20","9771","4204","&#9761;","elianto","#3366ff99","-1","-1","1","0","[]","0","0","2","","","","","","","",""
"pit-trial","52","924263","0.0-2.0-11.1-4.1","battery-v0.2","","""event"",""trial"",""time""
""fullscreenenter"",""1"",""1266""
""blur"",""25"",""380111""
""focus"",""25"",""567446""
""blur"",""25"",""571328""
""focus"",""25"",""571628""
""fullscreenexit"",""25"",""579653""
""blur"",""25"",""581567""
""focus"",""25"",""644466""
""blur"",""25"",""740230""
""focus"",""25"",""766615""
","""event"",""trial"",""time""
""blur"",""25"",""380111""
""blur"",""25"",""571328""
""blur"",""25"",""581567""
""blur"",""25"",""740230""
","""event"",""trial"",""time""
""focus"",""25"",""567446""
""focus"",""25"",""571628""
""focus"",""25"",""644466""
""focus"",""25"",""766615""
","""event"",""trial"",""time""
""fullscreenenter"",""1"",""1266""
","""event"",""trial"",""time""
""fullscreenexit"",""25"",""579653""
","","","-1","","","20","9771","4204","&#9761;","elianto","#3366ff99","-1","-1","1","+10","[]","0","0","2","","","","","","","",""
"pit-trial","53","929126","0.0-2.0-11.2-0.2","battery-v0.2","","""event"",""trial"",""time""
""fullscreenenter"",""1"",""1266""
""blur"",""25"",""380111""
""focus"",""25"",""567446""
""blur"",""25"",""571328""
""focus"",""25"",""571628""
""fullscreenexit"",""25"",""579653""
""blur"",""25"",""581567""
""focus"",""25"",""644466""
""blur"",""25"",""740230""
""focus"",""25"",""766615""
","""event"",""trial"",""time""
""blur"",""25"",""380111""
""blur"",""25"",""571328""
""blur"",""25"",""581567""
""blur"",""25"",""740230""
","""event"",""trial"",""time""
""focus"",""25"",""567446""
""focus"",""25"",""571628""
""focus"",""25"",""644466""
""focus"",""25"",""766615""
","""event"",""trial"",""time""
""fullscreenenter"",""1"",""1266""
","""event"",""trial"",""time""
""fullscreenexit"",""25"",""579653""
","","","-1","","","20","9771","4204","&#9761;","elianto","#3366ff99","-1","-1","1","+10","[]","0","0","2","","","","","","","",""
"pit-trial","54","933991","0.0-2.0-11.2-1.2","battery-v0.2","","""event"",""trial"",""time""
""fullscreenenter"",""1"",""1266""
""blur"",""25"",""380111""
""focus"",""25"",""567446""
""blur"",""25"",""571328""
""focus"",""25"",""571628""
""fullscreenexit"",""25"",""579653""
""blur"",""25"",""581567""
""focus"",""25"",""644466""
""blur"",""25"",""740230""
""focus"",""25"",""766615""
","""event"",""trial"",""time""
""blur"",""25"",""380111""
""blur"",""25"",""571328""
""blur"",""25"",""581567""
""blur"",""25"",""740230""
","""event"",""trial"",""time""
""focus"",""25"",""567446""
""focus"",""25"",""571628""
""focus"",""25"",""644466""
""focus"",""25"",""766615""
","""event"",""trial"",""time""
""fullscreenenter"",""1"",""1266""
","""event"",""trial"",""time""
""fullscreenexit"",""25"",""579653""
","","","-1","","","20","9771","4204","&#9761;","elianto","#3366ff99","-1","-1","1","+10","[]","0","0","2","","","","","","","",""
"pit-trial","55","938855","0.0-2.0-11.2-2.2","battery-v0.2","","""event"",""trial"",""time""
""fullscreenenter"",""1"",""1266""
""blur"",""25"",""380111""
""focus"",""25"",""567446""
""blur"",""25"",""571328""
""focus"",""25"",""571628""
""fullscreenexit"",""25"",""579653""
""blur"",""25"",""581567""
""focus"",""25"",""644466""
""blur"",""25"",""740230""
""focus"",""25"",""766615""
","""event"",""trial"",""time""
""blur"",""25"",""380111""
""blur"",""25"",""571328""
""blur"",""25"",""581567""
""blur"",""25"",""740230""
","""event"",""trial"",""time""
""focus"",""25"",""567446""
""focus"",""25"",""571628""
""focus"",""25"",""644466""
""focus"",""25"",""766615""
","""event"",""trial"",""time""
""fullscreenenter"",""1"",""1266""
","""event"",""trial"",""time""
""fullscreenexit"",""25"",""579653""
","","","-1","","","20","9771","4204","&#9761;","elianto","#3366ff99","-1","-1","1","+10","[]","0","0","2","","","","","","","",""
"pit-trial","56","943719","0.0-2.0-11.2-3.2","battery-v0.2","","""event"",""trial"",""time""
""fullscreenenter"",""1"",""1266""
""blur"",""25"",""380111""
""focus"",""25"",""567446""
""blur"",""25"",""571328""
""focus"",""25"",""571628""
""fullscreenexit"",""25"",""579653""
""blur"",""25"",""581567""
""focus"",""25"",""644466""
""blur"",""25"",""740230""
""focus"",""25"",""766615""
","""event"",""trial"",""time""
""blur"",""25"",""380111""
""blur"",""25"",""571328""
""blur"",""25"",""581567""
""blur"",""25"",""740230""
","""event"",""trial"",""time""
""focus"",""25"",""567446""
""focus"",""25"",""571628""
""focus"",""25"",""644466""
""focus"",""25"",""766615""
","""event"",""trial"",""time""
""fullscreenenter"",""1"",""1266""
","""event"",""trial"",""time""
""fullscreenexit"",""25"",""579653""
","","","-1","","","20","9771","4204","&#9761;","elianto","#3366ff99","-1","-1","1","0","[3621.5,3784,4173.899999976158]","3","0","2","","","","","","","",""
"pit-trial","57","946775","0.0-2.0-11.2-4.2","battery-v0.2","","""event"",""trial"",""time""
""fullscreenenter"",""1"",""1266""
""blur"",""25"",""380111""
""focus"",""25"",""567446""
""blur"",""25"",""571328""
""focus"",""25"",""571628""
""fullscreenexit"",""25"",""579653""
""blur"",""25"",""581567""
""focus"",""25"",""644466""
""blur"",""25"",""740230""
""focus"",""25"",""766615""
","""event"",""trial"",""time""
""blur"",""25"",""380111""
""blur"",""25"",""571328""
""blur"",""25"",""581567""
""blur"",""25"",""740230""
","""event"",""trial"",""time""
""focus"",""25"",""567446""
""focus"",""25"",""571628""
""focus"",""25"",""644466""
""focus"",""25"",""766615""
","""event"",""trial"",""time""
""fullscreenenter"",""1"",""1266""
","""event"",""trial"",""time""
""fullscreenexit"",""25"",""579653""
","","","196.30000001192093","","","20","9771","4204","&#9761;","elianto","#3366ff99","-1"," ","0","0","[1046.3999999761581]","1","0","2","","","","","","","",""
"pit-trial","58","951431","0.0-2.0-11.3-0.3","battery-v0.2","","""event"",""trial"",""time""
""fullscreenenter"",""1"",""1266""
""blur"",""25"",""380111""
""focus"",""25"",""567446""
""blur"",""25"",""571328""
""focus"",""25"",""571628""
""fullscreenexit"",""25"",""579653""
""blur"",""25"",""581567""
""focus"",""25"",""644466""
""blur"",""25"",""740230""
""focus"",""25"",""766615""
","""event"",""trial"",""time""
""blur"",""25"",""380111""
""blur"",""25"",""571328""
""blur"",""25"",""581567""
""blur"",""25"",""740230""
","""event"",""trial"",""time""
""focus"",""25"",""567446""
""focus"",""25"",""571628""
""focus"",""25"",""644466""
""focus"",""25"",""766615""
","""event"",""trial"",""time""
""fullscreenenter"",""1"",""1266""
","""event"",""trial"",""time""
""fullscreenexit"",""25"",""579653""
","","","1793.5999999642372","","","20","9771","4204","&#9761;","elianto","#3366ff99","-1"," ","0","0","[778.3999999761581,2643.800000011921]","2","0","2","","","","","","","",""
"pit-trial","59","954725","0.0-2.0-11.3-1.3","battery-v0.2","","""event"",""trial"",""time""
""fullscreenenter"",""1"",""1266""
""blur"",""25"",""380111""
""focus"",""25"",""567446""
""blur"",""25"",""571328""
""focus"",""25"",""571628""
""fullscreenexit"",""25"",""579653""
""blur"",""25"",""581567""
""focus"",""25"",""644466""
""blur"",""25"",""740230""
""focus"",""25"",""766615""
","""event"",""trial"",""time""
""blur"",""25"",""380111""
""blur"",""25"",""571328""
""blur"",""25"",""581567""
""blur"",""25"",""740230""
","""event"",""trial"",""time""
""focus"",""25"",""567446""
""focus"",""25"",""571628""
""focus"",""25"",""644466""
""focus"",""25"",""766615""
","""event"",""trial"",""time""
""fullscreenenter"",""1"",""1266""
","""event"",""trial"",""time""
""fullscreenexit"",""25"",""579653""
","","","429.19999998807907","","","20","9771","4204","&#9761;","elianto","#3366ff99","-1"," ","0","0","[1279.5]","1","0","2","","","","","","","",""
"pit-trial","60","959492","0.0-2.0-11.3-2.3","battery-v0.2","","""event"",""trial"",""time""
""fullscreenenter"",""1"",""1266""
""blur"",""25"",""380111""
""focus"",""25"",""567446""
""blur"",""25"",""571328""
""focus"",""25"",""571628""
""fullscreenexit"",""25"",""579653""
""blur"",""25"",""581567""
""focus"",""25"",""644466""
""blur"",""25"",""740230""
""focus"",""25"",""766615""
","""event"",""trial"",""time""
""blur"",""25"",""380111""
""blur"",""25"",""571328""
""blur"",""25"",""581567""
""blur"",""25"",""740230""
","""event"",""trial"",""time""
""focus"",""25"",""567446""
""focus"",""25"",""571628""
""focus"",""25"",""644466""
""focus"",""25"",""766615""
","""event"",""trial"",""time""
""fullscreenenter"",""1"",""1266""
","""event"",""trial"",""time""
""fullscreenexit"",""25"",""579653""
","","","1902.699999988079","","","20","9771","4204","&#9761;","elianto","#3366ff99","-1"," ","0","0","[571.5999999642372,2753.099999964237,3442.599999964237]","3","0","2","","","","","","","",""
"pit-trial","61","964353","0.0-2.0-11.3-3.3","battery-v0.2","","""event"",""trial"",""time""
""fullscreenenter"",""1"",""1266""
""blur"",""25"",""380111""
""focus"",""25"",""567446""
""blur"",""25"",""571328""
""focus"",""25"",""571628""
""fullscreenexit"",""25"",""579653""
""blur"",""25"",""581567""
""focus"",""25"",""644466""
""blur"",""25"",""740230""
""focus"",""25"",""766615""
","""event"",""trial"",""time""
""blur"",""25"",""380111""
""blur"",""25"",""571328""
""blur"",""25"",""581567""
""blur"",""25"",""740230""
","""event"",""trial"",""time""
""focus"",""25"",""567446""
""focus"",""25"",""571628""
""focus"",""25"",""644466""
""focus"",""25"",""766615""
","""event"",""trial"",""time""
""fullscreenenter"",""1"",""1266""
","""event"",""trial"",""time""
""fullscreenexit"",""25"",""579653""
","","","-1","","","20","9771","4204","&#9761;","elianto","#3366ff99","-1","-1","1","0","[732.5999999642372,4741]","2","0","2","","","","","","","",""
"pit-trial","62","967361","0.0-2.0-11.3-4.3","battery-v0.2","","""event"",""trial"",""time""
""fullscreenenter"",""1"",""1266""
""blur"",""25"",""380111""
""focus"",""25"",""567446""
""blur"",""25"",""571328""
""focus"",""25"",""571628""
""fullscreenexit"",""25"",""579653""
""blur"",""25"",""581567""
""focus"",""25"",""644466""
""blur"",""25"",""740230""
""focus"",""25"",""766615""
","""event"",""trial"",""time""
""blur"",""25"",""380111""
""blur"",""25"",""571328""
""blur"",""25"",""581567""
""blur"",""25"",""740230""
","""event"",""trial"",""time""
""focus"",""25"",""567446""
""focus"",""25"",""571628""
""focus"",""25"",""644466""
""focus"",""25"",""766615""
","""event"",""trial"",""time""
""fullscreenenter"",""1"",""1266""
","""event"",""trial"",""time""
""fullscreenexit"",""25"",""579653""
","","","145.89999997615814","","","20","9771","4204","&#9761;","elianto","#3366ff99","-1"," ","0","0","[133.79999995231628,566.3999999761581,788.7999999523163,997.0999999642372,1190.199999988079,1392.3999999761581,1596.199999988079,1802.699999988079,2011.3999999761581,2224.399999976158,2432.599999964237,2587.2999999523163,2916.599999964237]","13","0","2","","","","","","","",""
"call-function","63","967369","0.0-2.0-12.0","battery-v0.2","","""event"",""trial"",""time""
""fullscreenenter"",""1"",""1266""
""blur"",""25"",""380111""
""focus"",""25"",""567446""
""blur"",""25"",""571328""
""focus"",""25"",""571628""
""fullscreenexit"",""25"",""579653""
""blur"",""25"",""581567""
""focus"",""25"",""644466""
""blur"",""25"",""740230""
""focus"",""25"",""766615""
""blur"",""64"",""985369""
""focus"",""64"",""1013313""
","""event"",""trial"",""time""
""blur"",""25"",""380111""
""blur"",""25"",""571328""
""blur"",""25"",""581567""
""blur"",""25"",""740230""
""blur"",""64"",""985369""
","""event"",""trial"",""time""
""focus"",""25"",""567446""
""focus"",""25"",""571628""
""focus"",""25"",""644466""
""focus"",""25"",""766615""
""focus"",""64"",""1013313""
","""event"",""trial"",""time""
""fullscreenenter"",""1"",""1266""
","""event"",""trial"",""time""
""fullscreenexit"",""25"",""579653""
","","","","","","","","","","","","","","","","","","","","","","","","","","",""
"pit-instructions","64","1020628","0.0-2.0-13.0","battery-v0.2","","""event"",""trial"",""time""
""fullscreenenter"",""1"",""1266""
""blur"",""25"",""380111""
""focus"",""25"",""567446""
""blur"",""25"",""571328""
""focus"",""25"",""571628""
""fullscreenexit"",""25"",""579653""
""blur"",""25"",""581567""
""focus"",""25"",""644466""
""blur"",""25"",""740230""
""focus"",""25"",""766615""
""blur"",""64"",""985369""
""focus"",""64"",""1013313""
","""event"",""trial"",""time""
""blur"",""25"",""380111""
""blur"",""25"",""571328""
""blur"",""25"",""581567""
""blur"",""25"",""740230""
""blur"",""64"",""985369""
","""event"",""trial"",""time""
""focus"",""25"",""567446""
""focus"",""25"",""571628""
""focus"",""25"",""644466""
""focus"",""25"",""766615""
""focus"",""64"",""1013313""
","""event"",""trial"",""time""
""fullscreenenter"",""1"",""1266""
","""event"",""trial"",""time""
""fullscreenexit"",""25"",""579653""
","","[{""page_index"":0,""viewing_time"":5278.399999976158},{""page_index"":1,""viewing_time"":6834},{""page_index"":2,""viewing_time"":3116.399999976158},{""page_index"":3,""viewing_time"":31129.900000035763},{""page_index"":4,""viewing_time"":6899.599999964237}]","53258.89999997616","","","","","","","","","","","","","","","","","","","","","","","",""
"pit-trial","65","1025492","0.0-2.0-14.0-0.0","battery-v0.2","","""event"",""trial"",""time""
""fullscreenenter"",""1"",""1266""
""blur"",""25"",""380111""
""focus"",""25"",""567446""
""blur"",""25"",""571328""
""focus"",""25"",""571628""
""fullscreenexit"",""25"",""579653""
""blur"",""25"",""581567""
""focus"",""25"",""644466""
""blur"",""25"",""740230""
""focus"",""25"",""766615""
""blur"",""64"",""985369""
""focus"",""64"",""1013313""
","""event"",""trial"",""time""
""blur"",""25"",""380111""
""blur"",""25"",""571328""
""blur"",""25"",""581567""
""blur"",""25"",""740230""
""blur"",""64"",""985369""
","""event"",""trial"",""time""
""focus"",""25"",""567446""
""focus"",""25"",""571628""
""focus"",""25"",""644466""
""focus"",""25"",""766615""
""focus"",""64"",""1013313""
","""event"",""trial"",""time""
""fullscreenenter"",""1"",""1266""
","""event"",""trial"",""time""
""fullscreenexit"",""25"",""579653""
","","","-1","","","20","9771","4204","&#9826;","elianto","#f73b6a7A","-1","-1","1","0","[]","0","0","3","","","","","","","",""
"pit-trial","66","1030349","0.0-2.0-14.0-1.0","battery-v0.2","","""event"",""trial"",""time""
""fullscreenenter"",""1"",""1266""
""blur"",""25"",""380111""
""focus"",""25"",""567446""
""blur"",""25"",""571328""
""focus"",""25"",""571628""
""fullscreenexit"",""25"",""579653""
""blur"",""25"",""581567""
""focus"",""25"",""644466""
""blur"",""25"",""740230""
""focus"",""25"",""766615""
""blur"",""64"",""985369""
""focus"",""64"",""1013313""
","""event"",""trial"",""time""
""blur"",""25"",""380111""
""blur"",""25"",""571328""
""blur"",""25"",""581567""
""blur"",""25"",""740230""
""blur"",""64"",""985369""
","""event"",""trial"",""time""
""focus"",""25"",""567446""
""focus"",""25"",""571628""
""focus"",""25"",""644466""
""focus"",""25"",""766615""
""focus"",""64"",""1013313""
","""event"",""trial"",""time""
""fullscreenenter"",""1"",""1266""
","""event"",""trial"",""time""
""fullscreenexit"",""25"",""579653""
","","","1995","","","20","9771","4204","&#9826;","elianto","#f73b6a7A","-1"," ","0","-10","[2846.5]","1","0","3","","","","","","","",""
"pit-trial","67","1035213","0.0-2.0-14.0-2.0","battery-v0.2","","""event"",""trial"",""time""
""fullscreenenter"",""1"",""1266""
""blur"",""25"",""380111""
""focus"",""25"",""567446""
""blur"",""25"",""571328""
""focus"",""25"",""571628""
""fullscreenexit"",""25"",""579653""
""blur"",""25"",""581567""
""focus"",""25"",""644466""
""blur"",""25"",""740230""
""focus"",""25"",""766615""
""blur"",""64"",""985369""
""focus"",""64"",""1013313""
","""event"",""trial"",""time""
""blur"",""25"",""380111""
""blur"",""25"",""571328""
""blur"",""25"",""581567""
""blur"",""25"",""740230""
""blur"",""64"",""985369""
","""event"",""trial"",""time""
""focus"",""25"",""567446""
""focus"",""25"",""571628""
""focus"",""25"",""644466""
""focus"",""25"",""766615""
""focus"",""64"",""1013313""
","""event"",""trial"",""time""
""fullscreenenter"",""1"",""1266""
","""event"",""trial"",""time""
""fullscreenexit"",""25"",""579653""
","","","-1","","","20","9771","4204","&#9826;","elianto","#f73b6a7A","-1","-1","1","0","[4116.299999952316]","1","0","3","","","","","","","",""
"pit-trial","68","1038314","0.0-2.0-14.0-3.0","battery-v0.2","","""event"",""trial"",""time""
""fullscreenenter"",""1"",""1266""
""blur"",""25"",""380111""
""focus"",""25"",""567446""
""blur"",""25"",""571328""
""focus"",""25"",""571628""
""fullscreenexit"",""25"",""579653""
""blur"",""25"",""581567""
""focus"",""25"",""644466""
""blur"",""25"",""740230""
""focus"",""25"",""766615""
""blur"",""64"",""985369""
""focus"",""64"",""1013313""
","""event"",""trial"",""time""
""blur"",""25"",""380111""
""blur"",""25"",""571328""
""blur"",""25"",""581567""
""blur"",""25"",""740230""
""blur"",""64"",""985369""
","""event"",""trial"",""time""
""focus"",""25"",""567446""
""focus"",""25"",""571628""
""focus"",""25"",""644466""
""focus"",""25"",""766615""
""focus"",""64"",""1013313""
","""event"",""trial"",""time""
""fullscreenenter"",""1"",""1266""
","""event"",""trial"",""time""
""fullscreenexit"",""25"",""579653""
","","","240.69999998807907","","","20","9771","4204","&#9826;","elianto","#f73b6a7A","-1"," ","0","0","[1090.8999999761581,1299.2999999523163,1515.199999988079,1700.8999999761581,1897.5,2083.899999976158,2276.199999988079,2463.599999964237]","8","0","3","","","","","","","",""
"pit-trial","69","1043179","0.0-2.0-14.0-4.0","battery-v0.2","","""event"",""trial"",""time""
""fullscreenenter"",""1"",""1266""
""blur"",""25"",""380111""
""focus"",""25"",""567446""
""blur"",""25"",""571328""
""focus"",""25"",""571628""
""fullscreenexit"",""25"",""579653""
""blur"",""25"",""581567""
""focus"",""25"",""644466""
""blur"",""25"",""740230""
""focus"",""25"",""766615""
""blur"",""64"",""985369""
""focus"",""64"",""1013313""
","""event"",""trial"",""time""
""blur"",""25"",""380111""
""blur"",""25"",""571328""
""blur"",""25"",""581567""
""blur"",""25"",""740230""
""blur"",""64"",""985369""
","""event"",""trial"",""time""
""focus"",""25"",""567446""
""focus"",""25"",""571628""
""focus"",""25"",""644466""
""focus"",""25"",""766615""
""focus"",""64"",""1013313""
","""event"",""trial"",""time""
""fullscreenenter"",""1"",""1266""
","""event"",""trial"",""time""
""fullscreenexit"",""25"",""579653""
","","","-1","","","20","9771","4204","&#9826;","elianto","#f73b6a7A","-1","-1","1","0","[]","0","0","3","","","","","","","",""
"pit-trial","70","1048046","0.0-2.0-14.1-0.1","battery-v0.2","","""event"",""trial"",""time""
""fullscreenenter"",""1"",""1266""
""blur"",""25"",""380111""
""focus"",""25"",""567446""
""blur"",""25"",""571328""
""focus"",""25"",""571628""
""fullscreenexit"",""25"",""579653""
""blur"",""25"",""581567""
""focus"",""25"",""644466""
""blur"",""25"",""740230""
""focus"",""25"",""766615""
""blur"",""64"",""985369""
""focus"",""64"",""1013313""
","""event"",""trial"",""time""
""blur"",""25"",""380111""
""blur"",""25"",""571328""
""blur"",""25"",""581567""
""blur"",""25"",""740230""
""blur"",""64"",""985369""
","""event"",""trial"",""time""
""focus"",""25"",""567446""
""focus"",""25"",""571628""
""focus"",""25"",""644466""
""focus"",""25"",""766615""
""focus"",""64"",""1013313""
","""event"",""trial"",""time""
""fullscreenenter"",""1"",""1266""
","""event"",""trial"",""time""
""fullscreenexit"",""25"",""579653""
","","","-1","","","20","9771","4204","&#9826;","elianto","#f73b6a7A","-1","-1","1","0","[]","0","0","3","","","","","","","",""
"pit-trial","71","1052910","0.0-2.0-14.1-1.1","battery-v0.2","","""event"",""trial"",""time""
""fullscreenenter"",""1"",""1266""
""blur"",""25"",""380111""
""focus"",""25"",""567446""
""blur"",""25"",""571328""
""focus"",""25"",""571628""
""fullscreenexit"",""25"",""579653""
""blur"",""25"",""581567""
""focus"",""25"",""644466""
""blur"",""25"",""740230""
""focus"",""25"",""766615""
""blur"",""64"",""985369""
""focus"",""64"",""1013313""
","""event"",""trial"",""time""
""blur"",""25"",""380111""
""blur"",""25"",""571328""
""blur"",""25"",""581567""
""blur"",""25"",""740230""
""blur"",""64"",""985369""
","""event"",""trial"",""time""
""focus"",""25"",""567446""
""focus"",""25"",""571628""
""focus"",""25"",""644466""
""focus"",""25"",""766615""
""focus"",""64"",""1013313""
","""event"",""trial"",""time""
""fullscreenenter"",""1"",""1266""
","""event"",""trial"",""time""
""fullscreenexit"",""25"",""579653""
","","","-1","","","20","9771","4204","&#9826;","elianto","#f73b6a7A","-1","-1","1","0","[]","0","0","3","","","","","","","",""
"pit-trial","72","1057779","0.0-2.0-14.1-2.1","battery-v0.2","","""event"",""trial"",""time""
""fullscreenenter"",""1"",""1266""
""blur"",""25"",""380111""
""focus"",""25"",""567446""
""blur"",""25"",""571328""
""focus"",""25"",""571628""
""fullscreenexit"",""25"",""579653""
""blur"",""25"",""581567""
""focus"",""25"",""644466""
""blur"",""25"",""740230""
""focus"",""25"",""766615""
""blur"",""64"",""985369""
""focus"",""64"",""1013313""
","""event"",""trial"",""time""
""blur"",""25"",""380111""
""blur"",""25"",""571328""
""blur"",""25"",""581567""
""blur"",""25"",""740230""
""blur"",""64"",""985369""
","""event"",""trial"",""time""
""focus"",""25"",""567446""
""focus"",""25"",""571628""
""focus"",""25"",""644466""
""focus"",""25"",""766615""
""focus"",""64"",""1013313""
","""event"",""trial"",""time""
""fullscreenenter"",""1"",""1266""
","""event"",""trial"",""time""
""fullscreenexit"",""25"",""579653""
","","","-1","","","20","9771","4204","&#9826;","elianto","#f73b6a7A","-1","-1","1","0","[]","0","0","3","","","","","","","",""
"pit-trial","73","1062643","0.0-2.0-14.1-3.1","battery-v0.2","","""event"",""trial"",""time""
""fullscreenenter"",""1"",""1266""
""blur"",""25"",""380111""
""focus"",""25"",""567446""
""blur"",""25"",""571328""
""focus"",""25"",""571628""
""fullscreenexit"",""25"",""579653""
""blur"",""25"",""581567""
""focus"",""25"",""644466""
""blur"",""25"",""740230""
""focus"",""25"",""766615""
""blur"",""64"",""985369""
""focus"",""64"",""1013313""
","""event"",""trial"",""time""
""blur"",""25"",""380111""
""blur"",""25"",""571328""
""blur"",""25"",""581567""
""blur"",""25"",""740230""
""blur"",""64"",""985369""
","""event"",""trial"",""time""
""focus"",""25"",""567446""
""focus"",""25"",""571628""
""focus"",""25"",""644466""
""focus"",""25"",""766615""
""focus"",""64"",""1013313""
","""event"",""trial"",""time""
""fullscreenenter"",""1"",""1266""
","""event"",""trial"",""time""
""fullscreenexit"",""25"",""579653""
","","","-1","","","20","9771","4204","&#9826;","elianto","#f73b6a7A","-1","-1","1","-10","[]","0","0","3","","","","","","","",""
"pit-trial","74","1067513","0.0-2.0-14.1-4.1","battery-v0.2","","""event"",""trial"",""time""
""fullscreenenter"",""1"",""1266""
""blur"",""25"",""380111""
""focus"",""25"",""567446""
""blur"",""25"",""571328""
""focus"",""25"",""571628""
""fullscreenexit"",""25"",""579653""
""blur"",""25"",""581567""
""focus"",""25"",""644466""
""blur"",""25"",""740230""
""focus"",""25"",""766615""
""blur"",""64"",""985369""
""focus"",""64"",""1013313""
","""event"",""trial"",""time""
""blur"",""25"",""380111""
""blur"",""25"",""571328""
""blur"",""25"",""581567""
""blur"",""25"",""740230""
""blur"",""64"",""985369""
","""event"",""trial"",""time""
""focus"",""25"",""567446""
""focus"",""25"",""571628""
""focus"",""25"",""644466""
""focus"",""25"",""766615""
""focus"",""64"",""1013313""
","""event"",""trial"",""time""
""fullscreenenter"",""1"",""1266""
","""event"",""trial"",""time""
""fullscreenexit"",""25"",""579653""
","","","-1","","","20","9771","4204","&#9826;","elianto","#f73b6a7A","-1","-1","1","0","[]","0","0","3","","","","","","","",""
"pit-trial","75","1072377","0.0-2.0-14.2-0.2","battery-v0.2","","""event"",""trial"",""time""
""fullscreenenter"",""1"",""1266""
""blur"",""25"",""380111""
""focus"",""25"",""567446""
""blur"",""25"",""571328""
""focus"",""25"",""571628""
""fullscreenexit"",""25"",""579653""
""blur"",""25"",""581567""
""focus"",""25"",""644466""
""blur"",""25"",""740230""
""focus"",""25"",""766615""
""blur"",""64"",""985369""
""focus"",""64"",""1013313""
","""event"",""trial"",""time""
""blur"",""25"",""380111""
""blur"",""25"",""571328""
""blur"",""25"",""581567""
""blur"",""25"",""740230""
""blur"",""64"",""985369""
","""event"",""trial"",""time""
""focus"",""25"",""567446""
""focus"",""25"",""571628""
""focus"",""25"",""644466""
""focus"",""25"",""766615""
""focus"",""64"",""1013313""
","""event"",""trial"",""time""
""fullscreenenter"",""1"",""1266""
","""event"",""trial"",""time""
""fullscreenexit"",""25"",""579653""
","","","-1","","","20","9771","4204","&#9826;","elianto","#f73b6a7A","-1","-1","1","0","[]","0","0","3","","","","","","","",""
"pit-trial","76","1077241","0.0-2.0-14.2-1.2","battery-v0.2","","""event"",""trial"",""time""
""fullscreenenter"",""1"",""1266""
""blur"",""25"",""380111""
""focus"",""25"",""567446""
""blur"",""25"",""571328""
""focus"",""25"",""571628""
""fullscreenexit"",""25"",""579653""
""blur"",""25"",""581567""
""focus"",""25"",""644466""
""blur"",""25"",""740230""
""focus"",""25"",""766615""
""blur"",""64"",""985369""
""focus"",""64"",""1013313""
","""event"",""trial"",""time""
""blur"",""25"",""380111""
""blur"",""25"",""571328""
""blur"",""25"",""581567""
""blur"",""25"",""740230""
""blur"",""64"",""985369""
","""event"",""trial"",""time""
""focus"",""25"",""567446""
""focus"",""25"",""571628""
""focus"",""25"",""644466""
""focus"",""25"",""766615""
""focus"",""64"",""1013313""
","""event"",""trial"",""time""
""fullscreenenter"",""1"",""1266""
","""event"",""trial"",""time""
""fullscreenexit"",""25"",""579653""
","","","-1","","","20","9771","4204","&#9826;","elianto","#f73b6a7A","-1","-1","1","0","[]","0","0","3","","","","","","","",""
"pit-trial","77","1082110","0.0-2.0-14.2-2.2","battery-v0.2","","""event"",""trial"",""time""
""fullscreenenter"",""1"",""1266""
""blur"",""25"",""380111""
""focus"",""25"",""567446""
""blur"",""25"",""571328""
""focus"",""25"",""571628""
""fullscreenexit"",""25"",""579653""
""blur"",""25"",""581567""
""focus"",""25"",""644466""
""blur"",""25"",""740230""
""focus"",""25"",""766615""
""blur"",""64"",""985369""
""focus"",""64"",""1013313""
","""event"",""trial"",""time""
""blur"",""25"",""380111""
""blur"",""25"",""571328""
""blur"",""25"",""581567""
""blur"",""25"",""740230""
""blur"",""64"",""985369""
","""event"",""trial"",""time""
""focus"",""25"",""567446""
""focus"",""25"",""571628""
""focus"",""25"",""644466""
""focus"",""25"",""766615""
""focus"",""64"",""1013313""
","""event"",""trial"",""time""
""fullscreenenter"",""1"",""1266""
","""event"",""trial"",""time""
""fullscreenexit"",""25"",""579653""
","","","-1","","","20","9771","4204","&#9826;","elianto","#f73b6a7A","-1","-1","1","0","[]","0","0","3","","","","","","","",""
"pit-trial","78","1086974","0.0-2.0-14.2-3.2","battery-v0.2","","""event"",""trial"",""time""
""fullscreenenter"",""1"",""1266""
""blur"",""25"",""380111""
""focus"",""25"",""567446""
""blur"",""25"",""571328""
""focus"",""25"",""571628""
""fullscreenexit"",""25"",""579653""
""blur"",""25"",""581567""
""focus"",""25"",""644466""
""blur"",""25"",""740230""
""focus"",""25"",""766615""
""blur"",""64"",""985369""
""focus"",""64"",""1013313""
","""event"",""trial"",""time""
""blur"",""25"",""380111""
""blur"",""25"",""571328""
""blur"",""25"",""581567""
""blur"",""25"",""740230""
""blur"",""64"",""985369""
","""event"",""trial"",""time""
""focus"",""25"",""567446""
""focus"",""25"",""571628""
""focus"",""25"",""644466""
""focus"",""25"",""766615""
""focus"",""64"",""1013313""
","""event"",""trial"",""time""
""fullscreenenter"",""1"",""1266""
","""event"",""trial"",""time""
""fullscreenexit"",""25"",""579653""
","","","-1","","","20","9771","4204","&#9826;","elianto","#f73b6a7A","-1","-1","1","-10","[]","0","0","3","","","","","","","",""
"pit-trial","79","1091838","0.0-2.0-14.2-4.2","battery-v0.2","","""event"",""trial"",""time""
""fullscreenenter"",""1"",""1266""
""blur"",""25"",""380111""
""focus"",""25"",""567446""
""blur"",""25"",""571328""
""focus"",""25"",""571628""
""fullscreenexit"",""25"",""579653""
""blur"",""25"",""581567""
""focus"",""25"",""644466""
""blur"",""25"",""740230""
""focus"",""25"",""766615""
""blur"",""64"",""985369""
""focus"",""64"",""1013313""
","""event"",""trial"",""time""
""blur"",""25"",""380111""
""blur"",""25"",""571328""
""blur"",""25"",""581567""
""blur"",""25"",""740230""
""blur"",""64"",""985369""
","""event"",""trial"",""time""
""focus"",""25"",""567446""
""focus"",""25"",""571628""
""focus"",""25"",""644466""
""focus"",""25"",""766615""
""focus"",""64"",""1013313""
","""event"",""trial"",""time""
""fullscreenenter"",""1"",""1266""
","""event"",""trial"",""time""
""fullscreenexit"",""25"",""579653""
","","","-1","","","20","9771","4204","&#9826;","elianto","#f73b6a7A","-1","-1","1","0","[]","0","0","3","","","","","","","",""
"pit-trial","80","1096706","0.0-2.0-14.3-0.3","battery-v0.2","","""event"",""trial"",""time""
""fullscreenenter"",""1"",""1266""
""blur"",""25"",""380111""
""focus"",""25"",""567446""
""blur"",""25"",""571328""
""focus"",""25"",""571628""
""fullscreenexit"",""25"",""579653""
""blur"",""25"",""581567""
""focus"",""25"",""644466""
""blur"",""25"",""740230""
""focus"",""25"",""766615""
""blur"",""64"",""985369""
""focus"",""64"",""1013313""
","""event"",""trial"",""time""
""blur"",""25"",""380111""
""blur"",""25"",""571328""
""blur"",""25"",""581567""
""blur"",""25"",""740230""
""blur"",""64"",""985369""
","""event"",""trial"",""time""
""focus"",""25"",""567446""
""focus"",""25"",""571628""
""focus"",""25"",""644466""
""focus"",""25"",""766615""
""focus"",""64"",""1013313""
","""event"",""trial"",""time""
""fullscreenenter"",""1"",""1266""
","""event"",""trial"",""time""
""fullscreenexit"",""25"",""579653""
","","","-1","","","20","9771","4204","&#9826;","elianto","#f73b6a7A","-1","-1","1","0","[]","0","0","3","","","","","","","",""
"pit-trial","81","1101571","0.0-2.0-14.3-1.3","battery-v0.2","","""event"",""trial"",""time""
""fullscreenenter"",""1"",""1266""
""blur"",""25"",""380111""
""focus"",""25"",""567446""
""blur"",""25"",""571328""
""focus"",""25"",""571628""
""fullscreenexit"",""25"",""579653""
""blur"",""25"",""581567""
""focus"",""25"",""644466""
""blur"",""25"",""740230""
""focus"",""25"",""766615""
""blur"",""64"",""985369""
""focus"",""64"",""1013313""
","""event"",""trial"",""time""
""blur"",""25"",""380111""
""blur"",""25"",""571328""
""blur"",""25"",""581567""
""blur"",""25"",""740230""
""blur"",""64"",""985369""
","""event"",""trial"",""time""
""focus"",""25"",""567446""
""focus"",""25"",""571628""
""focus"",""25"",""644466""
""focus"",""25"",""766615""
""focus"",""64"",""1013313""
","""event"",""trial"",""time""
""fullscreenenter"",""1"",""1266""
","""event"",""trial"",""time""
""fullscreenexit"",""25"",""579653""
","","","-1","","","20","9771","4204","&#9826;","elianto","#f73b6a7A","-1","-1","1","0","[3938.5]","1","0","3","","","","","","","",""
"pit-trial","82","1104792","0.0-2.0-14.3-2.3","battery-v0.2","","""event"",""trial"",""time""
""fullscreenenter"",""1"",""1266""
""blur"",""25"",""380111""
""focus"",""25"",""567446""
""blur"",""25"",""571328""
""focus"",""25"",""571628""
""fullscreenexit"",""25"",""579653""
""blur"",""25"",""581567""
""focus"",""25"",""644466""
""blur"",""25"",""740230""
""focus"",""25"",""766615""
""blur"",""64"",""985369""
""focus"",""64"",""1013313""
","""event"",""trial"",""time""
""blur"",""25"",""380111""
""blur"",""25"",""571328""
""blur"",""25"",""581567""
""blur"",""25"",""740230""
""blur"",""64"",""985369""
","""event"",""trial"",""time""
""focus"",""25"",""567446""
""focus"",""25"",""571628""
""focus"",""25"",""644466""
""focus"",""25"",""766615""
""focus"",""64"",""1013313""
","""event"",""trial"",""time""
""fullscreenenter"",""1"",""1266""
","""event"",""trial"",""time""
""fullscreenexit"",""25"",""579653""
","","","357.9000000357628","","","20","9771","4204","&#9826;","elianto","#f73b6a7A","-1"," ","0","-10","[1208.8999999761581,1413.3999999761581,1605.3999999761581,1810.0999999642372,2022.199999988079,2231.699999988079,2586.199999988079,2834,3052.599999964237]","9","0","3","","","","","","","",""
"pit-trial","83","1109656","0.0-2.0-14.3-3.3","battery-v0.2","","""event"",""trial"",""time""
""fullscreenenter"",""1"",""1266""
""blur"",""25"",""380111""
""focus"",""25"",""567446""
""blur"",""25"",""571328""
""focus"",""25"",""571628""
""fullscreenexit"",""25"",""579653""
""blur"",""25"",""581567""
""focus"",""25"",""644466""
""blur"",""25"",""740230""
""focus"",""25"",""766615""
""blur"",""64"",""985369""
""focus"",""64"",""1013313""
","""event"",""trial"",""time""
""blur"",""25"",""380111""
""blur"",""25"",""571328""
""blur"",""25"",""581567""
""blur"",""25"",""740230""
""blur"",""64"",""985369""
","""event"",""trial"",""time""
""focus"",""25"",""567446""
""focus"",""25"",""571628""
""focus"",""25"",""644466""
""focus"",""25"",""766615""
""focus"",""64"",""1013313""
","""event"",""trial"",""time""
""fullscreenenter"",""1"",""1266""
","""event"",""trial"",""time""
""fullscreenexit"",""25"",""579653""
","","","-1","","","20","9771","4204","&#9826;","elianto","#f73b6a7A","-1","-1","1","-10","[4573.600000023842]","1","0","3","","","","","","","",""
"pit-trial","84","1112989","0.0-2.0-14.3-4.3","battery-v0.2","","""event"",""trial"",""time""
""fullscreenenter"",""1"",""1266""
""blur"",""25"",""380111""
""focus"",""25"",""567446""
""blur"",""25"",""571328""
""focus"",""25"",""571628""
""fullscreenexit"",""25"",""579653""
""blur"",""25"",""581567""
""focus"",""25"",""644466""
""blur"",""25"",""740230""
""focus"",""25"",""766615""
""blur"",""64"",""985369""
""focus"",""64"",""1013313""
","""event"",""trial"",""time""
""blur"",""25"",""380111""
""blur"",""25"",""571328""
""blur"",""25"",""581567""
""blur"",""25"",""740230""
""blur"",""64"",""985369""
","""event"",""trial"",""time""
""focus"",""25"",""567446""
""focus"",""25"",""571628""
""focus"",""25"",""644466""
""focus"",""25"",""766615""
""focus"",""64"",""1013313""
","""event"",""trial"",""time""
""fullscreenenter"",""1"",""1266""
","""event"",""trial"",""time""
""fullscreenexit"",""25"",""579653""
","","","471.10000002384186","","","20","9771","4204","&#9826;","elianto","#f73b6a7A","-1"," ","0","-10","[118.30000001192093,351.69999998807907,551.8999999761581,1321.300000011921]","4","0","3","","","","","","","",""
"call-function","85","1112995","0.0-2.0-15.0","battery-v0.2","","""event"",""trial"",""time""
""fullscreenenter"",""1"",""1266""
""blur"",""25"",""380111""
""focus"",""25"",""567446""
""blur"",""25"",""571328""
""focus"",""25"",""571628""
""fullscreenexit"",""25"",""579653""
""blur"",""25"",""581567""
""focus"",""25"",""644466""
""blur"",""25"",""740230""
""focus"",""25"",""766615""
""blur"",""64"",""985369""
""focus"",""64"",""1013313""
","""event"",""trial"",""time""
""blur"",""25"",""380111""
""blur"",""25"",""571328""
""blur"",""25"",""581567""
""blur"",""25"",""740230""
""blur"",""64"",""985369""
","""event"",""trial"",""time""
""focus"",""25"",""567446""
""focus"",""25"",""571628""
""focus"",""25"",""644466""
""focus"",""25"",""766615""
""focus"",""64"",""1013313""
","""event"",""trial"",""time""
""fullscreenenter"",""1"",""1266""
","""event"",""trial"",""time""
""fullscreenexit"",""25"",""579653""
","","","","","","","","","","","","","","","","","","","","","","","","","","",""
"pit-instructions","86","1142142","0.0-2.0-16.0","battery-v0.2","","""event"",""trial"",""time""
""fullscreenenter"",""1"",""1266""
""blur"",""25"",""380111""
""focus"",""25"",""567446""
""blur"",""25"",""571328""
""focus"",""25"",""571628""
""fullscreenexit"",""25"",""579653""
""blur"",""25"",""581567""
""focus"",""25"",""644466""
""blur"",""25"",""740230""
""focus"",""25"",""766615""
""blur"",""64"",""985369""
""focus"",""64"",""1013313""
","""event"",""trial"",""time""
""blur"",""25"",""380111""
""blur"",""25"",""571328""
""blur"",""25"",""581567""
""blur"",""25"",""740230""
""blur"",""64"",""985369""
","""event"",""trial"",""time""
""focus"",""25"",""567446""
""focus"",""25"",""571628""
""focus"",""25"",""644466""
""focus"",""25"",""766615""
""focus"",""64"",""1013313""
","""event"",""trial"",""time""
""fullscreenenter"",""1"",""1266""
","""event"",""trial"",""time""
""fullscreenexit"",""25"",""579653""
","","[{""page_index"":0,""viewing_time"":6663.299999952316},{""page_index"":1,""viewing_time"":8532.100000023842},{""page_index"":2,""viewing_time"":5466.800000011921},{""page_index"":3,""viewing_time"":8483.800000011921}]","29146.5","","","","","","","","","","","","","","","","","","","","","","","",""
"pit-trial","87","1147003","0.0-2.0-17.0-0.0","battery-v0.2","","""event"",""trial"",""time""
""fullscreenenter"",""1"",""1266""
""blur"",""25"",""380111""
""focus"",""25"",""567446""
""blur"",""25"",""571328""
""focus"",""25"",""571628""
""fullscreenexit"",""25"",""579653""
""blur"",""25"",""581567""
""focus"",""25"",""644466""
""blur"",""25"",""740230""
""focus"",""25"",""766615""
""blur"",""64"",""985369""
""focus"",""64"",""1013313""
","""event"",""trial"",""time""
""blur"",""25"",""380111""
""blur"",""25"",""571328""
""blur"",""25"",""581567""
""blur"",""25"",""740230""
""blur"",""64"",""985369""
","""event"",""trial"",""time""
""focus"",""25"",""567446""
""focus"",""25"",""571628""
""focus"",""25"",""644466""
""focus"",""25"",""766615""
""focus"",""64"",""1013313""
","""event"",""trial"",""time""
""fullscreenenter"",""1"",""1266""
","""event"",""trial"",""time""
""fullscreenexit"",""25"",""579653""
","","","-1","","","20","9771","4204","&#9789;","elianto","#f73b6a7A"," ","-1","0","-10","[]","0","0","4","","","","","","","",""
"pit-trial","88","1151865","0.0-2.0-17.0-1.0","battery-v0.2","","""event"",""trial"",""time""
""fullscreenenter"",""1"",""1266""
""blur"",""25"",""380111""
""focus"",""25"",""567446""
""blur"",""25"",""571328""
""focus"",""25"",""571628""
""fullscreenexit"",""25"",""579653""
""blur"",""25"",""581567""
""focus"",""25"",""644466""
""blur"",""25"",""740230""
""focus"",""25"",""766615""
""blur"",""64"",""985369""
""focus"",""64"",""1013313""
","""event"",""trial"",""time""
""blur"",""25"",""380111""
""blur"",""25"",""571328""
""blur"",""25"",""581567""
""blur"",""25"",""740230""
""blur"",""64"",""985369""
","""event"",""trial"",""time""
""focus"",""25"",""567446""
""focus"",""25"",""571628""
""focus"",""25"",""644466""
""focus"",""25"",""766615""
""focus"",""64"",""1013313""
","""event"",""trial"",""time""
""fullscreenenter"",""1"",""1266""
","""event"",""trial"",""time""
""fullscreenexit"",""25"",""579653""
","","","-1","","","20","9771","4204","&#9789;","elianto","#f73b6a7A"," ","-1","0","-10","[]","0","0","4","","","","","","","",""
"pit-trial","89","1156730","0.0-2.0-17.0-2.0","battery-v0.2","","""event"",""trial"",""time""
""fullscreenenter"",""1"",""1266""
""blur"",""25"",""380111""
""focus"",""25"",""567446""
""blur"",""25"",""571328""
""focus"",""25"",""571628""
""fullscreenexit"",""25"",""579653""
""blur"",""25"",""581567""
""focus"",""25"",""644466""
""blur"",""25"",""740230""
""focus"",""25"",""766615""
""blur"",""64"",""985369""
""focus"",""64"",""1013313""
","""event"",""trial"",""time""
""blur"",""25"",""380111""
""blur"",""25"",""571328""
""blur"",""25"",""581567""
""blur"",""25"",""740230""
""blur"",""64"",""985369""
","""event"",""trial"",""time""
""focus"",""25"",""567446""
""focus"",""25"",""571628""
""focus"",""25"",""644466""
""focus"",""25"",""766615""
""focus"",""64"",""1013313""
","""event"",""trial"",""time""
""fullscreenenter"",""1"",""1266""
","""event"",""trial"",""time""
""fullscreenexit"",""25"",""579653""
","","","-1","","","20","9771","4204","&#9789;","elianto","#f73b6a7A"," ","-1","0","-10","[]","0","0","4","","","","","","","",""
"pit-trial","90","1161594","0.0-2.0-17.0-3.0","battery-v0.2","","""event"",""trial"",""time""
""fullscreenenter"",""1"",""1266""
""blur"",""25"",""380111""
""focus"",""25"",""567446""
""blur"",""25"",""571328""
""focus"",""25"",""571628""
""fullscreenexit"",""25"",""579653""
""blur"",""25"",""581567""
""focus"",""25"",""644466""
""blur"",""25"",""740230""
""focus"",""25"",""766615""
""blur"",""64"",""985369""
""focus"",""64"",""1013313""
","""event"",""trial"",""time""
""blur"",""25"",""380111""
""blur"",""25"",""571328""
""blur"",""25"",""581567""
""blur"",""25"",""740230""
""blur"",""64"",""985369""
","""event"",""trial"",""time""
""focus"",""25"",""567446""
""focus"",""25"",""571628""
""focus"",""25"",""644466""
""focus"",""25"",""766615""
""focus"",""64"",""1013313""
","""event"",""trial"",""time""
""fullscreenenter"",""1"",""1266""
","""event"",""trial"",""time""
""fullscreenexit"",""25"",""579653""
","","","-1","","","20","9771","4204","&#9789;","elianto","#f73b6a7A"," ","-1","0","0","[]","0","0","4","","","","","","","",""
"pit-trial","91","1166078","0.0-2.0-17.0-4.0","battery-v0.2","","""event"",""trial"",""time""
""fullscreenenter"",""1"",""1266""
""blur"",""25"",""380111""
""focus"",""25"",""567446""
""blur"",""25"",""571328""
""focus"",""25"",""571628""
""fullscreenexit"",""25"",""579653""
""blur"",""25"",""581567""
""focus"",""25"",""644466""
""blur"",""25"",""740230""
""focus"",""25"",""766615""
""blur"",""64"",""985369""
""focus"",""64"",""1013313""
","""event"",""trial"",""time""
""blur"",""25"",""380111""
""blur"",""25"",""571328""
""blur"",""25"",""581567""
""blur"",""25"",""740230""
""blur"",""64"",""985369""
","""event"",""trial"",""time""
""focus"",""25"",""567446""
""focus"",""25"",""571628""
""focus"",""25"",""644466""
""focus"",""25"",""766615""
""focus"",""64"",""1013313""
","""event"",""trial"",""time""
""fullscreenenter"",""1"",""1266""
","""event"",""trial"",""time""
""fullscreenexit"",""25"",""579653""
","","","1621.199999988079","","","20","9771","4204","&#9789;","elianto","#f73b6a7A"," "," ","1","0","[2471.699999988079]","1","0","4","","","","","","","",""
"pit-trial","92","1170942","0.0-2.0-17.1-0.1","battery-v0.2","","""event"",""trial"",""time""
""fullscreenenter"",""1"",""1266""
""blur"",""25"",""380111""
""focus"",""25"",""567446""
""blur"",""25"",""571328""
""focus"",""25"",""571628""
""fullscreenexit"",""25"",""579653""
""blur"",""25"",""581567""
""focus"",""25"",""644466""
""blur"",""25"",""740230""
""focus"",""25"",""766615""
""blur"",""64"",""985369""
""focus"",""64"",""1013313""
","""event"",""trial"",""time""
""blur"",""25"",""380111""
""blur"",""25"",""571328""
""blur"",""25"",""581567""
""blur"",""25"",""740230""
""blur"",""64"",""985369""
","""event"",""trial"",""time""
""focus"",""25"",""567446""
""focus"",""25"",""571628""
""focus"",""25"",""644466""
""focus"",""25"",""766615""
""focus"",""64"",""1013313""
","""event"",""trial"",""time""
""fullscreenenter"",""1"",""1266""
","""event"",""trial"",""time""
""fullscreenexit"",""25"",""579653""
","","","-1","","","20","9771","4204","&#9789;","elianto","#f73b6a7A"," ","-1","0","-10","[]","0","0","4","","","","","","","",""
"pit-trial","93","1175363","0.0-2.0-17.1-1.1","battery-v0.2","","""event"",""trial"",""time""
""fullscreenenter"",""1"",""1266""
""blur"",""25"",""380111""
""focus"",""25"",""567446""
""blur"",""25"",""571328""
""focus"",""25"",""571628""
""fullscreenexit"",""25"",""579653""
""blur"",""25"",""581567""
""focus"",""25"",""644466""
""blur"",""25"",""740230""
""focus"",""25"",""766615""
""blur"",""64"",""985369""
""focus"",""64"",""1013313""
","""event"",""trial"",""time""
""blur"",""25"",""380111""
""blur"",""25"",""571328""
""blur"",""25"",""581567""
""blur"",""25"",""740230""
""blur"",""64"",""985369""
","""event"",""trial"",""time""
""focus"",""25"",""567446""
""focus"",""25"",""571628""
""focus"",""25"",""644466""
""focus"",""25"",""766615""
""focus"",""64"",""1013313""
","""event"",""trial"",""time""
""fullscreenenter"",""1"",""1266""
","""event"",""trial"",""time""
""fullscreenexit"",""25"",""579653""
","","","1560.199999988079","","","20","9771","4204","&#9789;","elianto","#f73b6a7A"," "," ","1","0","[2411.2000000476837]","1","0","4","","","","","","","",""
"pit-trial","94","1180228","0.0-2.0-17.1-2.1","battery-v0.2","","""event"",""trial"",""time""
""fullscreenenter"",""1"",""1266""
""blur"",""25"",""380111""
""focus"",""25"",""567446""
""blur"",""25"",""571328""
""focus"",""25"",""571628""
""fullscreenexit"",""25"",""579653""
""blur"",""25"",""581567""
""focus"",""25"",""644466""
""blur"",""25"",""740230""
""focus"",""25"",""766615""
""blur"",""64"",""985369""
""focus"",""64"",""1013313""
","""event"",""trial"",""time""
""blur"",""25"",""380111""
""blur"",""25"",""571328""
""blur"",""25"",""581567""
""blur"",""25"",""740230""
""blur"",""64"",""985369""
","""event"",""trial"",""time""
""focus"",""25"",""567446""
""focus"",""25"",""571628""
""focus"",""25"",""644466""
""focus"",""25"",""766615""
""focus"",""64"",""1013313""
","""event"",""trial"",""time""
""fullscreenenter"",""1"",""1266""
","""event"",""trial"",""time""
""fullscreenexit"",""25"",""579653""
","","","-1","","","20","9771","4204","&#9789;","elianto","#f73b6a7A"," ","-1","0","-10","[]","0","0","4","","","","","","","",""
"pit-trial","95","1185097","0.0-2.0-17.1-3.1","battery-v0.2","","""event"",""trial"",""time""
""fullscreenenter"",""1"",""1266""
""blur"",""25"",""380111""
""focus"",""25"",""567446""
""blur"",""25"",""571328""
""focus"",""25"",""571628""
""fullscreenexit"",""25"",""579653""
""blur"",""25"",""581567""
""focus"",""25"",""644466""
""blur"",""25"",""740230""
""focus"",""25"",""766615""
""blur"",""64"",""985369""
""focus"",""64"",""1013313""
","""event"",""trial"",""time""
""blur"",""25"",""380111""
""blur"",""25"",""571328""
""blur"",""25"",""581567""
""blur"",""25"",""740230""
""blur"",""64"",""985369""
","""event"",""trial"",""time""
""focus"",""25"",""567446""
""focus"",""25"",""571628""
""focus"",""25"",""644466""
""focus"",""25"",""766615""
""focus"",""64"",""1013313""
","""event"",""trial"",""time""
""fullscreenenter"",""1"",""1266""
","""event"",""trial"",""time""
""fullscreenexit"",""25"",""579653""
","","","-1","","","20","9771","4204","&#9789;","elianto","#f73b6a7A"," ","-1","0","0","[]","0","0","4","","","","","","","",""
"pit-trial","96","1189967","0.0-2.0-17.1-4.1","battery-v0.2","","""event"",""trial"",""time""
""fullscreenenter"",""1"",""1266""
""blur"",""25"",""380111""
""focus"",""25"",""567446""
""blur"",""25"",""571328""
""focus"",""25"",""571628""
""fullscreenexit"",""25"",""579653""
""blur"",""25"",""581567""
""focus"",""25"",""644466""
""blur"",""25"",""740230""
""focus"",""25"",""766615""
""blur"",""64"",""985369""
""focus"",""64"",""1013313""
","""event"",""trial"",""time""
""blur"",""25"",""380111""
""blur"",""25"",""571328""
""blur"",""25"",""581567""
""blur"",""25"",""740230""
""blur"",""64"",""985369""
","""event"",""trial"",""time""
""focus"",""25"",""567446""
""focus"",""25"",""571628""
""focus"",""25"",""644466""
""focus"",""25"",""766615""
""focus"",""64"",""1013313""
","""event"",""trial"",""time""
""fullscreenenter"",""1"",""1266""
","""event"",""trial"",""time""
""fullscreenexit"",""25"",""579653""
","","","-1","","","20","9771","4204","&#9789;","elianto","#f73b6a7A"," ","-1","0","-10","[]","0","0","4","","","","","","","",""
"pit-trial","97","1194835","0.0-2.0-17.2-0.2","battery-v0.2","","""event"",""trial"",""time""
""fullscreenenter"",""1"",""1266""
""blur"",""25"",""380111""
""focus"",""25"",""567446""
""blur"",""25"",""571328""
""focus"",""25"",""571628""
""fullscreenexit"",""25"",""579653""
""blur"",""25"",""581567""
""focus"",""25"",""644466""
""blur"",""25"",""740230""
""focus"",""25"",""766615""
""blur"",""64"",""985369""
""focus"",""64"",""1013313""
","""event"",""trial"",""time""
""blur"",""25"",""380111""
""blur"",""25"",""571328""
""blur"",""25"",""581567""
""blur"",""25"",""740230""
""blur"",""64"",""985369""
","""event"",""trial"",""time""
""focus"",""25"",""567446""
""focus"",""25"",""571628""
""focus"",""25"",""644466""
""focus"",""25"",""766615""
""focus"",""64"",""1013313""
","""event"",""trial"",""time""
""fullscreenenter"",""1"",""1266""
","""event"",""trial"",""time""
""fullscreenexit"",""25"",""579653""
","","","-1","","","20","9771","4204","&#9789;","elianto","#f73b6a7A"," ","-1","0","-10","[]","0","0","4","","","","","","","",""
"pit-trial","98","1199700","0.0-2.0-17.2-1.2","battery-v0.2","","""event"",""trial"",""time""
""fullscreenenter"",""1"",""1266""
""blur"",""25"",""380111""
""focus"",""25"",""567446""
""blur"",""25"",""571328""
""focus"",""25"",""571628""
""fullscreenexit"",""25"",""579653""
""blur"",""25"",""581567""
""focus"",""25"",""644466""
""blur"",""25"",""740230""
""focus"",""25"",""766615""
""blur"",""64"",""985369""
""focus"",""64"",""1013313""
","""event"",""trial"",""time""
""blur"",""25"",""380111""
""blur"",""25"",""571328""
""blur"",""25"",""581567""
""blur"",""25"",""740230""
""blur"",""64"",""985369""
","""event"",""trial"",""time""
""focus"",""25"",""567446""
""focus"",""25"",""571628""
""focus"",""25"",""644466""
""focus"",""25"",""766615""
""focus"",""64"",""1013313""
","""event"",""trial"",""time""
""fullscreenenter"",""1"",""1266""
","""event"",""trial"",""time""
""fullscreenexit"",""25"",""579653""
","","","-1","","","20","9771","4204","&#9789;","elianto","#f73b6a7A"," ","-1","0","-10","[]","0","0","4","","","","","","","",""
"pit-trial","99","1204569","0.0-2.0-17.2-2.2","battery-v0.2","","""event"",""trial"",""time""
""fullscreenenter"",""1"",""1266""
""blur"",""25"",""380111""
""focus"",""25"",""567446""
""blur"",""25"",""571328""
""focus"",""25"",""571628""
""fullscreenexit"",""25"",""579653""
""blur"",""25"",""581567""
""focus"",""25"",""644466""
""blur"",""25"",""740230""
""focus"",""25"",""766615""
""blur"",""64"",""985369""
""focus"",""64"",""1013313""
","""event"",""trial"",""time""
""blur"",""25"",""380111""
""blur"",""25"",""571328""
""blur"",""25"",""581567""
""blur"",""25"",""740230""
""blur"",""64"",""985369""
","""event"",""trial"",""time""
""focus"",""25"",""567446""
""focus"",""25"",""571628""
""focus"",""25"",""644466""
""focus"",""25"",""766615""
""focus"",""64"",""1013313""
","""event"",""trial"",""time""
""fullscreenenter"",""1"",""1266""
","""event"",""trial"",""time""
""fullscreenexit"",""25"",""579653""
","","","-1","","","20","9771","4204","&#9789;","elianto","#f73b6a7A"," ","-1","0","-10","[]","0","0","4","","","","","","","",""
"pit-trial","100","1209432","0.0-2.0-17.2-3.2","battery-v0.2","","""event"",""trial"",""time""
""fullscreenenter"",""1"",""1266""
""blur"",""25"",""380111""
""focus"",""25"",""567446""
""blur"",""25"",""571328""
""focus"",""25"",""571628""
""fullscreenexit"",""25"",""579653""
""blur"",""25"",""581567""
""focus"",""25"",""644466""
""blur"",""25"",""740230""
""focus"",""25"",""766615""
""blur"",""64"",""985369""
""focus"",""64"",""1013313""
","""event"",""trial"",""time""
""blur"",""25"",""380111""
""blur"",""25"",""571328""
""blur"",""25"",""581567""
""blur"",""25"",""740230""
""blur"",""64"",""985369""
","""event"",""trial"",""time""
""focus"",""25"",""567446""
""focus"",""25"",""571628""
""focus"",""25"",""644466""
""focus"",""25"",""766615""
""focus"",""64"",""1013313""
","""event"",""trial"",""time""
""fullscreenenter"",""1"",""1266""
","""event"",""trial"",""time""
""fullscreenexit"",""25"",""579653""
","","","-1","","","20","9771","4204","&#9789;","elianto","#f73b6a7A"," ","-1","0","0","[]","0","0","4","","","","","","","",""
"pit-trial","101","1214299","0.0-2.0-17.2-4.2","battery-v0.2","","""event"",""trial"",""time""
""fullscreenenter"",""1"",""1266""
""blur"",""25"",""380111""
""focus"",""25"",""567446""
""blur"",""25"",""571328""
""focus"",""25"",""571628""
""fullscreenexit"",""25"",""579653""
""blur"",""25"",""581567""
""focus"",""25"",""644466""
""blur"",""25"",""740230""
""focus"",""25"",""766615""
""blur"",""64"",""985369""
""focus"",""64"",""1013313""
","""event"",""trial"",""time""
""blur"",""25"",""380111""
""blur"",""25"",""571328""
""blur"",""25"",""581567""
""blur"",""25"",""740230""
""blur"",""64"",""985369""
","""event"",""trial"",""time""
""focus"",""25"",""567446""
""focus"",""25"",""571628""
""focus"",""25"",""644466""
""focus"",""25"",""766615""
""focus"",""64"",""1013313""
","""event"",""trial"",""time""
""fullscreenenter"",""1"",""1266""
","""event"",""trial"",""time""
""fullscreenexit"",""25"",""579653""
","","","-1","","","20","9771","4204","&#9789;","elianto","#f73b6a7A"," ","-1","0","-10","[]","0","0","4","","","","","","","",""
"pit-trial","102","1219166","0.0-2.0-17.3-0.3","battery-v0.2","","""event"",""trial"",""time""
""fullscreenenter"",""1"",""1266""
""blur"",""25"",""380111""
""focus"",""25"",""567446""
""blur"",""25"",""571328""
""focus"",""25"",""571628""
""fullscreenexit"",""25"",""579653""
""blur"",""25"",""581567""
""focus"",""25"",""644466""
""blur"",""25"",""740230""
""focus"",""25"",""766615""
""blur"",""64"",""985369""
""focus"",""64"",""1013313""
","""event"",""trial"",""time""
""blur"",""25"",""380111""
""blur"",""25"",""571328""
""blur"",""25"",""581567""
""blur"",""25"",""740230""
""blur"",""64"",""985369""
","""event"",""trial"",""time""
""focus"",""25"",""567446""
""focus"",""25"",""571628""
""focus"",""25"",""644466""
""focus"",""25"",""766615""
""focus"",""64"",""1013313""
","""event"",""trial"",""time""
""fullscreenenter"",""1"",""1266""
","""event"",""trial"",""time""
""fullscreenexit"",""25"",""579653""
","","","-1","","","20","9771","4204","&#9789;","elianto","#f73b6a7A"," ","-1","0","-10","[]","0","0","4","","","","","","","",""
"pit-trial","103","1224033","0.0-2.0-17.3-1.3","battery-v0.2","","""event"",""trial"",""time""
""fullscreenenter"",""1"",""1266""
""blur"",""25"",""380111""
""focus"",""25"",""567446""
""blur"",""25"",""571328""
""focus"",""25"",""571628""
""fullscreenexit"",""25"",""579653""
""blur"",""25"",""581567""
""focus"",""25"",""644466""
""blur"",""25"",""740230""
""focus"",""25"",""766615""
""blur"",""64"",""985369""
""focus"",""64"",""1013313""
","""event"",""trial"",""time""
""blur"",""25"",""380111""
""blur"",""25"",""571328""
""blur"",""25"",""581567""
""blur"",""25"",""740230""
""blur"",""64"",""985369""
","""event"",""trial"",""time""
""focus"",""25"",""567446""
""focus"",""25"",""571628""
""focus"",""25"",""644466""
""focus"",""25"",""766615""
""focus"",""64"",""1013313""
","""event"",""trial"",""time""
""fullscreenenter"",""1"",""1266""
","""event"",""trial"",""time""
""fullscreenexit"",""25"",""579653""
","","","-1","","","20","9771","4204","&#9789;","elianto","#f73b6a7A"," ","-1","0","-10","[]","0","0","4","","","","","","","",""
"pit-trial","104","1228899","0.0-2.0-17.3-2.3","battery-v0.2","","""event"",""trial"",""time""
""fullscreenenter"",""1"",""1266""
""blur"",""25"",""380111""
""focus"",""25"",""567446""
""blur"",""25"",""571328""
""focus"",""25"",""571628""
""fullscreenexit"",""25"",""579653""
""blur"",""25"",""581567""
""focus"",""25"",""644466""
""blur"",""25"",""740230""
""focus"",""25"",""766615""
""blur"",""64"",""985369""
""focus"",""64"",""1013313""
","""event"",""trial"",""time""
""blur"",""25"",""380111""
""blur"",""25"",""571328""
""blur"",""25"",""581567""
""blur"",""25"",""740230""
""blur"",""64"",""985369""
","""event"",""trial"",""time""
""focus"",""25"",""567446""
""focus"",""25"",""571628""
""focus"",""25"",""644466""
""focus"",""25"",""766615""
""focus"",""64"",""1013313""
","""event"",""trial"",""time""
""fullscreenenter"",""1"",""1266""
","""event"",""trial"",""time""
""fullscreenexit"",""25"",""579653""
","","","-1","","","20","9771","4204","&#9789;","elianto","#f73b6a7A"," ","-1","0","-10","[]","0","0","4","","","","","","","",""
"pit-trial","105","1233765","0.0-2.0-17.3-3.3","battery-v0.2","","""event"",""trial"",""time""
""fullscreenenter"",""1"",""1266""
""blur"",""25"",""380111""
""focus"",""25"",""567446""
""blur"",""25"",""571328""
""focus"",""25"",""571628""
""fullscreenexit"",""25"",""579653""
""blur"",""25"",""581567""
""focus"",""25"",""644466""
""blur"",""25"",""740230""
""focus"",""25"",""766615""
""blur"",""64"",""985369""
""focus"",""64"",""1013313""
","""event"",""trial"",""time""
""blur"",""25"",""380111""
""blur"",""25"",""571328""
""blur"",""25"",""581567""
""blur"",""25"",""740230""
""blur"",""64"",""985369""
","""event"",""trial"",""time""
""focus"",""25"",""567446""
""focus"",""25"",""571628""
""focus"",""25"",""644466""
""focus"",""25"",""766615""
""focus"",""64"",""1013313""
","""event"",""trial"",""time""
""fullscreenenter"",""1"",""1266""
","""event"",""trial"",""time""
""fullscreenexit"",""25"",""579653""
","","","-1","","","20","9771","4204","&#9789;","elianto","#f73b6a7A"," ","-1","0","0","[]","0","0","4","","","","","","","",""
"pit-trial","106","1238632","0.0-2.0-17.3-4.3","battery-v0.2","","""event"",""trial"",""time""
""fullscreenenter"",""1"",""1266""
""blur"",""25"",""380111""
""focus"",""25"",""567446""
""blur"",""25"",""571328""
""focus"",""25"",""571628""
""fullscreenexit"",""25"",""579653""
""blur"",""25"",""581567""
""focus"",""25"",""644466""
""blur"",""25"",""740230""
""focus"",""25"",""766615""
""blur"",""64"",""985369""
""focus"",""64"",""1013313""
","""event"",""trial"",""time""
""blur"",""25"",""380111""
""blur"",""25"",""571328""
""blur"",""25"",""581567""
""blur"",""25"",""740230""
""blur"",""64"",""985369""
","""event"",""trial"",""time""
""focus"",""25"",""567446""
""focus"",""25"",""571628""
""focus"",""25"",""644466""
""focus"",""25"",""766615""
""focus"",""64"",""1013313""
","""event"",""trial"",""time""
""fullscreenenter"",""1"",""1266""
","""event"",""trial"",""time""
""fullscreenexit"",""25"",""579653""
","","","-1","","","20","9771","4204","&#9789;","elianto","#f73b6a7A"," ","-1","0","-10","[]","0","0","4","","","","","","","",""
"call-function","107","1238639","0.0-2.0-18.0","battery-v0.2","","""event"",""trial"",""time""
""fullscreenenter"",""1"",""1266""
""blur"",""25"",""380111""
""focus"",""25"",""567446""
""blur"",""25"",""571328""
""focus"",""25"",""571628""
""fullscreenexit"",""25"",""579653""
""blur"",""25"",""581567""
""focus"",""25"",""644466""
""blur"",""25"",""740230""
""focus"",""25"",""766615""
""blur"",""64"",""985369""
""focus"",""64"",""1013313""
","""event"",""trial"",""time""
""blur"",""25"",""380111""
""blur"",""25"",""571328""
""blur"",""25"",""581567""
""blur"",""25"",""740230""
""blur"",""64"",""985369""
","""event"",""trial"",""time""
""focus"",""25"",""567446""
""focus"",""25"",""571628""
""focus"",""25"",""644466""
""focus"",""25"",""766615""
""focus"",""64"",""1013313""
","""event"",""trial"",""time""
""fullscreenenter"",""1"",""1266""
","""event"",""trial"",""time""
""fullscreenexit"",""25"",""579653""
","","","","","","","","","","","","","","","","","","","","","","","","","","",""
"pit-instructions","108","1339231","0.0-2.0-19.0","battery-v0.2","","""event"",""trial"",""time""
""fullscreenenter"",""1"",""1266""
""blur"",""25"",""380111""
""focus"",""25"",""567446""
""blur"",""25"",""571328""
""focus"",""25"",""571628""
""fullscreenexit"",""25"",""579653""
""blur"",""25"",""581567""
""focus"",""25"",""644466""
""blur"",""25"",""740230""
""focus"",""25"",""766615""
""blur"",""64"",""985369""
""focus"",""64"",""1013313""
","""event"",""trial"",""time""
""blur"",""25"",""380111""
""blur"",""25"",""571328""
""blur"",""25"",""581567""
""blur"",""25"",""740230""
""blur"",""64"",""985369""
","""event"",""trial"",""time""
""focus"",""25"",""567446""
""focus"",""25"",""571628""
""focus"",""25"",""644466""
""focus"",""25"",""766615""
""focus"",""64"",""1013313""
","""event"",""trial"",""time""
""fullscreenenter"",""1"",""1266""
","""event"",""trial"",""time""
""fullscreenexit"",""25"",""579653""
