"trial_type","trial_index","time_elapsed","internal_node_id","task_version","subject_id","interactions","blur_events","focus_events","fullscreenenter_events","fullscreenexit_events","success","view_history","rt","responses","num_errors","age","subject","participantId","rune","rune_set","hex","correct","choice","accuracy","outcome","keys","total_keys","block","practice","value","sub","trial","stimulus","robot","valence","action","sham"
"pavlovia","0","12","0.0-0.0","battery-v0.2","","""event"",""trial"",""time""
""focus"",""1"",""2808""
""fullscreenenter"",""1"",""3047""
","
","""event"",""trial"",""time""
""focus"",""1"",""2808""
","""event"",""trial"",""time""
""fullscreenenter"",""1"",""3047""
","
","","","","","","","","","","","","","","","","","","","","","","","","","","",""
"fullscreen","1","3971","0.0-1.0","battery-v0.2","","""event"",""trial"",""time""
""focus"",""1"",""2808""
""fullscreenenter"",""1"",""3047""
","
","""event"",""trial"",""time""
""focus"",""1"",""2808""
","""event"",""trial"",""time""
""fullscreenenter"",""1"",""3047""
","
","true","","","","","","","","","","","","","","","","","","","","","","","","","",""
"pit-instructions","2","9327","0.0-2.0-0.0","battery-v0.2","","""event"",""trial"",""time""
""focus"",""1"",""2808""
""fullscreenenter"",""1"",""3047""
","
","""event"",""trial"",""time""
""focus"",""1"",""2808""
","""event"",""trial"",""time""
""fullscreenenter"",""1"",""3047""
","
","","[{""page_index"":0,""viewing_time"":5343.800000190735}]","5346","","","","","","","","","","","","","","","","","","","","","","","",""
"pit-comprehension","3","12351","0.0-2.0-1.0-0.0","battery-v0.2","","""event"",""trial"",""time""
""focus"",""1"",""2808""
""fullscreenenter"",""1"",""3047""
","
","""event"",""trial"",""time""
""focus"",""1"",""2808""
","""event"",""trial"",""time""
""fullscreenenter"",""1"",""3047""
","
","","","3013.399999856949","[""shark""]","0","11","3781","2082","","","","","","","","","","","","","","","","","","",""
"pit-instructions","4","16054","0.0-2.0-1.0-1.0","battery-v0.2","","""event"",""trial"",""time""
""focus"",""1"",""2808""
""fullscreenenter"",""1"",""3047""
","
","""event"",""trial"",""time""
""focus"",""1"",""2808""
","""event"",""trial"",""time""
""fullscreenenter"",""1"",""3047""
","
","","[{""page_index"":0,""viewing_time"":3672.7000000476837}]","3673.5","","","","","","","","","","","","","","","","","","","","","","","",""
"pit-comprehension","5","18692","0.0-2.0-2.0-0.0","battery-v0.2","","""event"",""trial"",""time""
""focus"",""1"",""2808""
""fullscreenenter"",""1"",""3047""
","
","""event"",""trial"",""time""
""focus"",""1"",""2808""
","""event"",""trial"",""time""
""fullscreenenter"",""1"",""3047""
","
","","","2622.0999999046326","[""tiger""]","0","11","3781","2082","","","","","","","","","","","","","","","","","","",""
"pit-instructions","6","23022","0.0-2.0-2.0-1.0","battery-v0.2","","""event"",""trial"",""time""
""focus"",""1"",""2808""
""fullscreenenter"",""1"",""3047""
","
","""event"",""trial"",""time""
""focus"",""1"",""2808""
","""event"",""trial"",""time""
""fullscreenenter"",""1"",""3047""
","
","","[{""page_index"":0,""viewing_time"":4323.099999904633}]","4323.899999856949","","","","","","","","","","","","","","","","","","","","","","","",""
"pit-instructions","7","121641","0.0-2.0-3.0","battery-v0.2","","""event"",""trial"",""time""
""focus"",""1"",""2808""
""fullscreenenter"",""1"",""3047""
","
","""event"",""trial"",""time""
""focus"",""1"",""2808""
","""event"",""trial"",""time""
""fullscreenenter"",""1"",""3047""
","
","","[{""page_index"":0,""viewing_time"":8841.799999952316},{""page_index"":1,""viewing_time"":5498.799999952316},{""page_index"":2,""viewing_time"":6575.099999904633},{""page_index"":3,""viewing_time"":5080},{""page_index"":4,""viewing_time"":6468.100000143051},{""page_index"":5,""viewing_time"":6416.700000047684},{""page_index"":6,""viewing_time"":7125.299999952316},{""page_index"":7,""viewing_time"":6586.599999904633},{""page_index"":8,""viewing_time"":6193.100000143051},{""page_index"":9,""viewing_time"":10243.5},{""page_index"":10,""viewing_time"":9072},{""page_index"":11,""viewing_time"":9597.399999856949},{""page_index"":12,""viewing_time"":6092.400000095367},{""page_index"":13,""viewing_time"":4810.899999856949}]","98602.09999990463","","","","","","","","","","","","","","","","","","","","","","","",""
"pit-trial","8","125459","0.0-2.0-4.0-0.0","battery-v0.2","","""event"",""trial"",""time""
""focus"",""1"",""2808""
""fullscreenenter"",""1"",""3047""
","
","""event"",""trial"",""time""
""focus"",""1"",""2808""
","""event"",""trial"",""time""
""fullscreenenter"",""1"",""3047""
","
","","","948.3999998569489","","","11","3781","2082","&#9784;","elianto","#FFFFF080"," "," ","1","&#10004","[1805.9000000953674]","1","0","0","","","","","","","",""
"pit-trial","9","130330","0.0-2.0-4.1-0.1","battery-v0.2","","""event"",""trial"",""time""
""focus"",""1"",""2808""
""fullscreenenter"",""1"",""3047""
","
","""event"",""trial"",""time""
""focus"",""1"",""2808""
","""event"",""trial"",""time""
""fullscreenenter"",""1"",""3047""
","
","","","-1","","","11","3781","2082","&#9784;","elianto","#FFFFF080"," ","-1","0","&#10060","[139.90000009536743]","1","0","0","","","","","","","",""
"pit-trial","10","135201","0.0-2.0-4.2-0.2","battery-v0.2","","""event"",""trial"",""time""
""focus"",""1"",""2808""
""fullscreenenter"",""1"",""3047""
","
","""event"",""trial"",""time""
""focus"",""1"",""2808""
","""event"",""trial"",""time""
""fullscreenenter"",""1"",""3047""
","
","","","-1","","","11","3781","2082","&#9784;","elianto","#FFFFF080"," ","-1","0","&#10060","[3342.899999856949]","1","0","0","","","","","","","",""
"pit-trial","11","138451","0.0-2.0-4.3-0.3","battery-v0.2","","""event"",""trial"",""time""
""focus"",""1"",""2808""
""fullscreenenter"",""1"",""3047""
","
","""event"",""trial"",""time""
""focus"",""1"",""2808""
","""event"",""trial"",""time""
""fullscreenenter"",""1"",""3047""
","
","","","390.30000019073486","","","11","3781","2082","&#9784;","elianto","#FFFFF080"," "," ","1","&#10004","[1240.2999999523163]","1","0","0","","","","","","","",""
"pit-trial","12","141866","0.0-2.0-4.4-0.4","battery-v0.2","","""event"",""trial"",""time""
""focus"",""1"",""2808""
""fullscreenenter"",""1"",""3047""
","
","""event"",""trial"",""time""
""focus"",""1"",""2808""
","""event"",""trial"",""time""
""fullscreenenter"",""1"",""3047""
","
","","","543.7000000476837","","","11","3781","2082","&#9784;","elianto","#FFFFF080"," "," ","1","&#10004","[162.5,1403.9000000953674]","2","0","0","","","","","","","",""
"pit-trial","13","145363","0.0-2.0-4.5-0.5","battery-v0.2","","""event"",""trial"",""time""
""focus"",""1"",""2808""
""fullscreenenter"",""1"",""3047""
","
","""event"",""trial"",""time""
""focus"",""1"",""2808""
","""event"",""trial"",""time""
""fullscreenenter"",""1"",""3047""
","
","","","625.5","","","11","3781","2082","&#9784;","elianto","#FFFFF080"," "," ","1","&#10004","[1478.5]","1","0","0","","","","","","","",""
"pit-instructions","14","171614","0.0-2.0-5.0","battery-v0.2","","""event"",""trial"",""time""
""focus"",""1"",""2808""
""fullscreenenter"",""1"",""3047""
","
","""event"",""trial"",""time""
""focus"",""1"",""2808""
","""event"",""trial"",""time""
""fullscreenenter"",""1"",""3047""
","
","","[{""page_index"":0,""viewing_time"":6716.399999856949},{""page_index"":1,""viewing_time"":6290.300000190735},{""page_index"":2,""viewing_time"":6338.5},{""page_index"":3,""viewing_time"":6893.799999952316}]","26239.299999952316","","","","","","","","","","","","","","","","","","","","","","","",""
"pit-trial","15","176493","0.0-2.0-6.0-0.0","battery-v0.2","","""event"",""trial"",""time""
""focus"",""1"",""2808""
""fullscreenenter"",""1"",""3047""
","
","""event"",""trial"",""time""
""focus"",""1"",""2808""
","""event"",""trial"",""time""
""fullscreenenter"",""1"",""3047""
","
","","","-1","","","11","3781","2082","&#9854;","elianto","#FFFFF080","-1","-1","1","&#10004","[]","0","0","1","","","","","","","",""
"pit-trial","16","181366","0.0-2.0-6.1-0.1","battery-v0.2","","""event"",""trial"",""time""
""focus"",""1"",""2808""
""fullscreenenter"",""1"",""3047""
","
","""event"",""trial"",""time""
""focus"",""1"",""2808""
","""event"",""trial"",""time""
""fullscreenenter"",""1"",""3047""
","
","","","-1","","","11","3781","2082","&#9854;","elianto","#FFFFF080","-1","-1","1","&#10004","[]","0","0","1","","","","","","","",""
"pit-trial","17","186237","0.0-2.0-6.2-0.2","battery-v0.2","","""event"",""trial"",""time""
""focus"",""1"",""2808""
""fullscreenenter"",""1"",""3047""
","
","""event"",""trial"",""time""
""focus"",""1"",""2808""
","""event"",""trial"",""time""
""fullscreenenter"",""1"",""3047""
","
","","","-1","","","11","3781","2082","&#9854;","elianto","#FFFFF080","-1","-1","1","&#10004","[]","0","0","1","","","","","","","",""
"pit-trial","18","191101","0.0-2.0-6.3-0.3","battery-v0.2","","""event"",""trial"",""time""
""focus"",""1"",""2808""
""fullscreenenter"",""1"",""3047""
","
","""event"",""trial"",""time""
""focus"",""1"",""2808""
","""event"",""trial"",""time""
""fullscreenenter"",""1"",""3047""
","
","","","-1","","","11","3781","2082","&#9854;","elianto","#FFFFF080","-1","-1","1","&#10004","[]","0","0","1","","","","","","","",""
"pit-trial","19","195966","0.0-2.0-6.4-0.4","battery-v0.2","","""event"",""trial"",""time""
""focus"",""1"",""2808""
""fullscreenenter"",""1"",""3047""
","
","""event"",""trial"",""time""
""focus"",""1"",""2808""
","""event"",""trial"",""time""
""fullscreenenter"",""1"",""3047""
","
","","","-1","","","11","3781","2082","&#9854;","elianto","#FFFFF080","-1","-1","1","&#10004","[]","0","0","1","","","","","","","",""
"pit-instructions","20","358453","0.0-2.0-7.0","battery-v0.2","","""event"",""trial"",""time""
""focus"",""1"",""2808""
""fullscreenenter"",""1"",""3047""
","
","""event"",""trial"",""time""
""focus"",""1"",""2808""
","""event"",""trial"",""time""
""fullscreenenter"",""1"",""3047""
","
","","[{""page_index"":0,""viewing_time"":6125.400000095367},{""page_index"":1,""viewing_time"":7774.799999952316},{""page_index"":2,""viewing_time"":6703.799999952316},{""page_index"":3,""viewing_time"":6366.400000095367},{""page_index"":4,""viewing_time"":6344.899999856949},{""page_index"":5,""viewing_time"":6447.200000047684},{""page_index"":6,""viewing_time"":7104.200000047684},{""page_index"":7,""viewing_time"":9063.200000047684},{""page_index"":8,""viewing_time"":7887.299999952316},{""page_index"":9,""viewing_time"":7535.200000047684},{""page_index"":10,""viewing_time"":8071.5},{""page_index"":11,""viewing_time"":5391.799999952316},{""page_index"":12,""viewing_time"":11208.700000047684},{""page_index"":13,""viewing_time"":10102},{""page_index"":14,""viewing_time"":14462.200000047684},{""page_index"":15,""viewing_time"":18161.39999985695},{""page_index"":16,""viewing_time"":10640.100000143051},{""page_index"":17,""viewing_time"":13074.399999856949}]","162465.60000014305","","","","","","","","","","","","","","","","","","","","","","","",""
"pit-trial","21","362436","0.0-2.0-8.0-0.0","battery-v0.2","","""event"",""trial"",""time""
""focus"",""1"",""2808""
""fullscreenenter"",""1"",""3047""
","
","""event"",""trial"",""time""
""focus"",""1"",""2808""
","""event"",""trial"",""time""
""fullscreenenter"",""1"",""3047""
","
","","","1110.1999998092651","","","11","3781","2082","&#9776;","elianto","#3366ff99"," "," ","1","+10","[1969.0999999046326]","1","0","1","","","","","","","",""
"pit-trial","22","365397","0.0-2.0-8.0-1.0","battery-v0.2","","""event"",""trial"",""time""
""focus"",""1"",""2808""
""fullscreenenter"",""1"",""3047""
","
","""event"",""trial"",""time""
""focus"",""1"",""2808""
","""event"",""trial"",""time""
""fullscreenenter"",""1"",""3047""
","
","","","91.39999985694885","","","11","3781","2082","&#9776;","elianto","#3366ff99"," "," ","1","+10","[946.8999998569489]","1","0","1","","","","","","","",""
"pit-trial","23","368832","0.0-2.0-8.0-2.0","battery-v0.2","","""event"",""trial"",""time""
""focus"",""1"",""2808""
""fullscreenenter"",""1"",""3047""
","
","""event"",""trial"",""time""
""focus"",""1"",""2808""
","""event"",""trial"",""time""
""fullscreenenter"",""1"",""3047""
","
","","","569","","","11","3781","2082","&#9776;","elianto","#3366ff99"," "," ","1","+10","[1424.7000000476837]","1","0","1","","","","","","","",""
"pit-trial","24","372320","0.0-2.0-8.0-3.0","battery-v0.2","","""event"",""trial"",""time""
""focus"",""1"",""2808""
""fullscreenenter"",""1"",""3047""
","
","""event"",""trial"",""time""
""focus"",""1"",""2808""
","""event"",""trial"",""time""
""fullscreenenter"",""1"",""3047""
","
","","","619.7999999523163","","","11","3781","2082","&#9776;","elianto","#3366ff99"," "," ","1","0","[1472]","1","0","1","","","","","","","",""
"pit-trial","25","375737","0.0-2.0-8.0-4.0","battery-v0.2","","""event"",""trial"",""time""
""focus"",""1"",""2808""
""fullscreenenter"",""1"",""3047""
","
","""event"",""trial"",""time""
""focus"",""1"",""2808""
","""event"",""trial"",""time""
""fullscreenenter"",""1"",""3047""
","
","","","551.4000000953674","","","11","3781","2082","&#9776;","elianto","#3366ff99"," "," ","1","+10","[1403.2999999523163]","1","0","1","","","","","","","",""
"pit-trial","26","378904","0.0-2.0-8.1-0.1","battery-v0.2","","""event"",""trial"",""time""
""focus"",""1"",""2808""
""fullscreenenter"",""1"",""3047""
","
","""event"",""trial"",""time""
""focus"",""1"",""2808""
","""event"",""trial"",""time""
""fullscreenenter"",""1"",""3047""
","
","","","294.39999985694885","","","11","3781","2082","&#9776;","elianto","#3366ff99"," "," ","1","+10","[1151.3999998569489,1347.5999999046326]","2","0","1","","","","","","","",""
"pit-trial","27","382320","0.0-2.0-8.1-1.1","battery-v0.2","","""event"",""trial"",""time""
""focus"",""1"",""2808""
""fullscreenenter"",""1"",""3047""
","
","""event"",""trial"",""time""
""focus"",""1"",""2808""
","""event"",""trial"",""time""
""fullscreenenter"",""1"",""3047""
","
","","","556.2000000476837","","","11","3781","2082","&#9776;","elianto","#3366ff99"," "," ","1","+10","[1406.8999998569489]","1","0","1","","","","","","","",""
"pit-trial","28","385688","0.0-2.0-8.1-2.1","battery-v0.2","","""event"",""trial"",""time""
""focus"",""1"",""2808""
""fullscreenenter"",""1"",""3047""
","
","""event"",""trial"",""time""
""focus"",""1"",""2808""
","""event"",""trial"",""time""
""fullscreenenter"",""1"",""3047""
","
","","","506.60000014305115","","","11","3781","2082","&#9776;","elianto","#3366ff99"," "," ","1","+10","[1361.3999998569489]","1","0","1","","","","","","","",""
"pit-trial","29","388967","0.0-2.0-8.1-3.1","battery-v0.2","","""event"",""trial"",""time""
""focus"",""1"",""2808""
""fullscreenenter"",""1"",""3047""
","
","""event"",""trial"",""time""
""focus"",""1"",""2808""
","""event"",""trial"",""time""
""fullscreenenter"",""1"",""3047""
","
","","","418","","","11","3781","2082","&#9776;","elianto","#3366ff99"," "," ","1","0","[1269.5]","1","0","1","","","","","","","",""
"pit-trial","30","392335","0.0-2.0-8.1-4.1","battery-v0.2","","""event"",""trial"",""time""
""focus"",""1"",""2808""
""fullscreenenter"",""1"",""3047""
","
","""event"",""trial"",""time""
""focus"",""1"",""2808""
","""event"",""trial"",""time""
""fullscreenenter"",""1"",""3047""
","
","","","504.19999980926514","","","11","3781","2082","&#9776;","elianto","#3366ff99"," "," ","1","+10","[1355.5999999046326]","1","0","1","","","","","","","",""
"pit-trial","31","395624","0.0-2.0-8.2-0.2","battery-v0.2","","""event"",""trial"",""time""
""focus"",""1"",""2808""
""fullscreenenter"",""1"",""3047""
","
","""event"",""trial"",""time""
""focus"",""1"",""2808""
","""event"",""trial"",""time""
""fullscreenenter"",""1"",""3047""
","
","","","419.09999990463257","","","11","3781","2082","&#9776;","elianto","#3366ff99"," "," ","1","+10","[1272.7999999523163]","1","0","1","","","","","","","",""
"pit-trial","32","398568","0.0-2.0-8.2-1.2","battery-v0.2","","""event"",""trial"",""time""
""focus"",""1"",""2808""
""fullscreenenter"",""1"",""3047""
","
","""event"",""trial"",""time""
""focus"",""1"",""2808""
","""event"",""trial"",""time""
""fullscreenenter"",""1"",""3047""
","
","","","83.09999990463257","","","11","3781","2082","&#9776;","elianto","#3366ff99"," "," ","1","+10","[935.8999998569489]","1","0","1","","","","","","","",""
"pit-trial","33","401568","0.0-2.0-8.2-2.2","battery-v0.2","","""event"",""trial"",""time""
""focus"",""1"",""2808""
""fullscreenenter"",""1"",""3047""
","
","""event"",""trial"",""time""
""focus"",""1"",""2808""
","""event"",""trial"",""time""
""fullscreenenter"",""1"",""3047""
","
","","","138.80000019073486","","","11","3781","2082","&#9776;","elianto","#3366ff99"," "," ","1","+10","[990.0999999046326]","1","0","1","","","","","","","",""
"pit-trial","34","404873","0.0-2.0-8.2-3.2","battery-v0.2","","""event"",""trial"",""time""
""focus"",""1"",""2808""
""fullscreenenter"",""1"",""3047""
","
","""event"",""trial"",""time""
""focus"",""1"",""2808""
","""event"",""trial"",""time""
""fullscreenenter"",""1"",""3047""
","
","","","439.80000019073486","","","11","3781","2082","&#9776;","elianto","#3366ff99"," "," ","1","0","[1292.9000000953674]","1","0","1","","","","","","","",""
"pit-trial","35","407808","0.0-2.0-8.2-4.2","battery-v0.2","","""event"",""trial"",""time""
""focus"",""1"",""2808""
""fullscreenenter"",""1"",""3047""
","
","""event"",""trial"",""time""
""focus"",""1"",""2808""
","""event"",""trial"",""time""
""fullscreenenter"",""1"",""3047""
","
","","","61.5","","","11","3781","2082","&#9776;","elianto","#3366ff99"," "," ","1","+10","[921.4000000953674]","1","0","1","","","","","","","",""
"call-function","36","407817","0.0-2.0-9.0","battery-v0.2","","""event"",""trial"",""time""
""focus"",""1"",""2808""
""fullscreenenter"",""1"",""3047""
","
","""event"",""trial"",""time""
""focus"",""1"",""2808""
","""event"",""trial"",""time""
""fullscreenenter"",""1"",""3047""
","
","","","","","","","","","","","","","","","","","","","","","","","","","","",""
"pit-instructions","37","455966","0.0-2.0-10.0","battery-v0.2","","""event"",""trial"",""time""
""focus"",""1"",""2808""
""fullscreenenter"",""1"",""3047""
","
","""event"",""trial"",""time""
""focus"",""1"",""2808""
","""event"",""trial"",""time""
""fullscreenenter"",""1"",""3047""
","
","","[{""page_index"":0,""viewing_time"":7030.399999856949},{""page_index"":1,""viewing_time"":9671.5},{""page_index"":2,""viewing_time"":11647.900000095367},{""page_index"":3,""viewing_time"":10855.700000047684},{""page_index"":4,""viewing_time"":8936.5}]","48143","","","","","","","","","","","","","","","","","","","","","","","",""
"pit-trial","38","459492","0.0-2.0-11.0-0.0","battery-v0.2","","""event"",""trial"",""time""
""focus"",""1"",""2808""
""fullscreenenter"",""1"",""3047""
","
","""event"",""trial"",""time""
""focus"",""1"",""2808""
","""event"",""trial"",""time""
""fullscreenenter"",""1"",""3047""
","
","","","667.7000000476837","","","11","3781","2082","&#9761;","elianto","#3366ff99","-1"," ","0","0","[1519.5]","1","0","2","","","","","","","",""
"pit-trial","39","462868","0.0-2.0-11.0-1.0","battery-v0.2","","""event"",""trial"",""time""
""focus"",""1"",""2808""
""fullscreenenter"",""1"",""3047""
","
","""event"",""trial"",""time""
""focus"",""1"",""2808""
","""event"",""trial"",""time""
""fullscreenenter"",""1"",""3047""
","
","","","513.7000000476837","","","11","3781","2082","&#9761;","elianto","#3366ff99","-1"," ","0","0","[1365.8999998569489]","1","0","2","","","","","","","",""
"pit-trial","40","466539","0.0-2.0-11.0-2.0","battery-v0.2","","""event"",""trial"",""time""
""focus"",""1"",""2808""
""fullscreenenter"",""1"",""3047""
","
","""event"",""trial"",""time""
""focus"",""1"",""2808""
","""event"",""trial"",""time""
""fullscreenenter"",""1"",""3047""
","
","","","814.7999999523163","","","11","3781","2082","&#9761;","elianto","#3366ff99","-1"," ","0","0","[1667.0999999046326]","1","0","2","","","","","","","",""
"pit-trial","41","471404","0.0-2.0-11.0-3.0","battery-v0.2","","""event"",""trial"",""time""
""focus"",""1"",""2808""
""fullscreenenter"",""1"",""3047""
","
","""event"",""trial"",""time""
""focus"",""1"",""2808""
","""event"",""trial"",""time""
""fullscreenenter"",""1"",""3047""
","
","","","-1","","","11","3781","2082","&#9761;","elianto","#3366ff99","-1","-1","1","0","[3024.2000000476837]","1","0","2","","","","","","","",""
"pit-trial","42","476268","0.0-2.0-11.0-4.0","battery-v0.2","","""event"",""trial"",""time""
""focus"",""1"",""2808""
""fullscreenenter"",""1"",""3047""
","
","""event"",""trial"",""time""
""focus"",""1"",""2808""
","""event"",""trial"",""time""
""fullscreenenter"",""1"",""3047""
","
","","","-1","","","11","3781","2082","&#9761;","elianto","#3366ff99","-1","-1","1","+10","[]","0","0","2","","","","","","","",""
"pit-trial","43","481116","0.0-2.0-11.1-0.1","battery-v0.2","","""event"",""trial"",""time""
""focus"",""1"",""2808""
""fullscreenenter"",""1"",""3047""
","
","""event"",""trial"",""time""
""focus"",""1"",""2808""
","""event"",""trial"",""time""
""fullscreenenter"",""1"",""3047""
","
","","","1973.3999998569489","","","11","3781","2082","&#9761;","elianto","#3366ff99","-1"," ","0","0","[2829.199999809265]","1","0","2","","","","","","","",""
"pit-trial","44","484423","0.0-2.0-11.1-1.1","battery-v0.2","","""event"",""trial"",""time""
""focus"",""1"",""2808""
""fullscreenenter"",""1"",""3047""
","
","""event"",""trial"",""time""
""focus"",""1"",""2808""
","""event"",""trial"",""time""
""fullscreenenter"",""1"",""3047""
","
","","","447.2000000476837","","","11","3781","2082","&#9761;","elianto","#3366ff99","-1"," ","0","0","[1299.2000000476837]","1","0","2","","","","","","","",""
"pit-trial","45","487792","0.0-2.0-11.1-2.1","battery-v0.2","","""event"",""trial"",""time""
""focus"",""1"",""2808""
""fullscreenenter"",""1"",""3047""
","
","""event"",""trial"",""time""
""focus"",""1"",""2808""
","""event"",""trial"",""time""
""fullscreenenter"",""1"",""3047""
","
","","","505.10000014305115","","","11","3781","2082","&#9761;","elianto","#3366ff99","-1"," ","0","0","[1359.5]","1","0","2","","","","","","","",""
"pit-trial","46","491642","0.0-2.0-11.1-3.1","battery-v0.2","","""event"",""trial"",""time""
""focus"",""1"",""2808""
""fullscreenenter"",""1"",""3047""
","
","""event"",""trial"",""time""
""focus"",""1"",""2808""
","""event"",""trial"",""time""
""fullscreenenter"",""1"",""3047""
","
","","","971.7000000476837","","","11","3781","2082","&#9761;","elianto","#3366ff99","-1"," ","0","+10","[1833.9000000953674]","1","0","2","","","","","","","",""
"pit-trial","47","496520","0.0-2.0-11.1-4.1","battery-v0.2","","""event"",""trial"",""time""
""focus"",""1"",""2808""
""fullscreenenter"",""1"",""3047""
","
","""event"",""trial"",""time""
""focus"",""1"",""2808""
","""event"",""trial"",""time""
""fullscreenenter"",""1"",""3047""
","
","","","-1","","","11","3781","2082","&#9761;","elianto","#3366ff99","-1","-1","1","+10","[3436.199999809265]","1","0","2","","","","","","","",""
"pit-trial","48","500248","0.0-2.0-11.2-0.2","battery-v0.2","","""event"",""trial"",""time""
""focus"",""1"",""2808""
""fullscreenenter"",""1"",""3047""
","
","""event"",""trial"",""time""
""focus"",""1"",""2808""
","""event"",""trial"",""time""
""fullscreenenter"",""1"",""3047""
","
","","","854.1000001430511","","","11","3781","2082","&#9761;","elianto","#3366ff99","-1"," ","0","0","[1706.9000000953674]","1","0","2","","","","","","","",""
"pit-trial","49","503552","0.0-2.0-11.2-1.2","battery-v0.2","","""event"",""trial"",""time""
""focus"",""1"",""2808""
""fullscreenenter"",""1"",""3047""
","
","""event"",""trial"",""time""
""focus"",""1"",""2808""
","""event"",""trial"",""time""
""fullscreenenter"",""1"",""3047""
","
","","","443","","","11","3781","2082","&#9761;","elianto","#3366ff99","-1"," ","0","0","[1294.3999998569489]","1","0","2","","","","","","","",""
"pit-trial","50","506792","0.0-2.0-11.2-2.2","battery-v0.2","","""event"",""trial"",""time""
""focus"",""1"",""2808""
""fullscreenenter"",""1"",""3047""
","
","""event"",""trial"",""time""
""focus"",""1"",""2808""
","""event"",""trial"",""time""
""fullscreenenter"",""1"",""3047""
","
","","","373.7000000476837","","","11","3781","2082","&#9761;","elianto","#3366ff99","-1"," ","0","0","[1225.3000001907349]","1","0","2","","","","","","","",""
"pit-trial","51","510114","0.0-2.0-11.2-3.2","battery-v0.2","","""event"",""trial"",""time""
""focus"",""1"",""2808""
""fullscreenenter"",""1"",""3047""
","
","""event"",""trial"",""time""
""focus"",""1"",""2808""
","""event"",""trial"",""time""
""fullscreenenter"",""1"",""3047""
","
","","","448.60000014305115","","","11","3781","2082","&#9761;","elianto","#3366ff99","-1"," ","0","+10","[1306]","1","0","2","","","","","","","",""
"pit-trial","52","513184","0.0-2.0-11.2-4.2","battery-v0.2","","""event"",""trial"",""time""
""focus"",""1"",""2808""
""fullscreenenter"",""1"",""3047""
","
","""event"",""trial"",""time""
""focus"",""1"",""2808""
","""event"",""trial"",""time""
""fullscreenenter"",""1"",""3047""
","
","","","204.60000014305115","","","11","3781","2082","&#9761;","elianto","#3366ff99","-1"," ","0","0","[1059.2000000476837]","1","0","2","","","","","","","",""
"pit-trial","53","517115","0.0-2.0-11.3-0.3","battery-v0.2","","""event"",""trial"",""time""
""focus"",""1"",""2808""
""fullscreenenter"",""1"",""3047""
","
","""event"",""trial"",""time""
""focus"",""1"",""2808""
","""event"",""trial"",""time""
""fullscreenenter"",""1"",""3047""
","
","","","1053.7000000476837","","","11","3781","2082","&#9761;","elianto","#3366ff99","-1"," ","0","0","[1913.2000000476837]","1","0","2","","","","","","","",""
"pit-trial","54","521986","0.0-2.0-11.3-1.3","battery-v0.2","","""event"",""trial"",""time""
""focus"",""1"",""2808""
""fullscreenenter"",""1"",""3047""
","
","""event"",""trial"",""time""
""focus"",""1"",""2808""
","""event"",""trial"",""time""
""fullscreenenter"",""1"",""3047""
","
","","","-1","","","11","3781","2082","&#9761;","elianto","#3366ff99","-1","-1","1","+10","[3565.5]","1","0","2","","","","","","","",""
"pit-trial","55","526544","0.0-2.0-11.3-2.3","battery-v0.2","","""event"",""trial"",""time""
""focus"",""1"",""2808""
""fullscreenenter"",""1"",""3047""
","
","""event"",""trial"",""time""
""focus"",""1"",""2808""
","""event"",""trial"",""time""
""fullscreenenter"",""1"",""3047""
","
","","","1692.3999998569489","","","11","3781","2082","&#9761;","elianto","#3366ff99","-1"," ","0","0","[2546.9000000953674]","1","0","2","","","","","","","",""
"pit-trial","56","529792","0.0-2.0-11.3-3.3","battery-v0.2","","""event"",""trial"",""time""
""focus"",""1"",""2808""
""fullscreenenter"",""1"",""3047""
","
","""event"",""trial"",""time""
""focus"",""1"",""2808""
","""event"",""trial"",""time""
""fullscreenenter"",""1"",""3047""
","
","","","381.2000000476837","","","11","3781","2082","&#9761;","elianto","#3366ff99","-1"," ","0","+10","[1231.9000000953674]","1","0","2","","","","","","","",""
"pit-trial","57","533256","0.0-2.0-11.3-4.3","battery-v0.2","","""event"",""trial"",""time""
""focus"",""1"",""2808""
""fullscreenenter"",""1"",""3047""
","
","""event"",""trial"",""time""
""focus"",""1"",""2808""
","""event"",""trial"",""time""
""fullscreenenter"",""1"",""3047""
","
","","","603.7000000476837","","","11","3781","2082","&#9761;","elianto","#3366ff99","-1"," ","0","0","[1455.3999998569489]","1","0","2","","","","","","","",""
"call-function","58","533267","0.0-2.0-12.0","battery-v0.2","","""event"",""trial"",""time""
""focus"",""1"",""2808""
""fullscreenenter"",""1"",""3047""
","
","""event"",""trial"",""time""
""focus"",""1"",""2808""
","""event"",""trial"",""time""
""fullscreenenter"",""1"",""3047""
","
","","","","","","","","","","","","","","","","","","","","","","","","","","",""
"pit-instructions","59","572541","0.0-2.0-13.0","battery-v0.2","","""event"",""trial"",""time""
""focus"",""1"",""2808""
""fullscreenenter"",""1"",""3047""
","
","""event"",""trial"",""time""
""focus"",""1"",""2808""
","""event"",""trial"",""time""
""fullscreenenter"",""1"",""3047""
","
","","[{""page_index"":0,""viewing_time"":7294.100000143051},{""page_index"":1,""viewing_time"":8815.299999952316},{""page_index"":2,""viewing_time"":4551.700000047684},{""page_index"":3,""viewing_time"":11536.299999952316},{""page_index"":4,""viewing_time"":7070.799999952316}]","39269.10000014305","","","","","","","","","","","","","","","","","","","","","","","",""
"pit-trial","60","577411","0.0-2.0-14.0-0.0","battery-v0.2","","""event"",""trial"",""time""
""focus"",""1"",""2808""
""fullscreenenter"",""1"",""3047""
","
","""event"",""trial"",""time""
""focus"",""1"",""2808""
","""event"",""trial"",""time""
""fullscreenenter"",""1"",""3047""
","
","","","-1","","","11","3781","2082","&#9826;","elianto","#f73b6a7A","-1","-1","1","0","[]","0","0","3","","","","","","","",""
"pit-trial","61","582283","0.0-2.0-14.0-1.0","battery-v0.2","","""event"",""trial"",""time""
""focus"",""1"",""2808""
""fullscreenenter"",""1"",""3047""
","
","""event"",""trial"",""time""
""focus"",""1"",""2808""
","""event"",""trial"",""time""
""fullscreenenter"",""1"",""3047""
","
","","","-1","","","11","3781","2082","&#9826;","elianto","#f73b6a7A","-1","-1","1","0","[]","0","0","3","","","","","","","",""
"pit-trial","62","587146","0.0-2.0-14.0-2.0","battery-v0.2","","""event"",""trial"",""time""
""focus"",""1"",""2808""
""fullscreenenter"",""1"",""3047""
","
","""event"",""trial"",""time""
""focus"",""1"",""2808""
","""event"",""trial"",""time""
""fullscreenenter"",""1"",""3047""
","
","","","-1","","","11","3781","2082","&#9826;","elianto","#f73b6a7A","-1","-1","1","0","[]","0","0","3","","","","","","","",""
"pit-trial","63","592010","0.0-2.0-14.0-3.0","battery-v0.2","","""event"",""trial"",""time""
""focus"",""1"",""2808""
""fullscreenenter"",""1"",""3047""
","
","""event"",""trial"",""time""
""focus"",""1"",""2808""
","""event"",""trial"",""time""
""fullscreenenter"",""1"",""3047""
","
","","","-1","","","11","3781","2082","&#9826;","elianto","#f73b6a7A","-1","-1","1","-10","[]","0","0","3","","","","","","","",""
"pit-trial","64","596881","0.0-2.0-14.0-4.0","battery-v0.2","","""event"",""trial"",""time""
""focus"",""1"",""2808""
""fullscreenenter"",""1"",""3047""
","
","""event"",""trial"",""time""
""focus"",""1"",""2808""
","""event"",""trial"",""time""
""fullscreenenter"",""1"",""3047""
","
","","","-1","","","11","3781","2082","&#9826;","elianto","#f73b6a7A","-1","-1","1","0","[]","0","0","3","","","","","","","",""
"pit-trial","65","601754","0.0-2.0-14.1-0.1","battery-v0.2","","""event"",""trial"",""time""
""focus"",""1"",""2808""
""fullscreenenter"",""1"",""3047""
","
","""event"",""trial"",""time""
""focus"",""1"",""2808""
","""event"",""trial"",""time""
""fullscreenenter"",""1"",""3047""
","
","","","-1","","","11","3781","2082","&#9826;","elianto","#f73b6a7A","-1","-1","1","0","[]","0","0","3","","","","","","","",""
"pit-trial","66","606623","0.0-2.0-14.1-1.1","battery-v0.2","","""event"",""trial"",""time""
""focus"",""1"",""2808""
""fullscreenenter"",""1"",""3047""
","
","""event"",""trial"",""time""
""focus"",""1"",""2808""
","""event"",""trial"",""time""
""fullscreenenter"",""1"",""3047""
","
","","","-1","","","11","3781","2082","&#9826;","elianto","#f73b6a7A","-1","-1","1","0","[]","0","0","3","","","","","","","",""
"pit-trial","67","611488","0.0-2.0-14.1-2.1","battery-v0.2","","""event"",""trial"",""time""
""focus"",""1"",""2808""
""fullscreenenter"",""1"",""3047""
","
","""event"",""trial"",""time""
""focus"",""1"",""2808""
","""event"",""trial"",""time""
""fullscreenenter"",""1"",""3047""
","
","","","-1","","","11","3781","2082","&#9826;","elianto","#f73b6a7A","-1","-1","1","0","[3976.7000000476837]","1","0","3","","","","","","","",""
"pit-trial","68","616359","0.0-2.0-14.1-3.1","battery-v0.2","","""event"",""trial"",""time""
""focus"",""1"",""2808""
""fullscreenenter"",""1"",""3047""
","
","""event"",""trial"",""time""
""focus"",""1"",""2808""
","""event"",""trial"",""time""
""fullscreenenter"",""1"",""3047""
","
","","","-1","","","11","3781","2082","&#9826;","elianto","#f73b6a7A","-1","-1","1","-10","[]","0","0","3","","","","","","","",""
"pit-trial","69","619696","0.0-2.0-14.1-4.1","battery-v0.2","","""event"",""trial"",""time""
""focus"",""1"",""2808""
""fullscreenenter"",""1"",""3047""
","
","""event"",""trial"",""time""
""focus"",""1"",""2808""
","""event"",""trial"",""time""
""fullscreenenter"",""1"",""3047""
","
","","","467.09999990463257","","","11","3781","2082","&#9826;","elianto","#f73b6a7A","-1"," ","0","-10","[1322.0999999046326]","1","0","3","","","","","","","",""
"pit-trial","70","624568","0.0-2.0-14.2-0.2","battery-v0.2","","""event"",""trial"",""time""
""focus"",""1"",""2808""
""fullscreenenter"",""1"",""3047""
","
","""event"",""trial"",""time""
""focus"",""1"",""2808""
","""event"",""trial"",""time""
""fullscreenenter"",""1"",""3047""
","
","","","-1","","","11","3781","2082","&#9826;","elianto","#f73b6a7A","-1","-1","1","0","[]","0","0","3","","","","","","","",""
"pit-trial","71","629440","0.0-2.0-14.2-1.2","battery-v0.2","","""event"",""trial"",""time""
""focus"",""1"",""2808""
""fullscreenenter"",""1"",""3047""
","
","""event"",""trial"",""time""
""focus"",""1"",""2808""
","""event"",""trial"",""time""
""fullscreenenter"",""1"",""3047""
","
","","","-1","","","11","3781","2082","&#9826;","elianto","#f73b6a7A","-1","-1","1","0","[]","0","0","3","","","","","","","",""
"pit-trial","72","634312","0.0-2.0-14.2-2.2","battery-v0.2","","""event"",""trial"",""time""
""focus"",""1"",""2808""
""fullscreenenter"",""1"",""3047""
","
","""event"",""trial"",""time""
""focus"",""1"",""2808""
","""event"",""trial"",""time""
""fullscreenenter"",""1"",""3047""
","
","","","-1","","","11","3781","2082","&#9826;","elianto","#f73b6a7A","-1","-1","1","0","[]","0","0","3","","","","","","","",""
"pit-trial","73","639182","0.0-2.0-14.2-3.2","battery-v0.2","","""event"",""trial"",""time""
""focus"",""1"",""2808""
""fullscreenenter"",""1"",""3047""
","
","""event"",""trial"",""time""
""focus"",""1"",""2808""
","""event"",""trial"",""time""
""fullscreenenter"",""1"",""3047""
","
","","","-1","","","11","3781","2082","&#9826;","elianto","#f73b6a7A","-1","-1","1","-10","[]","0","0","3","","","","","","","",""
"pit-trial","74","642375","0.0-2.0-14.2-4.2","battery-v0.2","","""event"",""trial"",""time""
""focus"",""1"",""2808""
""fullscreenenter"",""1"",""3047""
","
","""event"",""trial"",""time""
""focus"",""1"",""2808""
","""event"",""trial"",""time""
""fullscreenenter"",""1"",""3047""
","
","","","326.90000009536743","","","11","3781","2082","&#9826;","elianto","#f73b6a7A","-1"," ","0","-10","[1179.2000000476837]","1","0","3","","","","","","","",""
"pit-trial","75","645782","0.0-2.0-14.3-0.3","battery-v0.2","","""event"",""trial"",""time""
""focus"",""1"",""2808""
""fullscreenenter"",""1"",""3047""
","
","""event"",""trial"",""time""
""focus"",""1"",""2808""
","""event"",""trial"",""time""
""fullscreenenter"",""1"",""3047""
","
","","","533.8999998569489","","","11","3781","2082","&#9826;","elianto","#f73b6a7A","-1"," ","0","-10","[1393.2000000476837]","1","0","3","","","","","","","",""
"pit-trial","76","650649","0.0-2.0-14.3-1.3","battery-v0.2","","""event"",""trial"",""time""
""focus"",""1"",""2808""
""fullscreenenter"",""1"",""3047""
","
","""event"",""trial"",""time""
""focus"",""1"",""2808""
","""event"",""trial"",""time""
""fullscreenenter"",""1"",""3047""
","
","","","-1","","","11","3781","2082","&#9826;","elianto","#f73b6a7A","-1","-1","1","0","[]","0","0","3","","","","","","","",""
"pit-trial","77","655520","0.0-2.0-14.3-2.3","battery-v0.2","","""event"",""trial"",""time""
""focus"",""1"",""2808""
""fullscreenenter"",""1"",""3047""
","
","""event"",""trial"",""time""
""focus"",""1"",""2808""
","""event"",""trial"",""time""
""fullscreenenter"",""1"",""3047""
","
","","","-1","","","11","3781","2082","&#9826;","elianto","#f73b6a7A","-1","-1","1","0","[36.90000009536743]","1","0","3","","","","","","","",""
"pit-trial","78","660391","0.0-2.0-14.3-3.3","battery-v0.2","","""event"",""trial"",""time""
""focus"",""1"",""2808""
""fullscreenenter"",""1"",""3047""
","
","""event"",""trial"",""time""
""focus"",""1"",""2808""
","""event"",""trial"",""time""
""fullscreenenter"",""1"",""3047""
","
","","","-1","","","11","3781","2082","&#9826;","elianto","#f73b6a7A","-1","-1","1","-10","[]","0","0","3","","","","","","","",""
"pit-trial","79","665263","0.0-2.0-14.3-4.3","battery-v0.2","","""event"",""trial"",""time""
""focus"",""1"",""2808""
""fullscreenenter"",""1"",""3047""
","
","""event"",""trial"",""time""
""focus"",""1"",""2808""
","""event"",""trial"",""time""
""fullscreenenter"",""1"",""3047""
","
","","","-1","","","11","3781","2082","&#9826;","elianto","#f73b6a7A","-1","-1","1","0","[]","0","0","3","","","","","","","",""
"call-function","80","665269","0.0-2.0-15.0","battery-v0.2","","""event"",""trial"",""time""
""focus"",""1"",""2808""
""fullscreenenter"",""1"",""3047""
","
","""event"",""trial"",""time""
""focus"",""1"",""2808""
","""event"",""trial"",""time""
""fullscreenenter"",""1"",""3047""
","
","","","","","","","","","","","","","","","","","","","","","","","","","","",""
"pit-instructions","81","693250","0.0-2.0-16.0","battery-v0.2","","""event"",""trial"",""time""
""focus"",""1"",""2808""
""fullscreenenter"",""1"",""3047""
","
","""event"",""trial"",""time""
""focus"",""1"",""2808""
","""event"",""trial"",""time""
""fullscreenenter"",""1"",""3047""
","
","","[{""page_index"":0,""viewing_time"":7311.100000143051},{""page_index"":1,""viewing_time"":10387.799999952316},{""page_index"":2,""viewing_time"":4598.400000095367},{""page_index"":3,""viewing_time"":5676.799999952316}]","27975.700000047684","","","","","","","","","","","","","","","","","","","","","","","",""
"pit-trial","82","698113","0.0-2.0-17.0-0.0","battery-v0.2","","""event"",""trial"",""time""
""focus"",""1"",""2808""
""fullscreenenter"",""1"",""3047""
","
","""event"",""trial"",""time""
""focus"",""1"",""2808""
","""event"",""trial"",""time""
""fullscreenenter"",""1"",""3047""
","
","","","-1","","","11","3781","2082","&#9789;","elianto","#f73b6a7A"," ","-1","0","-10","[]","0","0","4","","","","","","","",""
"pit-trial","83","702977","0.0-2.0-17.0-1.0","battery-v0.2","","""event"",""trial"",""time""
""focus"",""1"",""2808""
""fullscreenenter"",""1"",""3047""
","
","""event"",""trial"",""time""
""focus"",""1"",""2808""
","""event"",""trial"",""time""
""fullscreenenter"",""1"",""3047""
","
","","","-1","","","11","3781","2082","&#9789;","elianto","#f73b6a7A"," ","-1","0","-10","[]","0","0","4","","","","","","","",""
"pit-trial","84","707842","0.0-2.0-17.0-2.0","battery-v0.2","","""event"",""trial"",""time""
""focus"",""1"",""2808""
""fullscreenenter"",""1"",""3047""
","
","""event"",""trial"",""time""
""focus"",""1"",""2808""
","""event"",""trial"",""time""
""fullscreenenter"",""1"",""3047""
","
","","","-1","","","11","3781","2082","&#9789;","elianto","#f73b6a7A"," ","-1","0","-10","[]","0","0","4","","","","","","","",""
"pit-trial","85","712705","0.0-2.0-17.0-3.0","battery-v0.2","","""event"",""trial"",""time""
""focus"",""1"",""2808""
""fullscreenenter"",""1"",""3047""
","
","""event"",""trial"",""time""
""focus"",""1"",""2808""
","""event"",""trial"",""time""
""fullscreenenter"",""1"",""3047""
","
","","","-1","","","11","3781","2082","&#9789;","elianto","#f73b6a7A"," ","-1","0","0","[]","0","0","4","","","","","","","",""
"pit-trial","86","717570","0.0-2.0-17.0-4.0","battery-v0.2","","""event"",""trial"",""time""
""focus"",""1"",""2808""
""fullscreenenter"",""1"",""3047""
","
","""event"",""trial"",""time""
""focus"",""1"",""2808""
","""event"",""trial"",""time""
""fullscreenenter"",""1"",""3047""
","
","","","-1","","","11","3781","2082","&#9789;","elianto","#f73b6a7A"," ","-1","0","-10","[]","0","0","4","","","","","","","",""
"pit-trial","87","722442","0.0-2.0-17.1-0.1","battery-v0.2","","""event"",""trial"",""time""
""focus"",""1"",""2808""
""fullscreenenter"",""1"",""3047""
","
","""event"",""trial"",""time""
""focus"",""1"",""2808""
","""event"",""trial"",""time""
""fullscreenenter"",""1"",""3047""
","
","","","-1","","","11","3781","2082","&#9789;","elianto","#f73b6a7A"," ","-1","0","-10","[]","0","0","4","","","","","","","",""
"pit-trial","88","727307","0.0-2.0-17.1-1.1","battery-v0.2","","""event"",""trial"",""time""
""focus"",""1"",""2808""
""fullscreenenter"",""1"",""3047""
","
","""event"",""trial"",""time""
""focus"",""1"",""2808""
","""event"",""trial"",""time""
""fullscreenenter"",""1"",""3047""
","
","","","-1","","","11","3781","2082","&#9789;","elianto","#f73b6a7A"," ","-1","0","-10","[]","0","0","4","","","","","","","",""
"pit-trial","89","732182","0.0-2.0-17.1-2.1","battery-v0.2","","""event"",""trial"",""time""
""focus"",""1"",""2808""
""fullscreenenter"",""1"",""3047""
","
","""event"",""trial"",""time""
""focus"",""1"",""2808""
","""event"",""trial"",""time""
""fullscreenenter"",""1"",""3047""
","
","","","-1","","","11","3781","2082","&#9789;","elianto","#f73b6a7A"," ","-1","0","-10","[]","0","0","4","","","","","","","",""
"pit-trial","90","737055","0.0-2.0-17.1-3.1","battery-v0.2","","""event"",""trial"",""time""
""focus"",""1"",""2808""
""fullscreenenter"",""1"",""3047""
","
","""event"",""trial"",""time""
""focus"",""1"",""2808""
","""event"",""trial"",""time""
""fullscreenenter"",""1"",""3047""
","
","","","-1","","","11","3781","2082","&#9789;","elianto","#f73b6a7A"," ","-1","0","0","[]","0","0","4","","","","","","","",""
"pit-trial","91","741926","0.0-2.0-17.1-4.1","battery-v0.2","","""event"",""trial"",""time""
""focus"",""1"",""2808""
""fullscreenenter"",""1"",""3047""
","
","""event"",""trial"",""time""
""focus"",""1"",""2808""
","""event"",""trial"",""time""
""fullscreenenter"",""1"",""3047""
","
","","","-1","","","11","3781","2082","&#9789;","elianto","#f73b6a7A"," ","-1","0","-10","[]","0","0","4","","","","","","","",""
"pit-trial","92","746797","0.0-2.0-17.2-0.2","battery-v0.2","","""event"",""trial"",""time""
""focus"",""1"",""2808""
""fullscreenenter"",""1"",""3047""
","
","""event"",""trial"",""time""
""focus"",""1"",""2808""
","""event"",""trial"",""time""
""fullscreenenter"",""1"",""3047""
","
","","","-1","","","11","3781","2082","&#9789;","elianto","#f73b6a7A"," ","-1","0","-10","[]","0","0","4","","","","","","","",""
"pit-trial","93","751664","0.0-2.0-17.2-1.2","battery-v0.2","","""event"",""trial"",""time""
""focus"",""1"",""2808""
""fullscreenenter"",""1"",""3047""
","
","""event"",""trial"",""time""
""focus"",""1"",""2808""
","""event"",""trial"",""time""
""fullscreenenter"",""1"",""3047""
","
","","","-1","","","11","3781","2082","&#9789;","elianto","#f73b6a7A"," ","-1","0","-10","[]","0","0","4","","","","","","","",""
"pit-trial","94","756535","0.0-2.0-17.2-2.2","battery-v0.2","","""event"",""trial"",""time""
""focus"",""1"",""2808""
""fullscreenenter"",""1"",""3047""
","
","""event"",""trial"",""time""
""focus"",""1"",""2808""
","""event"",""trial"",""time""
""fullscreenenter"",""1"",""3047""
","
","","","-1","","","11","3781","2082","&#9789;","elianto","#f73b6a7A"," ","-1","0","-10","[]","0","0","4","","","","","","","",""
"pit-trial","95","761407","0.0-2.0-17.2-3.2","battery-v0.2","","""event"",""trial"",""time""
""focus"",""1"",""2808""
""fullscreenenter"",""1"",""3047""
","
","""event"",""trial"",""time""
""focus"",""1"",""2808""
","""event"",""trial"",""time""
""fullscreenenter"",""1"",""3047""
","
","","","-1","","","11","3781","2082","&#9789;","elianto","#f73b6a7A"," ","-1","0","0","[]","0","0","4","","","","","","","",""
"pit-trial","96","766279","0.0-2.0-17.2-4.2","battery-v0.2","","""event"",""trial"",""time""
""focus"",""1"",""2808""
""fullscreenenter"",""1"",""3047""
","
","""event"",""trial"",""time""
""focus"",""1"",""2808""
","""event"",""trial"",""time""
""fullscreenenter"",""1"",""3047""
","
","","","-1","","","11","3781","2082","&#9789;","elianto","#f73b6a7A"," ","-1","0","-10","[]","0","0","4","","","","","","","",""
"pit-trial","97","771151","0.0-2.0-17.3-0.3","battery-v0.2","","""event"",""trial"",""time""
""focus"",""1"",""2808""
""fullscreenenter"",""1"",""3047""
","
","""event"",""trial"",""time""
""focus"",""1"",""2808""
","""event"",""trial"",""time""
""fullscreenenter"",""1"",""3047""
","
","","","-1","","","11","3781","2082","&#9789;","elianto","#f73b6a7A"," ","-1","0","-10","[]","0","0","4","","","","","","","",""
"pit-trial","98","776023","0.0-2.0-17.3-1.3","battery-v0.2","","""event"",""trial"",""time""
""focus"",""1"",""2808""
""fullscreenenter"",""1"",""3047""
","
","""event"",""trial"",""time""
""focus"",""1"",""2808""
","""event"",""trial"",""time""
""fullscreenenter"",""1"",""3047""
","
","","","-1","","","11","3781","2082","&#9789;","elianto","#f73b6a7A"," ","-1","0","-10","[]","0","0","4","","","","","","","",""
"pit-trial","99","780903","0.0-2.0-17.3-2.3","battery-v0.2","","""event"",""trial"",""time""
""focus"",""1"",""2808""
""fullscreenenter"",""1"",""3047""
","
","""event"",""trial"",""time""
""focus"",""1"",""2808""
","""event"",""trial"",""time""
""fullscreenenter"",""1"",""3047""
","
","","","-1","","","11","3781","2082","&#9789;","elianto","#f73b6a7A"," ","-1","0","-10","[]","0","0","4","","","","","","","",""
"pit-trial","100","785775","0.0-2.0-17.3-3.3","battery-v0.2","","""event"",""trial"",""time""
""focus"",""1"",""2808""
""fullscreenenter"",""1"",""3047""
","
","""event"",""trial"",""time""
""focus"",""1"",""2808""
","""event"",""trial"",""time""
""fullscreenenter"",""1"",""3047""
","
","","","-1","","","11","3781","2082","&#9789;","elianto","#f73b6a7A"," ","-1","0","0","[]","0","0","4","","","","","","","",""
"pit-trial","101","790651","0.0-2.0-17.3-4.3","battery-v0.2","","""event"",""trial"",""time""
""focus"",""1"",""2808""
""fullscreenenter"",""1"",""3047""
","
","""event"",""trial"",""time""
""focus"",""1"",""2808""
","""event"",""trial"",""time""
""fullscreenenter"",""1"",""3047""
","
","","","-1","","","11","3781","2082","&#9789;","elianto","#f73b6a7A"," ","-1","0","-10","[]","0","0","4","","","","","","","",""
"call-function","102","790659","0.0-2.0-18.0","battery-v0.2","","""event"",""trial"",""time""
""focus"",""1"",""2808""
""fullscreenenter"",""1"",""3047""
","
","""event"",""trial"",""time""
""focus"",""1"",""2808""
","""event"",""trial"",""time""
""fullscreenenter"",""1"",""3047""
","
","","","","","","","","","","","","","","","","","","","","","","","","","","",""
"pit-instructions","103","868187","0.0-2.0-19.0","battery-v0.2","","""event"",""trial"",""time""
""focus"",""1"",""2808""
""fullscreenenter"",""1"",""3047""
","
","""event"",""trial"",""time""
""focus"",""1"",""2808""
","""event"",""trial"",""time""
""fullscreenenter"",""1"",""3047""
","
","","[{""page_index"":0,""viewing_time"":9476.300000190735},{""page_index"":1,""viewing_time"":7432.799999952316},{""page_index"":2,""viewing_time"":14239.799999952316},{""page_index"":3,""viewing_time"":7477.700000047684},{""page_index"":4,""viewing_time"":7933.200000047684},{""page_index"":5,""viewing_time"":9577.099999904633},{""page_index"":6,""viewing_time"":9680},{""page_index"":7,""viewing_time"":6892.299999952316},{""page_index"":8,""viewing_time"":4811.700000047684}]","77521.70000004768","","","","","","","","","","","","","","","","","","","","","","","",""
"pit-comprehension","104","879520","0.0-2.0-20.0-0.0","battery-v0.2","","""event"",""trial"",""time""
""focus"",""1"",""2808""
""fullscreenenter"",""1"",""3047""
","
","""event"",""trial"",""time""
""focus"",""1"",""2808""
","""event"",""trial"",""time""
""fullscreenenter"",""1"",""3047""
","
","","","11325.5","[""SPACE""]","0","11","3781","2082","","","","","","","","","","","","","","","","","","",""
"pit-instructions","105","883169","0.0-2.0-20.0-1.0","battery-v0.2","","""event"",""trial"",""time""
""focus"",""1"",""2808""
""fullscreenenter"",""1"",""3047""
","
","""event"",""trial"",""time""
""focus"",""1"",""2808""
","""event"",""trial"",""time""
""fullscreenenter"",""1"",""3047""
","
","","[{""page_index"":0,""viewing_time"":3546.300000190735}]","3547.2000000476837","","","","","","","","","","","","","","","","","","","","","","","",""
"pit-comprehension","106","889866","0.0-2.0-21.0-0.0","battery-v0.2","","""event"",""trial"",""time""
""focus"",""1"",""2808""
""fullscreenenter"",""1"",""3047""
","
","""event"",""trial"",""time""
""focus"",""1"",""2808""
","""event"",""trial"",""time""
""fullscreenenter"",""1"",""3047""
","
","","","6688.100000143051","[""10""]","0","11","3781","2082","","","","","","","","","","","","","","","","","","",""
"pit-instructions","107","896141","0.0-2.0-21.0-1.0","battery-v0.2","","""event"",""trial"",""time""
""focus"",""1"",""2808""
""fullscreenenter"",""1"",""3047""
","
","""event"",""trial"",""time""
""focus"",""1"",""2808""
","""event"",""trial"",""time""
""fullscreenenter"",""1"",""3047""
","
","","[{""page_index"":0,""viewing_time"":6177.300000190735}]","6177.800000190735","","","","","","","","","","","","","","","","","","","","","","","",""
"pit-comprehension","108","903025","0.0-2.0-22.0-0.0","battery-v0.2","","""event"",""trial"",""time""
""focus"",""1"",""2808""
""fullscreenenter"",""1"",""3047""
","
","""event"",""trial"",""time""
""focus"",""1"",""2808""
","""event"",""trial"",""time""
""fullscreenenter"",""1"",""3047""
","
","","","6875","[""-10""]","1","11","3781","2082","","","","","","","","","","","","","","","","","","",""
"pit-instructions","109","909688","0.0-2.0-22.0-1.0","battery-v0.2","","""event"",""trial"",""time""
""focus"",""1"",""2808""
""fullscreenenter"",""1"",""3047""
","
","""event"",""trial"",""time""
""focus"",""1"",""2808""
","""event"",""trial"",""time""
""fullscreenenter"",""1"",""3047""
","
","","[{""page_index"":0,""viewing_time"":6588.300000190735}]","6589.200000047684","","","","","","","","","","","","","","","","","","","","","","","",""
"pit-instructions","110","914971","0.0-2.0-22.0-2.0-0.0","battery-v0.2","","""event"",""trial"",""time""
""focus"",""1"",""2808""
""fullscreenenter"",""1"",""3047""
","
","""event"",""trial"",""time""
""focus"",""1"",""2808""
","""event"",""trial"",""time""
""fullscreenenter"",""1"",""3047""
","
","","[{""page_index"":0,""viewing_time"":5273.699999809265}]","5274.699999809265","","","","","","","","","","","","","","","","","","","","","","","",""
"pit-comprehension","111","921695","0.0-2.0-22.1-0.1","battery-v0.2","","""event"",""trial"",""time""
""focus"",""1"",""2808""
""fullscreenenter"",""1"",""3047""
","
","""event"",""trial"",""time""
""focus"",""1"",""2808""
","""event"",""trial"",""time""
""fullscreenenter"",""1"",""3047""
","
","","","6711.799999952316","[""0""]","0","11","3781","2082","","","","","","","","","","","","","","","","","","",""
"pit-instructions","112","925039","0.0-2.0-22.1-1.1","battery-v0.2","","""event"",""trial"",""time""
""focus"",""1"",""2808""
""fullscreenenter"",""1"",""3047""
","
","""event"",""trial"",""time""
""focus"",""1"",""2808""
","""event"",""trial"",""time""
""fullscreenenter"",""1"",""3047""
","
","","[{""page_index"":0,""viewing_time"":3237.899999856949}]","3238.5999999046326","","","","","","","","","","","","","","","","","","","","","","","",""
"pit-comprehension","113","936789","0.0-2.0-23.0-0.0","battery-v0.2","","""event"",""trial"",""time""
""focus"",""1"",""2808""
""fullscreenenter"",""1"",""3047""
","
","""event"",""trial"",""time""
""focus"",""1"",""2808""
","""event"",""trial"",""time""
""fullscreenenter"",""1"",""3047""
","
","","","11739.899999856949","[""False""]","1","11","3781","2082","","","","","","","","","","","","","","","","","","",""
"pit-instructions","114","941908","0.0-2.0-23.0-1.0","battery-v0.2","","""event"",""trial"",""time""
""focus"",""1"",""2808""
""fullscreenenter"",""1"",""3047""
","
","""event"",""trial"",""time""
""focus"",""1"",""2808""
","""event"",""trial"",""time""
""fullscreenenter"",""1"",""3047""
","
","","[{""page_index"":0,""viewing_time"":5028.199999809265}]","5028.699999809265","","","","","","","","","","","","","","","","","","","","","","","",""
"pit-instructions","115","945325","0.0-2.0-23.0-2.0-0.0","battery-v0.2","","""event"",""trial"",""time""
""focus"",""1"",""2808""
""fullscreenenter"",""1"",""3047""
","
","""event"",""trial"",""time""
""focus"",""1"",""2808""
","""event"",""trial"",""time""
""fullscreenenter"",""1"",""3047""
","
","","[{""page_index"":0,""viewing_time"":3410.5}]","3411.100000143051","","","","","","","","","","","","","","","","","","","","","","","",""
"pit-comprehension","116","953949","0.0-2.0-23.1-0.1","battery-v0.2","","""event"",""trial"",""time""
""focus"",""1"",""2808""
""fullscreenenter"",""1"",""3047""
","
","""event"",""trial"",""time""
""focus"",""1"",""2808""
","""event"",""trial"",""time""
""fullscreenenter"",""1"",""3047""
","
","","","8616.5","[""True""]","0","11","3781","2082","","","","","","","","","","","","","","","","","","",""
"pit-instructions","117","958068","0.0-2.0-23.1-1.1","battery-v0.2","","""event"",""trial"",""time""
""focus"",""1"",""2808""
""fullscreenenter"",""1"",""3047""
","
","""event"",""trial"",""time""
""focus"",""1"",""2808""
","""event"",""trial"",""time""
""fullscreenenter"",""1"",""3047""
","
","","[{""page_index"":0,""viewing_time"":4005.5}]","4006.399999856949","","","","","","","","","","","","","","","","","","","","","","","",""
"pit-comprehension","118","965900","0.0-2.0-24.0-0.0","battery-v0.2","","""event"",""trial"",""time""
""focus"",""1"",""2808""
""fullscreenenter"",""1"",""3047""
","
","""event"",""trial"",""time""
""focus"",""1"",""2808""
","""event"",""trial"",""time""
""fullscreenenter"",""1"",""3047""
","
","","","7825.799999952316","[""True""]","0","11","3781","2082","","","","","","","","","","","","","","","","","","",""
"pit-instructions","119","969324","0.0-2.0-24.0-1.0","battery-v0.2","","""event"",""trial"",""time""
""focus"",""1"",""2808""
""fullscreenenter"",""1"",""3047""
","
","""event"",""trial"",""time""
""focus"",""1"",""2808""
","""event"",""trial"",""time""
""fullscreenenter"",""1"",""3047""
","
","","[{""page_index"":0,""viewing_time"":3338.2999999523163}]","3339.4000000953674","","","","","","","","","","","","","","","","","","","","","","","",""
"pit-comprehension","120","977084","0.0-2.0-25.0-0.0","battery-v0.2","","""event"",""trial"",""time""
""focus"",""1"",""2808""
""fullscreenenter"",""1"",""3047""
","
","""event"",""trial"",""time""
""focus"",""1"",""2808""
","""event"",""trial"",""time""
""fullscreenenter"",""1"",""3047""
","
","","","7743.5","[""True""]","0","11","3781","2082","","","","","","","","","","","","","","","","","","",""
"pit-instructions","121","981791","0.0-2.0-25.0-1.0","battery-v0.2","","""event"",""trial"",""time""
""focus"",""1"",""2808""
""fullscreenenter"",""1"",""3047""
","
","""event"",""trial"",""time""
""focus"",""1"",""2808""
","""event"",""trial"",""time""
""fullscreenenter"",""1"",""3047""
","
","","[{""page_index"":0,""viewing_time"":4607.700000047684}]","4608.5","","","","","","","","","","","","","","","","","","","","","","","",""
"pit-comprehension","122","992711","0.0-2.0-26.0-0.0","battery-v0.2","","""event"",""trial"",""time""
""focus"",""1"",""2808""
""fullscreenenter"",""1"",""3047""
","
","""event"",""trial"",""time""
""focus"",""1"",""2808""
","""event"",""trial"",""time""
""fullscreenenter"",""1"",""3047""
","
","","","10906.200000047684","[""False""]","0","11","3781","2082","","","","","","","","","","","","","","","","","","",""
"pit-instructions","123","997118","0.0-2.0-26.0-1.0","battery-v0.2","","""event"",""trial"",""time""
""focus"",""1"",""2808""
""fullscreenenter"",""1"",""3047""
","
","""event"",""trial"",""time""
""focus"",""1"",""2808""
","""event"",""trial"",""time""
""fullscreenenter"",""1"",""3047""
","
","","[{""page_index"":0,""viewing_time"":4302.400000095367}]","4302.900000095367","","","","","","","","","","","","","","","","","","","","","","","",""
"pit-instructions","124","1017028","0.0-3.0","battery-v0.2","","""event"",""trial"",""time""
""focus"",""1"",""2808""
""fullscreenenter"",""1"",""3047""
","
","""event"",""trial"",""time""
""focus"",""1"",""2808""
","""event"",""trial"",""time""
""fullscreenenter"",""1"",""3047""
","
","","[{""page_index"":0,""viewing_time"":6320.900000095367},{""page_index"":1,""viewing_time"":5727.699999809265},{""page_index"":2,""viewing_time"":7855.5}]","19904.900000095367","","","","","","","","","","","","","","","","","","","","","","","",""
"pit-trial","125","1020972","0.0-4.0","battery-v0.2","","""event"",""trial"",""time""
""focus"",""1"",""2808""
""fullscreenenter"",""1"",""3047""
","
","""event"",""trial"",""time""
""focus"",""1"",""2808""
","""event"",""trial"",""time""
""fullscreenenter"",""1"",""3047""
","
","","","1066","","","11","3781","2082","&#9733;","elianto","#3366ff99","-1"," ","0","0","[1918.8000001907349]","1","1","","","3781","1","2","2","win","no-go","0"
"pit-trial","126","1024405","0.0-5.0","battery-v0.2","","""event"",""trial"",""time""
""focus"",""1"",""2808""
""fullscreenenter"",""1"",""3047""
","
","""event"",""trial"",""time""
""focus"",""1"",""2808""
","""event"",""trial"",""time""
""fullscreenenter"",""1"",""3047""
","
","","","566","","","11","3781","2082","&#9730;","elianto","#3366ff99"," "," ","1","+10","[1418.1999998092651]","1","1","","","3781","2","1","1","win","go","0"
"pit-trial","127","1027733","0.0-6.0","battery-v0.2","","""event"",""trial"",""time""
""focus"",""1"",""2808""
""fullscreenenter"",""1"",""3047""
","
","""event"",""trial"",""time""
""focus"",""1"",""2808""
","""event"",""trial"",""time""
""fullscreenenter"",""1"",""3047""
","
","","","468.5","","","11","3781","2082","&#9752;","elianto","#f73b6a7A"," "," ","1","0","[1319]","1","1","","","3781","3","3","3","lose","go","0"
"pit-trial","128","1032603","0.0-7.0","battery-v0.2","","""event"",""trial"",""time""
""focus"",""1"",""2808""
""fullscreenenter"",""1"",""3047""
","
","""event"",""trial"",""time""
""focus"",""1"",""2808""
","""event"",""trial"",""time""
""fullscreenenter"",""1"",""3047""
","
","","","-1","","","11","3781","2082","&#9728;","elianto","#f73b6a7A","-1","-1","1","0","[]","0","1","","","3781","4","0","4","lose","no-go","0"
"pit-trial","129","1035827","0.0-8.0","battery-v0.2","","""event"",""trial"",""time""
""focus"",""1"",""2808""
""fullscreenenter"",""1"",""3047""
","
","""event"",""trial"",""time""
""focus"",""1"",""2808""
","""event"",""trial"",""time""
""fullscreenenter"",""1"",""3047""
","
","","","364.59999990463257","","","11","3781","2082","&#9733;","elianto","#3366ff99","-1"," ","0","+10","[1215.7000000476837]","1","1","","","3781","5","2","2","win","no-go","1"
"pit-trial","130","1040696","0.0-9.0","battery-v0.2","","""event"",""trial"",""time""
""focus"",""1"",""2808""
""fullscreenenter"",""1"",""3047""
","
","""event"",""trial"",""time""
""focus"",""1"",""2808""
","""event"",""trial"",""time""
""fullscreenenter"",""1"",""3047""
","
","","","-1","","","11","3781","2082","&#9752;","elianto","#f73b6a7A"," ","-1","0","0","[]","0","1","","","3781","6","3","3","lose","go","1"
"pit-trial","131","1045566","0.0-10.0","battery-v0.2","","""event"",""trial"",""time""
""focus"",""1"",""2808""
""fullscreenenter"",""1"",""3047""
","
","""event"",""trial"",""time""
""focus"",""1"",""2808""
","""event"",""trial"",""time""
""fullscreenenter"",""1"",""3047""
","
","","","-1","","","11","3781","2082","&#9728;","elianto","#f73b6a7A","-1","-1","1","0","[]","0","1","","","3781","7","0","4","lose","no-go","0"
"pit-trial","132","1048952","0.0-11.0","battery-v0.2","","""event"",""trial"",""time""
""focus"",""1"",""2808""
""fullscreenenter"",""1"",""3047""
","
","""event"",""trial"",""time""
""focus"",""1"",""2808""
","""event"",""trial"",""time""
""fullscreenenter"",""1"",""3047""
","
","","","525.3999998569489","","","11","3781","2082","&#9730;","elianto","#3366ff99"," "," ","1","+10","[1377.3999998569489]","1","1","","","3781","8","1","1","win","go","0"
"pit-trial","133","1052407","0.0-12.0","battery-v0.2","","""event"",""trial"",""time""
""focus"",""1"",""2808""
""fullscreenenter"",""1"",""3047""
","
","""event"",""trial"",""time""
""focus"",""1"",""2808""
","""event"",""trial"",""time""
""fullscreenenter"",""1"",""3047""
","
","","","590.2000000476837","","","11","3781","2082","&#9733;","elianto","#3366ff99","-1"," ","0","0","[1447.1999998092651]","1","1","","","3781","9","2","2","win","no-go","0"
"pit-trial","134","1055904","0.0-13.0","battery-v0.2","","""event"",""trial"",""time""
""focus"",""1"",""2808""
""fullscreenenter"",""1"",""3047""
","
","""event"",""trial"",""time""
""focus"",""1"",""2808""
","""event"",""trial"",""time""
""fullscreenenter"",""1"",""3047""
","
","","","637.3999998569489","","","11","3781","2082","&#9730;","elianto","#3366ff99"," "," ","1","+10","[1487.7999999523163]","1","1","","","3781","10","1","1","win","go","0"
"pit-trial","135","1060775","0.0-14.0","battery-v0.2","","""event"",""trial"",""time""
""focus"",""1"",""2808""
""fullscreenenter"",""1"",""3047""
","
","""event"",""trial"",""time""
""focus"",""1"",""2808""
","""event"",""trial"",""time""
""fullscreenenter"",""1"",""3047""
","
","","","-1","","","11","3781","2082","&#9728;","elianto","#f73b6a7A","-1","-1","1","0","[]","0","1","","","3781","11","0","4","lose","no-go","0"
"pit-trial","136","1065657","0.0-15.0","battery-v0.2","","""event"",""trial"",""time""
""focus"",""1"",""2808""
""fullscreenenter"",""1"",""3047""
","
","""event"",""trial"",""time""
""focus"",""1"",""2808""
","""event"",""trial"",""time""
""fullscreenenter"",""1"",""3047""
","
","","","-1","","","11","3781","2082","&#9752;","elianto","#f73b6a7A"," ","-1","0","-10","[]","0","1","","","3781","12","3","3","lose","go","0"
"pit-trial","137","1068872","0.0-16.0","battery-v0.2","","""event"",""trial"",""time""
""focus"",""1"",""2808""
""fullscreenenter"",""1"",""3047""
","
","""event"",""trial"",""time""
""focus"",""1"",""2808""
","""event"",""trial"",""time""
""fullscreenenter"",""1"",""3047""
","
","","","349.2999999523163","","","11","3781","2082","&#9752;","elianto","#f73b6a7A"," "," ","1","0","[1205.7999999523163]","1","1","","","3781","13","3","3","lose","go","0"
"pit-trial","138","1072352","0.0-17.0","battery-v0.2","","""event"",""trial"",""time""
""focus"",""1"",""2808""
""fullscreenenter"",""1"",""3047""
","
","""event"",""trial"",""time""
""focus"",""1"",""2808""
","""event"",""trial"",""time""
""fullscreenenter"",""1"",""3047""
","
","","","607.9000000953674","","","11","3781","2082","&#9730;","elianto","#3366ff99"," "," ","1","+10","[1465.9000000953674]","1","1","","","3781","14","1","1","win","go","0"
"pit-trial","139","1077223","0.0-18.0","battery-v0.2","","""event"",""trial"",""time""
""focus"",""1"",""2808""
""fullscreenenter"",""1"",""3047""
","
","""event"",""trial"",""time""
""focus"",""1"",""2808""
","""event"",""trial"",""time""
""fullscreenenter"",""1"",""3047""
","
","","","-1","","","11","3781","2082","&#9728;","elianto","#f73b6a7A","-1","-1","1","0","[]","0","1","","","3781","15","0","4","lose","no-go","0"
"pit-trial","140","1080551","0.0-19.0","battery-v0.2","","""event"",""trial"",""time""
""focus"",""1"",""2808""
""fullscreenenter"",""1"",""3047""
","
","""event"",""trial"",""time""
""focus"",""1"",""2808""
","""event"",""trial"",""time""
""fullscreenenter"",""1"",""3047""
","
","","","462.89999985694885","","","11","3781","2082","&#9733;","elianto","#3366ff99","-1"," ","0","0","[1316]","1","1","","","3781","16","2","2","win","no-go","0"
"pit-trial","141","1084047","0.0-20.0","battery-v0.2","","""event"",""trial"",""time""
""focus"",""1"",""2808""
""fullscreenenter"",""1"",""3047""
","
","""event"",""trial"",""time""
""focus"",""1"",""2808""
","""event"",""trial"",""time""
""fullscreenenter"",""1"",""3047""
","
","","","628","","","11","3781","2082","&#9730;","elianto","#3366ff99"," "," ","1","+10","[1479.7000000476837]","1","1","","","3781","17","1","1","win","go","0"
"pit-trial","142","1087415","0.0-21.0","battery-v0.2","","""event"",""trial"",""time""
""focus"",""1"",""2808""
""fullscreenenter"",""1"",""3047""
","
","""event"",""trial"",""time""
""focus"",""1"",""2808""
","""event"",""trial"",""time""
""fullscreenenter"",""1"",""3047""
","
","","","500","","","11","3781","2082","&#9733;","elianto","#3366ff99","-1"," ","0","0","[1354.2000000476837]","1","1","","","3781","18","2","2","win","no-go","0"
"pit-trial","143","1092280","0.0-22.0","battery-v0.2","","""event"",""trial"",""time""
""focus"",""1"",""2808""
""fullscreenenter"",""1"",""3047""
","
","""event"",""trial"",""time""
""focus"",""1"",""2808""
","""event"",""trial"",""time""
""fullscreenenter"",""1"",""3047""
","
","","","-1","","","11","3781","2082","&#9752;","elianto","#f73b6a7A"," ","-1","0","-10","[]","0","1","","","3781","19","3","3","lose","go","0"
"pit-trial","144","1097155","0.0-23.0","battery-v0.2","","""event"",""trial"",""time""
""focus"",""1"",""2808""
""fullscreenenter"",""1"",""3047""
","
","""event"",""trial"",""time""
""focus"",""1"",""2808""
","""event"",""trial"",""time""
""fullscreenenter"",""1"",""3047""
","
","","","-1","","","11","3781","2082","&#9728;","elianto","#f73b6a7A","-1","-1","1","-10","[]","0","1","","","3781","20","0","4","lose","no-go","1"
"pit-instructions","145","1111285","0.0-24.0","battery-v0.2","","""event"",""trial"",""time""
""focus"",""1"",""2808""
""fullscreenenter"",""1"",""3047""
","
","""event"",""trial"",""time""
""focus"",""1"",""2808""
","""event"",""trial"",""time""
""fullscreenenter"",""1"",""3047""
","
","","[{""page_index"":0,""viewing_time"":6932.700000047684},{""page_index"":1,""viewing_time"":7191.399999856949}]","14124.799999952316","","","","","","","","","","","","","","","","","","","","","","","",""
"pit-trial","146","1116154","0.0-25.0","battery-v0.2","","""event"",""trial"",""time""
""focus"",""1"",""2808""
""fullscreenenter"",""1"",""3047""
","
","""event"",""trial"",""time""
""focus"",""1"",""2808""
","""event"",""trial"",""time""
""fullscreenenter"",""1"",""3047""
","
","","","-1","","","11","3781","2082","h","elianto","#f73b6a7A","-1","-1","1","-10","[]","0","2","","","3781","21","3","4","lose","no-go","1"
"pit-trial","147","1121019","0.0-26.0","battery-v0.2","","""event"",""trial"",""time""
""focus"",""1"",""2808""
""fullscreenenter"",""1"",""3047""
","
","""event"",""trial"",""time""
""focus"",""1"",""2808""
","""event"",""trial"",""time""
""fullscreenenter"",""1"",""3047""
","
","","","-1","","","11","3781","2082","y","elianto","#f73b6a7A"," ","-1","0","-10","[]","0","2","","","3781","22","2","3","lose","go","0"
"pit-trial","148","1124346","0.0-27.0","battery-v0.2","","""event"",""trial"",""time""
""focus"",""1"",""2808""
""fullscreenenter"",""1"",""3047""
","
","""event"",""trial"",""time""
""focus"",""1"",""2808""
","""event"",""trial"",""time""
""fullscreenenter"",""1"",""3047""
","
","","","465.5","","","11","3781","2082","r","elianto","#3366ff99","-1"," ","0","0","[1316.8000001907349]","1","2","","","3781","23","1","2","win","no-go","0"
"pit-trial","149","1129210","0.0-28.0","battery-v0.2","","""event"",""trial"",""time""
""focus"",""1"",""2808""
""fullscreenenter"",""1"",""3047""
","
","""event"",""trial"",""time""
""focus"",""1"",""2808""
","""event"",""trial"",""time""
""fullscreenenter"",""1"",""3047""
","
","","","-1","","","11","3781","2082","m","elianto","#f73b6a7A"," ","-1","0","-10","[]","0","2","","","3781","24","0","3","lose","go","0"
"pit-trial","150","1134074","0.0-29.0","battery-v0.2","","""event"",""trial"",""time""
""focus"",""1"",""2808""
""fullscreenenter"",""1"",""3047""
","
","""event"",""trial"",""time""
""focus"",""1"",""2808""
","""event"",""trial"",""time""
""fullscreenenter"",""1"",""3047""
","
","","","-1","","","11","3781","2082","h","elianto","#f73b6a7A","-1","-1","1","0","[]","0","2","","","3781","25","3","4","lose","no-go","0"
"pit-trial","151","1138939","0.0-30.0","battery-v0.2","","""event"",""trial"",""time""
""focus"",""1"",""2808""
""fullscreenenter"",""1"",""3047""
","
","""event"",""trial"",""time""
""focus"",""1"",""2808""
","""event"",""trial"",""time""
""fullscreenenter"",""1"",""3047""
","
","","","-1","","","11","3781","2082","m","elianto","#f73b6a7A"," ","-1","0","0","[]","0","2","","","3781","26","0","3","lose","go","1"
"pit-trial","152","1142285","0.0-31.0","battery-v0.2","","""event"",""trial"",""time""
""focus"",""1"",""2808""
""fullscreenenter"",""1"",""3047""
","
","""event"",""trial"",""time""
""focus"",""1"",""2808""
","""event"",""trial"",""time""
""fullscreenenter"",""1"",""3047""
","
","","","475.39999985694885","","","11","3781","2082","r","elianto","#3366ff99","-1"," ","0","0","[1330.1000001430511]","1","2","","","3781","27","1","2","win","no-go","0"
"pit-trial","153","1147157","0.0-32.0","battery-v0.2","","""event"",""trial"",""time""
""focus"",""1"",""2808""
""fullscreenenter"",""1"",""3047""
","
","""event"",""trial"",""time""
""focus"",""1"",""2808""
","""event"",""trial"",""time""
""fullscreenenter"",""1"",""3047""
","
","","","-1","","","11","3781","2082","y","elianto","#f73b6a7A"," ","-1","0","0","[]","0","2","","","3781","28","2","3","lose","go","1"
"pit-trial","154","1152027","0.0-33.0","battery-v0.2","","""event"",""trial"",""time""
""focus"",""1"",""2808""
""fullscreenenter"",""1"",""3047""
","
","""event"",""trial"",""time""
""focus"",""1"",""2808""
","""event"",""trial"",""time""
""fullscreenenter"",""1"",""3047""
","
","","","-1","","","11","3781","2082","h","elianto","#f73b6a7A","-1","-1","1","0","[]","0","2","","","3781","29","3","4","lose","no-go","0"
"pit-trial","155","1156892","0.0-34.0","battery-v0.2","","""event"",""trial"",""time""
""focus"",""1"",""2808""
""fullscreenenter"",""1"",""3047""
","
","""event"",""trial"",""time""
""focus"",""1"",""2808""
","""event"",""trial"",""time""
""fullscreenenter"",""1"",""3047""
","
","","","-1","","","11","3781","2082","m","elianto","#f73b6a7A"," ","-1","0","-10","[]","0","2","","","3781","30","0","3","lose","go","0"
"pit-trial","156","1160350","0.0-35.0","battery-v0.2","","""event"",""trial"",""time""
""focus"",""1"",""2808""
""fullscreenenter"",""1"",""3047""
","
","""event"",""trial"",""time""
""focus"",""1"",""2808""
","""event"",""trial"",""time""
""fullscreenenter"",""1"",""3047""
","
","","","589.7999999523163","","","11","3781","2082","r","elianto","#3366ff99","-1"," ","0","0","[1442.5]","1","2","","","3781","31","1","2","win","no-go","0"
"pit-trial","157","1165224","0.0-36.0","battery-v0.2","","""event"",""trial"",""time""
""focus"",""1"",""2808""
""fullscreenenter"",""1"",""3047""
","
","""event"",""trial"",""time""
""focus"",""1"",""2808""
","""event"",""trial"",""time""
""fullscreenenter"",""1"",""3047""
","
","","","-1","","","11","3781","2082","y","elianto","#f73b6a7A"," ","-1","0","0","[]","0","2","","","3781","32","2","3","lose","go","1"
"pit-trial","158","1168808","0.0-37.0","battery-v0.2","","""event"",""trial"",""time""
""focus"",""1"",""2808""
""fullscreenenter"",""1"",""3047""
","
","""event"",""trial"",""time""
""focus"",""1"",""2808""
","""event"",""trial"",""time""
""fullscreenenter"",""1"",""3047""
","
","","","722.2000000476837","","","11","3781","2082","r","elianto","#3366ff99","-1"," ","0","0","[1572.2999999523163]","1","2","","","3781","33","1","2","win","no-go","0"
"pit-trial","159","1173679","0.0-38.0","battery-v0.2","","""event"",""trial"",""time""
""focus"",""1"",""2808""
""fullscreenenter"",""1"",""3047""
","
","""event"",""trial"",""time""
""focus"",""1"",""2808""
","""event"",""trial"",""time""
""fullscreenenter"",""1"",""3047""
","
","","","-1","","","11","3781","2082","h","elianto","#f73b6a7A","-1","-1","1","-10","[]","0","2","","","3781","34","3","4","lose","no-go","1"
"pit-trial","160","1178550","0.0-39.0","battery-v0.2","","""event"",""trial"",""time""
""focus"",""1"",""2808""
""fullscreenenter"",""1"",""3047""
","
","""event"",""trial"",""time""
""focus"",""1"",""2808""
","""event"",""trial"",""time""
""fullscreenenter"",""1"",""3047""
","
","","","-1","","","11","3781","2082","m","elianto","#f73b6a7A"," ","-1","0","-10","[]","0","2","","","3781","35","0","3","lose","go","0"
"pit-trial","161","1183414","0.0-40.0","battery-v0.2","","""event"",""trial"",""time""
""focus"",""1"",""2808""
""fullscreenenter"",""1"",""3047""
","
","""event"",""trial"",""time""
""focus"",""1"",""2808""
","""event"",""trial"",""time""
""fullscreenenter"",""1"",""3047""
","
","","","-1","","","11","3781","2082","y","elianto","#f73b6a7A"," ","-1","0","-10","[]","0","2","","","3781","36","2","3","lose","go","0"
"pit-trial","162","1188287","0.0-41.0","battery-v0.2","","""event"",""trial"",""time""
""focus"",""1"",""2808""
""fullscreenenter"",""1"",""3047""
","
","""event"",""trial"",""time""
""focus"",""1"",""2808""
","""event"",""trial"",""time""
""fullscreenenter"",""1"",""3047""
","
","","","-1","","","11","3781","2082","h","elianto","#f73b6a7A","-1","-1","1","0","[]","0","2","","","3781","37","3","4","lose","no-go","0"
"pit-trial","163","1193157","0.0-42.0","battery-v0.2","","""event"",""trial"",""time""
""focus"",""1"",""2808""
""fullscreenenter"",""1"",""3047""
","
","""event"",""trial"",""time""
""focus"",""1"",""2808""
","""event"",""trial"",""time""
""fullscreenenter"",""1"",""3047""
","
","","","-1","","","11","3781","2082","m","elianto","#f73b6a7A"," ","-1","0","-10","[]","0","2","","","3781","38","0","3","lose","go","0"
"pit-trial","164","1198023","0.0-43.0","battery-v0.2","","""event"",""trial"",""time""
""focus"",""1"",""2808""
""fullscreenenter"",""1"",""3047""
","
","""event"",""trial"",""time""
""focus"",""1"",""2808""
","""event"",""trial"",""time""
""fullscreenenter"",""1"",""3047""
","
","","","-1","","","11","3781","2082","y","elianto","#f73b6a7A"," ","-1","0","-10","[]","0","2","","","3781","39","2","3","lose","go","0"
"pit-trial","165","1201375","0.0-44.0","battery-v0.2","","""event"",""trial"",""time""
""focus"",""1"",""2808""
""fullscreenenter"",""1"",""3047""
","
","""event"",""trial"",""time""
""focus"",""1"",""2808""
","""event"",""trial"",""time""
""fullscreenenter"",""1"",""3047""
","
","","","485.7999999523163","","","11","3781","2082","r","elianto","#3366ff99","-1"," ","0","0","[1339.9000000953674]","1","2","","","3781","40","1","2","win","no-go","0"
"pit-trial","166","1206248","0.0-45.0","battery-v0.2","","""event"",""trial"",""time""
""focus"",""1"",""2808""
""fullscreenenter"",""1"",""3047""
","
","""event"",""trial"",""time""
""focus"",""1"",""2808""
","""event"",""trial"",""time""
""fullscreenenter"",""1"",""3047""
","
","","","-1","","","11","3781","2082","m","elianto","#f73b6a7A"," ","-1","0","-10","[]","0","2","","","3781","41","0","3","lose","go","0"
"pit-trial","167","1211120","0.0-46.0","battery-v0.2","","""event"",""trial"",""time""
""focus"",""1"",""2808""
""fullscreenenter"",""1"",""3047""
","
","""event"",""trial"",""time""
""focus"",""1"",""2808""
","""event"",""trial"",""time""
""fullscreenenter"",""1"",""3047""
","
","","","-1","","","11","3781","2082","y","elianto","#f73b6a7A"," ","-1","0","-10","[]","0","2","","","3781","42","2","3","lose","go","0"
"pit-trial","168","1214479","0.0-47.0","battery-v0.2","","""event"",""trial"",""time""
""focus"",""1"",""2808""
""fullscreenenter"",""1"",""3047""
","
","""event"",""trial"",""time""
""focus"",""1"",""2808""
","""event"",""trial"",""time""
""fullscreenenter"",""1"",""3047""
","
","","","488.2000000476837","","","11","3781","2082","r","elianto","#3366ff99","-1"," ","0","0","[1343.5999999046326]","1","2","","","3781","43","1","2","win","no-go","0"
"pit-trial","169","1219355","0.0-48.0","battery-v0.2","","""event"",""trial"",""time""
""focus"",""1"",""2808""
""fullscreenenter"",""1"",""3047""
","
","""event"",""trial"",""time""
""focus"",""1"",""2808""
","""event"",""trial"",""time""
""fullscreenenter"",""1"",""3047""
","
","","","-1","","","11","3781","2082","h","elianto","#f73b6a7A","-1","-1","1","0","[]","0","2","","","3781","44","3","4","lose","no-go","0"
"pit-trial","170","1223176","0.0-49.0","battery-v0.2","","""event"",""trial"",""time""
""focus"",""1"",""2808""
""fullscreenenter"",""1"",""3047""
","
","""event"",""trial"",""time""
""focus"",""1"",""2808""
","""event"",""trial"",""time""
""fullscreenenter"",""1"",""3047""
","
","","","949.2000000476837","","","11","3781","2082","r","elianto","#3366ff99","-1"," ","0","0","[1806.2000000476837]","1","2","","","3781","45","1","2","win","no-go","0"
"pit-trial","171","1228051","0.0-50.0","battery-v0.2","","""event"",""trial"",""time""
""focus"",""1"",""2808""
""fullscreenenter"",""1"",""3047""
","
","""event"",""trial"",""time""
""focus"",""1"",""2808""
","""event"",""trial"",""time""
""fullscreenenter"",""1"",""3047""
","
","","","-1","","","11","3781","2082","m","elianto","#f73b6a7A"," ","-1","0","-10","[]","0","2","","","3781","46","0","3","lose","go","0"
"pit-trial","172","1232922","0.0-51.0","battery-v0.2","","""event"",""trial"",""time""
""focus"",""1"",""2808""
""fullscreenenter"",""1"",""3047""
","
","""event"",""trial"",""time""
""focus"",""1"",""2808""
","""event"",""trial"",""time""
""fullscreenenter"",""1"",""3047""
","
","","","-1","","","11","3781","2082","y","elianto","#f73b6a7A"," ","-1","0","-10","[]","0","2","","","3781","47","2","3","lose","go","0"
"pit-trial","173","1237785","0.0-52.0","battery-v0.2","","""event"",""trial"",""time""
""focus"",""1"",""2808""
""fullscreenenter"",""1"",""3047""
","
","""event"",""trial"",""time""
""focus"",""1"",""2808""
","""event"",""trial"",""time""
""fullscreenenter"",""1"",""3047""
","
","","","-1","","","11","3781","2082","h","elianto","#f73b6a7A","-1","-1","1","-10","[]","0","2","","","3781","48","3","4","lose","no-go","1"
"pit-trial","174","1242650","0.0-53.0","battery-v0.2","","""event"",""trial"",""time""
""focus"",""1"",""2808""
""fullscreenenter"",""1"",""3047""
","
","""event"",""trial"",""time""
""focus"",""1"",""2808""
","""event"",""trial"",""time""
""fullscreenenter"",""1"",""3047""
","
","","","-1","","","11","3781","2082","h","elianto","#f73b6a7A","-1","-1","1","0","[]","0","2","","","3781","49","3","4","lose","no-go","0"
"pit-trial","175","1246235","0.0-54.0","battery-v0.2","","""event"",""trial"",""time""
""focus"",""1"",""2808""
""fullscreenenter"",""1"",""3047""
","
","""event"",""trial"",""time""
""focus"",""1"",""2808""
","""event"",""trial"",""time""
""fullscreenenter"",""1"",""3047""
","
","","","723.7999999523163","","","11","3781","2082","r","elianto","#3366ff99","-1"," ","0","0","[1574.5]","1","2","","","3781","50","1","2","win","no-go","0"
"pit-trial","176","1251107","0.0-55.0","battery-v0.2","","""event"",""trial"",""time""
""focus"",""1"",""2808""
""fullscreenenter"",""1"",""3047""
","
","""event"",""trial"",""time""
""focus"",""1"",""2808""
","""event"",""trial"",""time""
""fullscreenenter"",""1"",""3047""
","
","","","-1","","","11","3781","2082","m","elianto","#f73b6a7A"," ","-1","0","-10","[]","0","2","","","3781","51","0","3","lose","go","0"
"pit-trial","177","1255979","0.0-56.0","battery-v0.2","","""event"",""trial"",""time""
""focus"",""1"",""2808""
""fullscreenenter"",""1"",""3047""
","
","""event"",""trial"",""time""
""focus"",""1"",""2808""
","""event"",""trial"",""time""
""fullscreenenter"",""1"",""3047""
","
","","","-1","","","11","3781","2082","y","elianto","#f73b6a7A"," ","-1","0","0","[]","0","2","","","3781","52","2","3","lose","go","1"
"pit-trial","178","1260858","0.0-57.0","battery-v0.2","","""event"",""trial"",""time""
""focus"",""1"",""2808""
""fullscreenenter"",""1"",""3047""
","
","""event"",""trial"",""time""
""focus"",""1"",""2808""
","""event"",""trial"",""time""
""fullscreenenter"",""1"",""3047""
","
","","","-1","","","11","3781","2082","m","elianto","#f73b6a7A"," ","-1","0","-10","[]","0","2","","","3781","53","0","3","lose","go","0"
"pit-trial","179","1265723","0.0-58.0","battery-v0.2","","""event"",""trial"",""time""
""focus"",""1"",""2808""
""fullscreenenter"",""1"",""3047""
","
","""event"",""trial"",""time""
""focus"",""1"",""2808""
","""event"",""trial"",""time""
""fullscreenenter"",""1"",""3047""
","
","","","-1","","","11","3781","2082","y","elianto","#f73b6a7A"," ","-1","0","0","[]","0","2","","","3781","54","2","3","lose","go","1"
"pit-trial","180","1269372","0.0-59.0","battery-v0.2","","""event"",""trial"",""time""
""focus"",""1"",""2808""
""fullscreenenter"",""1"",""3047""
","
","""event"",""trial"",""time""
""focus"",""1"",""2808""
","""event"",""trial"",""time""
""fullscreenenter"",""1"",""3047""
","
","","","781.5999999046326","","","11","3781","2082","r","elianto","#3366ff99","-1"," ","0","0","[1633]","1","2","","","3781","55","1","2","win","no-go","0"
"pit-trial","181","1274243","0.0-60.0","battery-v0.2","","""event"",""trial"",""time""
""focus"",""1"",""2808""
""fullscreenenter"",""1"",""3047""
","
","""event"",""trial"",""time""
""focus"",""1"",""2808""
","""event"",""trial"",""time""
""fullscreenenter"",""1"",""3047""
","
","","","-1","","","11","3781","2082","h","elianto","#f73b6a7A","-1","-1","1","-10","[]","0","2","","","3781","56","3","4","lose","no-go","1"
"pit-trial","182","1279119","0.0-61.0","battery-v0.2","","""event"",""trial"",""time""
""focus"",""1"",""2808""
""fullscreenenter"",""1"",""3047""
","
","""event"",""trial"",""time""
""focus"",""1"",""2808""
","""event"",""trial"",""time""
""fullscreenenter"",""1"",""3047""
","
","","","-1","","","11","3781","2082","h","elianto","#f73b6a7A","-1","-1","1","0","[]","0","2","","","3781","57","3","4","lose","no-go","0"
"pit-trial","183","1282678","0.0-62.0","battery-v0.2","","""event"",""trial"",""time""
""focus"",""1"",""2808""
""fullscreenenter"",""1"",""3047""
","
","""event"",""trial"",""time""
""focus"",""1"",""2808""
","""event"",""trial"",""time""
""fullscreenenter"",""1"",""3047""
","
","","","687.9000000953674","","","11","3781","2082","z","elianto","#3366ff99"," "," ","1","+10","[1542.6000001430511]","1","2","","","3781","58","4","1","win","go","0"
"pit-trial","184","1287550","0.0-63.0","battery-v0.2","","""event"",""trial"",""time""
""focus"",""1"",""2808""
""fullscreenenter"",""1"",""3047""
","
","""event"",""trial"",""time""
""focus"",""1"",""2808""
","""event"",""trial"",""time""
""fullscreenenter"",""1"",""3047""
","
","","","-1","","","11","3781","2082","y","elianto","#f73b6a7A"," ","-1","0","-10","[]","0","2","","","3781","59","2","3","lose","go","0"
"pit-trial","185","1292423","0.0-64.0","battery-v0.2","","""event"",""trial"",""time""
""focus"",""1"",""2808""
""fullscreenenter"",""1"",""3047""
","
","""event"",""trial"",""time""
""focus"",""1"",""2808""
","""event"",""trial"",""time""
""fullscreenenter"",""1"",""3047""
","
","","","-1","","","11","3781","2082","m","elianto","#f73b6a7A"," ","-1","0","0","[]","0","2","","","3781","60","0","3","lose","go","1"
"pit-trial","186","1297294","0.0-65.0","battery-v0.2","","""event"",""trial"",""time""
""focus"",""1"",""2808""
""fullscreenenter"",""1"",""3047""
","
","""event"",""trial"",""time""
""focus"",""1"",""2808""
","""event"",""trial"",""time""
""fullscreenenter"",""1"",""3047""
","
","","","-1","","","11","3781","2082","h","elianto","#f73b6a7A","-1","-1","1","0","[]","0","2","","","3781","61","3","4","lose","no-go","0"
"pit-trial","187","1300686","0.0-66.0","battery-v0.2","","""event"",""trial"",""time""
""focus"",""1"",""2808""
""fullscreenenter"",""1"",""3047""
","
","""event"",""trial"",""time""
""focus"",""1"",""2808""
","""event"",""trial"",""time""
""fullscreenenter"",""1"",""3047""
","
","","","527.2000000476837","","","11","3781","2082","z","elianto","#3366ff99"," "," ","1","+10","[1377.4000000953674]","1","2","","","3781","62","4","1","win","go","0"
"pit-trial","188","1305558","0.0-67.0","battery-v0.2","","""event"",""trial"",""time""
""focus"",""1"",""2808""
""fullscreenenter"",""1"",""3047""
","
","""event"",""trial"",""time""
""focus"",""1"",""2808""
","""event"",""trial"",""time""
""fullscreenenter"",""1"",""3047""
","
","","","-1","","","11","3781","2082","y","elianto","#f73b6a7A"," ","-1","0","-10","[]","0","2","","","3781","63","2","3","lose","go","0"
"pit-trial","189","1309199","0.0-68.0","battery-v0.2","","""event"",""trial"",""time""
""focus"",""1"",""2808""
""fullscreenenter"",""1"",""3047""
","
","""event"",""trial"",""time""
""focus"",""1"",""2808""
","""event"",""trial"",""time""
""fullscreenenter"",""1"",""3047""
","
","","","770.8000001907349","","","11","3781","2082","r","elianto","#3366ff99","-1"," ","0","0","[1630.3999998569489]","1","2","","","3781","64","1","2","win","no-go","0"
"pit-trial","190","1312845","0.0-69.0","battery-v0.2","","""event"",""trial"",""time""
""focus"",""1"",""2808""
""fullscreenenter"",""1"",""3047""
","
","""event"",""trial"",""time""
""focus"",""1"",""2808""
","""event"",""trial"",""time""
""fullscreenenter"",""1"",""3047""
","
","","","779.7999999523163","","","11","3781","2082","r","elianto","#3366ff99","-1"," ","0","+10","[1635]","1","2","","","3781","65","1","2","win","no-go","1"
"pit-trial","191","1317717","0.0-70.0","battery-v0.2","","""event"",""trial"",""time""
""focus"",""1"",""2808""
""fullscreenenter"",""1"",""3047""
","
","""event"",""trial"",""time""
""focus"",""1"",""2808""
","""event"",""trial"",""time""
""fullscreenenter"",""1"",""3047""
","
","","","-1","","","11","3781","2082","h","elianto","#f73b6a7A","-1","-1","1","0","[]","0","2","","","3781","66","3","4","lose","no-go","0"
"pit-trial","192","1321277","0.0-71.0","battery-v0.2","","""event"",""trial"",""time""
""focus"",""1"",""2808""
""fullscreenenter"",""1"",""3047""
","
","""event"",""trial"",""time""
""focus"",""1"",""2808""
","""event"",""trial"",""time""
""fullscreenenter"",""1"",""3047""
","
","","","695.6000001430511","","","11","3781","2082","z","elianto","#3366ff99"," "," ","1","0","[1546.8999998569489]","1","2","","","3781","67","4","1","win","go","1"
"pit-trial","193","1324743","0.0-72.0","battery-v0.2","","""event"",""trial"",""time""
""focus"",""1"",""2808""
""fullscreenenter"",""1"",""3047""
","
","""event"",""trial"",""time""
""focus"",""1"",""2808""
","""event"",""trial"",""time""
""fullscreenenter"",""1"",""3047""
","
","","","604.2999999523163","","","11","3781","2082","c","elianto","#3366ff99","-1"," ","0","0","[1455.6000001430511]","1","2","","","3781","68","5","2","win","no-go","0"
"pit-trial","194","1328310","0.0-73.0","battery-v0.2","","""event"",""trial"",""time""
""focus"",""1"",""2808""
""fullscreenenter"",""1"",""3047""
","
","""event"",""trial"",""time""
""focus"",""1"",""2808""
","""event"",""trial"",""time""
""fullscreenenter"",""1"",""3047""
","
","","","699.1000001430511","","","11","3781","2082","c","elianto","#3366ff99","-1"," ","0","0","[1552.9000000953674]","1","2","","","3781","69","5","2","win","no-go","0"
"pit-trial","195","1332046","0.0-74.0","battery-v0.2","","""event"",""trial"",""time""
""focus"",""1"",""2808""
""fullscreenenter"",""1"",""3047""
","
","""event"",""trial"",""time""
""focus"",""1"",""2808""
","""event"",""trial"",""time""
""fullscreenenter"",""1"",""3047""
","
","","","870.2000000476837","","","11","3781","2082","r","elianto","#3366ff99","-1"," ","0","0","[1721.2999999523163]","1","2","","","3781","70","1","2","win","no-go","0"
"pit-trial","196","1335663","0.0-75.0","battery-v0.2","","""event"",""trial"",""time""
""focus"",""1"",""2808""
""fullscreenenter"",""1"",""3047""
","
","""event"",""trial"",""time""
""focus"",""1"",""2808""
","""event"",""trial"",""time""
""fullscreenenter"",""1"",""3047""
","
","","","743.5","","","11","3781","2082","z","elianto","#3366ff99"," "," ","1","+10","[1599.5]","1","2","","","3781","71","4","1","win","go","0"
"pit-trial","197","1340538","0.0-76.0","battery-v0.2","","""event"",""trial"",""time""
""focus"",""1"",""2808""
""fullscreenenter"",""1"",""3047""
","
","""event"",""trial"",""time""
""focus"",""1"",""2808""
","""event"",""trial"",""time""
""fullscreenenter"",""1"",""3047""
","
","","","-1","","","11","3781","2082","y","elianto","#f73b6a7A"," ","-1","0","-10","[]","0","2","","","3781","72","2","3","lose","go","0"
"pit-trial","198","1344193","0.0-77.0","battery-v0.2","","""event"",""trial"",""time""
""focus"",""1"",""2808""
""fullscreenenter"",""1"",""3047""
","
","""event"",""trial"",""time""
""focus"",""1"",""2808""
","""event"",""trial"",""time""
""fullscreenenter"",""1"",""3047""
","
","","","786.1000001430511","","","11","3781","2082","c","elianto","#3366ff99","-1"," ","0","0","[1643.7999999523163]","1","2","","","3781","73","5","2","win","no-go","0"
"pit-trial","199","1349058","0.0-78.0","battery-v0.2","","""event"",""trial"",""time""
""focus"",""1"",""2808""
""fullscreenenter"",""1"",""3047""
","
","""event"",""trial"",""time""
""focus"",""1"",""2808""
","""event"",""trial"",""time""
""fullscreenenter"",""1"",""3047""
","
","","","-1","","","11","3781","2082","r","elianto","#3366ff99","-1","-1","1","0","[2890.300000190735]","1","2","","","3781","74","1","2","win","no-go","1"
"pit-trial","200","1353922","0.0-79.0","battery-v0.2","","""event"",""trial"",""time""
""focus"",""1"",""2808""
""fullscreenenter"",""1"",""3047""
","
","""event"",""trial"",""time""
""focus"",""1"",""2808""
","""event"",""trial"",""time""
""fullscreenenter"",""1"",""3047""
","
","","","-1","","","11","3781","2082","h","elianto","#f73b6a7A","-1","-1","1","0","[]","0","2","","","3781","75","3","4","lose","no-go","0"
"pit-trial","201","1357611","0.0-80.0","battery-v0.2","","""event"",""trial"",""time""
""focus"",""1"",""2808""
""fullscreenenter"",""1"",""3047""
","
","""event"",""trial"",""time""
""focus"",""1"",""2808""
","""event"",""trial"",""time""
""fullscreenenter"",""1"",""3047""
","
","","","824.7000000476837","","","11","3781","2082","z","elianto","#3366ff99"," "," ","1","+10","[1676.8000001907349]","1","2","","","3781","76","4","1","win","go","0"
"pit-trial","202","1362483","0.0-81.0","battery-v0.2","","""event"",""trial"",""time""
""focus"",""1"",""2808""
""fullscreenenter"",""1"",""3047""
","
","""event"",""trial"",""time""
""focus"",""1"",""2808""
","""event"",""trial"",""time""
""fullscreenenter"",""1"",""3047""
","
","","","-1","","","11","3781","2082","h","elianto","#f73b6a7A","-1","-1","1","0","[]","0","2","","","3781","77","3","4","lose","no-go","0"
"pit-trial","203","1366116","0.0-82.0","battery-v0.2","","""event"",""trial"",""time""
""focus"",""1"",""2808""
""fullscreenenter"",""1"",""3047""
","
","""event"",""trial"",""time""
""focus"",""1"",""2808""
","""event"",""trial"",""time""
""fullscreenenter"",""1"",""3047""
","
","","","765.2999999523163","","","11","3781","2082","z","elianto","#3366ff99"," "," ","1","+10","[1621.1000001430511]","1","2","","","3781","78","4","1","win","go","0"
"pit-trial","204","1369898","0.0-83.0","battery-v0.2","","""event"",""trial"",""time""
""focus"",""1"",""2808""
""fullscreenenter"",""1"",""3047""
","
","""event"",""trial"",""time""
""focus"",""1"",""2808""
","""event"",""trial"",""time""
""fullscreenenter"",""1"",""3047""
","
","","","911","","","11","3781","2082","c","elianto","#3366ff99","-1"," ","0","+10","[1765]","1","2","","","3781","79","5","2","win","no-go","1"
"pit-trial","205","1373571","0.0-84.0","battery-v0.2","","""event"",""trial"",""time""
""focus"",""1"",""2808""
""fullscreenenter"",""1"",""3047""
","
","""event"",""trial"",""time""
""focus"",""1"",""2808""
","""event"",""trial"",""time""
""fullscreenenter"",""1"",""3047""
","
","","","803.2999999523163","","","11","3781","2082","z","elianto","#3366ff99"," "," ","1","0","[1662.7000000476837]","1","2","","","3781","80","4","1","win","go","1"
"pit-trial","206","1377107","0.0-85.0","battery-v0.2","","""event"",""trial"",""time""
""focus"",""1"",""2808""
""fullscreenenter"",""1"",""3047""
","
","""event"",""trial"",""time""
""focus"",""1"",""2808""
","""event"",""trial"",""time""
""fullscreenenter"",""1"",""3047""
","
","","","666.2000000476837","","","11","3781","2082","z","elianto","#3366ff99"," "," ","1","0","[1523.0999999046326]","1","2","","","3781","81","4","1","win","go","1"
"pit-trial","207","1380546","0.0-86.0","battery-v0.2","","""event"",""trial"",""time""
""focus"",""1"",""2808""
""fullscreenenter"",""1"",""3047""
","
","""event"",""trial"",""time""
""focus"",""1"",""2808""
","""event"",""trial"",""time""
""fullscreenenter"",""1"",""3047""
","
","","","564.1999998092651","","","11","3781","2082","c","elianto","#3366ff99","-1"," ","0","0","[1420.5]","1","2","","","3781","82","5","2","win","no-go","0"
"pit-trial","208","1385418","0.0-87.0","battery-v0.2","","""event"",""trial"",""time""
""focus"",""1"",""2808""
""fullscreenenter"",""1"",""3047""
","
","""event"",""trial"",""time""
""focus"",""1"",""2808""
","""event"",""trial"",""time""
""fullscreenenter"",""1"",""3047""
","
","","","-1","","","11","3781","2082","h","elianto","#f73b6a7A","-1","-1","1","0","[]","0","2","","","3781","83","3","4","lose","no-go","0"
"pit-trial","209","1390300","0.0-88.0","battery-v0.2","","""event"",""trial"",""time""
""focus"",""1"",""2808""
""fullscreenenter"",""1"",""3047""
","
","""event"",""trial"",""time""
""focus"",""1"",""2808""
","""event"",""trial"",""time""
""fullscreenenter"",""1"",""3047""
","
","","","-1","","","11","3781","2082","t","elianto","#f73b6a7A","-1","-1","1","0","[]","0","2","","","3781","84","7","4","lose","no-go","0"
"pit-trial","210","1393818","0.0-89.0","battery-v0.2","","""event"",""trial"",""time""
""focus"",""1"",""2808""
""fullscreenenter"",""1"",""3047""
","
","""event"",""trial"",""time""
""focus"",""1"",""2808""
","""event"",""trial"",""time""
""fullscreenenter"",""1"",""3047""
","
","","","650.5999999046326","","","11","3781","2082","c","elianto","#3366ff99","-1"," ","0","+10","[1501.8000001907349]","1","2","","","3781","85","5","2","win","no-go","1"
"pit-trial","211","1397314","0.0-90.0","battery-v0.2","","""event"",""trial"",""time""
""focus"",""1"",""2808""
""fullscreenenter"",""1"",""3047""
","
","""event"",""trial"",""time""
""focus"",""1"",""2808""
","""event"",""trial"",""time""
""fullscreenenter"",""1"",""3047""
","
","","","629.1999998092651","","","11","3781","2082","z","elianto","#3366ff99"," "," ","1","+10","[1486.4000000953674]","1","2","","","3781","86","4","1","win","go","0"
"pit-trial","212","1402190","0.0-91.0","battery-v0.2","","""event"",""trial"",""time""
""focus"",""1"",""2808""
""fullscreenenter"",""1"",""3047""
","
","""event"",""trial"",""time""
""focus"",""1"",""2808""
","""event"",""trial"",""time""
""fullscreenenter"",""1"",""3047""
","
","","","-1","","","11","3781","2082","t","elianto","#f73b6a7A","-1","-1","1","0","[]","0","2","","","3781","87","7","4","lose","no-go","0"
"pit-trial","213","1407062","0.0-92.0","battery-v0.2","","""event"",""trial"",""time""
""focus"",""1"",""2808""
""fullscreenenter"",""1"",""3047""
","
","""event"",""trial"",""time""
""focus"",""1"",""2808""
","""event"",""trial"",""time""
""fullscreenenter"",""1"",""3047""
","
","","","-1","","","11","3781","2082","b","elianto","#f73b6a7A"," ","-1","0","-10","[]","0","2","","","3781","88","6","3","lose","go","0"
"pit-trial","214","1410741","0.0-93.0","battery-v0.2","","""event"",""trial"",""time""
""focus"",""1"",""2808""
""fullscreenenter"",""1"",""3047""
","
","""event"",""trial"",""time""
""focus"",""1"",""2808""
","""event"",""trial"",""time""
""fullscreenenter"",""1"",""3047""
","
","","","809","","","11","3781","2082","c","elianto","#3366ff99","-1"," ","0","+10","[1668.8999998569489]","1","2","","","3781","89","5","2","win","no-go","1"
"pit-trial","215","1415607","0.0-94.0","battery-v0.2","","""event"",""trial"",""time""
""focus"",""1"",""2808""
""fullscreenenter"",""1"",""3047""
","
","""event"",""trial"",""time""
""focus"",""1"",""2808""
","""event"",""trial"",""time""
""fullscreenenter"",""1"",""3047""
","
","","","-1","","","11","3781","2082","t","elianto","#f73b6a7A","-1","-1","1","-10","[]","0","2","","","3781","90","7","4","lose","no-go","1"
"pit-trial","216","1419189","0.0-95.0","battery-v0.2","","""event"",""trial"",""time""
""focus"",""1"",""2808""
""fullscreenenter"",""1"",""3047""
","
","""event"",""trial"",""time""
""focus"",""1"",""2808""
","""event"",""trial"",""time""
""fullscreenenter"",""1"",""3047""
","
","","","713.1999998092651","","","11","3781","2082","z","elianto","#3366ff99"," "," ","1","+10","[1567.4000000953674]","1","2","","","3781","91","4","1","win","go","0"
"pit-trial","217","1424062","0.0-96.0","battery-v0.2","","""event"",""trial"",""time""
""focus"",""1"",""2808""
""fullscreenenter"",""1"",""3047""
","
","""event"",""trial"",""time""
""focus"",""1"",""2808""
","""event"",""trial"",""time""
""fullscreenenter"",""1"",""3047""
","
","","","-1","","","11","3781","2082","b","elianto","#f73b6a7A"," ","-1","0","-10","[]","0","2","","","3781","92","6","3","lose","go","0"
"pit-trial","218","1427527","0.0-97.0","battery-v0.2","","""event"",""trial"",""time""
""focus"",""1"",""2808""
""fullscreenenter"",""1"",""3047""
","
","""event"",""trial"",""time""
""focus"",""1"",""2808""
","""event"",""trial"",""time""
""fullscreenenter"",""1"",""3047""
","
","","","599.8000001907349","","","11","3781","2082","f","elianto","#3366ff99"," "," ","1","+10","[1451]","1","2","","","3781","93","8","1","win","go","0"
"pit-trial","219","1432398","0.0-98.0","battery-v0.2","","""event"",""trial"",""time""
""focus"",""1"",""2808""
""fullscreenenter"",""1"",""3047""
","
","""event"",""trial"",""time""
""focus"",""1"",""2808""
","""event"",""trial"",""time""
""fullscreenenter"",""1"",""3047""
","
","","","-1","","","11","3781","2082","b","elianto","#f73b6a7A"," ","-1","0","-10","[]","0","2","","","3781","94","6","3","lose","go","0"
"pit-trial","220","1435853","0.0-99.0","battery-v0.2","","""event"",""trial"",""time""
""focus"",""1"",""2808""
""fullscreenenter"",""1"",""3047""
","
","""event"",""trial"",""time""
""focus"",""1"",""2808""
