"trial_type","trial_index","time_elapsed","internal_node_id","task_version","subject_id","interactions","blur_events","focus_events","fullscreenenter_events","fullscreenexit_events","success","view_history","rt","responses","num_errors","age","subject","participantId","rune","rune_set","hex","correct","choice","accuracy","outcome","keys","total_keys","block","practice","value","sub","trial","stimulus","robot","valence","action","sham"
"pavlovia","0","16","0.0-0.0","battery-v0.2","","""event"",""trial"",""time""
""fullscreenenter"",""1"",""2204""
","
","
","""event"",""trial"",""time""
""fullscreenenter"",""1"",""2204""
","
","","","","","","","","","","","","","","","","","","","","","","","","","","",""
"fullscreen","1","3188","0.0-1.0","battery-v0.2","","""event"",""trial"",""time""
""fullscreenenter"",""1"",""2204""
","
","
","""event"",""trial"",""time""
""fullscreenenter"",""1"",""2204""
","
","true","","","","","","","","","","","","","","","","","","","","","","","","","",""
"pit-instructions","2","9061","0.0-2.0-0.0","battery-v0.2","","""event"",""trial"",""time""
""fullscreenenter"",""1"",""2204""
","
","
","""event"",""trial"",""time""
""fullscreenenter"",""1"",""2204""
","
","","[{""page_index"":0,""viewing_time"":5866.799999952316}]","5867.5","","","","","","","","","","","","","","","","","","","","","","","",""
"pit-comprehension","3","12887","0.0-2.0-1.0-0.0","battery-v0.2","","""event"",""trial"",""time""
""fullscreenenter"",""1"",""2204""
","
","
","""event"",""trial"",""time""
""fullscreenenter"",""1"",""2204""
","
","","","3821.5","[""shark""]","0","21","14448","5985","","","","","","","","","","","","","","","","","","",""
"pit-instructions","4","16718","0.0-2.0-1.0-1.0","battery-v0.2","","""event"",""trial"",""time""
""fullscreenenter"",""1"",""2204""
","
","
","""event"",""trial"",""time""
""fullscreenenter"",""1"",""2204""
","
","","[{""page_index"":0,""viewing_time"":3824.399999976158}]","3825.100000023842","","","","","","","","","","","","","","","","","","","","","","","",""
"pit-comprehension","5","19897","0.0-2.0-2.0-0.0","battery-v0.2","","""event"",""trial"",""time""
""fullscreenenter"",""1"",""2204""
","
","
","""event"",""trial"",""time""
""fullscreenenter"",""1"",""2204""
","
","","","3173.100000023842","[""tiger""]","0","21","14448","5985","","","","","","","","","","","","","","","","","","",""
"pit-instructions","6","22284","0.0-2.0-2.0-1.0","battery-v0.2","","""event"",""trial"",""time""
""fullscreenenter"",""1"",""2204""
","
","
","""event"",""trial"",""time""
""fullscreenenter"",""1"",""2204""
","
","","[{""page_index"":0,""viewing_time"":2383.899999976158}]","2384.100000023842","","","","","","","","","","","","","","","","","","","","","","","",""
"pit-instructions","7","114910","0.0-2.0-3.0","battery-v0.2","","""event"",""trial"",""time""
""fullscreenenter"",""1"",""2204""
","
","
","""event"",""trial"",""time""
""fullscreenenter"",""1"",""2204""
","
","","[{""page_index"":0,""viewing_time"":7752.5},{""page_index"":1,""viewing_time"":6080.400000095367},{""page_index"":2,""viewing_time"":7520.899999976158},{""page_index"":3,""viewing_time"":5785.699999928474},{""page_index"":4,""viewing_time"":5516.100000023842},{""page_index"":5,""viewing_time"":5426.899999976158},{""page_index"":6,""viewing_time"":6690.100000023842},{""page_index"":7,""viewing_time"":6838.100000023842},{""page_index"":8,""viewing_time"":6984.899999976158},{""page_index"":9,""viewing_time"":7803.700000047684},{""page_index"":10,""viewing_time"":7752.399999976158},{""page_index"":11,""viewing_time"":7683.5},{""page_index"":12,""viewing_time"":6034.600000023842},{""page_index"":13,""viewing_time"":4755.399999976158}]","92625.5","","","","","","","","","","","","","","","","","","","","","","","",""
"pit-trial","8","118231","0.0-2.0-4.0-0.0","battery-v0.2","","""event"",""trial"",""time""
""fullscreenenter"",""1"",""2204""
","
","
","""event"",""trial"",""time""
""fullscreenenter"",""1"",""2204""
","
","","","464.89999997615814","","","21","14448","5985","&#9784;","elianto","#FFFFF080"," "," ","1","&#10004","[1316.3000000715256]","1","0","0","","","","","","","",""
"pit-trial","9","121837","0.0-2.0-4.1-0.1","battery-v0.2","","""event"",""trial"",""time""
""fullscreenenter"",""1"",""2204""
","
","
","""event"",""trial"",""time""
""fullscreenenter"",""1"",""2204""
","
","","","750.2999999523163","","","21","14448","5985","&#9784;","elianto","#FFFFF080"," "," ","1","&#10004","[1601.1999999284744]","1","0","0","","","","","","","",""
"pit-trial","10","125340","0.0-2.0-4.2-0.2","battery-v0.2","","""event"",""trial"",""time""
""fullscreenenter"",""1"",""2204""
","
","
","""event"",""trial"",""time""
""fullscreenenter"",""1"",""2204""
","
","","","646.5","","","21","14448","5985","&#9784;","elianto","#FFFFF080"," "," ","1","&#10004","[1496.8999999761581]","1","0","0","","","","","","","",""
"pit-trial","11","128825","0.0-2.0-4.3-0.3","battery-v0.2","","""event"",""trial"",""time""
""fullscreenenter"",""1"",""2204""
","
","
","""event"",""trial"",""time""
""fullscreenenter"",""1"",""2204""
","
","","","628.6999999284744","","","21","14448","5985","&#9784;","elianto","#FFFFF080"," "," ","1","&#10004","[1479.7999999523163]","1","0","0","","","","","","","",""
"pit-trial","12","132280","0.0-2.0-4.4-0.4","battery-v0.2","","""event"",""trial"",""time""
""fullscreenenter"",""1"",""2204""
","
","
","""event"",""trial"",""time""
""fullscreenenter"",""1"",""2204""
","
","","","597.7999999523163","","","21","14448","5985","&#9784;","elianto","#FFFFF080"," "," ","1","&#10004","[1448.8999999761581]","1","0","0","","","","","","","",""
"pit-instructions","13","156141","0.0-2.0-5.0","battery-v0.2","","""event"",""trial"",""time""
""fullscreenenter"",""1"",""2204""
","
","
","""event"",""trial"",""time""
""fullscreenenter"",""1"",""2204""
","
","","[{""page_index"":0,""viewing_time"":5026.200000047684},{""page_index"":1,""viewing_time"":5793.600000023842},{""page_index"":2,""viewing_time"":5277.699999928474},{""page_index"":3,""viewing_time"":7758.700000047684}]","23856.899999976158","","","","","","","","","","","","","","","","","","","","","","","",""
"pit-trial","14","160997","0.0-2.0-6.0-0.0","battery-v0.2","","""event"",""trial"",""time""
""fullscreenenter"",""1"",""2204""
","
","
","""event"",""trial"",""time""
""fullscreenenter"",""1"",""2204""
","
","","","-1","","","21","14448","5985","&#9854;","elianto","#FFFFF080","-1","-1","1","&#10004","[]","0","0","1","","","","","","","",""
"pit-trial","15","165855","0.0-2.0-6.1-0.1","battery-v0.2","","""event"",""trial"",""time""
""fullscreenenter"",""1"",""2204""
","
","
","""event"",""trial"",""time""
""fullscreenenter"",""1"",""2204""
","
","","","-1","","","21","14448","5985","&#9854;","elianto","#FFFFF080","-1","-1","1","&#10004","[]","0","0","1","","","","","","","",""
"pit-trial","16","170711","0.0-2.0-6.2-0.2","battery-v0.2","","""event"",""trial"",""time""
""fullscreenenter"",""1"",""2204""
","
","
","""event"",""trial"",""time""
""fullscreenenter"",""1"",""2204""
","
","","","-1","","","21","14448","5985","&#9854;","elianto","#FFFFF080","-1","-1","1","&#10004","[]","0","0","1","","","","","","","",""
"pit-trial","17","175568","0.0-2.0-6.3-0.3","battery-v0.2","","""event"",""trial"",""time""
""fullscreenenter"",""1"",""2204""
","
","
","""event"",""trial"",""time""
""fullscreenenter"",""1"",""2204""
","
","","","-1","","","21","14448","5985","&#9854;","elianto","#FFFFF080","-1","-1","1","&#10004","[]","0","0","1","","","","","","","",""
"pit-trial","18","180425","0.0-2.0-6.4-0.4","battery-v0.2","","""event"",""trial"",""time""
""fullscreenenter"",""1"",""2204""
","
","
","""event"",""trial"",""time""
""fullscreenenter"",""1"",""2204""
","
","","","-1","","","21","14448","5985","&#9854;","elianto","#FFFFF080","-1","-1","1","&#10004","[]","0","0","1","","","","","","","",""
"pit-instructions","19","288908","0.0-2.0-7.0","battery-v0.2","","""event"",""trial"",""time""
""fullscreenenter"",""1"",""2204""
","
","
","""event"",""trial"",""time""
""fullscreenenter"",""1"",""2204""
","
","","[{""page_index"":0,""viewing_time"":5699.299999952316},{""page_index"":1,""viewing_time"":6065.300000071526},{""page_index"":2,""viewing_time"":5601.899999976158},{""page_index"":3,""viewing_time"":6063.5},{""page_index"":4,""viewing_time"":5747.100000023842},{""page_index"":5,""viewing_time"":5242.399999976158},{""page_index"":6,""viewing_time"":4591.100000023842},{""page_index"":7,""viewing_time"":7535.600000023842},{""page_index"":8,""viewing_time"":6246.299999952316},{""page_index"":9,""viewing_time"":5745.799999952316},{""page_index"":10,""viewing_time"":6136.300000071526},{""page_index"":11,""viewing_time"":4625.699999928474},{""page_index"":12,""viewing_time"":6425.600000023842},{""page_index"":13,""viewing_time"":6811.700000047684},{""page_index"":14,""viewing_time"":6905.5},{""page_index"":15,""viewing_time"":6059.100000023842},{""page_index"":16,""viewing_time"":6062.599999904633},{""page_index"":17,""viewing_time"":6917.700000047684}]","108482.89999997616","","","","","","","","","","","","","","","","","","","","","","","",""
"pit-trial","20","292325","0.0-2.0-8.0-0.0","battery-v0.2","","""event"",""trial"",""time""
""fullscreenenter"",""1"",""2204""
","
","
","""event"",""trial"",""time""
""fullscreenenter"",""1"",""2204""
","
","","","562.6999999284744","","","21","14448","5985","&#9776;","elianto","#3366ff99"," "," ","1","+10","[1413.2000000476837]","1","0","1","","","","","","","",""
"pit-trial","21","295633","0.0-2.0-8.0-1.0","battery-v0.2","","""event"",""trial"",""time""
""fullscreenenter"",""1"",""2204""
","
","
","""event"",""trial"",""time""
""fullscreenenter"",""1"",""2204""
","
","","","453.59999990463257","","","21","14448","5985","&#9776;","elianto","#3366ff99"," "," ","1","+10","[1304.5999999046326]","1","0","1","","","","","","","",""
"pit-trial","22","298912","0.0-2.0-8.0-2.0","battery-v0.2","","""event"",""trial"",""time""
""fullscreenenter"",""1"",""2204""
","
","
","""event"",""trial"",""time""
""fullscreenenter"",""1"",""2204""
","
","","","424.5","","","21","14448","5985","&#9776;","elianto","#3366ff99"," "," ","1","+10","[1274.9000000953674]","1","0","1","","","","","","","",""
"pit-trial","23","302206","0.0-2.0-8.0-3.0","battery-v0.2","","""event"",""trial"",""time""
""fullscreenenter"",""1"",""2204""
","
","
","""event"",""trial"",""time""
""fullscreenenter"",""1"",""2204""
","
","","","436.8000000715256","","","21","14448","5985","&#9776;","elianto","#3366ff99"," "," ","1","0","[1288]","1","0","1","","","","","","","",""
"pit-trial","24","305468","0.0-2.0-8.0-4.0","battery-v0.2","","""event"",""trial"",""time""
""fullscreenenter"",""1"",""2204""
","
","
","""event"",""trial"",""time""
""fullscreenenter"",""1"",""2204""
","
","","","407.3000000715256","","","21","14448","5985","&#9776;","elianto","#3366ff99"," "," ","1","+10","[1258]","1","0","1","","","","","","","",""
"pit-trial","25","308559","0.0-2.0-8.1-0.1","battery-v0.2","","""event"",""trial"",""time""
""fullscreenenter"",""1"",""2204""
","
","
","""event"",""trial"",""time""
""fullscreenenter"",""1"",""2204""
","
","","","235.5","","","21","14448","5985","&#9776;","elianto","#3366ff99"," "," ","1","+10","[1086]","1","0","1","","","","","","","",""
"pit-trial","26","311762","0.0-2.0-8.1-1.1","battery-v0.2","","""event"",""trial"",""time""
""fullscreenenter"",""1"",""2204""
","
","
","""event"",""trial"",""time""
""fullscreenenter"",""1"",""2204""
","
","","","346.5","","","21","14448","5985","&#9776;","elianto","#3366ff99"," "," ","1","+10","[1197.5]","1","0","1","","","","","","","",""
"pit-trial","27","314957","0.0-2.0-8.1-2.1","battery-v0.2","","""event"",""trial"",""time""
""fullscreenenter"",""1"",""2204""
","
","
","""event"",""trial"",""time""
""fullscreenenter"",""1"",""2204""
","
","","","338.7999999523163","","","21","14448","5985","&#9776;","elianto","#3366ff99"," "," ","1","+10","[1189.7999999523163]","1","0","1","","","","","","","",""
"pit-trial","28","318124","0.0-2.0-8.1-3.1","battery-v0.2","","""event"",""trial"",""time""
""fullscreenenter"",""1"",""2204""
","
","
","""event"",""trial"",""time""
""fullscreenenter"",""1"",""2204""
","
","","","311","","","21","14448","5985","&#9776;","elianto","#3366ff99"," "," ","1","0","[1162]","1","0","1","","","","","","","",""
"pit-trial","29","321177","0.0-2.0-8.1-4.1","battery-v0.2","","""event"",""trial"",""time""
""fullscreenenter"",""1"",""2204""
","
","
","""event"",""trial"",""time""
""fullscreenenter"",""1"",""2204""
","
","","","198.39999997615814","","","21","14448","5985","&#9776;","elianto","#3366ff99"," "," ","1","+10","[1049.2999999523163]","1","0","1","","","","","","","",""
"pit-trial","30","324439","0.0-2.0-8.2-0.2","battery-v0.2","","""event"",""trial"",""time""
""fullscreenenter"",""1"",""2204""
","
","
","""event"",""trial"",""time""
""fullscreenenter"",""1"",""2204""
","
","","","407.2000000476837","","","21","14448","5985","&#9776;","elianto","#3366ff99"," "," ","1","+10","[1258.3999999761581]","1","0","1","","","","","","","",""
"pit-trial","31","327639","0.0-2.0-8.2-1.2","battery-v0.2","","""event"",""trial"",""time""
""fullscreenenter"",""1"",""2204""
","
","
","""event"",""trial"",""time""
""fullscreenenter"",""1"",""2204""
","
","","","345.39999997615814","","","21","14448","5985","&#9776;","elianto","#3366ff99"," "," ","1","+10","[1197.0999999046326]","1","0","1","","","","","","","",""
"pit-trial","32","330863","0.0-2.0-8.2-2.2","battery-v0.2","","""event"",""trial"",""time""
""fullscreenenter"",""1"",""2204""
","
","
","""event"",""trial"",""time""
""fullscreenenter"",""1"",""2204""
","
","","","370.90000009536743","","","21","14448","5985","&#9776;","elianto","#3366ff99"," "," ","1","+10","[1221.3999999761581]","1","0","1","","","","","","","",""
"pit-trial","33","334077","0.0-2.0-8.2-3.2","battery-v0.2","","""event"",""trial"",""time""
""fullscreenenter"",""1"",""2204""
","
","
","""event"",""trial"",""time""
""fullscreenenter"",""1"",""2204""
","
","","","359.10000002384186","","","21","14448","5985","&#9776;","elianto","#3366ff99"," "," ","1","0","[1210.1000000238419]","1","0","1","","","","","","","",""
"pit-trial","34","337171","0.0-2.0-8.2-4.2","battery-v0.2","","""event"",""trial"",""time""
""fullscreenenter"",""1"",""2204""
","
","
","""event"",""trial"",""time""
""fullscreenenter"",""1"",""2204""
","
","","","238.89999997615814","","","21","14448","5985","&#9776;","elianto","#3366ff99"," "," ","1","+10","[1089.5]","1","0","1","","","","","","","",""
"call-function","35","337173","0.0-2.0-9.0","battery-v0.2","","""event"",""trial"",""time""
""fullscreenenter"",""1"",""2204""
","
","
","""event"",""trial"",""time""
""fullscreenenter"",""1"",""2204""
","
","","","","","","","","","","","","","","","","","","","","","","","","","","",""
"pit-instructions","36","375546","0.0-2.0-10.0","battery-v0.2","","""event"",""trial"",""time""
""fullscreenenter"",""1"",""2204""
","
","
","""event"",""trial"",""time""
""fullscreenenter"",""1"",""2204""
","
","","[{""page_index"":0,""viewing_time"":6288.799999952316},{""page_index"":1,""viewing_time"":6812.100000023842},{""page_index"":2,""viewing_time"":9292.299999952316},{""page_index"":3,""viewing_time"":8779.600000023842},{""page_index"":4,""viewing_time"":7199.899999976158}]","38373","","","","","","","","","","","","","","","","","","","","","","","",""
"pit-trial","37","380402","0.0-2.0-11.0-0.0","battery-v0.2","","""event"",""trial"",""time""
""fullscreenenter"",""1"",""2204""
","
","
","""event"",""trial"",""time""
""fullscreenenter"",""1"",""2204""
","
","","","-1","","","21","14448","5985","&#9761;","elianto","#3366ff99","-1","-1","1","+10","[]","0","0","2","","","","","","","",""
"pit-trial","38","385258","0.0-2.0-11.0-1.0","battery-v0.2","","""event"",""trial"",""time""
""fullscreenenter"",""1"",""2204""
","
","
","""event"",""trial"",""time""
""fullscreenenter"",""1"",""2204""
","
","","","-1","","","21","14448","5985","&#9761;","elianto","#3366ff99","-1","-1","1","+10","[]","0","0","2","","","","","","","",""
"pit-trial","39","390113","0.0-2.0-11.0-2.0","battery-v0.2","","""event"",""trial"",""time""
""fullscreenenter"",""1"",""2204""
","
","
","""event"",""trial"",""time""
""fullscreenenter"",""1"",""2204""
","
","","","-1","","","21","14448","5985","&#9761;","elianto","#3366ff99","-1","-1","1","+10","[]","0","0","2","","","","","","","",""
"pit-trial","40","394970","0.0-2.0-11.0-3.0","battery-v0.2","","""event"",""trial"",""time""
""fullscreenenter"",""1"",""2204""
","
","
","""event"",""trial"",""time""
""fullscreenenter"",""1"",""2204""
","
","","","-1","","","21","14448","5985","&#9761;","elianto","#3366ff99","-1","-1","1","0","[]","0","0","2","","","","","","","",""
"pit-trial","41","399826","0.0-2.0-11.0-4.0","battery-v0.2","","""event"",""trial"",""time""
""fullscreenenter"",""1"",""2204""
","
","
","""event"",""trial"",""time""
""fullscreenenter"",""1"",""2204""
","
","","","-1","","","21","14448","5985","&#9761;","elianto","#3366ff99","-1","-1","1","+10","[]","0","0","2","","","","","","","",""
"pit-trial","42","404682","0.0-2.0-11.1-0.1","battery-v0.2","","""event"",""trial"",""time""
""fullscreenenter"",""1"",""2204""
","
","
","""event"",""trial"",""time""
""fullscreenenter"",""1"",""2204""
","
","","","-1","","","21","14448","5985","&#9761;","elianto","#3366ff99","-1","-1","1","+10","[]","0","0","2","","","","","","","",""
"pit-trial","43","409539","0.0-2.0-11.1-1.1","battery-v0.2","","""event"",""trial"",""time""
""fullscreenenter"",""1"",""2204""
","
","
","""event"",""trial"",""time""
""fullscreenenter"",""1"",""2204""
","
","","","-1","","","21","14448","5985","&#9761;","elianto","#3366ff99","-1","-1","1","+10","[]","0","0","2","","","","","","","",""
"pit-trial","44","414395","0.0-2.0-11.1-2.1","battery-v0.2","","""event"",""trial"",""time""
""fullscreenenter"",""1"",""2204""
","
","
","""event"",""trial"",""time""
""fullscreenenter"",""1"",""2204""
","
","","","-1","","","21","14448","5985","&#9761;","elianto","#3366ff99","-1","-1","1","+10","[]","0","0","2","","","","","","","",""
"pit-trial","45","419250","0.0-2.0-11.1-3.1","battery-v0.2","","""event"",""trial"",""time""
""fullscreenenter"",""1"",""2204""
","
","
","""event"",""trial"",""time""
""fullscreenenter"",""1"",""2204""
","
","","","-1","","","21","14448","5985","&#9761;","elianto","#3366ff99","-1","-1","1","0","[]","0","0","2","","","","","","","",""
"pit-trial","46","424106","0.0-2.0-11.1-4.1","battery-v0.2","","""event"",""trial"",""time""
""fullscreenenter"",""1"",""2204""
","
","
","""event"",""trial"",""time""
""fullscreenenter"",""1"",""2204""
","
","","","-1","","","21","14448","5985","&#9761;","elianto","#3366ff99","-1","-1","1","+10","[]","0","0","2","","","","","","","",""
"pit-trial","47","428960","0.0-2.0-11.2-0.2","battery-v0.2","","""event"",""trial"",""time""
""fullscreenenter"",""1"",""2204""
","
","
","""event"",""trial"",""time""
""fullscreenenter"",""1"",""2204""
","
","","","-1","","","21","14448","5985","&#9761;","elianto","#3366ff99","-1","-1","1","+10","[]","0","0","2","","","","","","","",""
"pit-trial","48","433816","0.0-2.0-11.2-1.2","battery-v0.2","","""event"",""trial"",""time""
""fullscreenenter"",""1"",""2204""
","
","
","""event"",""trial"",""time""
""fullscreenenter"",""1"",""2204""
","
","","","-1","","","21","14448","5985","&#9761;","elianto","#3366ff99","-1","-1","1","+10","[]","0","0","2","","","","","","","",""
"pit-trial","49","438672","0.0-2.0-11.2-2.2","battery-v0.2","","""event"",""trial"",""time""
""fullscreenenter"",""1"",""2204""
","
","
","""event"",""trial"",""time""
""fullscreenenter"",""1"",""2204""
","
","","","-1","","","21","14448","5985","&#9761;","elianto","#3366ff99","-1","-1","1","+10","[]","0","0","2","","","","","","","",""
"pit-trial","50","443526","0.0-2.0-11.2-3.2","battery-v0.2","","""event"",""trial"",""time""
""fullscreenenter"",""1"",""2204""
","
","
","""event"",""trial"",""time""
""fullscreenenter"",""1"",""2204""
","
","","","-1","","","21","14448","5985","&#9761;","elianto","#3366ff99","-1","-1","1","0","[]","0","0","2","","","","","","","",""
"pit-trial","51","448382","0.0-2.0-11.2-4.2","battery-v0.2","","""event"",""trial"",""time""
""fullscreenenter"",""1"",""2204""
","
","
","""event"",""trial"",""time""
""fullscreenenter"",""1"",""2204""
","
","","","-1","","","21","14448","5985","&#9761;","elianto","#3366ff99","-1","-1","1","+10","[]","0","0","2","","","","","","","",""
"pit-trial","52","453238","0.0-2.0-11.3-0.3","battery-v0.2","","""event"",""trial"",""time""
""fullscreenenter"",""1"",""2204""
","
","
","""event"",""trial"",""time""
""fullscreenenter"",""1"",""2204""
","
","","","-1","","","21","14448","5985","&#9761;","elianto","#3366ff99","-1","-1","1","+10","[]","0","0","2","","","","","","","",""
"pit-trial","53","458093","0.0-2.0-11.3-1.3","battery-v0.2","","""event"",""trial"",""time""
""fullscreenenter"",""1"",""2204""
","
","
","""event"",""trial"",""time""
""fullscreenenter"",""1"",""2204""
","
","","","-1","","","21","14448","5985","&#9761;","elianto","#3366ff99","-1","-1","1","+10","[]","0","0","2","","","","","","","",""
"pit-trial","54","462949","0.0-2.0-11.3-2.3","battery-v0.2","","""event"",""trial"",""time""
""fullscreenenter"",""1"",""2204""
","
","
","""event"",""trial"",""time""
""fullscreenenter"",""1"",""2204""
","
","","","-1","","","21","14448","5985","&#9761;","elianto","#3366ff99","-1","-1","1","+10","[]","0","0","2","","","","","","","",""
"pit-trial","55","467803","0.0-2.0-11.3-3.3","battery-v0.2","","""event"",""trial"",""time""
""fullscreenenter"",""1"",""2204""
","
","
","""event"",""trial"",""time""
""fullscreenenter"",""1"",""2204""
","
","","","-1","","","21","14448","5985","&#9761;","elianto","#3366ff99","-1","-1","1","0","[]","0","0","2","","","","","","","",""
"pit-trial","56","472658","0.0-2.0-11.3-4.3","battery-v0.2","","""event"",""trial"",""time""
""fullscreenenter"",""1"",""2204""
","
","
","""event"",""trial"",""time""
""fullscreenenter"",""1"",""2204""
","
","","","-1","","","21","14448","5985","&#9761;","elianto","#3366ff99","-1","-1","1","+10","[]","0","0","2","","","","","","","",""
"call-function","57","472661","0.0-2.0-12.0","battery-v0.2","","""event"",""trial"",""time""
""fullscreenenter"",""1"",""2204""
","
","
","""event"",""trial"",""time""
""fullscreenenter"",""1"",""2204""
","
","","","","","","","","","","","","","","","","","","","","","","","","","","",""
"pit-instructions","58","503252","0.0-2.0-13.0","battery-v0.2","","""event"",""trial"",""time""
""fullscreenenter"",""1"",""2204""
","
","
","""event"",""trial"",""time""
""fullscreenenter"",""1"",""2204""
","
","","[{""page_index"":0,""viewing_time"":4864.5},{""page_index"":1,""viewing_time"":6892.600000023842},{""page_index"":2,""viewing_time"":3561.100000023842},{""page_index"":3,""viewing_time"":10523.699999928474},{""page_index"":4,""viewing_time"":4748}]","30590.399999976158","","","","","","","","","","","","","","","","","","","","","","","",""
"pit-trial","59","506593","0.0-2.0-14.0-0.0","battery-v0.2","","""event"",""trial"",""time""
""fullscreenenter"",""1"",""2204""
","
","
","""event"",""trial"",""time""
""fullscreenenter"",""1"",""2204""
","
","","","485","","","21","14448","5985","&#9826;","elianto","#f73b6a7A","-1"," ","0","-10","[1335.8000000715256]","1","0","3","","","","","","","",""
"pit-trial","60","511450","0.0-2.0-14.0-1.0","battery-v0.2","","""event"",""trial"",""time""
""fullscreenenter"",""1"",""2204""
","
","
","""event"",""trial"",""time""
""fullscreenenter"",""1"",""2204""
","
","","","-1","","","21","14448","5985","&#9826;","elianto","#f73b6a7A","-1","-1","1","0","[]","0","0","3","","","","","","","",""
"pit-trial","61","516304","0.0-2.0-14.0-2.0","battery-v0.2","","""event"",""trial"",""time""
""fullscreenenter"",""1"",""2204""
","
","
","""event"",""trial"",""time""
""fullscreenenter"",""1"",""2204""
","
","","","-1","","","21","14448","5985","&#9826;","elianto","#f73b6a7A","-1","-1","1","0","[]","0","0","3","","","","","","","",""
"pit-trial","62","521158","0.0-2.0-14.0-3.0","battery-v0.2","","""event"",""trial"",""time""
""fullscreenenter"",""1"",""2204""
","
","
","""event"",""trial"",""time""
""fullscreenenter"",""1"",""2204""
","
","","","-1","","","21","14448","5985","&#9826;","elianto","#f73b6a7A","-1","-1","1","-10","[]","0","0","3","","","","","","","",""
"pit-trial","63","526012","0.0-2.0-14.0-4.0","battery-v0.2","","""event"",""trial"",""time""
""fullscreenenter"",""1"",""2204""
","
","
","""event"",""trial"",""time""
""fullscreenenter"",""1"",""2204""
","
","","","-1","","","21","14448","5985","&#9826;","elianto","#f73b6a7A","-1","-1","1","0","[]","0","0","3","","","","","","","",""
"pit-trial","64","530867","0.0-2.0-14.1-0.1","battery-v0.2","","""event"",""trial"",""time""
""fullscreenenter"",""1"",""2204""
","
","
","""event"",""trial"",""time""
""fullscreenenter"",""1"",""2204""
","
","","","-1","","","21","14448","5985","&#9826;","elianto","#f73b6a7A","-1","-1","1","0","[]","0","0","3","","","","","","","",""
"pit-trial","65","535723","0.0-2.0-14.1-1.1","battery-v0.2","","""event"",""trial"",""time""
""fullscreenenter"",""1"",""2204""
","
","
","""event"",""trial"",""time""
""fullscreenenter"",""1"",""2204""
","
","","","-1","","","21","14448","5985","&#9826;","elianto","#f73b6a7A","-1","-1","1","0","[]","0","0","3","","","","","","","",""
"pit-trial","66","540578","0.0-2.0-14.1-2.1","battery-v0.2","","""event"",""trial"",""time""
""fullscreenenter"",""1"",""2204""
","
","
","""event"",""trial"",""time""
""fullscreenenter"",""1"",""2204""
","
","","","-1","","","21","14448","5985","&#9826;","elianto","#f73b6a7A","-1","-1","1","0","[]","0","0","3","","","","","","","",""
"pit-trial","67","545433","0.0-2.0-14.1-3.1","battery-v0.2","","""event"",""trial"",""time""
""fullscreenenter"",""1"",""2204""
","
","
","""event"",""trial"",""time""
""fullscreenenter"",""1"",""2204""
","
","","","-1","","","21","14448","5985","&#9826;","elianto","#f73b6a7A","-1","-1","1","-10","[]","0","0","3","","","","","","","",""
"pit-trial","68","550288","0.0-2.0-14.1-4.1","battery-v0.2","","""event"",""trial"",""time""
""fullscreenenter"",""1"",""2204""
","
","
","""event"",""trial"",""time""
""fullscreenenter"",""1"",""2204""
","
","","","-1","","","21","14448","5985","&#9826;","elianto","#f73b6a7A","-1","-1","1","0","[]","0","0","3","","","","","","","",""
"pit-trial","69","555144","0.0-2.0-14.2-0.2","battery-v0.2","","""event"",""trial"",""time""
""fullscreenenter"",""1"",""2204""
","
","
","""event"",""trial"",""time""
""fullscreenenter"",""1"",""2204""
","
","","","-1","","","21","14448","5985","&#9826;","elianto","#f73b6a7A","-1","-1","1","0","[]","0","0","3","","","","","","","",""
"pit-trial","70","559999","0.0-2.0-14.2-1.2","battery-v0.2","","""event"",""trial"",""time""
""fullscreenenter"",""1"",""2204""
","
","
","""event"",""trial"",""time""
""fullscreenenter"",""1"",""2204""
","
","","","-1","","","21","14448","5985","&#9826;","elianto","#f73b6a7A","-1","-1","1","0","[]","0","0","3","","","","","","","",""
"pit-trial","71","564854","0.0-2.0-14.2-2.2","battery-v0.2","","""event"",""trial"",""time""
""fullscreenenter"",""1"",""2204""
","
","
","""event"",""trial"",""time""
""fullscreenenter"",""1"",""2204""
","
","","","-1","","","21","14448","5985","&#9826;","elianto","#f73b6a7A","-1","-1","1","0","[]","0","0","3","","","","","","","",""
"pit-trial","72","569709","0.0-2.0-14.2-3.2","battery-v0.2","","""event"",""trial"",""time""
""fullscreenenter"",""1"",""2204""
","
","
","""event"",""trial"",""time""
""fullscreenenter"",""1"",""2204""
","
","","","-1","","","21","14448","5985","&#9826;","elianto","#f73b6a7A","-1","-1","1","-10","[]","0","0","3","","","","","","","",""
"pit-trial","73","574565","0.0-2.0-14.2-4.2","battery-v0.2","","""event"",""trial"",""time""
""fullscreenenter"",""1"",""2204""
","
","
","""event"",""trial"",""time""
""fullscreenenter"",""1"",""2204""
","
","","","-1","","","21","14448","5985","&#9826;","elianto","#f73b6a7A","-1","-1","1","0","[]","0","0","3","","","","","","","",""
"pit-trial","74","579420","0.0-2.0-14.3-0.3","battery-v0.2","","""event"",""trial"",""time""
""fullscreenenter"",""1"",""2204""
","
","
","""event"",""trial"",""time""
""fullscreenenter"",""1"",""2204""
","
","","","-1","","","21","14448","5985","&#9826;","elianto","#f73b6a7A","-1","-1","1","0","[]","0","0","3","","","","","","","",""
"pit-trial","75","584275","0.0-2.0-14.3-1.3","battery-v0.2","","""event"",""trial"",""time""
""fullscreenenter"",""1"",""2204""
","
","
","""event"",""trial"",""time""
""fullscreenenter"",""1"",""2204""
","
","","","-1","","","21","14448","5985","&#9826;","elianto","#f73b6a7A","-1","-1","1","0","[]","0","0","3","","","","","","","",""
"pit-trial","76","589130","0.0-2.0-14.3-2.3","battery-v0.2","","""event"",""trial"",""time""
""fullscreenenter"",""1"",""2204""
","
","
","""event"",""trial"",""time""
""fullscreenenter"",""1"",""2204""
","
","","","-1","","","21","14448","5985","&#9826;","elianto","#f73b6a7A","-1","-1","1","0","[]","0","0","3","","","","","","","",""
"pit-trial","77","593984","0.0-2.0-14.3-3.3","battery-v0.2","","""event"",""trial"",""time""
""fullscreenenter"",""1"",""2204""
","
","
","""event"",""trial"",""time""
""fullscreenenter"",""1"",""2204""
","
","","","-1","","","21","14448","5985","&#9826;","elianto","#f73b6a7A","-1","-1","1","-10","[]","0","0","3","","","","","","","",""
"pit-trial","78","598839","0.0-2.0-14.3-4.3","battery-v0.2","","""event"",""trial"",""time""
""fullscreenenter"",""1"",""2204""
","
","
","""event"",""trial"",""time""
""fullscreenenter"",""1"",""2204""
","
","","","-1","","","21","14448","5985","&#9826;","elianto","#f73b6a7A","-1","-1","1","0","[]","0","0","3","","","","","","","",""
"call-function","79","598841","0.0-2.0-15.0","battery-v0.2","","""event"",""trial"",""time""
""fullscreenenter"",""1"",""2204""
","
","
","""event"",""trial"",""time""
""fullscreenenter"",""1"",""2204""
","
","","","","","","","","","","","","","","","","","","","","","","","","","","",""
"pit-instructions","80","622985","0.0-2.0-16.0","battery-v0.2","","""event"",""trial"",""time""
""fullscreenenter"",""1"",""2204""
","
","
","""event"",""trial"",""time""
""fullscreenenter"",""1"",""2204""
","
","","[{""page_index"":0,""viewing_time"":6488.700000047684},{""page_index"":1,""viewing_time"":8365.899999976158},{""page_index"":2,""viewing_time"":4541.5},{""page_index"":3,""viewing_time"":4747.399999976158}]","24144.100000023842","","","","","","","","","","","","","","","","","","","","","","","",""
"pit-trial","81","626252","0.0-2.0-17.0-0.0","battery-v0.2","","""event"",""trial"",""time""
""fullscreenenter"",""1"",""2204""
","
","
","""event"",""trial"",""time""
""fullscreenenter"",""1"",""2204""
","
","","","410.7999999523163","","","21","14448","5985","&#9789;","elianto","#f73b6a7A"," "," ","1","0","[1262]","1","0","4","","","","","","","",""
"pit-trial","82","629504","0.0-2.0-17.0-1.0","battery-v0.2","","""event"",""trial"",""time""
""fullscreenenter"",""1"",""2204""
","
","
","""event"",""trial"",""time""
""fullscreenenter"",""1"",""2204""
","
","","","396.60000002384186","","","21","14448","5985","&#9789;","elianto","#f73b6a7A"," "," ","1","0","[1247.1999999284744]","1","0","4","","","","","","","",""
"pit-trial","83","632662","0.0-2.0-17.0-2.0","battery-v0.2","","""event"",""trial"",""time""
""fullscreenenter"",""1"",""2204""
","
","
","""event"",""trial"",""time""
""fullscreenenter"",""1"",""2204""
","
","","","303.8000000715256","","","21","14448","5985","&#9789;","elianto","#f73b6a7A"," "," ","1","0","[1154.3999999761581]","1","0","4","","","","","","","",""
"pit-trial","84","635799","0.0-2.0-17.0-3.0","battery-v0.2","","""event"",""trial"",""time""
""fullscreenenter"",""1"",""2204""
","
","
","""event"",""trial"",""time""
""fullscreenenter"",""1"",""2204""
","
","","","281.89999997615814","","","21","14448","5985","&#9789;","elianto","#f73b6a7A"," "," ","1","-10","[1132.8999999761581]","1","0","4","","","","","","","",""
"pit-trial","85","638850","0.0-2.0-17.0-4.0","battery-v0.2","","""event"",""trial"",""time""
""fullscreenenter"",""1"",""2204""
","
","
","""event"",""trial"",""time""
""fullscreenenter"",""1"",""2204""
","
","","","194.89999997615814","","","21","14448","5985","&#9789;","elianto","#f73b6a7A"," "," ","1","0","[1046.1000000238419]","1","0","4","","","","","","","",""
"pit-trial","86","642033","0.0-2.0-17.1-0.1","battery-v0.2","","""event"",""trial"",""time""
""fullscreenenter"",""1"",""2204""
","
","
","""event"",""trial"",""time""
""fullscreenenter"",""1"",""2204""
","
","","","326.2000000476837","","","21","14448","5985","&#9789;","elianto","#f73b6a7A"," "," ","1","0","[1177.2000000476837]","1","0","4","","","","","","","",""
"pit-trial","87","645203","0.0-2.0-17.1-1.1","battery-v0.2","","""event"",""trial"",""time""
""fullscreenenter"",""1"",""2204""
","
","
","""event"",""trial"",""time""
""fullscreenenter"",""1"",""2204""
","
","","","315","","","21","14448","5985","&#9789;","elianto","#f73b6a7A"," "," ","1","0","[1165.1999999284744]","1","0","4","","","","","","","",""
"pit-trial","88","648297","0.0-2.0-17.1-2.1","battery-v0.2","","""event"",""trial"",""time""
""fullscreenenter"",""1"",""2204""
","
","
","""event"",""trial"",""time""
""fullscreenenter"",""1"",""2204""
","
","","","238.29999995231628","","","21","14448","5985","&#9789;","elianto","#f73b6a7A"," "," ","1","0","[1089.7000000476837]","1","0","4","","","","","","","",""
"pit-trial","89","651543","0.0-2.0-17.1-3.1","battery-v0.2","","""event"",""trial"",""time""
""fullscreenenter"",""1"",""2204""
","
","
","""event"",""trial"",""time""
""fullscreenenter"",""1"",""2204""
","
","","","320.5","","","21","14448","5985","&#9789;","elianto","#f73b6a7A"," "," ","1","-10","[1171.7000000476837]","1","0","4","","","","","","","",""
"pit-trial","90","654666","0.0-2.0-17.1-4.1","battery-v0.2","","""event"",""trial"",""time""
""fullscreenenter"",""1"",""2204""
","
","
","""event"",""trial"",""time""
""fullscreenenter"",""1"",""2204""
","
","","","269.7000000476837","","","21","14448","5985","&#9789;","elianto","#f73b6a7A"," "," ","1","0","[1119.7999999523163]","1","0","4","","","","","","","",""
"pit-trial","91","657709","0.0-2.0-17.2-0.2","battery-v0.2","","""event"",""trial"",""time""
""fullscreenenter"",""1"",""2204""
","
","
","""event"",""trial"",""time""
""fullscreenenter"",""1"",""2204""
","
","","","187.79999995231628","","","21","14448","5985","&#9789;","elianto","#f73b6a7A"," "," ","1","0","[1038.3999999761581]","1","0","4","","","","","","","",""
"pit-trial","92","660818","0.0-2.0-17.2-1.2","battery-v0.2","","""event"",""trial"",""time""
""fullscreenenter"",""1"",""2204""
","
","
","""event"",""trial"",""time""
""fullscreenenter"",""1"",""2204""
","
","","","254.69999992847443","","","21","14448","5985","&#9789;","elianto","#f73b6a7A"," "," ","1","0","[1105.7999999523163]","1","0","4","","","","","","","",""
"pit-trial","93","664026","0.0-2.0-17.2-2.2","battery-v0.2","","""event"",""trial"",""time""
""fullscreenenter"",""1"",""2204""
","
","
","""event"",""trial"",""time""
""fullscreenenter"",""1"",""2204""
","
","","","353.5","","","21","14448","5985","&#9789;","elianto","#f73b6a7A"," "," ","1","0","[1204.9000000953674]","1","0","4","","","","","","","",""
"pit-trial","94","667292","0.0-2.0-17.2-3.2","battery-v0.2","","""event"",""trial"",""time""
""fullscreenenter"",""1"",""2204""
","
","
","""event"",""trial"",""time""
""fullscreenenter"",""1"",""2204""
","
","","","412.2000000476837","","","21","14448","5985","&#9789;","elianto","#f73b6a7A"," "," ","1","-10","[1263]","1","0","4","","","","","","","",""
"pit-trial","95","670526","0.0-2.0-17.2-4.2","battery-v0.2","","""event"",""trial"",""time""
""fullscreenenter"",""1"",""2204""
","
","
","""event"",""trial"",""time""
""fullscreenenter"",""1"",""2204""
","
","","","380","","","21","14448","5985","&#9789;","elianto","#f73b6a7A"," "," ","1","0","[1230.5]","1","0","4","","","","","","","",""
"pit-trial","96","673758","0.0-2.0-17.3-0.3","battery-v0.2","","""event"",""trial"",""time""
""fullscreenenter"",""1"",""2204""
","
","
","""event"",""trial"",""time""
""fullscreenenter"",""1"",""2204""
","
","","","376","","","21","14448","5985","&#9789;","elianto","#f73b6a7A"," "," ","1","0","[1227.4000000953674]","1","0","4","","","","","","","",""
"pit-trial","97","677037","0.0-2.0-17.3-1.3","battery-v0.2","","""event"",""trial"",""time""
""fullscreenenter"",""1"",""2204""
","
","
","""event"",""trial"",""time""
""fullscreenenter"",""1"",""2204""
","
","","","423.89999997615814","","","21","14448","5985","&#9789;","elianto","#f73b6a7A"," "," ","1","0","[1274.3999999761581]","1","0","4","","","","","","","",""
"pit-trial","98","680314","0.0-2.0-17.3-2.3","battery-v0.2","","""event"",""trial"",""time""
""fullscreenenter"",""1"",""2204""
","
","
","""event"",""trial"",""time""
""fullscreenenter"",""1"",""2204""
","
","","","421.7000000476837","","","21","14448","5985","&#9789;","elianto","#f73b6a7A"," "," ","1","0","[1272.8999999761581]","1","0","4","","","","","","","",""
"pit-trial","99","683554","0.0-2.0-17.3-3.3","battery-v0.2","","""event"",""trial"",""time""
""fullscreenenter"",""1"",""2204""
","
","
","""event"",""trial"",""time""
""fullscreenenter"",""1"",""2204""
","
","","","385.39999997615814","","","21","14448","5985","&#9789;","elianto","#f73b6a7A"," "," ","1","-10","[1236.2999999523163]","1","0","4","","","","","","","",""
"pit-trial","100","686775","0.0-2.0-17.3-4.3","battery-v0.2","","""event"",""trial"",""time""
""fullscreenenter"",""1"",""2204""
","
","
","""event"",""trial"",""time""
""fullscreenenter"",""1"",""2204""
","
","","","366.6999999284744","","","21","14448","5985","&#9789;","elianto","#f73b6a7A"," "," ","1","0","[1217.1000000238419]","1","0","4","","","","","","","",""
"call-function","101","686778","0.0-2.0-18.0","battery-v0.2","","""event"",""trial"",""time""
""fullscreenenter"",""1"",""2204""
","
","
","""event"",""trial"",""time""
""fullscreenenter"",""1"",""2204""
","
","","","","","","","","","","","","","","","","","","","","","","","","","","",""
"pit-instructions","102","754180","0.0-2.0-19.0","battery-v0.2","","""event"",""trial"",""time""
""fullscreenenter"",""1"",""2204""
","
","
","""event"",""trial"",""time""
""fullscreenenter"",""1"",""2204""
","
","","[{""page_index"":0,""viewing_time"":6403.899999976158},{""page_index"":1,""viewing_time"":5980.300000071526},{""page_index"":2,""viewing_time"":12696.799999952316},{""page_index"":3,""viewing_time"":7337.899999976158},{""page_index"":4,""viewing_time"":7996.200000047684},{""page_index"":5,""viewing_time"":8402.200000047684},{""page_index"":6,""viewing_time"":8522.199999928474},{""page_index"":7,""viewing_time"":6031.800000071526},{""page_index"":8,""viewing_time"":4030}]","67401.60000002384","","","","","","","","","","","","","","","","","","","","","","","",""
"pit-comprehension","103","758733","0.0-2.0-20.0-0.0","battery-v0.2","","""event"",""trial"",""time""
""fullscreenenter"",""1"",""2204""
","
","
","""event"",""trial"",""time""
""fullscreenenter"",""1"",""2204""
","
","","","4548.799999952316","[""SPACE""]","0","21","14448","5985","","","","","","","","","","","","","","","","","","",""
"pit-instructions","104","764256","0.0-2.0-20.0-1.0","battery-v0.2","","""event"",""trial"",""time""
""fullscreenenter"",""1"",""2204""
","
","
","""event"",""trial"",""time""
""fullscreenenter"",""1"",""2204""
","
","","[{""page_index"":0,""viewing_time"":5484.799999952316}]","5485.299999952316","","","","","","","","","","","","","","","","","","","","","","","",""
"pit-comprehension","105","771395","0.0-2.0-21.0-0.0","battery-v0.2","","""event"",""trial"",""time""
""fullscreenenter"",""1"",""2204""
","
","
","""event"",""trial"",""time""
""fullscreenenter"",""1"",""2204""
","
","","","7133.200000047684","[""10""]","0","21","14448","5985","","","","","","","","","","","","","","","","","","",""
"pit-instructions","106","773134","0.0-2.0-21.0-1.0","battery-v0.2","","""event"",""trial"",""time""
""fullscreenenter"",""1"",""2204""
","
","
","""event"",""trial"",""time""
""fullscreenenter"",""1"",""2204""
","
","","[{""page_index"":0,""viewing_time"":1690.7999999523163}]","1691.1999999284744","","","","","","","","","","","","","","","","","","","","","","","",""
"pit-comprehension","107","781383","0.0-2.0-22.0-0.0","battery-v0.2","","""event"",""trial"",""time""
""fullscreenenter"",""1"",""2204""
","
","
","""event"",""trial"",""time""
""fullscreenenter"",""1"",""2204""
","
","","","8246","[""0""]","0","21","14448","5985","","","","","","","","","","","","","","","","","","",""
"pit-instructions","108","782910","0.0-2.0-22.0-1.0","battery-v0.2","","""event"",""trial"",""time""
""fullscreenenter"",""1"",""2204""
","
","
","""event"",""trial"",""time""
""fullscreenenter"",""1"",""2204""
","
","","[{""page_index"":0,""viewing_time"":1491.0999999046326}]","1491.5999999046326","","","","","","","","","","","","","","","","","","","","","","","",""
"pit-comprehension","109","792179","0.0-2.0-23.0-0.0","battery-v0.2","","""event"",""trial"",""time""
""fullscreenenter"",""1"",""2204""
","
","
","""event"",""trial"",""time""
""fullscreenenter"",""1"",""2204""
","
","","","9264.899999976158","[""False""]","1","21","14448","5985","","","","","","","","","","","","","","","","","","",""
"pit-instructions","110","795795","0.0-2.0-23.0-1.0","battery-v0.2","","""event"",""trial"",""time""
""fullscreenenter"",""1"",""2204""
","
","
","""event"",""trial"",""time""
""fullscreenenter"",""1"",""2204""
","
","","[{""page_index"":0,""viewing_time"":3579.600000023842}]","3579.7999999523163","","","","","","","","","","","","","","","","","","","","","","","",""
"pit-instructions","111","800117","0.0-2.0-23.0-2.0-0.0","battery-v0.2","","""event"",""trial"",""time""
""fullscreenenter"",""1"",""2204""
","
","
","""event"",""trial"",""time""
""fullscreenenter"",""1"",""2204""
","
","","[{""page_index"":0,""viewing_time"":4320.299999952316}]","4320.5","","","","","","","","","","","","","","","","","","","","","","","",""
"pit-comprehension","112","808473","0.0-2.0-23.1-0.1","battery-v0.2","","""event"",""trial"",""time""
""fullscreenenter"",""1"",""2204""
","
","
","""event"",""trial"",""time""
""fullscreenenter"",""1"",""2204""
","
","","","8352.899999976158","[""True""]","0","21","14448","5985","","","","","","","","","","","","","","","","","","",""
"pit-instructions","113","810147","0.0-2.0-23.1-1.1","battery-v0.2","","""event"",""trial"",""time""
""fullscreenenter"",""1"",""2204""
","
","
","""event"",""trial"",""time""
""fullscreenenter"",""1"",""2204""
","
","","[{""page_index"":0,""viewing_time"":1633}]","1633.2999999523163","","","","","","","","","","","","","","","","","","","","","","","",""
"pit-comprehension","114","817524","0.0-2.0-24.0-0.0","battery-v0.2","","""event"",""trial"",""time""
""fullscreenenter"",""1"",""2204""
","
","
","""event"",""trial"",""time""
""fullscreenenter"",""1"",""2204""
","
","","","7372.799999952316","[""True""]","0","21","14448","5985","","","","","","","","","","","","","","","","","","",""
"pit-instructions","115","819112","0.0-2.0-24.0-1.0","battery-v0.2","","""event"",""trial"",""time""
""fullscreenenter"",""1"",""2204""
","
","
","""event"",""trial"",""time""
""fullscreenenter"",""1"",""2204""
","
","","[{""page_index"":0,""viewing_time"":1552.3000000715256}]","1552.7000000476837","","","","","","","","","","","","","","","","","","","","","","","",""
"pit-comprehension","116","825470","0.0-2.0-25.0-0.0","battery-v0.2","","""event"",""trial"",""time""
""fullscreenenter"",""1"",""2204""
","
","
","""event"",""trial"",""time""
""fullscreenenter"",""1"",""2204""
","
","","","6355.199999928474","[""True""]","0","21","14448","5985","","","","","","","","","","","","","","","","","","",""
"pit-instructions","117","827193","0.0-2.0-25.0-1.0","battery-v0.2","","""event"",""trial"",""time""
""fullscreenenter"",""1"",""2204""
","
","
","""event"",""trial"",""time""
""fullscreenenter"",""1"",""2204""
","
","","[{""page_index"":0,""viewing_time"":1681.9000000953674}]","1682.3000000715256","","","","","","","","","","","","","","","","","","","","","","","",""
"pit-comprehension","118","832052","0.0-2.0-26.0-0.0","battery-v0.2","","""event"",""trial"",""time""
""fullscreenenter"",""1"",""2204""
","
","
","""event"",""trial"",""time""
""fullscreenenter"",""1"",""2204""
","
","","","4854.899999976158","[""False""]","0","21","14448","5985","","","","","","","","","","","","","","","","","","",""
"pit-instructions","119","833555","0.0-2.0-26.0-1.0","battery-v0.2","","""event"",""trial"",""time""
""fullscreenenter"",""1"",""2204""
","
","
","""event"",""trial"",""time""
""fullscreenenter"",""1"",""2204""
","
","","[{""page_index"":0,""viewing_time"":1465.1000000238419}]","1465.4000000953674","","","","","","","","","","","","","","","","","","","","","","","",""
"pit-instructions","120","850472","0.0-3.0","battery-v0.2","","""event"",""trial"",""time""
""fullscreenenter"",""1"",""2204""
","
","
","""event"",""trial"",""time""
""fullscreenenter"",""1"",""2204""
","
","","[{""page_index"":0,""viewing_time"":4301.800000071526},{""page_index"":1,""viewing_time"":5278.199999928474},{""page_index"":2,""viewing_time"":7334}]","16914.5","","","","","","","","","","","","","","","","","","","","","","","",""
"pit-trial","121","854124","0.0-4.0","battery-v0.2","","""event"",""trial"",""time""
""fullscreenenter"",""1"",""2204""
","
","
","""event"",""trial"",""time""
""fullscreenenter"",""1"",""2204""
","
","","","792.6000000238419","","","21","14448","5985","&#9728;","elianto","#f73b6a7A","-1"," ","0","-10","[1643.6000000238419]","1","1","","","14448","1","0","4","lose","no-go","0"
"pit-trial","122","857845","0.0-5.0","battery-v0.2","","""event"",""trial"",""time""
""fullscreenenter"",""1"",""2204""
","
","
","""event"",""trial"",""time""
""fullscreenenter"",""1"",""2204""
","
","","","865.6000000238419","","","21","14448","5985","&#9733;","elianto","#3366ff99","-1"," ","0","0","[1715.8000000715256]","1","1","","","14448","2","2","2","win","no-go","0"
"pit-trial","123","861595","0.0-6.0","battery-v0.2","","""event"",""trial"",""time""
""fullscreenenter"",""1"",""2204""
","
","
","""event"",""trial"",""time""
""fullscreenenter"",""1"",""2204""
","
","","","892.3999999761581","","","21","14448","5985","&#9752;","elianto","#f73b6a7A"," "," ","1","0","[1743.5999999046326]","1","1","","","14448","3","3","3","lose","go","0"
"pit-trial","124","865790","0.0-7.0","battery-v0.2","","""event"",""trial"",""time""
""fullscreenenter"",""1"",""2204""
","
","
","""event"",""trial"",""time""
""fullscreenenter"",""1"",""2204""
","
","","","1338.4000000953674","","","21","14448","5985","&#9730;","elianto","#3366ff99"," "," ","1","+10","[2189]","1","1","","","14448","4","1","1","win","go","0"
"pit-trial","125","869720","0.0-8.0","battery-v0.2","","""event"",""trial"",""time""
""fullscreenenter"",""1"",""2204""
","
","
","""event"",""trial"",""time""
""fullscreenenter"",""1"",""2204""
","
","","","1074.5","","","21","14448","5985","&#9752;","elianto","#f73b6a7A"," "," ","1","0","[1924.8999999761581]","1","1","","","14448","5","3","3","lose","go","0"
"pit-trial","126","874575","0.0-9.0","battery-v0.2","","""event"",""trial"",""time""
""fullscreenenter"",""1"",""2204""
","
","
","""event"",""trial"",""time""
""fullscreenenter"",""1"",""2204""
","
","","","-1","","","21","14448","5985","&#9728;","elianto","#f73b6a7A","-1","-1","1","-10","[]","0","1","","","14448","6","0","4","lose","no-go","1"
"pit-trial","127","879430","0.0-10.0","battery-v0.2","","""event"",""trial"",""time""
""fullscreenenter"",""1"",""2204""
","
","
","""event"",""trial"",""time""
""fullscreenenter"",""1"",""2204""
","
","","","-1","","","21","14448","5985","&#9733;","elianto","#3366ff99","-1","-1","1","0","[]","0","1","","","14448","7","2","2","win","no-go","1"
"pit-trial","128","883266","0.0-11.0","battery-v0.2","","""event"",""trial"",""time""
""fullscreenenter"",""1"",""2204""
","
","
","""event"",""trial"",""time""
""fullscreenenter"",""1"",""2204""
","
","","","981.8000000715256","","","21","14448","5985","&#9730;","elianto","#3366ff99"," "," ","1","+10","[1832.2000000476837]","1","1","","","14448","8","1","1","win","go","0"
"pit-trial","129","887109","0.0-12.0","battery-v0.2","","""event"",""trial"",""time""
""fullscreenenter"",""1"",""2204""
","
","
","""event"",""trial"",""time""
""fullscreenenter"",""1"",""2204""
","
","","","987.2999999523163","","","21","14448","5985","&#9733;","elianto","#3366ff99","-1"," ","0","+10","[1838.7999999523163]","1","1","","","14448","9","2","2","win","no-go","1"
"pit-trial","130","891228","0.0-13.0","battery-v0.2","","""event"",""trial"",""time""
""fullscreenenter"",""1"",""2204""
","
","
","""event"",""trial"",""time""
""fullscreenenter"",""1"",""2204""
","
","","","1263","","","21","14448","5985","&#9728;","elianto","#f73b6a7A","-1"," ","0","-10","[2114.3000000715256]","1","1","","","14448","10","0","4","lose","no-go","0"
"pit-trial","131","896084","0.0-14.0","battery-v0.2","","""event"",""trial"",""time""
""fullscreenenter"",""1"",""2204""
","
","
","""event"",""trial"",""time""
""fullscreenenter"",""1"",""2204""
","
","","","-1","","","21","14448","5985","&#9752;","elianto","#f73b6a7A"," ","-1","0","-10","[2927]","1","1","","","14448","11","3","3","lose","go","0"
"pit-trial","132","899866","0.0-15.0","battery-v0.2","","""event"",""trial"",""time""
""fullscreenenter"",""1"",""2204""
","
","
","""event"",""trial"",""time""
""fullscreenenter"",""1"",""2204""
","
","","","925.1000000238419","","","21","14448","5985","&#9730;","elianto","#3366ff99"," "," ","1","+10","[1778]","1","1","","","14448","12","1","1","win","go","0"
"pit-trial","133","903721","0.0-16.0","battery-v0.2","","""event"",""trial"",""time""
""fullscreenenter"",""1"",""2204""
","
","
","""event"",""trial"",""time""
""fullscreenenter"",""1"",""2204""
","
","","","998.8999999761581","","","21","14448","5985","&#9733;","elianto","#3366ff99","-1"," ","0","+10","[1850.5]","1","1","","","14448","13","2","2","win","no-go","1"
"pit-trial","134","908575","0.0-17.0","battery-v0.2","","""event"",""trial"",""time""
""fullscreenenter"",""1"",""2204""
","
","
","""event"",""trial"",""time""
""fullscreenenter"",""1"",""2204""
","
","","","-1","","","21","14448","5985","&#9728;","elianto","#f73b6a7A","-1","-1","1","0","[]","0","1","","","14448","14","0","4","lose","no-go","0"
"pit-trial","135","913325","0.0-18.0","battery-v0.2","","""event"",""trial"",""time""
""fullscreenenter"",""1"",""2204""
","
","
","""event"",""trial"",""time""
""fullscreenenter"",""1"",""2204""
","
","","","1895.5","","","21","14448","5985","&#9752;","elianto","#f73b6a7A"," "," ","1","0","[107.89999997615814,2746.0999999046326]","2","1","","","14448","15","3","3","lose","go","0"
"pit-trial","136","917091","0.0-19.0","battery-v0.2","","""event"",""trial"",""time""
""fullscreenenter"",""1"",""2204""
","
","
","""event"",""trial"",""time""
""fullscreenenter"",""1"",""2204""
","
","","","911.6000000238419","","","21","14448","5985","&#9730;","elianto","#3366ff99"," "," ","1","0","[1762.8000000715256]","1","1","","","14448","16","1","1","win","go","1"
"pit-trial","137","921947","0.0-20.0","battery-v0.2","","""event"",""trial"",""time""
""fullscreenenter"",""1"",""2204""
","
","
","""event"",""trial"",""time""
""fullscreenenter"",""1"",""2204""
","
","","","-1","","","21","14448","5985","&#9728;","elianto","#f73b6a7A","-1","-1","1","0","[]","0","1","","","14448","17","0","4","lose","no-go","0"
"pit-trial","138","925631","0.0-21.0","battery-v0.2","","""event"",""trial"",""time""
""fullscreenenter"",""1"",""2204""
","
","
","""event"",""trial"",""time""
""fullscreenenter"",""1"",""2204""
","
","","","831","","","21","14448","5985","&#9752;","elianto","#f73b6a7A"," "," ","1","0","[1681.1000000238419]","1","1","","","14448","18","3","3","lose","go","0"
"pit-trial","139","929169","0.0-22.0","battery-v0.2","","""event"",""trial"",""time""
""fullscreenenter"",""1"",""2204""
","
","
","""event"",""trial"",""time""
""fullscreenenter"",""1"",""2204""
","
","","","680.2999999523163","","","21","14448","5985","&#9730;","elianto","#3366ff99"," "," ","1","+10","[1532]","1","1","","","14448","19","1","1","win","go","0"
"pit-trial","140","932687","0.0-23.0","battery-v0.2","","""event"",""trial"",""time""
""fullscreenenter"",""1"",""2204""
","
","
","""event"",""trial"",""time""
""fullscreenenter"",""1"",""2204""
","
","","","664.1999999284744","","","21","14448","5985","&#9733;","elianto","#3366ff99","-1"," ","0","0","[1514.8999999761581]","1","1","","","14448","20","2","2","win","no-go","0"
"pit-instructions","141","945465","0.0-24.0","battery-v0.2","","""event"",""trial"",""time""
""fullscreenenter"",""1"",""2204""
","
","
","""event"",""trial"",""time""
""fullscreenenter"",""1"",""2204""
","
","","[{""page_index"":0,""viewing_time"":5924.699999928474},{""page_index"":1,""viewing_time"":6849.600000023842}]","12774.599999904633","","","","","","","","","","","","","","","","","","","","","","","",""
"pit-trial","142","949097","0.0-25.0","battery-v0.2","","""event"",""trial"",""time""
""fullscreenenter"",""1"",""2204""
","
","
","""event"",""trial"",""time""
""fullscreenenter"",""1"",""2204""
","
","","","776.1000000238419","","","21","14448","5985","u","elianto","#f73b6a7A","-1"," ","0","-10","[1627.7000000476837]","1","2","","","14448","21","0","4","lose","no-go","0"
"pit-trial","143","952670","0.0-26.0","battery-v0.2","","""event"",""trial"",""time""
""fullscreenenter"",""1"",""2204""
","
","
","""event"",""trial"",""time""
""fullscreenenter"",""1"",""2204""
","
","","","718.1000000238419","","","21","14448","5985","g","elianto","#f73b6a7A"," "," ","1","0","[1568.5]","1","2","","","14448","22","3","3","lose","go","0"
"pit-trial","144","956509","0.0-27.0","battery-v0.2","","""event"",""trial"",""time""
""fullscreenenter"",""1"",""2204""
","
","
","""event"",""trial"",""time""
""fullscreenenter"",""1"",""2204""
","
","","","983.7000000476837","","","21","14448","5985","l","elianto","#3366ff99"," "," ","1","+10","[1834.3000000715256]","1","2","","","14448","23","1","1","win","go","0"
"pit-trial","145","960307","0.0-28.0","battery-v0.2","","""event"",""trial"",""time""
""fullscreenenter"",""1"",""2204""
","
","
","""event"",""trial"",""time""
""fullscreenenter"",""1"",""2204""
","
","","","942.2000000476837","","","21","14448","5985","a","elianto","#f73b6a7A","-1"," ","0","-10","[1792.6000000238419]","1","2","","","14448","24","2","4","lose","no-go","0"
"pit-trial","146","964132","0.0-29.0","battery-v0.2","","""event"",""trial"",""time""
""fullscreenenter"",""1"",""2204""
","
","
","""event"",""trial"",""time""
""fullscreenenter"",""1"",""2204""
","
","","","969.0999999046326","","","21","14448","5985","g","elianto","#f73b6a7A"," "," ","1","0","[1820]","1","2","","","14448","25","3","3","lose","go","0"
"pit-trial","147","968037","0.0-30.0","battery-v0.2","","""event"",""trial"",""time""
""fullscreenenter"",""1"",""2204""
","
","
","""event"",""trial"",""time""
""fullscreenenter"",""1"",""2204""
","
","","","1050.1000000238419","","","21","14448","5985","l","elianto","#3366ff99"," "," ","1","0","[1901.2999999523163]","1","2","","","14448","26","1","1","win","go","1"
"pit-trial","148","972077","0.0-31.0","battery-v0.2","","""event"",""trial"",""time""
""fullscreenenter"",""1"",""2204""
","
","
","""event"",""trial"",""time""
""fullscreenenter"",""1"",""2204""
","
","","","1177.9000000953674","","","21","14448","5985","a","elianto","#f73b6a7A","-1"," ","0","-10","[2034.1000000238419]","1","2","","","14448","27","2","4","lose","no-go","0"
"pit-trial","149","976933","0.0-32.0","battery-v0.2","","""event"",""trial"",""time""
""fullscreenenter"",""1"",""2204""
","
","
","""event"",""trial"",""time""
""fullscreenenter"",""1"",""2204""
","
","","","-1","","","21","14448","5985","u","elianto","#f73b6a7A","-1","-1","1","-10","[4476]","1","2","","","14448","28","0","4","lose","no-go","1"
"pit-trial","150","981045","0.0-33.0","battery-v0.2","","""event"",""trial"",""time""
""fullscreenenter"",""1"",""2204""
","
","
","""event"",""trial"",""time""
""fullscreenenter"",""1"",""2204""
","
","","","1256.3999999761581","","","21","14448","5985","u","elianto","#f73b6a7A","-1"," ","0","-10","[2107.5]","1","2","","","14448","29","0","4","lose","no-go","0"
"pit-trial","151","984927","0.0-34.0","battery-v0.2","","""event"",""trial"",""time""
""fullscreenenter"",""1"",""2204""
","
","
","""event"",""trial"",""time""
""fullscreenenter"",""1"",""2204""
","
","","","1027.6999999284744","","","21","14448","5985","g","elianto","#f73b6a7A"," "," ","1","0","[1877.7999999523163]","1","2","","","14448","30","3","3","lose","go","0"
"pit-trial","152","988436","0.0-35.0","battery-v0.2","","""event"",""trial"",""time""
""fullscreenenter"",""1"",""2204""
","
","
","""event"",""trial"",""time""
""fullscreenenter"",""1"",""2204""
","
","","","654.5","","","21","14448","5985","l","elianto","#3366ff99"," "," ","1","+10","[1505.7999999523163]","1","2","","","14448","31","1","1","win","go","0"
"pit-trial","153","993292","0.0-36.0","battery-v0.2","","""event"",""trial"",""time""
""fullscreenenter"",""1"",""2204""
","
","
","""event"",""trial"",""time""
""fullscreenenter"",""1"",""2204""
","
","","","-1","","","21","14448","5985","a","elianto","#f73b6a7A","-1","-1","1","0","[]","0","2","","","14448","32","2","4","lose","no-go","0"
"pit-trial","154","997173","0.0-37.0","battery-v0.2","","""event"",""trial"",""time""
""fullscreenenter"",""1"",""2204""
","
","
","""event"",""trial"",""time""
""fullscreenenter"",""1"",""2204""
","
","","","1025.3999999761581","","","21","14448","5985","g","elianto","#f73b6a7A"," "," ","1","0","[1876.3999999761581]","1","2","","","14448","33","3","3","lose","go","0"
"pit-trial","155","1002029","0.0-38.0","battery-v0.2","","""event"",""trial"",""time""
""fullscreenenter"",""1"",""2204""
","
","
","""event"",""trial"",""time""
""fullscreenenter"",""1"",""2204""
","
","","","-1","","","21","14448","5985","u","elianto","#f73b6a7A","-1","-1","1","0","[]","0","2","","","14448","34","0","4","lose","no-go","0"
"pit-trial","156","1006886","0.0-39.0","battery-v0.2","","""event"",""trial"",""time""
""fullscreenenter"",""1"",""2204""
","
","
","""event"",""trial"",""time""
""fullscreenenter"",""1"",""2204""
","
","","","-1","","","21","14448","5985","a","elianto","#f73b6a7A","-1","-1","1","0","[]","0","2","","","14448","35","2","4","lose","no-go","0"
"pit-trial","157","1010461","0.0-40.0","battery-v0.2","","""event"",""trial"",""time""
""fullscreenenter"",""1"",""2204""
","
","
","""event"",""trial"",""time""
""fullscreenenter"",""1"",""2204""
","
","","","718.7000000476837","","","21","14448","5985","l","elianto","#3366ff99"," "," ","1","+10","[1570.1000000238419]","1","2","","","14448","36","1","1","win","go","0"
"pit-trial","158","1014123","0.0-41.0","battery-v0.2","","""event"",""trial"",""time""
""fullscreenenter"",""1"",""2204""
","
","
","""event"",""trial"",""time""
""fullscreenenter"",""1"",""2204""
","
","","","807.1999999284744","","","21","14448","5985","l","elianto","#3366ff99"," "," ","1","+10","[1658]","1","2","","","14448","37","1","1","win","go","0"
"pit-trial","159","1018978","0.0-42.0","battery-v0.2","","""event"",""trial"",""time""
""fullscreenenter"",""1"",""2204""
","
","
","""event"",""trial"",""time""
""fullscreenenter"",""1"",""2204""
","
","","","-1","","","21","14448","5985","a","elianto","#f73b6a7A","-1","-1","1","-10","[]","0","2","","","14448","38","2","4","lose","no-go","1"
"pit-trial","160","1023835","0.0-43.0","battery-v0.2","","""event"",""trial"",""time""
""fullscreenenter"",""1"",""2204""
","
","
","""event"",""trial"",""time""
""fullscreenenter"",""1"",""2204""
","
","","","-1","","","21","14448","5985","u","elianto","#f73b6a7A","-1","-1","1","0","[]","0","2","","","14448","39","0","4","lose","no-go","0"
"pit-trial","161","1027515","0.0-44.0","battery-v0.2","","""event"",""trial"",""time""
""fullscreenenter"",""1"",""2204""
","
","
","""event"",""trial"",""time""
""fullscreenenter"",""1"",""2204""
","
","","","825.6999999284744","","","21","14448","5985","g","elianto","#f73b6a7A"," "," ","1","0","[1676.1999999284744]","1","2","","","14448","40","3","3","lose","go","0"
"pit-trial","162","1032371","0.0-45.0","battery-v0.2","","""event"",""trial"",""time""
""fullscreenenter"",""1"",""2204""
","
","
","""event"",""trial"",""time""
""fullscreenenter"",""1"",""2204""
","
","","","-1","","","21","14448","5985","a","elianto","#f73b6a7A","-1","-1","1","0","[]","0","2","","","14448","41","2","4","lose","no-go","0"
"pit-trial","163","1035829","0.0-46.0","battery-v0.2","","""event"",""trial"",""time""
""fullscreenenter"",""1"",""2204""
","
","
","""event"",""trial"",""time""
""fullscreenenter"",""1"",""2204""
","
","","","604.1000000238419","","","21","14448","5985","l","elianto","#3366ff99"," "," ","1","+10","[1454.0999999046326]","1","2","","","14448","42","1","1","win","go","0"
"pit-trial","164","1040685","0.0-47.0","battery-v0.2","","""event"",""trial"",""time""
""fullscreenenter"",""1"",""2204""
","
","
","""event"",""trial"",""time""
""fullscreenenter"",""1"",""2204""
","
","","","-1","","","21","14448","5985","u","elianto","#f73b6a7A","-1","-1","1","-10","[]","0","2","","","14448","43","0","4","lose","no-go","1"
"pit-trial","165","1044266","0.0-48.0","battery-v0.2","","""event"",""trial"",""time""
""fullscreenenter"",""1"",""2204""
","
","
","""event"",""trial"",""time""
""fullscreenenter"",""1"",""2204""
","
","","","724.6999999284744","","","21","14448","5985","g","elianto","#f73b6a7A"," "," ","1","0","[1576]","1","2","","","14448","44","3","3","lose","go","0"
"pit-trial","166","1049121","0.0-49.0","battery-v0.2","","""event"",""trial"",""time""
""fullscreenenter"",""1"",""2204""
","
","
","""event"",""trial"",""time""
""fullscreenenter"",""1"",""2204""
","
","","","-1","","","21","14448","5985","a","elianto","#f73b6a7A","-1","-1","1","0","[]","0","2","","","14448","45","2","4","lose","no-go","0"
"pit-trial","167","1053087","0.0-50.0","battery-v0.2","","""event"",""trial"",""time""
""fullscreenenter"",""1"",""2204""
","
","
","""event"",""trial"",""time""
""fullscreenenter"",""1"",""2204""
","
","","","1110.1000000238419","","","21","14448","5985","p","elianto","#3366ff99","-1"," ","0","0","[1962]","1","2","","","14448","46","4","2","win","no-go","0"
"pit-trial","168","1056879","0.0-51.0","battery-v0.2","","""event"",""trial"",""time""
""fullscreenenter"",""1"",""2204""
","
","
","""event"",""trial"",""time""
""fullscreenenter"",""1"",""2204""
","
","","","935.2000000476837","","","21","14448","5985","g","elianto","#f73b6a7A"," "," ","1","0","[1786.7000000476837]","1","2","","","14448","47","3","3","lose","go","0"
"pit-trial","169","1061734","0.0-52.0","battery-v0.2","","""event"",""trial"",""time""
""fullscreenenter"",""1"",""2204""
","
","
","""event"",""trial"",""time""
""fullscreenenter"",""1"",""2204""
","
","","","-1","","","21","14448","5985","u","elianto","#f73b6a7A","-1","-1","1","0","[]","0","2","","","14448","48","0","4","lose","no-go","0"
"pit-trial","170","1065245","0.0-53.0","battery-v0.2","","""event"",""trial"",""time""
""fullscreenenter"",""1"",""2204""
","
","
","""event"",""trial"",""time""
""fullscreenenter"",""1"",""2204""
","
","","","654.4000000953674","","","21","14448","5985","l","elianto","#3366ff99"," "," ","1","+10","[1505.2000000476837]","1","2","","","14448","49","1","1","win","go","0"
"pit-trial","171","1070101","0.0-54.0","battery-v0.2","","""event"",""trial"",""time""
""fullscreenenter"",""1"",""2204""
","
","
","""event"",""trial"",""time""
""fullscreenenter"",""1"",""2204""
","
","","","-1","","","21","14448","5985","p","elianto","#3366ff99","-1","-1","1","+10","[]","0","2","","","14448","50","4","2","win","no-go","0"
"pit-trial","172","1074957","0.0-55.0","battery-v0.2","","""event"",""trial"",""time""
""fullscreenenter"",""1"",""2204""
","
","
","""event"",""trial"",""time""
""fullscreenenter"",""1"",""2204""
","
","","","-1","","","21","14448","5985","u","elianto","#f73b6a7A","-1","-1","1","-10","[]","0","2","","","14448","51","0","4","lose","no-go","1"
"pit-trial","173","1078960","0.0-56.0","battery-v0.2","","""event"",""trial"",""time""
""fullscreenenter"",""1"",""2204""
","
","
","""event"",""trial"",""time""
""fullscreenenter"",""1"",""2204""
","
","","","1150.2000000476837","","","21","14448","5985","g","elianto","#f73b6a7A"," "," ","1","0","[2000.3999999761581]","1","2","","","14448","52","3","3","lose","go","0"
"pit-trial","174","1083816","0.0-57.0","battery-v0.2","","""event"",""trial"",""time""
""fullscreenenter"",""1"",""2204""
","
","
","""event"",""trial"",""time""
""fullscreenenter"",""1"",""2204""
","
","","","-1","","","21","14448","5985","a","elianto","#f73b6a7A","-1","-1","1","0","[]","0","2","","","14448","53","2","4","lose","no-go","0"
"pit-trial","175","1088672","0.0-58.0","battery-v0.2","","""event"",""trial"",""time""
""fullscreenenter"",""1"",""2204""
","
","
","""event"",""trial"",""time""
""fullscreenenter"",""1"",""2204""
","
","","","-1","","","21","14448","5985","u","elianto","#f73b6a7A","-1","-1","1","-10","[]","0","2","","","14448","54","0","4","lose","no-go","1"
"pit-trial","176","1092389","0.0-59.0","battery-v0.2","","""event"",""trial"",""time""
""fullscreenenter"",""1"",""2204""
","
","
","""event"",""trial"",""time""
""fullscreenenter"",""1"",""2204""
","
","","","861.3000000715256","","","21","14448","5985","p","elianto","#3366ff99","-1"," ","0","0","[1712.3999999761581]","1","2","","","14448","55","4","2","win","no-go","0"
"pit-trial","177","1096218","0.0-60.0","battery-v0.2","","""event"",""trial"",""time""
""fullscreenenter"",""1"",""2204""
","
","
","""event"",""trial"",""time""
""fullscreenenter"",""1"",""2204""
","
","","","974.5999999046326","","","21","14448","5985","l","elianto","#3366ff99"," "," ","1","+10","[1825.7999999523163]","1","2","","","14448","56","1","1","win","go","0"
"pit-trial","178","1101074","0.0-61.0","battery-v0.2","","""event"",""trial"",""time""
""fullscreenenter"",""1"",""2204""
","
","
","""event"",""trial"",""time""
""fullscreenenter"",""1"",""2204""
","
","","","-1","","","21","14448","5985","p","elianto","#3366ff99","-1","-1","1","+10","[]","0","2","","","14448","57","4","2","win","no-go","0"
"pit-trial","179","1105930","0.0-62.0","battery-v0.2","","""event"",""trial"",""time""
""fullscreenenter"",""1"",""2204""
","
","
","""event"",""trial"",""time""
""fullscreenenter"",""1"",""2204""
","
","","","-1","","","21","14448","5985","u","elianto","#f73b6a7A","-1","-1","1","0","[]","0","2","","","14448","58","0","4","lose","no-go","0"
"pit-trial","180","1109422","0.0-63.0","battery-v0.2","","""event"",""trial"",""time""
""fullscreenenter"",""1"",""2204""
","
","
","""event"",""trial"",""time""
""fullscreenenter"",""1"",""2204""
","
","","","637","","","21","14448","5985","l","elianto","#3366ff99"," "," ","1","+10","[1488.3999999761581]","1","2","","","14448","59","1","1","win","go","0"
"pit-trial","181","1113845","0.0-64.0","battery-v0.2","","""event"",""trial"",""time""
""fullscreenenter"",""1"",""2204""
","
","
","""event"",""trial"",""time""
""fullscreenenter"",""1"",""2204""
","
","","","1566.3999999761581","","","21","14448","5985","g","elianto","#f73b6a7A"," "," ","1","0","[2418]","1","2","","","14448","60","3","3","lose","go","0"
"pit-trial","182","1118700","0.0-65.0","battery-v0.2","","""event"",""trial"",""time""
""fullscreenenter"",""1"",""2204""
","
","
","""event"",""trial"",""time""
""fullscreenenter"",""1"",""2204""
","
","","","-1","","","21","14448","5985","p","elianto","#3366ff99","-1","-1","1","+10","[]","0","2","","","14448","61","4","2","win","no-go","0"
"pit-trial","183","1123089","0.0-66.0","battery-v0.2","","""event"",""trial"",""time""
""fullscreenenter"",""1"",""2204""
","
","
","""event"",""trial"",""time""
""fullscreenenter"",""1"",""2204""
","
","","","1533.8999999761581","","","21","14448","5985","g","elianto","#f73b6a7A"," "," ","1","0","[2384.899999976158]","1","2","","","14448","62","3","3","lose","go","0"
"pit-trial","184","1126563","0.0-67.0","battery-v0.2","","""event"",""trial"",""time""
""fullscreenenter"",""1"",""2204""
","
","
","""event"",""trial"",""time""
""fullscreenenter"",""1"",""2204""
","
","","","619.2999999523163","","","21","14448","5985","l","elianto","#3366ff99"," "," ","1","+10","[1470.6000000238419]","1","2","","","14448","63","1","1","win","go","0"
"pit-trial","185","1131420","0.0-68.0","battery-v0.2","","""event"",""trial"",""time""
""fullscreenenter"",""1"",""2204""
","
","
","""event"",""trial"",""time""
""fullscreenenter"",""1"",""2204""
","
","","","-1","","","21","14448","5985","a","elianto","#f73b6a7A","-1","-1","1","0","[]","0","2","","","14448","64","2","4","lose","no-go","0"
"pit-trial","186","1136276","0.0-69.0","battery-v0.2","","""event"",""trial"",""time""
""fullscreenenter"",""1"",""2204""
","
","
","""event"",""trial"",""time""
""fullscreenenter"",""1"",""2204""
","
","","","-1","","","21","14448","5985","a","elianto","#f73b6a7A","-1","-1","1","-10","[]","0","2","","","14448","65","2","4","lose","no-go","1"
"pit-trial","187","1141132","0.0-70.0","battery-v0.2","","""event"",""trial"",""time""
""fullscreenenter"",""1"",""2204""
","
","
","""event"",""trial"",""time""
""fullscreenenter"",""1"",""2204""
","
","","","-1","","","21","14448","5985","p","elianto","#3366ff99","-1","-1","1","+10","[]","0","2","","","14448","66","4","2","win","no-go","0"
"pit-trial","188","1144648","0.0-71.0","battery-v0.2","","""event"",""trial"",""time""
""fullscreenenter"",""1"",""2204""
","
","
","""event"",""trial"",""time""
""fullscreenenter"",""1"",""2204""
","
","","","662","","","21","14448","5985","l","elianto","#3366ff99"," "," ","1","0","[1513]","1","2","","","14448","67","1","1","win","go","1"
"pit-trial","189","1148358","0.0-72.0","battery-v0.2","","""event"",""trial"",""time""
""fullscreenenter"",""1"",""2204""
","
","
","""event"",""trial"",""time""
""fullscreenenter"",""1"",""2204""
","
","","","853.3999999761581","","","21","14448","5985","g","elianto","#f73b6a7A"," "," ","1","0","[1704.6000000238419]","1","2","","","14448","68","3","3","lose","go","0"
"pit-trial","190","1151938","0.0-73.0","battery-v0.2","","""event"",""trial"",""time""
""fullscreenenter"",""1"",""2204""
","
","
","""event"",""trial"",""time""
""fullscreenenter"",""1"",""2204""
","
","","","724.3999999761581","","","21","14448","5985","g","elianto","#f73b6a7A"," "," ","1","0","[1574.5]","1","2","","","14448","69","3","3","lose","go","0"
"pit-trial","191","1156150","0.0-74.0","battery-v0.2","","""event"",""trial"",""time""
""fullscreenenter"",""1"",""2204""
","
","
","""event"",""trial"",""time""
""fullscreenenter"",""1"",""2204""
","
","","","1356.7000000476837","","","21","14448","5985","s","elianto","#3366ff99"," "," ","1","+10","[2207.7999999523163]","1","2","","","14448","70","5","1","win","go","0"
"pit-trial","192","1159621","0.0-75.0","battery-v0.2","","""event"",""trial"",""time""
""fullscreenenter"",""1"",""2204""
","
","
","""event"",""trial"",""time""
""fullscreenenter"",""1"",""2204""
","
","","","616.7999999523163","","","21","14448","5985","l","elianto","#3366ff99"," "," ","1","0","[1468.2999999523163]","1","2","","","14448","71","1","1","win","go","1"
"pit-trial","193","1164478","0.0-76.0","battery-v0.2","","""event"",""trial"",""time""
""fullscreenenter"",""1"",""2204""
","
","
","""event"",""trial"",""time""
""fullscreenenter"",""1"",""2204""
","
","","","-1","","","21","14448","5985","p","elianto","#3366ff99","-1","-1","1","+10","[]","0","2","","","14448","72","4","2","win","no-go","0"
"pit-trial","194","1168203","0.0-77.0","battery-v0.2","","""event"",""trial"",""time""
""fullscreenenter"",""1"",""2204""
","
","
","""event"",""trial"",""time""
""fullscreenenter"",""1"",""2204""
","
","","","869.8999999761581","","","21","14448","5985","g","elianto","#f73b6a7A"," "," ","1","0","[1720.8999999761581]","1","2","","","14448","73","3","3","lose","go","0"
"pit-trial","195","1172849","0.0-78.0","battery-v0.2","","""event"",""trial"",""time""
""fullscreenenter"",""1"",""2204""
","
","
","""event"",""trial"",""time""
""fullscreenenter"",""1"",""2204""
","
","","","1789.1999999284744","","","21","14448","5985","s","elianto","#3366ff99"," "," ","1","0","[2641.7999999523163]","1","2","","","14448","74","5","1","win","go","1"
"pit-trial","196","1176297","0.0-79.0","battery-v0.2","","""event"",""trial"",""time""
""fullscreenenter"",""1"",""2204""
","
","
","""event"",""trial"",""time""
""fullscreenenter"",""1"",""2204""
","
","","","591.8000000715256","","","21","14448","5985","l","elianto","#3366ff99"," "," ","1","0","[1443.2000000476837]","1","2","","","14448","75","1","1","win","go","1"
"pit-trial","197","1181152","0.0-80.0","battery-v0.2","","""event"",""trial"",""time""
""fullscreenenter"",""1"",""2204""
","
","
","""event"",""trial"",""time""
""fullscreenenter"",""1"",""2204""
","
","","","-1","","","21","14448","5985","p","elianto","#3366ff99","-1","-1","1","+10","[]","0","2","","","14448","76","4","2","win","no-go","0"
"pit-trial","198","1186008","0.0-81.0","battery-v0.2","","""event"",""trial"",""time""
""fullscreenenter"",""1"",""2204""
","
","
","""event"",""trial"",""time""
""fullscreenenter"",""1"",""2204""
","
","","","-1","","","21","14448","5985","p","elianto","#3366ff99","-1","-1","1","+10","[]","0","2","","","14448","77","4","2","win","no-go","0"
"pit-trial","199","1189655","0.0-82.0","battery-v0.2","","""event"",""trial"",""time""
""fullscreenenter"",""1"",""2204""
","
","
","""event"",""trial"",""time""
""fullscreenenter"",""1"",""2204""
","
","","","793.6000000238419","","","21","14448","5985","g","elianto","#f73b6a7A"," "," ","1","0","[1644.7999999523163]","1","2","","","14448","78","3","3","lose","go","0"
"pit-trial","200","1193648","0.0-83.0","battery-v0.2","","""event"",""trial"",""time""
""fullscreenenter"",""1"",""2204""
","
","
","""event"",""trial"",""time""
""fullscreenenter"",""1"",""2204""
","
","","","1137.5","","","21","14448","5985","w","elianto","#f73b6a7A","-1"," ","0","-10","[1988.7000000476837]","1","2","","","14448","79","6","4","lose","no-go","0"
"pit-trial","201","1197928","0.0-84.0","battery-v0.2","","""event"",""trial"",""time""
""fullscreenenter"",""1"",""2204""
","
","
","""event"",""trial"",""time""
""fullscreenenter"",""1"",""2204""
","
","","","1424.3999999761581","","","21","14448","5985","s","elianto","#3366ff99"," "," ","1","+10","[2275.399999976158]","1","2","","","14448","80","5","1","win","go","0"
"pit-trial","202","1202784","0.0-85.0","battery-v0.2","","""event"",""trial"",""time""
""fullscreenenter"",""1"",""2204""
","
","
","""event"",""trial"",""time""
""fullscreenenter"",""1"",""2204""
","
","","","-1","","","21","14448","5985","p","elianto","#3366ff99","-1","-1","1","0","[]","0","2","","","14448","81","4","2","win","no-go","1"
"pit-trial","203","1207325","0.0-86.0","battery-v0.2","","""event"",""trial"",""time""
""fullscreenenter"",""1"",""2204""
","
","
","""event"",""trial"",""time""
""fullscreenenter"",""1"",""2204""
","
","","","1686","","","21","14448","5985","w","elianto","#f73b6a7A","-1"," ","0","-10","[2537]","1","2","","","14448","82","6","4","lose","no-go","0"
"pit-trial","204","1211092","0.0-87.0","battery-v0.2","","""event"",""trial"",""time""
""fullscreenenter"",""1"",""2204""
","
","
","""event"",""trial"",""time""
""fullscreenenter"",""1"",""2204""
","
","","","913.2000000476837","","","21","14448","5985","s","elianto","#3366ff99"," "," ","1","+10","[1763.7999999523163]","1","2","","","14448","83","5","1","win","go","0"
"pit-trial","205","1215266","0.0-88.0","battery-v0.2","","""event"",""trial"",""time""
""fullscreenenter"",""1"",""2204""
","
","
","""event"",""trial"",""time""
""fullscreenenter"",""1"",""2204""
","
","","","1318.2999999523163","","","21","14448","5985","e","elianto","#f73b6a7A"," "," ","1","0","[2168.7000000476837]","1","2","","","14448","84","7","3","lose","go","0"
"pit-trial","206","1220123","0.0-89.0","battery-v0.2","","""event"",""trial"",""time""
""fullscreenenter"",""1"",""2204""
","
","
","""event"",""trial"",""time""
""fullscreenenter"",""1"",""2204""
","
","","","-1","","","21","14448","5985","p","elianto","#3366ff99","-1","-1","1","+10","[]","0","2","","","14448","85","4","2","win","no-go","0"
"pit-trial","207","1224980","0.0-90.0","battery-v0.2","","""event"",""trial"",""time""
""fullscreenenter"",""1"",""2204""
","
","
","""event"",""trial"",""time""
""fullscreenenter"",""1"",""2204""
","
","","","-1","","","21","14448","5985","w","elianto","#f73b6a7A","-1","-1","1","0","[]","0","2","","","14448","86","6","4","lose","no-go","0"
"pit-trial","208","1228700","0.0-91.0","battery-v0.2","","""event"",""trial"",""time""
""fullscreenenter"",""1"",""2204""
","
","
","""event"",""trial"",""time""
""fullscreenenter"",""1"",""2204""
","
","","","866.1000000238419","","","21","14448","5985","s","elianto","#3366ff99"," "," ","1","+10","[1717.5]","1","2","","","14448","87","5","1","win","go","0"
"pit-trial","209","1233314","0.0-92.0","battery-v0.2","","""event"",""trial"",""time""
""fullscreenenter"",""1"",""2204""
","
","
","""event"",""trial"",""time""
""fullscreenenter"",""1"",""2204""
","
","","","1759.1000000238419","","","21","14448","5985","e","elianto","#f73b6a7A"," "," ","1","0","[2609.3000000715256]","1","2","","","14448","88","7","3","lose","go","0"
"pit-trial","210","1238170","0.0-93.0","battery-v0.2","","""event"",""trial"",""time""
""fullscreenenter"",""1"",""2204""
","
","
","""event"",""trial"",""time""
""fullscreenenter"",""1"",""2204""
","
","","","-1","","","21","14448","5985","w","elianto","#f73b6a7A","-1","-1","1","0","[]","0","2","","","14448","89","6","4","lose","no-go","0"
"pit-trial","211","1243026","0.0-94.0","battery-v0.2","","""event"",""trial"",""time""
""fullscreenenter"",""1"",""2204""
","
","
","""event"",""trial"",""time""
""fullscreenenter"",""1"",""2204""
","
","","","-1","","","21","14448","5985","p","elianto","#3366ff99","-1","-1","1","0","[]","0","2","","","14448","90","4","2","win","no-go","1"
"pit-trial","212","1246674","0.0-95.0","battery-v0.2","","""event"",""trial"",""time""
""fullscreenenter"",""1"",""2204""
","
","
","""event"",""trial"",""time""
""fullscreenenter"",""1"",""2204""
","
","","","794.3999999761581","","","21","14448","5985","s","elianto","#3366ff99"," "," ","1","0","[1645.1000000238419]","1","2","","","14448","91","5","1","win","go","1"
"pit-trial","213","1250644","0.0-96.0","battery-v0.2","","""event"",""trial"",""time""
""fullscreenenter"",""1"",""2204""
","
","
","""event"",""trial"",""time""
""fullscreenenter"",""1"",""2204""
","
","","","1116.2999999523163","","","21","14448","5985","e","elianto","#f73b6a7A"," "," ","1","-10","[1966.7000000476837]","1","2","","","14448","92","7","3","lose","go","1"
"pit-trial","214","1254478","0.0-97.0","battery-v0.2","","""event"",""trial"",""time""
""fullscreenenter"",""1"",""2204""
","
","
","""event"",""trial"",""time""
""fullscreenenter"",""1"",""2204""
","
","","","977.2999999523163","","","21","14448","5985","s","elianto","#3366ff99"," "," ","1","+10","[1828.5]","1","2","","","14448","93","5","1","win","go","0"
"pit-trial","215","1258350","0.0-98.0","battery-v0.2","","""event"",""trial"",""time""
""fullscreenenter"",""1"",""2204""
","
","
","""event"",""trial"",""time""
""fullscreenenter"",""1"",""2204""
","
","","","1018.1000000238419","","","21","14448","5985","d","elianto","#3366ff99","-1"," ","0","0","[1868.8999999761581]","1","2","","","14448","94","8","2","win","no-go","0"
"pit-trial","216","1262482","0.0-99.0","battery-v0.2","","""event"",""trial"",""time""
""fullscreenenter"",""1"",""2204""
","
","
","""event"",""trial"",""time""
""fullscreenenter"",""1"",""2204""
","
","","","1276.2000000476837","","","21","14448","5985","e","elianto","#f73b6a7A"," "," ","1","0","[2127.399999976158]","1","2","","","14448","95","7","3","lose","go","0"
"pit-trial","217","1267339","0.0-100.0","battery-v0.2","","""event"",""trial"",""time""
""fullscreenenter"",""1"",""2204""
","
","
","""event"",""trial"",""time""
""fullscreenenter"",""1"",""2204""
","
","","","-1","","","21","14448","5985","w","elianto","#f73b6a7A","-1","-1","1","0","[]","0","2","","","14448","96","6","4","lose","no-go","0"
"pit-trial","218","1271308","0.0-101.0","battery-v0.2","","""event"",""trial"",""time""
""fullscreenenter"",""1"",""2204""
","
","
","""event"",""trial"",""time""
""fullscreenenter"",""1"",""2204""
","
","","","1115.4000000953674","","","21","14448","5985","d","elianto","#3366ff99","-1"," ","0","0","[1966.3000000715256]","1","2","","","14448","97","8","2","win","no-go","0"
"pit-trial","219","1276163","0.0-102.0","battery-v0.2","","""event"",""trial"",""time""
""fullscreenenter"",""1"",""2204""
","
","
","""event"",""trial"",""time""
""fullscreenenter"",""1"",""2204""
","
","","","-1","","","21","14448","5985","w","elianto","#f73b6a7A","-1","-1","1","0","[]","0","2","","","14448","98","6","4","lose","no-go","0"
"pit-trial","220","1279897","0.0-103.0","battery-v0.2","","""event"",""trial"",""time""
""fullscreenenter"",""1"",""2204""
","
","
","""event"",""trial"",""time""
""fullscreenenter"",""1"",""2204""
","
","","","879.5","","","21","14448","5985","s","elianto","#3366ff99"," "," ","1","+10","[1730]","1","2","","","14448","99","5","1","win","go","0"
"pit-trial","221","1283752","0.0-104.0","battery-v0.2","","""event"",""trial"",""time""
""fullscreenenter"",""1"",""2204""
","
","
","""event"",""trial"",""time""
""fullscreenenter"",""1"",""2204""
","
","","","998.7999999523163","","","21","14448","5985","e","elianto","#f73b6a7A"," "," ","1","0","[1849.8999999761581]","1","2","","","14448","100","7","3","lose","go","0"
"pit-trial","222","1288608","0.0-105.0","battery-v0.2","","""event"",""trial"",""time""
""fullscreenenter"",""1"",""2204""
","
","
","""event"",""trial"",""time""
""fullscreenenter"",""1"",""2204""
","
","","","-1","","","21","14448","5985","d","elianto","#3366ff99","-1","-1","1","+10","[]","0","2","","","14448","101","8","2","win","no-go","0"
"pit-trial","223","1292496","0.0-106.0","battery-v0.2","","""event"",""trial"",""time""
""fullscreenenter"",""1"",""2204""
","
","
","""event"",""trial"",""time""
""fullscreenenter"",""1"",""2204""
","
","","","1034.2999999523163","","","21","14448","5985","j","elianto","#3366ff99","-1"," ","0","0","[1884.5]","1","2","","","14448","102","9","2","win","no-go","0"
"pit-trial","224","1296176","0.0-107.0","battery-v0.2","","""event"",""trial"",""time""
""fullscreenenter"",""1"",""2204""
","
","
","""event"",""trial"",""time""
""fullscreenenter"",""1"",""2204""
","
","","","825","","","21","14448","5985","s","elianto","#3366ff99"," "," ","1","+10","[1675.8999999761581]","1","2","","","14448","103","5","1","win","go","0"
"pit-trial","225","1301033","0.0-108.0","battery-v0.2","","""event"",""trial"",""time""
""fullscreenenter"",""1"",""2204""
","
","
","""event"",""trial"",""time""
""fullscreenenter"",""1"",""2204""
","
","","","-1","","","21","14448","5985","w","elianto","#f73b6a7A","-1","-1","1","0","[]","0","2","","","14448","104","6","4","lose","no-go","0"
"pit-trial","226","1305887","0.0-109.0","battery-v0.2","","""event"",""trial"",""time""
""fullscreenenter"",""1"",""2204""
","
","
","""event"",""trial"",""time""
""fullscreenenter"",""1"",""2204""
","
","","","-1","","","21","14448","5985","w","elianto","#f73b6a7A","-1","-1","1","0","[]","0","2","","","14448","105","6","4","lose","no-go","0"
"pit-trial","227","1310095","0.0-110.0","battery-v0.2","","""event"",""trial"",""time""
""fullscreenenter"",""1"",""2204""
","
","
","""event"",""trial"",""time""
""fullscreenenter"",""1"",""2204""
","
","","","1353.8999999761581","","","21","14448","5985","j","elianto","#3366ff99","-1"," ","0","0","[2204.399999976158]","1","2","","","14448","106","9","2","win","no-go","0"
"pit-trial","228","1314527","0.0-111.0","battery-v0.2","","""event"",""trial"",""time""
""fullscreenenter"",""1"",""2204""
","
","
","""event"",""trial"",""time""
""fullscreenenter"",""1"",""2204""
","
","","","1577.0999999046326","","","21","14448","5985","d","elianto","#3366ff99","-1"," ","0","+10","[2428.2999999523163]","1","2","","","14448","107","8","2","win","no-go","1"
"pit-trial","229","1317936","0.0-112.0","battery-v0.2","","""event"",""trial"",""time""
""fullscreenenter"",""1"",""2204""
","
","
","""event"",""trial"",""time""
""fullscreenenter"",""1"",""2204""
","
","","","554.8999999761581","","","21","14448","5985","s","elianto","#3366ff99"," "," ","1","+10","[1405.3999999761581]","1","2","","","14448","108","5","1","win","go","0"
"pit-trial","230","1321681","0.0-113.0","battery-v0.2","","""event"",""trial"",""time""
""fullscreenenter"",""1"",""2204""
","
","
","""event"",""trial"",""time""
""fullscreenenter"",""1"",""2204""
","
","","","889.7000000476837","","","21","14448","5985","j","elianto","#3366ff99","-1"," ","0","0","[1740.7000000476837]","1","2","","","14448","109","9","2","win","no-go","0"
"pit-trial","231","1325131","0.0-114.0","battery-v0.2","","""event"",""trial"",""time""
""fullscreenenter"",""1"",""2204""
","
","
","""event"",""trial"",""time""
""fullscreenenter"",""1"",""2204""
","
","","","592.7000000476837","","","21","14448","5985","s","elianto","#3366ff99"," "," ","1","+10","[1444.6000000238419]","1","2","","","14448","110","5","1","win","go","0"
"pit-trial","232","1329988","0.0-115.0","battery-v0.2","","""event"",""trial"",""time""
""fullscreenenter"",""1"",""2204""
","
","
","""event"",""trial"",""time""
""fullscreenenter"",""1"",""2204""
","
","","","-1","","","21","14448","5985","w","elianto","#f73b6a7A","-1","-1","1","-10","[]","0","2","","","14448","111","6","4","lose","no-go","1"
"pit-trial","233","1333839","0.0-116.0","battery-v0.2","","""event"",""trial"",""time""
""fullscreenenter"",""1"",""2204""
","
","
","""event"",""trial"",""time""
""fullscreenenter"",""1"",""2204""
","
","","","996.8000000715256","","","21","14448","5985","d","elianto","#3366ff99","-1"," ","0","0","[1848.6000000238419]","1","2","","","14448","112","8","2","win","no-go","0"
"pit-trial","234","1337484","0.0-117.0","battery-v0.2","","""event"",""trial"",""time""
""fullscreenenter"",""1"",""2204""
","
","
","""event"",""trial"",""time""
""fullscreenenter"",""1"",""2204""
","
","","","790","","","21","14448","5985","s","elianto","#3366ff99"," "," ","1","0","[1640.2000000476837]","1","2","","","14448","113","5","1","win","go","1"
"pit-trial","235","1342329","0.0-118.0","battery-v0.2","","""event"",""trial"",""time""
""fullscreenenter"",""1"",""2204""
","
","
","""event"",""trial"",""time""
""fullscreenenter"",""1"",""2204""
","
","","","1642.5","","","21","14448","5985","j","elianto","#3366ff99","-1"," ","0","+10","[2492.899999976158]","1","2","","","14448","114","9","2","win","no-go","1"
"pit-trial","236","1347184","0.0-119.0","battery-v0.2","","""event"",""trial"",""time""
""fullscreenenter"",""1"",""2204""
","
","
","""event"",""trial"",""time""
""fullscreenenter"",""1"",""2204""
","
","","","-1","","","21","14448","5985","d","elianto","#3366ff99","-1","-1","1","+10","[]","0","2","","","14448","115","8","2","win","no-go","0"
"pit-trial","237","1351147","0.0-120.0","battery-v0.2","","""event"",""trial"",""time""
""fullscreenenter"",""1"",""2204""
","
","
","""event"",""trial"",""time""
""fullscreenenter"",""1"",""2204""
","
","","","1107.2999999523163","","","21","14448","5985","e","elianto","#f73b6a7A"," "," ","1","0","[1958.7999999523163]","1","2","","","14448","116","7","3","lose","go","0"
"pit-trial","238","1356003","0.0-121.0","battery-v0.2","","""event"",""trial"",""time""
""fullscreenenter"",""1"",""2204""
","
","
","""event"",""trial"",""time""
""fullscreenenter"",""1"",""2204""
","
","","","-1","","","21","14448","5985","d","elianto","#3366ff99","-1","-1","1","+10","[]","0","2","","","14448","117","8","2","win","no-go","0"
"pit-trial","239","1359649","0.0-122.0","battery-v0.2","","""event"",""trial"",""time""
""fullscreenenter"",""1"",""2204""
","
","
","""event"",""trial"",""time""
""fullscreenenter"",""1"",""2204""
","
","","","791.1000000238419","","","21","14448","5985","s","elianto","#3366ff99"," "," ","1","+10","[1642.3000000715256]","1","2","","","14448","118","5","1","win","go","0"
"pit-trial","240","1364504","0.0-123.0","battery-v0.2","","""event"",""trial"",""time""
""fullscreenenter"",""1"",""2204""
","
","
","""event"",""trial"",""time""
""fullscreenenter"",""1"",""2204""
","
","","","-1","","","21","14448","5985","w","elianto","#f73b6a7A","-1","-1","1","0","[]","0","2","","","14448","119","6","4","lose","no-go","0"
"pit-trial","241","1368998","0.0-124.0","battery-v0.2","","""event"",""trial"",""time""
""fullscreenenter"",""1"",""2204""
","
","
","""event"",""trial"",""time""
""fullscreenenter"",""1"",""2204""
","
","","","1639.5","","","21","14448","5985","j","elianto","#3366ff99","-1"," ","0","0","[2490.2999999523163]","1","2","","","14448","120","9","2","win","no-go","0"
"pit-trial","242","1373854","0.0-125.0","battery-v0.2","","""event"",""trial"",""time""
""fullscreenenter"",""1"",""2204""
","
","
","""event"",""trial"",""time""
""fullscreenenter"",""1"",""2204""
","
","","","-1","","","21","14448","5985","j","elianto","#3366ff99","-1","-1","1","+10","[]","0","2","","","14448","121","9","2","win","no-go","0"
"pit-trial","243","1377584","0.0-126.0","battery-v0.2","","""event"",""trial"",""time""
""fullscreenenter"",""1"",""2204""
","
","
","""event"",""trial"",""time""
""fullscreenenter"",""1"",""2204""
","
","","","875.2000000476837","","","21","14448","5985","s","elianto","#3366ff99"," "," ","1","0","[1725.7999999523163]","1","2","","","14448","122","5","1","win","go","1"
"pit-trial","244","1382439","0.0-127.0","battery-v0.2","","""event"",""trial"",""time""
""fullscreenenter"",""1"",""2204""
","
","
","""event"",""trial"",""time""
""fullscreenenter"",""1"",""2204""
","
","","","-1","","","21","14448","5985","d","elianto","#3366ff99","-1","-1","1","+10","[]","0","2","","","14448","123","8","2","win","no-go","0"
"pit-trial","245","1386146","0.0-128.0","battery-v0.2","","""event"",""trial"",""time""
""fullscreenenter"",""1"",""2204""
","
","
","""event"",""trial"",""time""
""fullscreenenter"",""1"",""2204""
","
","","","850.5","","","21","14448","5985","e","elianto","#f73b6a7A"," "," ","1","0","[1701]","1","2","","","14448","124","7","3","lose","go","0"
"pit-trial","246","1391002","0.0-129.0","battery-v0.2","","""event"",""trial"",""time""
""fullscreenenter"",""1"",""2204""
","
","
","""event"",""trial"",""time""
""fullscreenenter"",""1"",""2204""
","
","","","-1","","","21","14448","5985","d","elianto","#3366ff99","-1","-1","1","+10","[]","0","2","","","14448","125","8","2","win","no-go","0"
"pit-trial","247","1395858","0.0-130.0","battery-v0.2","","""event"",""trial"",""time""
""fullscreenenter"",""1"",""2204""
","
","
","""event"",""trial"",""time""
""fullscreenenter"",""1"",""2204""
","
","","","-1","","","21","14448","5985","w","elianto","#f73b6a7A","-1","-1","1","0","[]","0","2","","","14448","126","6","4","lose","no-go","0"
"pit-trial","248","1399491","0.0-131.0","battery-v0.2","","""event"",""trial"",""time""
""fullscreenenter"",""1"",""2204""
","
","
","""event"",""trial"",""time""
""fullscreenenter"",""1"",""2204""
","
","","","779.2999999523163","","","21","14448","5985","e","elianto","#f73b6a7A"," "," ","1","-10","[1630.2999999523163]","1","2","","","14448","127","7","3","lose","go","1"
"pit-trial","249","1404348","0.0-132.0","battery-v0.2","","""event"",""trial"",""time""
""fullscreenenter"",""1"",""2204""
","
","
","""event"",""trial"",""time""
""fullscreenenter"",""1"",""2204""
","
","","","-1","","","21","14448","5985","j","elianto","#3366ff99","-1","-1","1","+10","[]","0","2","","","14448","128","9","2","win","no-go","0"
"pit-trial","250","1409205","0.0-133.0","battery-v0.2","","""event"",""trial"",""time""
""fullscreenenter"",""1"",""2204""
","
","
","""event"",""trial"",""time""
""fullscreenenter"",""1"",""2204""
","
","","","-1","","","21","14448","5985","j","elianto","#3366ff99","-1","-1","1","+10","[]","0","2","","","14448","129","9","2","win","no-go","0"
"pit-trial","251","1413522","0.0-134.0","battery-v0.2","","""event"",""trial"",""time""
""fullscreenenter"",""1"",""2204""
","
","
","""event"",""trial"",""time""
""fullscreenenter"",""1"",""2204""
","
","","","1462","","","21","14448","5985","d","elianto","#3366ff99","-1"," ","0","0","[2312.7999999523163]","1","2","","","14448","130","8","2","win","no-go","0"
"pit-trial","252","1417047","0.0-135.0","battery-v0.2","","""event"",""trial"",""time""
""fullscreenenter"",""1"",""2204""
","
","
","""event"",""trial"",""time""
""fullscreenenter"",""1"",""2204""
","
","","","669.3999999761581","","","21","14448","5985","e","elianto","#f73b6a7A"," "," ","1","0","[1520]","1","2","","","14448","131","7","3","lose","go","0"
"pit-trial","253","1421900","0.0-136.0","battery-v0.2","","""event"",""trial"",""time""
""fullscreenenter"",""1"",""2204""
","
","
","""event"",""trial"",""time""
""fullscreenenter"",""1"",""2204""
","
","","","-1","","","21","14448","5985","w","elianto","#f73b6a7A","-1","-1","1","-10","[]","0","2","","","14448","132","6","4","lose","no-go","1"
"pit-trial","254","1425418","0.0-137.0","battery-v0.2","","""event"",""trial"",""time""
""fullscreenenter"",""1"",""2204""
","
","
","""event"",""trial"",""time""
""fullscreenenter"",""1"",""2204""
","
","","","663","","","21","14448","5985","e","elianto","#f73b6a7A"," "," ","1","-10","[1514.1000000238419]","1","2","","","14448","133","7","3","lose","go","1"
"pit-trial","255","1430273","0.0-138.0","battery-v0.2","","""event"",""trial"",""time""
""fullscreenenter"",""1"",""2204""
","
","
","""event"",""trial"",""time""
""fullscreenenter"",""1"",""2204""
","
","","","-1","","","21","14448","5985","j","elianto","#3366ff99","-1","-1","1","0","[]","0","2","","","14448","134","9","2","win","no-go","1"
"pit-trial","256","1434644","0.0-139.0","battery-v0.2","","""event"",""trial"",""time""
""fullscreenenter"",""1"",""2204""
","
","
","""event"",""trial"",""time""
""fullscreenenter"",""1"",""2204""
","
","","","1516.9000000953674","","","21","14448","5985","w","elianto","#f73b6a7A","-1"," ","0","-10","[2367.9000000953674]","1","2","","","14448","135","6","4","lose","no-go","0"
"pit-trial","257","1439500","0.0-140.0","battery-v0.2","","""event"",""trial"",""time""
""fullscreenenter"",""1"",""2204""
","
","
","""event"",""trial"",""time""
""fullscreenenter"",""1"",""2204""
","
","","","-1","","","21","14448","5985","d","elianto","#3366ff99","-1","-1","1","+10","[]","0","2","","","14448","136","8","2","win","no-go","0"
"pit-trial","258","1444355","0.0-141.0","battery-v0.2","","""event"",""trial"",""time""
""fullscreenenter"",""1"",""2204""
","
","
","""event"",""trial"",""time""
""fullscreenenter"",""1"",""2204""
","
","","","-1","","","21","14448","5985","d","elianto","#3366ff99","-1","-1","1","+10","[]","0","2","","","14448","137","8","2","win","no-go","0"
"pit-trial","259","1449210","0.0-142.0","battery-v0.2","","""event"",""trial"",""time""
""fullscreenenter"",""1"",""2204""
","
","
","""event"",""trial"",""time""
""fullscreenenter"",""1"",""2204""
","
","","","-1","","","21","14448","5985","j","elianto","#3366ff99","-1","-1","1","+10","[]","0","2","","","14448","138","9","2","win","no-go","0"
"pit-trial","260","1452828","0.0-143.0","battery-v0.2","","""event"",""trial"",""time""
""fullscreenenter"",""1"",""2204""
","
","
","""event"",""trial"",""time""
""fullscreenenter"",""1"",""2204""
","
","","","764.7000000476837","","","21","14448","5985","e","elianto","#f73b6a7A"," "," ","1","-10","[1615]","1","2","","","14448","139","7","3","lose","go","1"
"pit-trial","261","1457684","0.0-144.0","battery-v0.2","","""event"",""trial"",""time""
""fullscreenenter"",""1"",""2204""
","
","
","""event"",""trial"",""time""
""fullscreenenter"",""1"",""2204""
","
","","","-1","","","21","14448","5985","w","elianto","#f73b6a7A","-1","-1","1","0","[]","0","2","","","14448","140","6","4","lose","no-go","0"
"pit-instructions","262","1530439","0.0-145.0","battery-v0.2","","""event"",""trial"",""time""
""fullscreenenter"",""1"",""2204""
","
","
","""event"",""trial"",""time""
""fullscreenenter"",""1"",""2204""
","
","","[{""page_index"":0,""viewing_time"":64650},{""page_index"":1,""viewing_time"":8102}]","72752.5","","","","","","","","","","","","","","","","","","","","","","","",""
"pit-trial","263","1534779","0.0-146.0","battery-v0.2","","""event"",""trial"",""time""
""fullscreenenter"",""1"",""2204""
","
","
","""event"",""trial"",""time""
""fullscreenenter"",""1"",""2204""
","
","","","1481.5999999046326","","","21","14448","5985","n","elianto","#f73b6a7A"," "," ","1","0","[2331.899999976158]","1","3","","","14448","141","0","3","lose","go","0"
"pit-trial","264","1538941","0.0-147.0","battery-v0.2","","""event"",""trial"",""time""
""fullscreenenter"",""1"",""2204""
","
","
","""event"",""trial"",""time""
""fullscreenenter"",""1"",""2204""
","
","","","1305.7999999523163","","","21","14448","5985","t","elianto","#f73b6a7A"," "," ","1","0","[2156.5]","1","3","","","14448","142","2","3","lose","go","0"
"pit-trial","265","1543797","0.0-148.0","battery-v0.2","","""event"",""trial"",""time""
""fullscreenenter"",""1"",""2204""
","
","
","""event"",""trial"",""time""
""fullscreenenter"",""1"",""2204""
","
","","","-1","","","21","14448","5985","b","elianto","#f73b6a7A","-1","-1","1","-10","[]","0","3","","","14448","143","3","4","lose","no-go","1"
"pit-trial","266","1547626","0.0-149.0","battery-v0.2","","""event"",""trial"",""time""
""fullscreenenter"",""1"",""2204""
","
","
","""event"",""trial"",""time""
""fullscreenenter"",""1"",""2204""
","
