"trial_type","trial_index","time_elapsed","internal_node_id","task_version","subject_id","interactions","blur_events","focus_events","fullscreenenter_events","fullscreenexit_events","success","view_history","rt","responses","num_errors","age","subject","participantId","rune","rune_set","hex","correct","choice","accuracy","outcome","keys","total_keys","block","practice","value","sub","trial","stimulus","robot","valence","action","sham"
"pavlovia","0","5","0.0-0.0","battery-v0.2","","""event"",""trial"",""time""
""fullscreenenter"",""1"",""1909""
","
","
","""event"",""trial"",""time""
""fullscreenenter"",""1"",""1909""
","
","","","","","","","","","","","","","","","","","","","","","","","","","","",""
"fullscreen","1","2908","0.0-1.0","battery-v0.2","","""event"",""trial"",""time""
""fullscreenenter"",""1"",""1909""
""fullscreenexit"",""2"",""3337""
","
","
","""event"",""trial"",""time""
""fullscreenenter"",""1"",""1909""
","""event"",""trial"",""time""
""fullscreenexit"",""2"",""3337""
","true","","","","","","","","","","","","","","","","","","","","","","","","","",""
"pit-instructions","2","9906","0.0-2.0-0.0","battery-v0.2","","""event"",""trial"",""time""
""fullscreenenter"",""1"",""1909""
""fullscreenexit"",""2"",""3337""
","
","
","""event"",""trial"",""time""
""fullscreenenter"",""1"",""1909""
","""event"",""trial"",""time""
""fullscreenexit"",""2"",""3337""
","","[{""page_index"":0,""viewing_time"":6997.0999999940395}]","6997.4000000059605","","","","","","","","","","","","","","","","","","","","","","","",""
"pit-comprehension","3","15017","0.0-2.0-1.0-0.0","battery-v0.2","","""event"",""trial"",""time""
""fullscreenenter"",""1"",""1909""
""fullscreenexit"",""2"",""3337""
","
","
","""event"",""trial"",""time""
""fullscreenenter"",""1"",""1909""
","""event"",""trial"",""time""
""fullscreenexit"",""2"",""3337""
","","","5108.4000000059605","[""shark""]","0","18","5959","1120","","","","","","","","","","","","","","","","","","",""
"pit-instructions","4","17340","0.0-2.0-1.0-1.0","battery-v0.2","","""event"",""trial"",""time""
""fullscreenenter"",""1"",""1909""
""fullscreenexit"",""2"",""3337""
","
","
","""event"",""trial"",""time""
""fullscreenenter"",""1"",""1909""
","""event"",""trial"",""time""
""fullscreenexit"",""2"",""3337""
","","[{""page_index"":0,""viewing_time"":2301.600000023842}]","2301.9000000059605","","","","","","","","","","","","","","","","","","","","","","","",""
"pit-comprehension","5","20239","0.0-2.0-2.0-0.0","battery-v0.2","","""event"",""trial"",""time""
""fullscreenenter"",""1"",""1909""
""fullscreenexit"",""2"",""3337""
","
","
","""event"",""trial"",""time""
""fullscreenenter"",""1"",""1909""
","""event"",""trial"",""time""
""fullscreenexit"",""2"",""3337""
","","","2895.5999999940395","[""tiger""]","0","18","5959","1120","","","","","","","","","","","","","","","","","","",""
"pit-instructions","6","21978","0.0-2.0-2.0-1.0","battery-v0.2","","""event"",""trial"",""time""
""fullscreenenter"",""1"",""1909""
""fullscreenexit"",""2"",""3337""
""blur"",""7"",""100909""
""focus"",""7"",""108918""
""blur"",""7"",""117052""
""focus"",""7"",""126022""
","""event"",""trial"",""time""
""blur"",""7"",""100909""
""blur"",""7"",""117052""
","""event"",""trial"",""time""
""focus"",""7"",""108918""
""focus"",""7"",""126022""
","""event"",""trial"",""time""
""fullscreenenter"",""1"",""1909""
","""event"",""trial"",""time""
""fullscreenexit"",""2"",""3337""
","","[{""page_index"":0,""viewing_time"":1735.5}]","1735.7000000178814","","","","","","","","","","","","","","","","","","","","","","","",""
"pit-instructions","7","141064","0.0-2.0-3.0","battery-v0.2","","""event"",""trial"",""time""
""fullscreenenter"",""1"",""1909""
""fullscreenexit"",""2"",""3337""
""blur"",""7"",""100909""
""focus"",""7"",""108918""
""blur"",""7"",""117052""
""focus"",""7"",""126022""
","""event"",""trial"",""time""
""blur"",""7"",""100909""
""blur"",""7"",""117052""
","""event"",""trial"",""time""
""focus"",""7"",""108918""
""focus"",""7"",""126022""
","""event"",""trial"",""time""
""fullscreenenter"",""1"",""1909""
","""event"",""trial"",""time""
""fullscreenexit"",""2"",""3337""
","","[{""page_index"":0,""viewing_time"":8566.90000000596},{""page_index"":1,""viewing_time"":9125},{""page_index"":2,""viewing_time"":7584.699999988079},{""page_index"":3,""viewing_time"":5559.4000000059605},{""page_index"":4,""viewing_time"":6664.800000011921},{""page_index"":5,""viewing_time"":7969},{""page_index"":6,""viewing_time"":5347.5},{""page_index"":7,""viewing_time"":8151.5999999940395},{""page_index"":8,""viewing_time"":7136.4000000059605},{""page_index"":9,""viewing_time"":8730.59999999404},{""page_index"":10,""viewing_time"":13391.09999999404},{""page_index"":11,""viewing_time"":16521.09999999404},{""page_index"":12,""viewing_time"":6678.200000017881},{""page_index"":13,""viewing_time"":7659.699999988079}]","119086.59999999404","","","","","","","","","","","","","","","","","","","","","","","",""
"pit-trial","8","144676","0.0-2.0-4.0-0.0","battery-v0.2","","""event"",""trial"",""time""
""fullscreenenter"",""1"",""1909""
""fullscreenexit"",""2"",""3337""
""blur"",""7"",""100909""
""focus"",""7"",""108918""
""blur"",""7"",""117052""
""focus"",""7"",""126022""
","""event"",""trial"",""time""
""blur"",""7"",""100909""
""blur"",""7"",""117052""
","""event"",""trial"",""time""
""focus"",""7"",""108918""
""focus"",""7"",""126022""
","""event"",""trial"",""time""
""fullscreenenter"",""1"",""1909""
","""event"",""trial"",""time""
""fullscreenexit"",""2"",""3337""
","","","747.1999999880791","","","18","5959","1120","&#9784;","elianto","#FFFFF080"," "," ","1","&#10004","[1599.699999988079]","1","0","0","","","","","","","",""
"pit-trial","9","148275","0.0-2.0-4.1-0.1","battery-v0.2","","""event"",""trial"",""time""
""fullscreenenter"",""1"",""1909""
""fullscreenexit"",""2"",""3337""
""blur"",""7"",""100909""
""focus"",""7"",""108918""
""blur"",""7"",""117052""
""focus"",""7"",""126022""
","""event"",""trial"",""time""
""blur"",""7"",""100909""
""blur"",""7"",""117052""
","""event"",""trial"",""time""
""focus"",""7"",""108918""
""focus"",""7"",""126022""
","""event"",""trial"",""time""
""fullscreenenter"",""1"",""1909""
","""event"",""trial"",""time""
""fullscreenexit"",""2"",""3337""
","","","732","","","18","5959","1120","&#9784;","elianto","#FFFFF080"," "," ","1","&#10004","[1590.0999999940395]","1","0","0","","","","","","","",""
"pit-trial","10","151675","0.0-2.0-4.2-0.2","battery-v0.2","","""event"",""trial"",""time""
""fullscreenenter"",""1"",""1909""
""fullscreenexit"",""2"",""3337""
""blur"",""7"",""100909""
""focus"",""7"",""108918""
""blur"",""7"",""117052""
""focus"",""7"",""126022""
","""event"",""trial"",""time""
""blur"",""7"",""100909""
""blur"",""7"",""117052""
","""event"",""trial"",""time""
""focus"",""7"",""108918""
""focus"",""7"",""126022""
","""event"",""trial"",""time""
""fullscreenenter"",""1"",""1909""
","""event"",""trial"",""time""
""fullscreenexit"",""2"",""3337""
","","","541.7999999821186","","","18","5959","1120","&#9784;","elianto","#FFFFF080"," "," ","1","&#10004","[1392.699999988079]","1","0","0","","","","","","","",""
"pit-trial","11","155161","0.0-2.0-4.3-0.3","battery-v0.2","","""event"",""trial"",""time""
""fullscreenenter"",""1"",""1909""
""fullscreenexit"",""2"",""3337""
""blur"",""7"",""100909""
""focus"",""7"",""108918""
""blur"",""7"",""117052""
""focus"",""7"",""126022""
","""event"",""trial"",""time""
""blur"",""7"",""100909""
""blur"",""7"",""117052""
","""event"",""trial"",""time""
""focus"",""7"",""108918""
""focus"",""7"",""126022""
","""event"",""trial"",""time""
""fullscreenenter"",""1"",""1909""
","""event"",""trial"",""time""
""fullscreenexit"",""2"",""3337""
","","","628.5","","","18","5959","1120","&#9784;","elianto","#FFFFF080"," "," ","1","&#10004","[1480]","1","0","0","","","","","","","",""
"pit-trial","12","158521","0.0-2.0-4.4-0.4","battery-v0.2","","""event"",""trial"",""time""
""fullscreenenter"",""1"",""1909""
""fullscreenexit"",""2"",""3337""
""blur"",""7"",""100909""
""focus"",""7"",""108918""
""blur"",""7"",""117052""
""focus"",""7"",""126022""
","""event"",""trial"",""time""
""blur"",""7"",""100909""
""blur"",""7"",""117052""
","""event"",""trial"",""time""
""focus"",""7"",""108918""
""focus"",""7"",""126022""
","""event"",""trial"",""time""
""fullscreenenter"",""1"",""1909""
","""event"",""trial"",""time""
""fullscreenexit"",""2"",""3337""
","","","505.5","","","18","5959","1120","&#9784;","elianto","#FFFFF080"," "," ","1","&#10004","[1355.5]","1","0","0","","","","","","","",""
"pit-instructions","13","196181","0.0-2.0-5.0","battery-v0.2","","""event"",""trial"",""time""
""fullscreenenter"",""1"",""1909""
""fullscreenexit"",""2"",""3337""
""blur"",""7"",""100909""
""focus"",""7"",""108918""
""blur"",""7"",""117052""
""focus"",""7"",""126022""
""blur"",""14"",""198638""
","""event"",""trial"",""time""
""blur"",""7"",""100909""
""blur"",""7"",""117052""
""blur"",""14"",""198638""
","""event"",""trial"",""time""
""focus"",""7"",""108918""
""focus"",""7"",""126022""
","""event"",""trial"",""time""
""fullscreenenter"",""1"",""1909""
","""event"",""trial"",""time""
""fullscreenexit"",""2"",""3337""
","","[{""page_index"":0,""viewing_time"":10470.40000000596},{""page_index"":1,""viewing_time"":11687.5},{""page_index"":2,""viewing_time"":6887.9000000059605},{""page_index"":3,""viewing_time"":8607.899999976158}]","37654.09999999404","","","","","","","","","","","","","","","","","","","","","","","",""
"pit-trial","14","201051","0.0-2.0-6.0-0.0","battery-v0.2","","""event"",""trial"",""time""
""fullscreenenter"",""1"",""1909""
""fullscreenexit"",""2"",""3337""
""blur"",""7"",""100909""
""focus"",""7"",""108918""
""blur"",""7"",""117052""
""focus"",""7"",""126022""
""blur"",""14"",""198638""
","""event"",""trial"",""time""
""blur"",""7"",""100909""
""blur"",""7"",""117052""
""blur"",""14"",""198638""
","""event"",""trial"",""time""
""focus"",""7"",""108918""
""focus"",""7"",""126022""
","""event"",""trial"",""time""
""fullscreenenter"",""1"",""1909""
","""event"",""trial"",""time""
""fullscreenexit"",""2"",""3337""
","","","-1","","","18","5959","1120","&#9854;","elianto","#FFFFF080","-1","-1","1","&#10004","[]","0","0","1","","","","","","","",""
"pit-trial","15","205922","0.0-2.0-6.1-0.1","battery-v0.2","","""event"",""trial"",""time""
""fullscreenenter"",""1"",""1909""
""fullscreenexit"",""2"",""3337""
""blur"",""7"",""100909""
""focus"",""7"",""108918""
""blur"",""7"",""117052""
""focus"",""7"",""126022""
""blur"",""14"",""198638""
","""event"",""trial"",""time""
""blur"",""7"",""100909""
""blur"",""7"",""117052""
""blur"",""14"",""198638""
","""event"",""trial"",""time""
""focus"",""7"",""108918""
""focus"",""7"",""126022""
","""event"",""trial"",""time""
""fullscreenenter"",""1"",""1909""
","""event"",""trial"",""time""
""fullscreenexit"",""2"",""3337""
","","","-1","","","18","5959","1120","&#9854;","elianto","#FFFFF080","-1","-1","1","&#10004","[]","0","0","1","","","","","","","",""
"pit-trial","16","210779","0.0-2.0-6.2-0.2","battery-v0.2","","""event"",""trial"",""time""
""fullscreenenter"",""1"",""1909""
""fullscreenexit"",""2"",""3337""
""blur"",""7"",""100909""
""focus"",""7"",""108918""
""blur"",""7"",""117052""
""focus"",""7"",""126022""
""blur"",""14"",""198638""
","""event"",""trial"",""time""
""blur"",""7"",""100909""
""blur"",""7"",""117052""
""blur"",""14"",""198638""
","""event"",""trial"",""time""
""focus"",""7"",""108918""
""focus"",""7"",""126022""
","""event"",""trial"",""time""
""fullscreenenter"",""1"",""1909""
","""event"",""trial"",""time""
""fullscreenexit"",""2"",""3337""
","","","-1","","","18","5959","1120","&#9854;","elianto","#FFFFF080","-1","-1","1","&#10004","[]","0","0","1","","","","","","","",""
"pit-trial","17","215635","0.0-2.0-6.3-0.3","battery-v0.2","","""event"",""trial"",""time""
""fullscreenenter"",""1"",""1909""
""fullscreenexit"",""2"",""3337""
""blur"",""7"",""100909""
""focus"",""7"",""108918""
""blur"",""7"",""117052""
""focus"",""7"",""126022""
""blur"",""14"",""198638""
","""event"",""trial"",""time""
""blur"",""7"",""100909""
""blur"",""7"",""117052""
""blur"",""14"",""198638""
","""event"",""trial"",""time""
""focus"",""7"",""108918""
""focus"",""7"",""126022""
","""event"",""trial"",""time""
""fullscreenenter"",""1"",""1909""
","""event"",""trial"",""time""
""fullscreenexit"",""2"",""3337""
","","","-1","","","18","5959","1120","&#9854;","elianto","#FFFFF080","-1","-1","1","&#10004","[]","0","0","1","","","","","","","",""
"pit-trial","18","220495","0.0-2.0-6.4-0.4","battery-v0.2","","""event"",""trial"",""time""
""fullscreenenter"",""1"",""1909""
""fullscreenexit"",""2"",""3337""
""blur"",""7"",""100909""
""focus"",""7"",""108918""
""blur"",""7"",""117052""
""focus"",""7"",""126022""
""blur"",""14"",""198638""
""focus"",""19"",""239118""
""blur"",""19"",""246288""
""focus"",""19"",""251215""
""blur"",""19"",""277314""
""focus"",""19"",""284844""
""blur"",""19"",""293837""
""focus"",""19"",""310914""
""blur"",""19"",""342648""
""focus"",""19"",""347119""
""blur"",""19"",""350360""
""focus"",""19"",""362536""
""blur"",""19"",""386514""
""focus"",""19"",""394138""
""blur"",""19"",""433425""
""focus"",""19"",""435054""
","""event"",""trial"",""time""
""blur"",""7"",""100909""
""blur"",""7"",""117052""
""blur"",""14"",""198638""
""blur"",""19"",""246288""
""blur"",""19"",""277314""
""blur"",""19"",""293837""
""blur"",""19"",""342648""
""blur"",""19"",""350360""
""blur"",""19"",""386514""
""blur"",""19"",""433425""
","""event"",""trial"",""time""
""focus"",""7"",""108918""
""focus"",""7"",""126022""
""focus"",""19"",""239118""
""focus"",""19"",""251215""
""focus"",""19"",""284844""
""focus"",""19"",""310914""
""focus"",""19"",""347119""
""focus"",""19"",""362536""
""focus"",""19"",""394138""
""focus"",""19"",""435054""
","""event"",""trial"",""time""
""fullscreenenter"",""1"",""1909""
","""event"",""trial"",""time""
""fullscreenexit"",""2"",""3337""
","","","-1","","","18","5959","1120","&#9854;","elianto","#FFFFF080","-1","-1","1","&#10004","[]","0","0","1","","","","","","","",""
"pit-instructions","19","446834","0.0-2.0-7.0","battery-v0.2","","""event"",""trial"",""time""
""fullscreenenter"",""1"",""1909""
""fullscreenexit"",""2"",""3337""
""blur"",""7"",""100909""
""focus"",""7"",""108918""
""blur"",""7"",""117052""
""focus"",""7"",""126022""
""blur"",""14"",""198638""
""focus"",""19"",""239118""
""blur"",""19"",""246288""
""focus"",""19"",""251215""
""blur"",""19"",""277314""
""focus"",""19"",""284844""
""blur"",""19"",""293837""
""focus"",""19"",""310914""
""blur"",""19"",""342648""
""focus"",""19"",""347119""
""blur"",""19"",""350360""
""focus"",""19"",""362536""
""blur"",""19"",""386514""
""focus"",""19"",""394138""
""blur"",""19"",""433425""
""focus"",""19"",""435054""
","""event"",""trial"",""time""
""blur"",""7"",""100909""
""blur"",""7"",""117052""
""blur"",""14"",""198638""
""blur"",""19"",""246288""
""blur"",""19"",""277314""
""blur"",""19"",""293837""
""blur"",""19"",""342648""
""blur"",""19"",""350360""
""blur"",""19"",""386514""
""blur"",""19"",""433425""
","""event"",""trial"",""time""
""focus"",""7"",""108918""
""focus"",""7"",""126022""
""focus"",""19"",""239118""
""focus"",""19"",""251215""
""focus"",""19"",""284844""
""focus"",""19"",""310914""
""focus"",""19"",""347119""
""focus"",""19"",""362536""
""focus"",""19"",""394138""
""focus"",""19"",""435054""
","""event"",""trial"",""time""
""fullscreenenter"",""1"",""1909""
","""event"",""trial"",""time""
""fullscreenexit"",""2"",""3337""
","","[{""page_index"":0,""viewing_time"":19603.40000000596},{""page_index"":1,""viewing_time"":11809.09999999404},{""page_index"":2,""viewing_time"":9023.90000000596},{""page_index"":3,""viewing_time"":7283.5},{""page_index"":4,""viewing_time"":6801.699999988079},{""page_index"":5,""viewing_time"":14018.09999999404},{""page_index"":6,""viewing_time"":22536.80000001192},{""page_index"":7,""viewing_time"":8287.40000000596},{""page_index"":8,""viewing_time"":19391},{""page_index"":9,""viewing_time"":8610.59999999404},{""page_index"":10,""viewing_time"":15393.800000011921},{""page_index"":11,""viewing_time"":4883.0999999940395},{""page_index"":12,""viewing_time"":14366.09999999404},{""page_index"":13,""viewing_time"":13447.199999988079},{""page_index"":14,""viewing_time"":14825.800000011921},{""page_index"":15,""viewing_time"":12921.09999999404},{""page_index"":16,""viewing_time"":6921.700000017881},{""page_index"":17,""viewing_time"":16228.899999976158}]","226354","","","","","","","","","","","","","","","","","","","","","","","",""
"pit-trial","20","450165","0.0-2.0-8.0-0.0","battery-v0.2","","""event"",""trial"",""time""
""fullscreenenter"",""1"",""1909""
""fullscreenexit"",""2"",""3337""
""blur"",""7"",""100909""
""focus"",""7"",""108918""
""blur"",""7"",""117052""
""focus"",""7"",""126022""
""blur"",""14"",""198638""
""focus"",""19"",""239118""
""blur"",""19"",""246288""
""focus"",""19"",""251215""
""blur"",""19"",""277314""
""focus"",""19"",""284844""
""blur"",""19"",""293837""
""focus"",""19"",""310914""
""blur"",""19"",""342648""
""focus"",""19"",""347119""
""blur"",""19"",""350360""
""focus"",""19"",""362536""
""blur"",""19"",""386514""
""focus"",""19"",""394138""
""blur"",""19"",""433425""
""focus"",""19"",""435054""
","""event"",""trial"",""time""
""blur"",""7"",""100909""
""blur"",""7"",""117052""
""blur"",""14"",""198638""
""blur"",""19"",""246288""
""blur"",""19"",""277314""
""blur"",""19"",""293837""
""blur"",""19"",""342648""
""blur"",""19"",""350360""
""blur"",""19"",""386514""
""blur"",""19"",""433425""
","""event"",""trial"",""time""
""focus"",""7"",""108918""
""focus"",""7"",""126022""
""focus"",""19"",""239118""
""focus"",""19"",""251215""
""focus"",""19"",""284844""
""focus"",""19"",""310914""
""focus"",""19"",""347119""
""focus"",""19"",""362536""
""focus"",""19"",""394138""
""focus"",""19"",""435054""
","""event"",""trial"",""time""
""fullscreenenter"",""1"",""1909""
","""event"",""trial"",""time""
""fullscreenexit"",""2"",""3337""
","","","463.69999998807907","","","18","5959","1120","&#9776;","elianto","#3366ff99"," "," ","1","+10","[1316.9000000059605]","1","0","1","","","","","","","",""
"pit-trial","21","453563","0.0-2.0-8.0-1.0","battery-v0.2","","""event"",""trial"",""time""
""fullscreenenter"",""1"",""1909""
""fullscreenexit"",""2"",""3337""
""blur"",""7"",""100909""
""focus"",""7"",""108918""
""blur"",""7"",""117052""
""focus"",""7"",""126022""
""blur"",""14"",""198638""
""focus"",""19"",""239118""
""blur"",""19"",""246288""
""focus"",""19"",""251215""
""blur"",""19"",""277314""
""focus"",""19"",""284844""
""blur"",""19"",""293837""
""focus"",""19"",""310914""
""blur"",""19"",""342648""
""focus"",""19"",""347119""
""blur"",""19"",""350360""
""focus"",""19"",""362536""
""blur"",""19"",""386514""
""focus"",""19"",""394138""
""blur"",""19"",""433425""
""focus"",""19"",""435054""
","""event"",""trial"",""time""
""blur"",""7"",""100909""
""blur"",""7"",""117052""
""blur"",""14"",""198638""
""blur"",""19"",""246288""
""blur"",""19"",""277314""
""blur"",""19"",""293837""
""blur"",""19"",""342648""
""blur"",""19"",""350360""
""blur"",""19"",""386514""
""blur"",""19"",""433425""
","""event"",""trial"",""time""
""focus"",""7"",""108918""
""focus"",""7"",""126022""
""focus"",""19"",""239118""
""focus"",""19"",""251215""
""focus"",""19"",""284844""
""focus"",""19"",""310914""
""focus"",""19"",""347119""
""focus"",""19"",""362536""
""focus"",""19"",""394138""
""focus"",""19"",""435054""
","""event"",""trial"",""time""
""fullscreenenter"",""1"",""1909""
","""event"",""trial"",""time""
""fullscreenexit"",""2"",""3337""
","","","528.7999999821186","","","18","5959","1120","&#9776;","elianto","#3366ff99"," "," ","1","+10","[1389.5]","1","0","1","","","","","","","",""
"pit-trial","22","456990","0.0-2.0-8.0-2.0","battery-v0.2","","""event"",""trial"",""time""
""fullscreenenter"",""1"",""1909""
""fullscreenexit"",""2"",""3337""
""blur"",""7"",""100909""
""focus"",""7"",""108918""
""blur"",""7"",""117052""
""focus"",""7"",""126022""
""blur"",""14"",""198638""
""focus"",""19"",""239118""
""blur"",""19"",""246288""
""focus"",""19"",""251215""
""blur"",""19"",""277314""
""focus"",""19"",""284844""
""blur"",""19"",""293837""
""focus"",""19"",""310914""
""blur"",""19"",""342648""
""focus"",""19"",""347119""
""blur"",""19"",""350360""
""focus"",""19"",""362536""
""blur"",""19"",""386514""
""focus"",""19"",""394138""
""blur"",""19"",""433425""
""focus"",""19"",""435054""
","""event"",""trial"",""time""
""blur"",""7"",""100909""
""blur"",""7"",""117052""
""blur"",""14"",""198638""
""blur"",""19"",""246288""
""blur"",""19"",""277314""
""blur"",""19"",""293837""
""blur"",""19"",""342648""
""blur"",""19"",""350360""
""blur"",""19"",""386514""
""blur"",""19"",""433425""
","""event"",""trial"",""time""
""focus"",""7"",""108918""
""focus"",""7"",""126022""
""focus"",""19"",""239118""
""focus"",""19"",""251215""
""focus"",""19"",""284844""
""focus"",""19"",""310914""
""focus"",""19"",""347119""
""focus"",""19"",""362536""
""focus"",""19"",""394138""
""focus"",""19"",""435054""
","""event"",""trial"",""time""
""fullscreenenter"",""1"",""1909""
","""event"",""trial"",""time""
""fullscreenexit"",""2"",""3337""
","","","557.3000000119209","","","18","5959","1120","&#9776;","elianto","#3366ff99"," "," ","1","+10","[1414.4000000059605]","1","0","1","","","","","","","",""
"pit-trial","23","460325","0.0-2.0-8.0-3.0","battery-v0.2","","""event"",""trial"",""time""
""fullscreenenter"",""1"",""1909""
""fullscreenexit"",""2"",""3337""
""blur"",""7"",""100909""
""focus"",""7"",""108918""
""blur"",""7"",""117052""
""focus"",""7"",""126022""
""blur"",""14"",""198638""
""focus"",""19"",""239118""
""blur"",""19"",""246288""
""focus"",""19"",""251215""
""blur"",""19"",""277314""
""focus"",""19"",""284844""
""blur"",""19"",""293837""
""focus"",""19"",""310914""
""blur"",""19"",""342648""
""focus"",""19"",""347119""
""blur"",""19"",""350360""
""focus"",""19"",""362536""
""blur"",""19"",""386514""
""focus"",""19"",""394138""
""blur"",""19"",""433425""
""focus"",""19"",""435054""
","""event"",""trial"",""time""
""blur"",""7"",""100909""
""blur"",""7"",""117052""
""blur"",""14"",""198638""
""blur"",""19"",""246288""
""blur"",""19"",""277314""
""blur"",""19"",""293837""
""blur"",""19"",""342648""
""blur"",""19"",""350360""
""blur"",""19"",""386514""
""blur"",""19"",""433425""
","""event"",""trial"",""time""
""focus"",""7"",""108918""
""focus"",""7"",""126022""
""focus"",""19"",""239118""
""focus"",""19"",""251215""
""focus"",""19"",""284844""
""focus"",""19"",""310914""
""focus"",""19"",""347119""
""focus"",""19"",""362536""
""focus"",""19"",""394138""
""focus"",""19"",""435054""
","""event"",""trial"",""time""
""fullscreenenter"",""1"",""1909""
","""event"",""trial"",""time""
""fullscreenexit"",""2"",""3337""
","","","474.59999999403954","","","18","5959","1120","&#9776;","elianto","#3366ff99"," "," ","1","0","[1328.2999999821186]","1","0","1","","","","","","","",""
"pit-trial","24","463463","0.0-2.0-8.0-4.0","battery-v0.2","","""event"",""trial"",""time""
""fullscreenenter"",""1"",""1909""
""fullscreenexit"",""2"",""3337""
""blur"",""7"",""100909""
""focus"",""7"",""108918""
""blur"",""7"",""117052""
""focus"",""7"",""126022""
""blur"",""14"",""198638""
""focus"",""19"",""239118""
""blur"",""19"",""246288""
""focus"",""19"",""251215""
""blur"",""19"",""277314""
""focus"",""19"",""284844""
""blur"",""19"",""293837""
""focus"",""19"",""310914""
""blur"",""19"",""342648""
""focus"",""19"",""347119""
""blur"",""19"",""350360""
""focus"",""19"",""362536""
""blur"",""19"",""386514""
""focus"",""19"",""394138""
""blur"",""19"",""433425""
""focus"",""19"",""435054""
","""event"",""trial"",""time""
""blur"",""7"",""100909""
""blur"",""7"",""117052""
""blur"",""14"",""198638""
""blur"",""19"",""246288""
""blur"",""19"",""277314""
""blur"",""19"",""293837""
""blur"",""19"",""342648""
""blur"",""19"",""350360""
""blur"",""19"",""386514""
""blur"",""19"",""433425""
","""event"",""trial"",""time""
""focus"",""7"",""108918""
""focus"",""7"",""126022""
""focus"",""19"",""239118""
""focus"",""19"",""251215""
""focus"",""19"",""284844""
""focus"",""19"",""310914""
""focus"",""19"",""347119""
""focus"",""19"",""362536""
""focus"",""19"",""394138""
""focus"",""19"",""435054""
","""event"",""trial"",""time""
""fullscreenenter"",""1"",""1909""
","""event"",""trial"",""time""
""fullscreenexit"",""2"",""3337""
","","","267.5","","","18","5959","1120","&#9776;","elianto","#3366ff99"," "," ","1","+10","[1126.0999999940395]","1","0","1","","","","","","","",""
"pit-trial","25","467156","0.0-2.0-8.1-0.1","battery-v0.2","","""event"",""trial"",""time""
""fullscreenenter"",""1"",""1909""
""fullscreenexit"",""2"",""3337""
""blur"",""7"",""100909""
""focus"",""7"",""108918""
""blur"",""7"",""117052""
""focus"",""7"",""126022""
""blur"",""14"",""198638""
""focus"",""19"",""239118""
""blur"",""19"",""246288""
""focus"",""19"",""251215""
""blur"",""19"",""277314""
""focus"",""19"",""284844""
""blur"",""19"",""293837""
""focus"",""19"",""310914""
""blur"",""19"",""342648""
""focus"",""19"",""347119""
""blur"",""19"",""350360""
""focus"",""19"",""362536""
""blur"",""19"",""386514""
""focus"",""19"",""394138""
""blur"",""19"",""433425""
""focus"",""19"",""435054""
","""event"",""trial"",""time""
""blur"",""7"",""100909""
""blur"",""7"",""117052""
""blur"",""14"",""198638""
""blur"",""19"",""246288""
""blur"",""19"",""277314""
""blur"",""19"",""293837""
""blur"",""19"",""342648""
""blur"",""19"",""350360""
""blur"",""19"",""386514""
""blur"",""19"",""433425""
","""event"",""trial"",""time""
""focus"",""7"",""108918""
""focus"",""7"",""126022""
""focus"",""19"",""239118""
""focus"",""19"",""251215""
""focus"",""19"",""284844""
""focus"",""19"",""310914""
""focus"",""19"",""347119""
""focus"",""19"",""362536""
""focus"",""19"",""394138""
""focus"",""19"",""435054""
","""event"",""trial"",""time""
""fullscreenenter"",""1"",""1909""
","""event"",""trial"",""time""
""fullscreenexit"",""2"",""3337""
","","","831","","","18","5959","1120","&#9776;","elianto","#3366ff99"," "," ","1","+10","[1685.199999988079]","1","0","1","","","","","","","",""
"pit-trial","26","470406","0.0-2.0-8.1-1.1","battery-v0.2","","""event"",""trial"",""time""
""fullscreenenter"",""1"",""1909""
""fullscreenexit"",""2"",""3337""
""blur"",""7"",""100909""
""focus"",""7"",""108918""
""blur"",""7"",""117052""
""focus"",""7"",""126022""
""blur"",""14"",""198638""
""focus"",""19"",""239118""
""blur"",""19"",""246288""
""focus"",""19"",""251215""
""blur"",""19"",""277314""
""focus"",""19"",""284844""
""blur"",""19"",""293837""
""focus"",""19"",""310914""
""blur"",""19"",""342648""
""focus"",""19"",""347119""
""blur"",""19"",""350360""
""focus"",""19"",""362536""
""blur"",""19"",""386514""
""focus"",""19"",""394138""
""blur"",""19"",""433425""
""focus"",""19"",""435054""
","""event"",""trial"",""time""
""blur"",""7"",""100909""
""blur"",""7"",""117052""
""blur"",""14"",""198638""
""blur"",""19"",""246288""
""blur"",""19"",""277314""
""blur"",""19"",""293837""
""blur"",""19"",""342648""
""blur"",""19"",""350360""
""blur"",""19"",""386514""
""blur"",""19"",""433425""
","""event"",""trial"",""time""
""focus"",""7"",""108918""
""focus"",""7"",""126022""
""focus"",""19"",""239118""
""focus"",""19"",""251215""
""focus"",""19"",""284844""
""focus"",""19"",""310914""
""focus"",""19"",""347119""
""focus"",""19"",""362536""
""focus"",""19"",""394138""
""focus"",""19"",""435054""
","""event"",""trial"",""time""
""fullscreenenter"",""1"",""1909""
","""event"",""trial"",""time""
""fullscreenexit"",""2"",""3337""
","","","385","","","18","5959","1120","&#9776;","elianto","#3366ff99"," "," ","1","+10","[1240.199999988079]","1","0","1","","","","","","","",""
"pit-trial","27","473883","0.0-2.0-8.1-2.1","battery-v0.2","","""event"",""trial"",""time""
""fullscreenenter"",""1"",""1909""
""fullscreenexit"",""2"",""3337""
""blur"",""7"",""100909""
""focus"",""7"",""108918""
""blur"",""7"",""117052""
""focus"",""7"",""126022""
""blur"",""14"",""198638""
""focus"",""19"",""239118""
""blur"",""19"",""246288""
""focus"",""19"",""251215""
""blur"",""19"",""277314""
""focus"",""19"",""284844""
""blur"",""19"",""293837""
""focus"",""19"",""310914""
""blur"",""19"",""342648""
""focus"",""19"",""347119""
""blur"",""19"",""350360""
""focus"",""19"",""362536""
""blur"",""19"",""386514""
""focus"",""19"",""394138""
""blur"",""19"",""433425""
""focus"",""19"",""435054""
","""event"",""trial"",""time""
""blur"",""7"",""100909""
""blur"",""7"",""117052""
""blur"",""14"",""198638""
""blur"",""19"",""246288""
""blur"",""19"",""277314""
""blur"",""19"",""293837""
""blur"",""19"",""342648""
""blur"",""19"",""350360""
""blur"",""19"",""386514""
""blur"",""19"",""433425""
","""event"",""trial"",""time""
""focus"",""7"",""108918""
""focus"",""7"",""126022""
""focus"",""19"",""239118""
""focus"",""19"",""251215""
""focus"",""19"",""284844""
""focus"",""19"",""310914""
""focus"",""19"",""347119""
""focus"",""19"",""362536""
""focus"",""19"",""394138""
""focus"",""19"",""435054""
","""event"",""trial"",""time""
""fullscreenenter"",""1"",""1909""
","""event"",""trial"",""time""
""fullscreenexit"",""2"",""3337""
","","","605.9000000059605","","","18","5959","1120","&#9776;","elianto","#3366ff99"," "," ","1","+10","[1469.0999999940395]","1","0","1","","","","","","","",""
"pit-trial","28","477100","0.0-2.0-8.1-3.1","battery-v0.2","","""event"",""trial"",""time""
""fullscreenenter"",""1"",""1909""
""fullscreenexit"",""2"",""3337""
""blur"",""7"",""100909""
""focus"",""7"",""108918""
""blur"",""7"",""117052""
""focus"",""7"",""126022""
""blur"",""14"",""198638""
""focus"",""19"",""239118""
""blur"",""19"",""246288""
""focus"",""19"",""251215""
""blur"",""19"",""277314""
""focus"",""19"",""284844""
""blur"",""19"",""293837""
""focus"",""19"",""310914""
""blur"",""19"",""342648""
""focus"",""19"",""347119""
""blur"",""19"",""350360""
""focus"",""19"",""362536""
""blur"",""19"",""386514""
""focus"",""19"",""394138""
""blur"",""19"",""433425""
""focus"",""19"",""435054""
","""event"",""trial"",""time""
""blur"",""7"",""100909""
""blur"",""7"",""117052""
""blur"",""14"",""198638""
""blur"",""19"",""246288""
""blur"",""19"",""277314""
""blur"",""19"",""293837""
""blur"",""19"",""342648""
""blur"",""19"",""350360""
""blur"",""19"",""386514""
""blur"",""19"",""433425""
","""event"",""trial"",""time""
""focus"",""7"",""108918""
""focus"",""7"",""126022""
""focus"",""19"",""239118""
""focus"",""19"",""251215""
""focus"",""19"",""284844""
""focus"",""19"",""310914""
""focus"",""19"",""347119""
""focus"",""19"",""362536""
""focus"",""19"",""394138""
""focus"",""19"",""435054""
","""event"",""trial"",""time""
""fullscreenenter"",""1"",""1909""
","""event"",""trial"",""time""
""fullscreenexit"",""2"",""3337""
","","","351.2000000178814","","","18","5959","1120","&#9776;","elianto","#3366ff99"," "," ","1","0","[1209.2000000178814]","1","0","1","","","","","","","",""
"pit-trial","29","480221","0.0-2.0-8.1-4.1","battery-v0.2","","""event"",""trial"",""time""
""fullscreenenter"",""1"",""1909""
""fullscreenexit"",""2"",""3337""
""blur"",""7"",""100909""
""focus"",""7"",""108918""
""blur"",""7"",""117052""
""focus"",""7"",""126022""
""blur"",""14"",""198638""
""focus"",""19"",""239118""
""blur"",""19"",""246288""
""focus"",""19"",""251215""
""blur"",""19"",""277314""
""focus"",""19"",""284844""
""blur"",""19"",""293837""
""focus"",""19"",""310914""
""blur"",""19"",""342648""
""focus"",""19"",""347119""
""blur"",""19"",""350360""
""focus"",""19"",""362536""
""blur"",""19"",""386514""
""focus"",""19"",""394138""
""blur"",""19"",""433425""
""focus"",""19"",""435054""
","""event"",""trial"",""time""
""blur"",""7"",""100909""
""blur"",""7"",""117052""
""blur"",""14"",""198638""
""blur"",""19"",""246288""
""blur"",""19"",""277314""
""blur"",""19"",""293837""
""blur"",""19"",""342648""
""blur"",""19"",""350360""
""blur"",""19"",""386514""
""blur"",""19"",""433425""
","""event"",""trial"",""time""
""focus"",""7"",""108918""
""focus"",""7"",""126022""
""focus"",""19"",""239118""
""focus"",""19"",""251215""
""focus"",""19"",""284844""
""focus"",""19"",""310914""
""focus"",""19"",""347119""
""focus"",""19"",""362536""
""focus"",""19"",""394138""
""focus"",""19"",""435054""
","""event"",""trial"",""time""
""fullscreenenter"",""1"",""1909""
","""event"",""trial"",""time""
""fullscreenexit"",""2"",""3337""
","","","253.59999999403954","","","18","5959","1120","&#9776;","elianto","#3366ff99"," "," ","1","+10","[184.80000001192093,1106.300000011921]","2","0","1","","","","","","","",""
"pit-trial","30","483596","0.0-2.0-8.2-0.2","battery-v0.2","","""event"",""trial"",""time""
""fullscreenenter"",""1"",""1909""
""fullscreenexit"",""2"",""3337""
""blur"",""7"",""100909""
""focus"",""7"",""108918""
""blur"",""7"",""117052""
""focus"",""7"",""126022""
""blur"",""14"",""198638""
""focus"",""19"",""239118""
""blur"",""19"",""246288""
""focus"",""19"",""251215""
""blur"",""19"",""277314""
""focus"",""19"",""284844""
""blur"",""19"",""293837""
""focus"",""19"",""310914""
""blur"",""19"",""342648""
""focus"",""19"",""347119""
""blur"",""19"",""350360""
""focus"",""19"",""362536""
""blur"",""19"",""386514""
""focus"",""19"",""394138""
""blur"",""19"",""433425""
""focus"",""19"",""435054""
","""event"",""trial"",""time""
""blur"",""7"",""100909""
""blur"",""7"",""117052""
""blur"",""14"",""198638""
""blur"",""19"",""246288""
""blur"",""19"",""277314""
""blur"",""19"",""293837""
""blur"",""19"",""342648""
""blur"",""19"",""350360""
""blur"",""19"",""386514""
""blur"",""19"",""433425""
","""event"",""trial"",""time""
""focus"",""7"",""108918""
""focus"",""7"",""126022""
""focus"",""19"",""239118""
""focus"",""19"",""251215""
""focus"",""19"",""284844""
""focus"",""19"",""310914""
""focus"",""19"",""347119""
""focus"",""19"",""362536""
""focus"",""19"",""394138""
""focus"",""19"",""435054""
","""event"",""trial"",""time""
""fullscreenenter"",""1"",""1909""
","""event"",""trial"",""time""
""fullscreenexit"",""2"",""3337""
","","","508.69999998807907","","","18","5959","1120","&#9776;","elianto","#3366ff99"," "," ","1","+10","[1367.4000000059605]","1","0","1","","","","","","","",""
"pit-trial","31","486662","0.0-2.0-8.2-1.2","battery-v0.2","","""event"",""trial"",""time""
""fullscreenenter"",""1"",""1909""
""fullscreenexit"",""2"",""3337""
""blur"",""7"",""100909""
""focus"",""7"",""108918""
""blur"",""7"",""117052""
""focus"",""7"",""126022""
""blur"",""14"",""198638""
""focus"",""19"",""239118""
""blur"",""19"",""246288""
""focus"",""19"",""251215""
""blur"",""19"",""277314""
""focus"",""19"",""284844""
""blur"",""19"",""293837""
""focus"",""19"",""310914""
""blur"",""19"",""342648""
""focus"",""19"",""347119""
""blur"",""19"",""350360""
""focus"",""19"",""362536""
""blur"",""19"",""386514""
""focus"",""19"",""394138""
""blur"",""19"",""433425""
""focus"",""19"",""435054""
","""event"",""trial"",""time""
""blur"",""7"",""100909""
""blur"",""7"",""117052""
""blur"",""14"",""198638""
""blur"",""19"",""246288""
""blur"",""19"",""277314""
""blur"",""19"",""293837""
""blur"",""19"",""342648""
""blur"",""19"",""350360""
""blur"",""19"",""386514""
""blur"",""19"",""433425""
","""event"",""trial"",""time""
""focus"",""7"",""108918""
""focus"",""7"",""126022""
""focus"",""19"",""239118""
""focus"",""19"",""251215""
""focus"",""19"",""284844""
""focus"",""19"",""310914""
""focus"",""19"",""347119""
""focus"",""19"",""362536""
""focus"",""19"",""394138""
""focus"",""19"",""435054""
","""event"",""trial"",""time""
""fullscreenenter"",""1"",""1909""
","""event"",""trial"",""time""
""fullscreenexit"",""2"",""3337""
","","","198.59999999403954","","","18","5959","1120","&#9776;","elianto","#3366ff99"," "," ","1","+10","[1053.7999999821186]","1","0","1","","","","","","","",""
"pit-trial","32","490038","0.0-2.0-8.2-2.2","battery-v0.2","","""event"",""trial"",""time""
""fullscreenenter"",""1"",""1909""
""fullscreenexit"",""2"",""3337""
""blur"",""7"",""100909""
""focus"",""7"",""108918""
""blur"",""7"",""117052""
""focus"",""7"",""126022""
""blur"",""14"",""198638""
""focus"",""19"",""239118""
""blur"",""19"",""246288""
""focus"",""19"",""251215""
""blur"",""19"",""277314""
""focus"",""19"",""284844""
""blur"",""19"",""293837""
""focus"",""19"",""310914""
""blur"",""19"",""342648""
""focus"",""19"",""347119""
""blur"",""19"",""350360""
""focus"",""19"",""362536""
""blur"",""19"",""386514""
""focus"",""19"",""394138""
""blur"",""19"",""433425""
""focus"",""19"",""435054""
","""event"",""trial"",""time""
""blur"",""7"",""100909""
""blur"",""7"",""117052""
""blur"",""14"",""198638""
""blur"",""19"",""246288""
""blur"",""19"",""277314""
""blur"",""19"",""293837""
""blur"",""19"",""342648""
""blur"",""19"",""350360""
""blur"",""19"",""386514""
""blur"",""19"",""433425""
","""event"",""trial"",""time""
""focus"",""7"",""108918""
""focus"",""7"",""126022""
""focus"",""19"",""239118""
""focus"",""19"",""251215""
""focus"",""19"",""284844""
""focus"",""19"",""310914""
""focus"",""19"",""347119""
""focus"",""19"",""362536""
""focus"",""19"",""394138""
""focus"",""19"",""435054""
","""event"",""trial"",""time""
""fullscreenenter"",""1"",""1909""
","""event"",""trial"",""time""
""fullscreenexit"",""2"",""3337""
","","","510.80000001192093","","","18","5959","1120","&#9776;","elianto","#3366ff99"," "," ","1","+10","[1365.7000000178814]","1","0","1","","","","","","","",""
"pit-trial","33","493404","0.0-2.0-8.2-3.2","battery-v0.2","","""event"",""trial"",""time""
""fullscreenenter"",""1"",""1909""
""fullscreenexit"",""2"",""3337""
""blur"",""7"",""100909""
""focus"",""7"",""108918""
""blur"",""7"",""117052""
""focus"",""7"",""126022""
""blur"",""14"",""198638""
""focus"",""19"",""239118""
""blur"",""19"",""246288""
""focus"",""19"",""251215""
""blur"",""19"",""277314""
""focus"",""19"",""284844""
""blur"",""19"",""293837""
""focus"",""19"",""310914""
""blur"",""19"",""342648""
""focus"",""19"",""347119""
""blur"",""19"",""350360""
""focus"",""19"",""362536""
""blur"",""19"",""386514""
""focus"",""19"",""394138""
""blur"",""19"",""433425""
""focus"",""19"",""435054""
","""event"",""trial"",""time""
""blur"",""7"",""100909""
""blur"",""7"",""117052""
""blur"",""14"",""198638""
""blur"",""19"",""246288""
""blur"",""19"",""277314""
""blur"",""19"",""293837""
""blur"",""19"",""342648""
""blur"",""19"",""350360""
""blur"",""19"",""386514""
""blur"",""19"",""433425""
","""event"",""trial"",""time""
""focus"",""7"",""108918""
""focus"",""7"",""126022""
""focus"",""19"",""239118""
""focus"",""19"",""251215""
""focus"",""19"",""284844""
""focus"",""19"",""310914""
""focus"",""19"",""347119""
""focus"",""19"",""362536""
""focus"",""19"",""394138""
""focus"",""19"",""435054""
","""event"",""trial"",""time""
""fullscreenenter"",""1"",""1909""
","""event"",""trial"",""time""
""fullscreenexit"",""2"",""3337""
","","","502.59999999403954","","","18","5959","1120","&#9776;","elianto","#3366ff99"," "," ","1","0","[1359.7000000178814]","1","0","1","","","","","","","",""
"pit-trial","34","496597","0.0-2.0-8.2-4.2","battery-v0.2","","""event"",""trial"",""time""
""fullscreenenter"",""1"",""1909""
""fullscreenexit"",""2"",""3337""
""blur"",""7"",""100909""
""focus"",""7"",""108918""
""blur"",""7"",""117052""
""focus"",""7"",""126022""
""blur"",""14"",""198638""
""focus"",""19"",""239118""
""blur"",""19"",""246288""
""focus"",""19"",""251215""
""blur"",""19"",""277314""
""focus"",""19"",""284844""
""blur"",""19"",""293837""
""focus"",""19"",""310914""
""blur"",""19"",""342648""
""focus"",""19"",""347119""
""blur"",""19"",""350360""
""focus"",""19"",""362536""
""blur"",""19"",""386514""
""focus"",""19"",""394138""
""blur"",""19"",""433425""
""focus"",""19"",""435054""
","""event"",""trial"",""time""
""blur"",""7"",""100909""
""blur"",""7"",""117052""
""blur"",""14"",""198638""
""blur"",""19"",""246288""
""blur"",""19"",""277314""
""blur"",""19"",""293837""
""blur"",""19"",""342648""
""blur"",""19"",""350360""
""blur"",""19"",""386514""
""blur"",""19"",""433425""
","""event"",""trial"",""time""
""focus"",""7"",""108918""
""focus"",""7"",""126022""
""focus"",""19"",""239118""
""focus"",""19"",""251215""
""focus"",""19"",""284844""
""focus"",""19"",""310914""
""focus"",""19"",""347119""
""focus"",""19"",""362536""
""focus"",""19"",""394138""
""focus"",""19"",""435054""
","""event"",""trial"",""time""
""fullscreenenter"",""1"",""1909""
","""event"",""trial"",""time""
""fullscreenexit"",""2"",""3337""
","","","331.5","","","18","5959","1120","&#9776;","elianto","#3366ff99"," "," ","1","+10","[1187.7000000178814]","1","0","1","","","","","","","",""
"call-function","35","496598","0.0-2.0-9.0","battery-v0.2","","""event"",""trial"",""time""
""fullscreenenter"",""1"",""1909""
""fullscreenexit"",""2"",""3337""
""blur"",""7"",""100909""
""focus"",""7"",""108918""
""blur"",""7"",""117052""
""focus"",""7"",""126022""
""blur"",""14"",""198638""
""focus"",""19"",""239118""
""blur"",""19"",""246288""
""focus"",""19"",""251215""
""blur"",""19"",""277314""
""focus"",""19"",""284844""
""blur"",""19"",""293837""
""focus"",""19"",""310914""
""blur"",""19"",""342648""
""focus"",""19"",""347119""
""blur"",""19"",""350360""
""focus"",""19"",""362536""
""blur"",""19"",""386514""
""focus"",""19"",""394138""
""blur"",""19"",""433425""
""focus"",""19"",""435054""
""blur"",""36"",""501753""
""focus"",""36"",""1242805""
""blur"",""36"",""1245712""
""focus"",""36"",""1254666""
","""event"",""trial"",""time""
""blur"",""7"",""100909""
""blur"",""7"",""117052""
""blur"",""14"",""198638""
""blur"",""19"",""246288""
""blur"",""19"",""277314""
""blur"",""19"",""293837""
""blur"",""19"",""342648""
""blur"",""19"",""350360""
""blur"",""19"",""386514""
""blur"",""19"",""433425""
""blur"",""36"",""501753""
""blur"",""36"",""1245712""
","""event"",""trial"",""time""
""focus"",""7"",""108918""
""focus"",""7"",""126022""
""focus"",""19"",""239118""
""focus"",""19"",""251215""
""focus"",""19"",""284844""
""focus"",""19"",""310914""
""focus"",""19"",""347119""
""focus"",""19"",""362536""
""focus"",""19"",""394138""
""focus"",""19"",""435054""
""focus"",""36"",""1242805""
""focus"",""36"",""1254666""
","""event"",""trial"",""time""
""fullscreenenter"",""1"",""1909""
","""event"",""trial"",""time""
""fullscreenexit"",""2"",""3337""
","","","","","","","","","","","","","","","","","","","","","","","","","","",""
"pit-instructions","36","1298632","0.0-2.0-10.0","battery-v0.2","","""event"",""trial"",""time""
""fullscreenenter"",""1"",""1909""
""fullscreenexit"",""2"",""3337""
""blur"",""7"",""100909""
""focus"",""7"",""108918""
""blur"",""7"",""117052""
""focus"",""7"",""126022""
""blur"",""14"",""198638""
""focus"",""19"",""239118""
""blur"",""19"",""246288""
""focus"",""19"",""251215""
""blur"",""19"",""277314""
""focus"",""19"",""284844""
""blur"",""19"",""293837""
""focus"",""19"",""310914""
""blur"",""19"",""342648""
""focus"",""19"",""347119""
""blur"",""19"",""350360""
""focus"",""19"",""362536""
""blur"",""19"",""386514""
""focus"",""19"",""394138""
""blur"",""19"",""433425""
""focus"",""19"",""435054""
""blur"",""36"",""501753""
""focus"",""36"",""1242805""
""blur"",""36"",""1245712""
""focus"",""36"",""1254666""
","""event"",""trial"",""time""
""blur"",""7"",""100909""
""blur"",""7"",""117052""
""blur"",""14"",""198638""
""blur"",""19"",""246288""
""blur"",""19"",""277314""
""blur"",""19"",""293837""
""blur"",""19"",""342648""
""blur"",""19"",""350360""
""blur"",""19"",""386514""
""blur"",""19"",""433425""
""blur"",""36"",""501753""
""blur"",""36"",""1245712""
","""event"",""trial"",""time""
""focus"",""7"",""108918""
""focus"",""7"",""126022""
""focus"",""19"",""239118""
""focus"",""19"",""251215""
""focus"",""19"",""284844""
""focus"",""19"",""310914""
""focus"",""19"",""347119""
""focus"",""19"",""362536""
""focus"",""19"",""394138""
""focus"",""19"",""435054""
""focus"",""36"",""1242805""
""focus"",""36"",""1254666""
","""event"",""trial"",""time""
""fullscreenenter"",""1"",""1909""
","""event"",""trial"",""time""
""fullscreenexit"",""2"",""3337""
","","[{""page_index"":0,""viewing_time"":746801},{""page_index"":1,""viewing_time"":11886.100000023842},{""page_index"":2,""viewing_time"":10942.799999982119},{""page_index"":3,""viewing_time"":15868.200000017881},{""page_index"":4,""viewing_time"":16553.5}]","802056.1000000238","","","","","","","","","","","","","","","","","","","","","","","",""
"pit-trial","37","1303501","0.0-2.0-11.0-0.0","battery-v0.2","","""event"",""trial"",""time""
""fullscreenenter"",""1"",""1909""
""fullscreenexit"",""2"",""3337""
""blur"",""7"",""100909""
""focus"",""7"",""108918""
""blur"",""7"",""117052""
""focus"",""7"",""126022""
""blur"",""14"",""198638""
""focus"",""19"",""239118""
""blur"",""19"",""246288""
""focus"",""19"",""251215""
""blur"",""19"",""277314""
""focus"",""19"",""284844""
""blur"",""19"",""293837""
""focus"",""19"",""310914""
""blur"",""19"",""342648""
""focus"",""19"",""347119""
""blur"",""19"",""350360""
""focus"",""19"",""362536""
""blur"",""19"",""386514""
""focus"",""19"",""394138""
""blur"",""19"",""433425""
""focus"",""19"",""435054""
""blur"",""36"",""501753""
""focus"",""36"",""1242805""
""blur"",""36"",""1245712""
""focus"",""36"",""1254666""
","""event"",""trial"",""time""
""blur"",""7"",""100909""
""blur"",""7"",""117052""
""blur"",""14"",""198638""
""blur"",""19"",""246288""
""blur"",""19"",""277314""
""blur"",""19"",""293837""
""blur"",""19"",""342648""
""blur"",""19"",""350360""
""blur"",""19"",""386514""
""blur"",""19"",""433425""
""blur"",""36"",""501753""
""blur"",""36"",""1245712""
","""event"",""trial"",""time""
""focus"",""7"",""108918""
""focus"",""7"",""126022""
""focus"",""19"",""239118""
""focus"",""19"",""251215""
""focus"",""19"",""284844""
""focus"",""19"",""310914""
""focus"",""19"",""347119""
""focus"",""19"",""362536""
""focus"",""19"",""394138""
""focus"",""19"",""435054""
""focus"",""36"",""1242805""
""focus"",""36"",""1254666""
","""event"",""trial"",""time""
""fullscreenenter"",""1"",""1909""
","""event"",""trial"",""time""
""fullscreenexit"",""2"",""3337""
","","","-1","","","18","5959","1120","&#9761;","elianto","#3366ff99","-1","-1","1","+10","[]","0","0","2","","","","","","","",""
"pit-trial","38","1308371","0.0-2.0-11.0-1.0","battery-v0.2","","""event"",""trial"",""time""
""fullscreenenter"",""1"",""1909""
""fullscreenexit"",""2"",""3337""
""blur"",""7"",""100909""
""focus"",""7"",""108918""
""blur"",""7"",""117052""
""focus"",""7"",""126022""
""blur"",""14"",""198638""
""focus"",""19"",""239118""
""blur"",""19"",""246288""
""focus"",""19"",""251215""
""blur"",""19"",""277314""
""focus"",""19"",""284844""
""blur"",""19"",""293837""
""focus"",""19"",""310914""
""blur"",""19"",""342648""
""focus"",""19"",""347119""
""blur"",""19"",""350360""
""focus"",""19"",""362536""
""blur"",""19"",""386514""
""focus"",""19"",""394138""
""blur"",""19"",""433425""
""focus"",""19"",""435054""
""blur"",""36"",""501753""
""focus"",""36"",""1242805""
""blur"",""36"",""1245712""
""focus"",""36"",""1254666""
","""event"",""trial"",""time""
""blur"",""7"",""100909""
""blur"",""7"",""117052""
""blur"",""14"",""198638""
""blur"",""19"",""246288""
""blur"",""19"",""277314""
""blur"",""19"",""293837""
""blur"",""19"",""342648""
""blur"",""19"",""350360""
""blur"",""19"",""386514""
""blur"",""19"",""433425""
""blur"",""36"",""501753""
""blur"",""36"",""1245712""
","""event"",""trial"",""time""
""focus"",""7"",""108918""
""focus"",""7"",""126022""
""focus"",""19"",""239118""
""focus"",""19"",""251215""
""focus"",""19"",""284844""
""focus"",""19"",""310914""
""focus"",""19"",""347119""
""focus"",""19"",""362536""
""focus"",""19"",""394138""
""focus"",""19"",""435054""
""focus"",""36"",""1242805""
""focus"",""36"",""1254666""
","""event"",""trial"",""time""
""fullscreenenter"",""1"",""1909""
","""event"",""trial"",""time""
""fullscreenexit"",""2"",""3337""
","","","-1","","","18","5959","1120","&#9761;","elianto","#3366ff99","-1","-1","1","+10","[]","0","0","2","","","","","","","",""
"pit-trial","39","1313230","0.0-2.0-11.0-2.0","battery-v0.2","","""event"",""trial"",""time""
""fullscreenenter"",""1"",""1909""
""fullscreenexit"",""2"",""3337""
""blur"",""7"",""100909""
""focus"",""7"",""108918""
""blur"",""7"",""117052""
""focus"",""7"",""126022""
""blur"",""14"",""198638""
""focus"",""19"",""239118""
""blur"",""19"",""246288""
""focus"",""19"",""251215""
""blur"",""19"",""277314""
""focus"",""19"",""284844""
""blur"",""19"",""293837""
""focus"",""19"",""310914""
""blur"",""19"",""342648""
""focus"",""19"",""347119""
""blur"",""19"",""350360""
""focus"",""19"",""362536""
""blur"",""19"",""386514""
""focus"",""19"",""394138""
""blur"",""19"",""433425""
""focus"",""19"",""435054""
""blur"",""36"",""501753""
""focus"",""36"",""1242805""
""blur"",""36"",""1245712""
""focus"",""36"",""1254666""
","""event"",""trial"",""time""
""blur"",""7"",""100909""
""blur"",""7"",""117052""
""blur"",""14"",""198638""
""blur"",""19"",""246288""
""blur"",""19"",""277314""
""blur"",""19"",""293837""
""blur"",""19"",""342648""
""blur"",""19"",""350360""
""blur"",""19"",""386514""
""blur"",""19"",""433425""
""blur"",""36"",""501753""
""blur"",""36"",""1245712""
","""event"",""trial"",""time""
""focus"",""7"",""108918""
""focus"",""7"",""126022""
""focus"",""19"",""239118""
""focus"",""19"",""251215""
""focus"",""19"",""284844""
""focus"",""19"",""310914""
""focus"",""19"",""347119""
""focus"",""19"",""362536""
""focus"",""19"",""394138""
""focus"",""19"",""435054""
""focus"",""36"",""1242805""
""focus"",""36"",""1254666""
","""event"",""trial"",""time""
""fullscreenenter"",""1"",""1909""
","""event"",""trial"",""time""
""fullscreenexit"",""2"",""3337""
","","","-1","","","18","5959","1120","&#9761;","elianto","#3366ff99","-1","-1","1","+10","[]","0","0","2","","","","","","","",""
"pit-trial","40","1316508","0.0-2.0-11.0-3.0","battery-v0.2","","""event"",""trial"",""time""
""fullscreenenter"",""1"",""1909""
""fullscreenexit"",""2"",""3337""
""blur"",""7"",""100909""
""focus"",""7"",""108918""
""blur"",""7"",""117052""
""focus"",""7"",""126022""
""blur"",""14"",""198638""
""focus"",""19"",""239118""
""blur"",""19"",""246288""
""focus"",""19"",""251215""
""blur"",""19"",""277314""
""focus"",""19"",""284844""
""blur"",""19"",""293837""
""focus"",""19"",""310914""
""blur"",""19"",""342648""
""focus"",""19"",""347119""
""blur"",""19"",""350360""
""focus"",""19"",""362536""
""blur"",""19"",""386514""
""focus"",""19"",""394138""
""blur"",""19"",""433425""
""focus"",""19"",""435054""
""blur"",""36"",""501753""
""focus"",""36"",""1242805""
""blur"",""36"",""1245712""
""focus"",""36"",""1254666""
","""event"",""trial"",""time""
""blur"",""7"",""100909""
""blur"",""7"",""117052""
""blur"",""14"",""198638""
""blur"",""19"",""246288""
""blur"",""19"",""277314""
""blur"",""19"",""293837""
""blur"",""19"",""342648""
""blur"",""19"",""350360""
""blur"",""19"",""386514""
""blur"",""19"",""433425""
""blur"",""36"",""501753""
""blur"",""36"",""1245712""
","""event"",""trial"",""time""
""focus"",""7"",""108918""
""focus"",""7"",""126022""
""focus"",""19"",""239118""
""focus"",""19"",""251215""
""focus"",""19"",""284844""
""focus"",""19"",""310914""
""focus"",""19"",""347119""
""focus"",""19"",""362536""
""focus"",""19"",""394138""
""focus"",""19"",""435054""
""focus"",""36"",""1242805""
""focus"",""36"",""1254666""
","""event"",""trial"",""time""
""fullscreenenter"",""1"",""1909""
","""event"",""trial"",""time""
""fullscreenexit"",""2"",""3337""
","","","414.2000000178814","","","18","5959","1120","&#9761;","elianto","#3366ff99","-1"," ","0","+10","[1266.300000011921]","1","0","2","","","","","","","",""
"pit-trial","41","1319804","0.0-2.0-11.0-4.0","battery-v0.2","","""event"",""trial"",""time""
""fullscreenenter"",""1"",""1909""
""fullscreenexit"",""2"",""3337""
""blur"",""7"",""100909""
""focus"",""7"",""108918""
""blur"",""7"",""117052""
""focus"",""7"",""126022""
""blur"",""14"",""198638""
""focus"",""19"",""239118""
""blur"",""19"",""246288""
""focus"",""19"",""251215""
""blur"",""19"",""277314""
""focus"",""19"",""284844""
""blur"",""19"",""293837""
""focus"",""19"",""310914""
""blur"",""19"",""342648""
""focus"",""19"",""347119""
""blur"",""19"",""350360""
""focus"",""19"",""362536""
""blur"",""19"",""386514""
""focus"",""19"",""394138""
""blur"",""19"",""433425""
""focus"",""19"",""435054""
""blur"",""36"",""501753""
""focus"",""36"",""1242805""
""blur"",""36"",""1245712""
""focus"",""36"",""1254666""
","""event"",""trial"",""time""
""blur"",""7"",""100909""
""blur"",""7"",""117052""
""blur"",""14"",""198638""
""blur"",""19"",""246288""
""blur"",""19"",""277314""
""blur"",""19"",""293837""
""blur"",""19"",""342648""
""blur"",""19"",""350360""
""blur"",""19"",""386514""
""blur"",""19"",""433425""
""blur"",""36"",""501753""
""blur"",""36"",""1245712""
","""event"",""trial"",""time""
""focus"",""7"",""108918""
""focus"",""7"",""126022""
""focus"",""19"",""239118""
""focus"",""19"",""251215""
""focus"",""19"",""284844""
""focus"",""19"",""310914""
""focus"",""19"",""347119""
""focus"",""19"",""362536""
""focus"",""19"",""394138""
""focus"",""19"",""435054""
""focus"",""36"",""1242805""
""focus"",""36"",""1254666""
","""event"",""trial"",""time""
""fullscreenenter"",""1"",""1909""
","""event"",""trial"",""time""
""fullscreenexit"",""2"",""3337""
","","","432.40000000596046","","","18","5959","1120","&#9761;","elianto","#3366ff99","-1"," ","0","0","[1287]","1","0","2","","","","","","","",""
"pit-trial","42","1322886","0.0-2.0-11.1-0.1","battery-v0.2","","""event"",""trial"",""time""
""fullscreenenter"",""1"",""1909""
""fullscreenexit"",""2"",""3337""
""blur"",""7"",""100909""
""focus"",""7"",""108918""
""blur"",""7"",""117052""
""focus"",""7"",""126022""
""blur"",""14"",""198638""
""focus"",""19"",""239118""
""blur"",""19"",""246288""
""focus"",""19"",""251215""
""blur"",""19"",""277314""
""focus"",""19"",""284844""
""blur"",""19"",""293837""
""focus"",""19"",""310914""
""blur"",""19"",""342648""
""focus"",""19"",""347119""
""blur"",""19"",""350360""
""focus"",""19"",""362536""
""blur"",""19"",""386514""
""focus"",""19"",""394138""
""blur"",""19"",""433425""
""focus"",""19"",""435054""
""blur"",""36"",""501753""
""focus"",""36"",""1242805""
""blur"",""36"",""1245712""
""focus"",""36"",""1254666""
","""event"",""trial"",""time""
""blur"",""7"",""100909""
""blur"",""7"",""117052""
""blur"",""14"",""198638""
""blur"",""19"",""246288""
""blur"",""19"",""277314""
""blur"",""19"",""293837""
""blur"",""19"",""342648""
""blur"",""19"",""350360""
""blur"",""19"",""386514""
""blur"",""19"",""433425""
""blur"",""36"",""501753""
""blur"",""36"",""1245712""
","""event"",""trial"",""time""
""focus"",""7"",""108918""
""focus"",""7"",""126022""
""focus"",""19"",""239118""
""focus"",""19"",""251215""
""focus"",""19"",""284844""
""focus"",""19"",""310914""
""focus"",""19"",""347119""
""focus"",""19"",""362536""
""focus"",""19"",""394138""
""focus"",""19"",""435054""
""focus"",""36"",""1242805""
""focus"",""36"",""1254666""
","""event"",""trial"",""time""
""fullscreenenter"",""1"",""1909""
","""event"",""trial"",""time""
""fullscreenexit"",""2"",""3337""
","","","213.39999997615814","","","18","5959","1120","&#9761;","elianto","#3366ff99","-1"," ","0","0","[1070.8999999761581]","1","0","2","","","","","","","",""
"pit-trial","43","1325945","0.0-2.0-11.1-1.1","battery-v0.2","","""event"",""trial"",""time""
""fullscreenenter"",""1"",""1909""
""fullscreenexit"",""2"",""3337""
""blur"",""7"",""100909""
""focus"",""7"",""108918""
""blur"",""7"",""117052""
""focus"",""7"",""126022""
""blur"",""14"",""198638""
""focus"",""19"",""239118""
""blur"",""19"",""246288""
""focus"",""19"",""251215""
""blur"",""19"",""277314""
""focus"",""19"",""284844""
""blur"",""19"",""293837""
""focus"",""19"",""310914""
""blur"",""19"",""342648""
""focus"",""19"",""347119""
""blur"",""19"",""350360""
""focus"",""19"",""362536""
""blur"",""19"",""386514""
""focus"",""19"",""394138""
""blur"",""19"",""433425""
""focus"",""19"",""435054""
""blur"",""36"",""501753""
""focus"",""36"",""1242805""
""blur"",""36"",""1245712""
""focus"",""36"",""1254666""
","""event"",""trial"",""time""
""blur"",""7"",""100909""
""blur"",""7"",""117052""
""blur"",""14"",""198638""
""blur"",""19"",""246288""
""blur"",""19"",""277314""
""blur"",""19"",""293837""
""blur"",""19"",""342648""
""blur"",""19"",""350360""
""blur"",""19"",""386514""
""blur"",""19"",""433425""
""blur"",""36"",""501753""
""blur"",""36"",""1245712""
","""event"",""trial"",""time""
""focus"",""7"",""108918""
""focus"",""7"",""126022""
""focus"",""19"",""239118""
""focus"",""19"",""251215""
""focus"",""19"",""284844""
""focus"",""19"",""310914""
""focus"",""19"",""347119""
""focus"",""19"",""362536""
""focus"",""19"",""394138""
""focus"",""19"",""435054""
""focus"",""36"",""1242805""
""focus"",""36"",""1254666""
","""event"",""trial"",""time""
""fullscreenenter"",""1"",""1909""
","""event"",""trial"",""time""
""fullscreenexit"",""2"",""3337""
","","","206.10000002384186","","","18","5959","1120","&#9761;","elianto","#3366ff99","-1"," ","0","0","[1056.300000011921]","1","0","2","","","","","","","",""
"pit-trial","44","1330812","0.0-2.0-11.1-2.1","battery-v0.2","","""event"",""trial"",""time""
""fullscreenenter"",""1"",""1909""
""fullscreenexit"",""2"",""3337""
""blur"",""7"",""100909""
""focus"",""7"",""108918""
""blur"",""7"",""117052""
""focus"",""7"",""126022""
""blur"",""14"",""198638""
""focus"",""19"",""239118""
""blur"",""19"",""246288""
""focus"",""19"",""251215""
""blur"",""19"",""277314""
""focus"",""19"",""284844""
""blur"",""19"",""293837""
""focus"",""19"",""310914""
""blur"",""19"",""342648""
""focus"",""19"",""347119""
""blur"",""19"",""350360""
""focus"",""19"",""362536""
""blur"",""19"",""386514""
""focus"",""19"",""394138""
""blur"",""19"",""433425""
""focus"",""19"",""435054""
""blur"",""36"",""501753""
""focus"",""36"",""1242805""
""blur"",""36"",""1245712""
""focus"",""36"",""1254666""
","""event"",""trial"",""time""
""blur"",""7"",""100909""
""blur"",""7"",""117052""
""blur"",""14"",""198638""
""blur"",""19"",""246288""
""blur"",""19"",""277314""
""blur"",""19"",""293837""
""blur"",""19"",""342648""
""blur"",""19"",""350360""
""blur"",""19"",""386514""
""blur"",""19"",""433425""
""blur"",""36"",""501753""
""blur"",""36"",""1245712""
","""event"",""trial"",""time""
""focus"",""7"",""108918""
""focus"",""7"",""126022""
""focus"",""19"",""239118""
""focus"",""19"",""251215""
""focus"",""19"",""284844""
""focus"",""19"",""310914""
""focus"",""19"",""347119""
""focus"",""19"",""362536""
""focus"",""19"",""394138""
""focus"",""19"",""435054""
""focus"",""36"",""1242805""
""focus"",""36"",""1254666""
","""event"",""trial"",""time""
""fullscreenenter"",""1"",""1909""
","""event"",""trial"",""time""
""fullscreenexit"",""2"",""3337""
","","","-1","","","18","5959","1120","&#9761;","elianto","#3366ff99","-1","-1","1","+10","[]","0","0","2","","","","","","","",""
"pit-trial","45","1335675","0.0-2.0-11.1-3.1","battery-v0.2","","""event"",""trial"",""time""
""fullscreenenter"",""1"",""1909""
""fullscreenexit"",""2"",""3337""
""blur"",""7"",""100909""
""focus"",""7"",""108918""
""blur"",""7"",""117052""
""focus"",""7"",""126022""
""blur"",""14"",""198638""
""focus"",""19"",""239118""
""blur"",""19"",""246288""
""focus"",""19"",""251215""
""blur"",""19"",""277314""
""focus"",""19"",""284844""
""blur"",""19"",""293837""
""focus"",""19"",""310914""
""blur"",""19"",""342648""
""focus"",""19"",""347119""
""blur"",""19"",""350360""
""focus"",""19"",""362536""
""blur"",""19"",""386514""
""focus"",""19"",""394138""
""blur"",""19"",""433425""
""focus"",""19"",""435054""
""blur"",""36"",""501753""
""focus"",""36"",""1242805""
""blur"",""36"",""1245712""
""focus"",""36"",""1254666""
","""event"",""trial"",""time""
""blur"",""7"",""100909""
""blur"",""7"",""117052""
""blur"",""14"",""198638""
""blur"",""19"",""246288""
""blur"",""19"",""277314""
""blur"",""19"",""293837""
""blur"",""19"",""342648""
""blur"",""19"",""350360""
""blur"",""19"",""386514""
""blur"",""19"",""433425""
""blur"",""36"",""501753""
""blur"",""36"",""1245712""
","""event"",""trial"",""time""
""focus"",""7"",""108918""
""focus"",""7"",""126022""
""focus"",""19"",""239118""
""focus"",""19"",""251215""
""focus"",""19"",""284844""
""focus"",""19"",""310914""
""focus"",""19"",""347119""
""focus"",""19"",""362536""
""focus"",""19"",""394138""
""focus"",""19"",""435054""
""focus"",""36"",""1242805""
""focus"",""36"",""1254666""
","""event"",""trial"",""time""
""fullscreenenter"",""1"",""1909""
","""event"",""trial"",""time""
""fullscreenexit"",""2"",""3337""
","","","-1","","","18","5959","1120","&#9761;","elianto","#3366ff99","-1","-1","1","0","[]","0","0","2","","","","","","","",""
"pit-trial","46","1340539","0.0-2.0-11.1-4.1","battery-v0.2","","""event"",""trial"",""time""
""fullscreenenter"",""1"",""1909""
""fullscreenexit"",""2"",""3337""
""blur"",""7"",""100909""
""focus"",""7"",""108918""
""blur"",""7"",""117052""
""focus"",""7"",""126022""
""blur"",""14"",""198638""
""focus"",""19"",""239118""
""blur"",""19"",""246288""
""focus"",""19"",""251215""
""blur"",""19"",""277314""
""focus"",""19"",""284844""
""blur"",""19"",""293837""
""focus"",""19"",""310914""
""blur"",""19"",""342648""
""focus"",""19"",""347119""
""blur"",""19"",""350360""
""focus"",""19"",""362536""
""blur"",""19"",""386514""
""focus"",""19"",""394138""
""blur"",""19"",""433425""
""focus"",""19"",""435054""
""blur"",""36"",""501753""
""focus"",""36"",""1242805""
""blur"",""36"",""1245712""
""focus"",""36"",""1254666""
","""event"",""trial"",""time""
""blur"",""7"",""100909""
""blur"",""7"",""117052""
""blur"",""14"",""198638""
""blur"",""19"",""246288""
""blur"",""19"",""277314""
""blur"",""19"",""293837""
""blur"",""19"",""342648""
""blur"",""19"",""350360""
""blur"",""19"",""386514""
""blur"",""19"",""433425""
""blur"",""36"",""501753""
""blur"",""36"",""1245712""
","""event"",""trial"",""time""
""focus"",""7"",""108918""
""focus"",""7"",""126022""
""focus"",""19"",""239118""
""focus"",""19"",""251215""
""focus"",""19"",""284844""
""focus"",""19"",""310914""
""focus"",""19"",""347119""
""focus"",""19"",""362536""
""focus"",""19"",""394138""
""focus"",""19"",""435054""
""focus"",""36"",""1242805""
""focus"",""36"",""1254666""
","""event"",""trial"",""time""
""fullscreenenter"",""1"",""1909""
","""event"",""trial"",""time""
""fullscreenexit"",""2"",""3337""
","","","-1","","","18","5959","1120","&#9761;","elianto","#3366ff99","-1","-1","1","+10","[]","0","0","2","","","","","","","",""
"pit-trial","47","1345404","0.0-2.0-11.2-0.2","battery-v0.2","","""event"",""trial"",""time""
""fullscreenenter"",""1"",""1909""
""fullscreenexit"",""2"",""3337""
""blur"",""7"",""100909""
""focus"",""7"",""108918""
""blur"",""7"",""117052""
""focus"",""7"",""126022""
""blur"",""14"",""198638""
""focus"",""19"",""239118""
""blur"",""19"",""246288""
""focus"",""19"",""251215""
""blur"",""19"",""277314""
""focus"",""19"",""284844""
""blur"",""19"",""293837""
""focus"",""19"",""310914""
""blur"",""19"",""342648""
""focus"",""19"",""347119""
""blur"",""19"",""350360""
""focus"",""19"",""362536""
""blur"",""19"",""386514""
""focus"",""19"",""394138""
""blur"",""19"",""433425""
""focus"",""19"",""435054""
""blur"",""36"",""501753""
""focus"",""36"",""1242805""
""blur"",""36"",""1245712""
""focus"",""36"",""1254666""
","""event"",""trial"",""time""
""blur"",""7"",""100909""
""blur"",""7"",""117052""
""blur"",""14"",""198638""
""blur"",""19"",""246288""
""blur"",""19"",""277314""
""blur"",""19"",""293837""
""blur"",""19"",""342648""
""blur"",""19"",""350360""
""blur"",""19"",""386514""
""blur"",""19"",""433425""
""blur"",""36"",""501753""
""blur"",""36"",""1245712""
","""event"",""trial"",""time""
""focus"",""7"",""108918""
""focus"",""7"",""126022""
""focus"",""19"",""239118""
""focus"",""19"",""251215""
""focus"",""19"",""284844""
""focus"",""19"",""310914""
""focus"",""19"",""347119""
""focus"",""19"",""362536""
""focus"",""19"",""394138""
""focus"",""19"",""435054""
""focus"",""36"",""1242805""
""focus"",""36"",""1254666""
","""event"",""trial"",""time""
""fullscreenenter"",""1"",""1909""
","""event"",""trial"",""time""
""fullscreenexit"",""2"",""3337""
","","","-1","","","18","5959","1120","&#9761;","elianto","#3366ff99","-1","-1","1","+10","[]","0","0","2","","","","","","","",""
"pit-trial","48","1350277","0.0-2.0-11.2-1.2","battery-v0.2","","""event"",""trial"",""time""
""fullscreenenter"",""1"",""1909""
""fullscreenexit"",""2"",""3337""
""blur"",""7"",""100909""
""focus"",""7"",""108918""
""blur"",""7"",""117052""
""focus"",""7"",""126022""
""blur"",""14"",""198638""
""focus"",""19"",""239118""
""blur"",""19"",""246288""
""focus"",""19"",""251215""
""blur"",""19"",""277314""
""focus"",""19"",""284844""
""blur"",""19"",""293837""
""focus"",""19"",""310914""
""blur"",""19"",""342648""
""focus"",""19"",""347119""
""blur"",""19"",""350360""
""focus"",""19"",""362536""
""blur"",""19"",""386514""
""focus"",""19"",""394138""
""blur"",""19"",""433425""
""focus"",""19"",""435054""
""blur"",""36"",""501753""
""focus"",""36"",""1242805""
""blur"",""36"",""1245712""
""focus"",""36"",""1254666""
","""event"",""trial"",""time""
""blur"",""7"",""100909""
""blur"",""7"",""117052""
""blur"",""14"",""198638""
""blur"",""19"",""246288""
""blur"",""19"",""277314""
""blur"",""19"",""293837""
""blur"",""19"",""342648""
""blur"",""19"",""350360""
""blur"",""19"",""386514""
""blur"",""19"",""433425""
""blur"",""36"",""501753""
""blur"",""36"",""1245712""
","""event"",""trial"",""time""
""focus"",""7"",""108918""
""focus"",""7"",""126022""
""focus"",""19"",""239118""
""focus"",""19"",""251215""
""focus"",""19"",""284844""
""focus"",""19"",""310914""
""focus"",""19"",""347119""
""focus"",""19"",""362536""
""focus"",""19"",""394138""
""focus"",""19"",""435054""
""focus"",""36"",""1242805""
""focus"",""36"",""1254666""
","""event"",""trial"",""time""
""fullscreenenter"",""1"",""1909""
","""event"",""trial"",""time""
""fullscreenexit"",""2"",""3337""
","","","-1","","","18","5959","1120","&#9761;","elianto","#3366ff99","-1","-1","1","+10","[]","0","0","2","","","","","","","",""
"pit-trial","49","1355147","0.0-2.0-11.2-2.2","battery-v0.2","","""event"",""trial"",""time""
""fullscreenenter"",""1"",""1909""
""fullscreenexit"",""2"",""3337""
""blur"",""7"",""100909""
""focus"",""7"",""108918""
""blur"",""7"",""117052""
""focus"",""7"",""126022""
""blur"",""14"",""198638""
""focus"",""19"",""239118""
""blur"",""19"",""246288""
""focus"",""19"",""251215""
""blur"",""19"",""277314""
""focus"",""19"",""284844""
""blur"",""19"",""293837""
""focus"",""19"",""310914""
""blur"",""19"",""342648""
""focus"",""19"",""347119""
""blur"",""19"",""350360""
""focus"",""19"",""362536""
""blur"",""19"",""386514""
""focus"",""19"",""394138""
""blur"",""19"",""433425""
""focus"",""19"",""435054""
""blur"",""36"",""501753""
""focus"",""36"",""1242805""
""blur"",""36"",""1245712""
""focus"",""36"",""1254666""
","""event"",""trial"",""time""
""blur"",""7"",""100909""
""blur"",""7"",""117052""
""blur"",""14"",""198638""
""blur"",""19"",""246288""
""blur"",""19"",""277314""
""blur"",""19"",""293837""
""blur"",""19"",""342648""
""blur"",""19"",""350360""
""blur"",""19"",""386514""
""blur"",""19"",""433425""
""blur"",""36"",""501753""
""blur"",""36"",""1245712""
","""event"",""trial"",""time""
""focus"",""7"",""108918""
""focus"",""7"",""126022""
""focus"",""19"",""239118""
""focus"",""19"",""251215""
""focus"",""19"",""284844""
""focus"",""19"",""310914""
""focus"",""19"",""347119""
""focus"",""19"",""362536""
""focus"",""19"",""394138""
""focus"",""19"",""435054""
""focus"",""36"",""1242805""
""focus"",""36"",""1254666""
","""event"",""trial"",""time""
""fullscreenenter"",""1"",""1909""
","""event"",""trial"",""time""
""fullscreenexit"",""2"",""3337""
","","","-1","","","18","5959","1120","&#9761;","elianto","#3366ff99","-1","-1","1","+10","[]","0","0","2","","","","","","","",""
"pit-trial","50","1360012","0.0-2.0-11.2-3.2","battery-v0.2","","""event"",""trial"",""time""
""fullscreenenter"",""1"",""1909""
""fullscreenexit"",""2"",""3337""
""blur"",""7"",""100909""
""focus"",""7"",""108918""
""blur"",""7"",""117052""
""focus"",""7"",""126022""
""blur"",""14"",""198638""
""focus"",""19"",""239118""
""blur"",""19"",""246288""
""focus"",""19"",""251215""
""blur"",""19"",""277314""
""focus"",""19"",""284844""
""blur"",""19"",""293837""
""focus"",""19"",""310914""
""blur"",""19"",""342648""
""focus"",""19"",""347119""
""blur"",""19"",""350360""
""focus"",""19"",""362536""
""blur"",""19"",""386514""
""focus"",""19"",""394138""
""blur"",""19"",""433425""
""focus"",""19"",""435054""
""blur"",""36"",""501753""
""focus"",""36"",""1242805""
""blur"",""36"",""1245712""
""focus"",""36"",""1254666""
","""event"",""trial"",""time""
""blur"",""7"",""100909""
""blur"",""7"",""117052""
""blur"",""14"",""198638""
""blur"",""19"",""246288""
""blur"",""19"",""277314""
""blur"",""19"",""293837""
""blur"",""19"",""342648""
""blur"",""19"",""350360""
""blur"",""19"",""386514""
""blur"",""19"",""433425""
""blur"",""36"",""501753""
""blur"",""36"",""1245712""
","""event"",""trial"",""time""
""focus"",""7"",""108918""
""focus"",""7"",""126022""
""focus"",""19"",""239118""
""focus"",""19"",""251215""
""focus"",""19"",""284844""
""focus"",""19"",""310914""
""focus"",""19"",""347119""
""focus"",""19"",""362536""
""focus"",""19"",""394138""
""focus"",""19"",""435054""
""focus"",""36"",""1242805""
""focus"",""36"",""1254666""
","""event"",""trial"",""time""
""fullscreenenter"",""1"",""1909""
","""event"",""trial"",""time""
""fullscreenexit"",""2"",""3337""
","","","-1","","","18","5959","1120","&#9761;","elianto","#3366ff99","-1","-1","1","0","[]","0","0","2","","","","","","","",""
"pit-trial","51","1364885","0.0-2.0-11.2-4.2","battery-v0.2","","""event"",""trial"",""time""
""fullscreenenter"",""1"",""1909""
""fullscreenexit"",""2"",""3337""
""blur"",""7"",""100909""
""focus"",""7"",""108918""
""blur"",""7"",""117052""
""focus"",""7"",""126022""
""blur"",""14"",""198638""
""focus"",""19"",""239118""
""blur"",""19"",""246288""
""focus"",""19"",""251215""
""blur"",""19"",""277314""
""focus"",""19"",""284844""
""blur"",""19"",""293837""
""focus"",""19"",""310914""
""blur"",""19"",""342648""
""focus"",""19"",""347119""
""blur"",""19"",""350360""
""focus"",""19"",""362536""
""blur"",""19"",""386514""
""focus"",""19"",""394138""
""blur"",""19"",""433425""
""focus"",""19"",""435054""
""blur"",""36"",""501753""
""focus"",""36"",""1242805""
""blur"",""36"",""1245712""
""focus"",""36"",""1254666""
","""event"",""trial"",""time""
""blur"",""7"",""100909""
""blur"",""7"",""117052""
""blur"",""14"",""198638""
""blur"",""19"",""246288""
""blur"",""19"",""277314""
""blur"",""19"",""293837""
""blur"",""19"",""342648""
""blur"",""19"",""350360""
""blur"",""19"",""386514""
""blur"",""19"",""433425""
""blur"",""36"",""501753""
""blur"",""36"",""1245712""
","""event"",""trial"",""time""
""focus"",""7"",""108918""
""focus"",""7"",""126022""
""focus"",""19"",""239118""
""focus"",""19"",""251215""
""focus"",""19"",""284844""
""focus"",""19"",""310914""
""focus"",""19"",""347119""
""focus"",""19"",""362536""
""focus"",""19"",""394138""
""focus"",""19"",""435054""
""focus"",""36"",""1242805""
""focus"",""36"",""1254666""
","""event"",""trial"",""time""
""fullscreenenter"",""1"",""1909""
","""event"",""trial"",""time""
""fullscreenexit"",""2"",""3337""
","","","-1","","","18","5959","1120","&#9761;","elianto","#3366ff99","-1","-1","1","+10","[]","0","0","2","","","","","","","",""
"pit-trial","52","1369754","0.0-2.0-11.3-0.3","battery-v0.2","","""event"",""trial"",""time""
""fullscreenenter"",""1"",""1909""
""fullscreenexit"",""2"",""3337""
""blur"",""7"",""100909""
""focus"",""7"",""108918""
""blur"",""7"",""117052""
""focus"",""7"",""126022""
""blur"",""14"",""198638""
""focus"",""19"",""239118""
""blur"",""19"",""246288""
""focus"",""19"",""251215""
""blur"",""19"",""277314""
""focus"",""19"",""284844""
""blur"",""19"",""293837""
""focus"",""19"",""310914""
""blur"",""19"",""342648""
""focus"",""19"",""347119""
""blur"",""19"",""350360""
""focus"",""19"",""362536""
""blur"",""19"",""386514""
""focus"",""19"",""394138""
""blur"",""19"",""433425""
""focus"",""19"",""435054""
""blur"",""36"",""501753""
""focus"",""36"",""1242805""
""blur"",""36"",""1245712""
""focus"",""36"",""1254666""
","""event"",""trial"",""time""
""blur"",""7"",""100909""
""blur"",""7"",""117052""
""blur"",""14"",""198638""
""blur"",""19"",""246288""
""blur"",""19"",""277314""
""blur"",""19"",""293837""
""blur"",""19"",""342648""
""blur"",""19"",""350360""
""blur"",""19"",""386514""
""blur"",""19"",""433425""
""blur"",""36"",""501753""
""blur"",""36"",""1245712""
","""event"",""trial"",""time""
""focus"",""7"",""108918""
""focus"",""7"",""126022""
""focus"",""19"",""239118""
""focus"",""19"",""251215""
""focus"",""19"",""284844""
""focus"",""19"",""310914""
""focus"",""19"",""347119""
""focus"",""19"",""362536""
""focus"",""19"",""394138""
""focus"",""19"",""435054""
""focus"",""36"",""1242805""
""focus"",""36"",""1254666""
","""event"",""trial"",""time""
""fullscreenenter"",""1"",""1909""
","""event"",""trial"",""time""
""fullscreenexit"",""2"",""3337""
","","","-1","","","18","5959","1120","&#9761;","elianto","#3366ff99","-1","-1","1","+10","[]","0","0","2","","","","","","","",""
"pit-trial","53","1374621","0.0-2.0-11.3-1.3","battery-v0.2","","""event"",""trial"",""time""
""fullscreenenter"",""1"",""1909""
""fullscreenexit"",""2"",""3337""
""blur"",""7"",""100909""
""focus"",""7"",""108918""
""blur"",""7"",""117052""
""focus"",""7"",""126022""
""blur"",""14"",""198638""
""focus"",""19"",""239118""
""blur"",""19"",""246288""
""focus"",""19"",""251215""
""blur"",""19"",""277314""
""focus"",""19"",""284844""
""blur"",""19"",""293837""
""focus"",""19"",""310914""
""blur"",""19"",""342648""
""focus"",""19"",""347119""
""blur"",""19"",""350360""
""focus"",""19"",""362536""
""blur"",""19"",""386514""
""focus"",""19"",""394138""
""blur"",""19"",""433425""
""focus"",""19"",""435054""
""blur"",""36"",""501753""
""focus"",""36"",""1242805""
""blur"",""36"",""1245712""
""focus"",""36"",""1254666""
","""event"",""trial"",""time""
""blur"",""7"",""100909""
""blur"",""7"",""117052""
""blur"",""14"",""198638""
""blur"",""19"",""246288""
""blur"",""19"",""277314""
""blur"",""19"",""293837""
""blur"",""19"",""342648""
""blur"",""19"",""350360""
""blur"",""19"",""386514""
""blur"",""19"",""433425""
""blur"",""36"",""501753""
""blur"",""36"",""1245712""
","""event"",""trial"",""time""
""focus"",""7"",""108918""
""focus"",""7"",""126022""
""focus"",""19"",""239118""
""focus"",""19"",""251215""
""focus"",""19"",""284844""
""focus"",""19"",""310914""
""focus"",""19"",""347119""
""focus"",""19"",""362536""
""focus"",""19"",""394138""
""focus"",""19"",""435054""
""focus"",""36"",""1242805""
""focus"",""36"",""1254666""
","""event"",""trial"",""time""
""fullscreenenter"",""1"",""1909""
","""event"",""trial"",""time""
""fullscreenexit"",""2"",""3337""
","","","-1","","","18","5959","1120","&#9761;","elianto","#3366ff99","-1","-1","1","+10","[]","0","0","2","","","","","","","",""
"pit-trial","54","1379492","0.0-2.0-11.3-2.3","battery-v0.2","","""event"",""trial"",""time""
""fullscreenenter"",""1"",""1909""
""fullscreenexit"",""2"",""3337""
""blur"",""7"",""100909""
""focus"",""7"",""108918""
""blur"",""7"",""117052""
""focus"",""7"",""126022""
""blur"",""14"",""198638""
""focus"",""19"",""239118""
""blur"",""19"",""246288""
""focus"",""19"",""251215""
""blur"",""19"",""277314""
""focus"",""19"",""284844""
""blur"",""19"",""293837""
""focus"",""19"",""310914""
""blur"",""19"",""342648""
""focus"",""19"",""347119""
""blur"",""19"",""350360""
""focus"",""19"",""362536""
""blur"",""19"",""386514""
""focus"",""19"",""394138""
""blur"",""19"",""433425""
""focus"",""19"",""435054""
""blur"",""36"",""501753""
""focus"",""36"",""1242805""
""blur"",""36"",""1245712""
""focus"",""36"",""1254666""
","""event"",""trial"",""time""
""blur"",""7"",""100909""
""blur"",""7"",""117052""
""blur"",""14"",""198638""
""blur"",""19"",""246288""
""blur"",""19"",""277314""
""blur"",""19"",""293837""
""blur"",""19"",""342648""
""blur"",""19"",""350360""
""blur"",""19"",""386514""
""blur"",""19"",""433425""
""blur"",""36"",""501753""
""blur"",""36"",""1245712""
","""event"",""trial"",""time""
""focus"",""7"",""108918""
""focus"",""7"",""126022""
""focus"",""19"",""239118""
""focus"",""19"",""251215""
""focus"",""19"",""284844""
""focus"",""19"",""310914""
""focus"",""19"",""347119""
""focus"",""19"",""362536""
""focus"",""19"",""394138""
""focus"",""19"",""435054""
""focus"",""36"",""1242805""
""focus"",""36"",""1254666""
","""event"",""trial"",""time""
""fullscreenenter"",""1"",""1909""
","""event"",""trial"",""time""
""fullscreenexit"",""2"",""3337""
","","","-1","","","18","5959","1120","&#9761;","elianto","#3366ff99","-1","-1","1","+10","[]","0","0","2","","","","","","","",""
"pit-trial","55","1384364","0.0-2.0-11.3-3.3","battery-v0.2","","""event"",""trial"",""time""
""fullscreenenter"",""1"",""1909""
""fullscreenexit"",""2"",""3337""
""blur"",""7"",""100909""
""focus"",""7"",""108918""
""blur"",""7"",""117052""
""focus"",""7"",""126022""
""blur"",""14"",""198638""
""focus"",""19"",""239118""
""blur"",""19"",""246288""
""focus"",""19"",""251215""
""blur"",""19"",""277314""
""focus"",""19"",""284844""
""blur"",""19"",""293837""
""focus"",""19"",""310914""
""blur"",""19"",""342648""
""focus"",""19"",""347119""
""blur"",""19"",""350360""
""focus"",""19"",""362536""
""blur"",""19"",""386514""
""focus"",""19"",""394138""
""blur"",""19"",""433425""
""focus"",""19"",""435054""
""blur"",""36"",""501753""
""focus"",""36"",""1242805""
""blur"",""36"",""1245712""
""focus"",""36"",""1254666""
","""event"",""trial"",""time""
""blur"",""7"",""100909""
""blur"",""7"",""117052""
""blur"",""14"",""198638""
""blur"",""19"",""246288""
""blur"",""19"",""277314""
""blur"",""19"",""293837""
""blur"",""19"",""342648""
""blur"",""19"",""350360""
""blur"",""19"",""386514""
""blur"",""19"",""433425""
""blur"",""36"",""501753""
""blur"",""36"",""1245712""
","""event"",""trial"",""time""
""focus"",""7"",""108918""
""focus"",""7"",""126022""
""focus"",""19"",""239118""
""focus"",""19"",""251215""
""focus"",""19"",""284844""
""focus"",""19"",""310914""
""focus"",""19"",""347119""
""focus"",""19"",""362536""
""focus"",""19"",""394138""
""focus"",""19"",""435054""
""focus"",""36"",""1242805""
""focus"",""36"",""1254666""
","""event"",""trial"",""time""
""fullscreenenter"",""1"",""1909""
","""event"",""trial"",""time""
""fullscreenexit"",""2"",""3337""
","","","-1","","","18","5959","1120","&#9761;","elianto","#3366ff99","-1","-1","1","0","[]","0","0","2","","","","","","","",""
"pit-trial","56","1389236","0.0-2.0-11.3-4.3","battery-v0.2","","""event"",""trial"",""time""
""fullscreenenter"",""1"",""1909""
""fullscreenexit"",""2"",""3337""
""blur"",""7"",""100909""
""focus"",""7"",""108918""
""blur"",""7"",""117052""
""focus"",""7"",""126022""
""blur"",""14"",""198638""
""focus"",""19"",""239118""
""blur"",""19"",""246288""
""focus"",""19"",""251215""
""blur"",""19"",""277314""
""focus"",""19"",""284844""
""blur"",""19"",""293837""
""focus"",""19"",""310914""
""blur"",""19"",""342648""
""focus"",""19"",""347119""
""blur"",""19"",""350360""
""focus"",""19"",""362536""
""blur"",""19"",""386514""
""focus"",""19"",""394138""
""blur"",""19"",""433425""
""focus"",""19"",""435054""
""blur"",""36"",""501753""
""focus"",""36"",""1242805""
""blur"",""36"",""1245712""
""focus"",""36"",""1254666""
","""event"",""trial"",""time""
""blur"",""7"",""100909""
""blur"",""7"",""117052""
""blur"",""14"",""198638""
""blur"",""19"",""246288""
""blur"",""19"",""277314""
""blur"",""19"",""293837""
""blur"",""19"",""342648""
""blur"",""19"",""350360""
""blur"",""19"",""386514""
""blur"",""19"",""433425""
""blur"",""36"",""501753""
""blur"",""36"",""1245712""
","""event"",""trial"",""time""
""focus"",""7"",""108918""
""focus"",""7"",""126022""
""focus"",""19"",""239118""
""focus"",""19"",""251215""
""focus"",""19"",""284844""
""focus"",""19"",""310914""
""focus"",""19"",""347119""
""focus"",""19"",""362536""
""focus"",""19"",""394138""
""focus"",""19"",""435054""
""focus"",""36"",""1242805""
""focus"",""36"",""1254666""
","""event"",""trial"",""time""
""fullscreenenter"",""1"",""1909""
","""event"",""trial"",""time""
""fullscreenexit"",""2"",""3337""
","","","-1","","","18","5959","1120","&#9761;","elianto","#3366ff99","-1","-1","1","+10","[]","0","0","2","","","","","","","",""
"call-function","57","1389237","0.0-2.0-12.0","battery-v0.2","","""event"",""trial"",""time""
""fullscreenenter"",""1"",""1909""
""fullscreenexit"",""2"",""3337""
""blur"",""7"",""100909""
""focus"",""7"",""108918""
""blur"",""7"",""117052""
""focus"",""7"",""126022""
""blur"",""14"",""198638""
""focus"",""19"",""239118""
""blur"",""19"",""246288""
""focus"",""19"",""251215""
""blur"",""19"",""277314""
""focus"",""19"",""284844""
""blur"",""19"",""293837""
""focus"",""19"",""310914""
""blur"",""19"",""342648""
""focus"",""19"",""347119""
""blur"",""19"",""350360""
""focus"",""19"",""362536""
""blur"",""19"",""386514""
""focus"",""19"",""394138""
""blur"",""19"",""433425""
""focus"",""19"",""435054""
""blur"",""36"",""501753""
""focus"",""36"",""1242805""
""blur"",""36"",""1245712""
""focus"",""36"",""1254666""
""blur"",""58"",""1419276""
""focus"",""58"",""1435651""
""blur"",""58"",""1464293""
""focus"",""58"",""1472345""
","""event"",""trial"",""time""
""blur"",""7"",""100909""
""blur"",""7"",""117052""
""blur"",""14"",""198638""
""blur"",""19"",""246288""
""blur"",""19"",""277314""
""blur"",""19"",""293837""
""blur"",""19"",""342648""
""blur"",""19"",""350360""
""blur"",""19"",""386514""
""blur"",""19"",""433425""
""blur"",""36"",""501753""
""blur"",""36"",""1245712""
""blur"",""58"",""1419276""
""blur"",""58"",""1464293""
","""event"",""trial"",""time""
""focus"",""7"",""108918""
""focus"",""7"",""126022""
""focus"",""19"",""239118""
""focus"",""19"",""251215""
""focus"",""19"",""284844""
""focus"",""19"",""310914""
""focus"",""19"",""347119""
""focus"",""19"",""362536""
""focus"",""19"",""394138""
""focus"",""19"",""435054""
""focus"",""36"",""1242805""
""focus"",""36"",""1254666""
""focus"",""58"",""1435651""
""focus"",""58"",""1472345""
","""event"",""trial"",""time""
""fullscreenenter"",""1"",""1909""
","""event"",""trial"",""time""
""fullscreenexit"",""2"",""3337""
","","","","","","","","","","","","","","","","","","","","","","","","","","",""
"pit-instructions","58","1473152","0.0-2.0-13.0","battery-v0.2","","""event"",""trial"",""time""
""fullscreenenter"",""1"",""1909""
""fullscreenexit"",""2"",""3337""
""blur"",""7"",""100909""
""focus"",""7"",""108918""
""blur"",""7"",""117052""
""focus"",""7"",""126022""
""blur"",""14"",""198638""
""focus"",""19"",""239118""
""blur"",""19"",""246288""
""focus"",""19"",""251215""
""blur"",""19"",""277314""
""focus"",""19"",""284844""
""blur"",""19"",""293837""
""focus"",""19"",""310914""
""blur"",""19"",""342648""
""focus"",""19"",""347119""
""blur"",""19"",""350360""
""focus"",""19"",""362536""
""blur"",""19"",""386514""
""focus"",""19"",""394138""
""blur"",""19"",""433425""
""focus"",""19"",""435054""
""blur"",""36"",""501753""
""focus"",""36"",""1242805""
""blur"",""36"",""1245712""
""focus"",""36"",""1254666""
""blur"",""58"",""1419276""
""focus"",""58"",""1435651""
""blur"",""58"",""1464293""
""focus"",""58"",""1472345""
","""event"",""trial"",""time""
""blur"",""7"",""100909""
""blur"",""7"",""117052""
""blur"",""14"",""198638""
""blur"",""19"",""246288""
""blur"",""19"",""277314""
""blur"",""19"",""293837""
""blur"",""19"",""342648""
""blur"",""19"",""350360""
""blur"",""19"",""386514""
""blur"",""19"",""433425""
""blur"",""36"",""501753""
""blur"",""36"",""1245712""
""blur"",""58"",""1419276""
""blur"",""58"",""1464293""
","""event"",""trial"",""time""
""focus"",""7"",""108918""
""focus"",""7"",""126022""
""focus"",""19"",""239118""
""focus"",""19"",""251215""
""focus"",""19"",""284844""
""focus"",""19"",""310914""
""focus"",""19"",""347119""
""focus"",""19"",""362536""
""focus"",""19"",""394138""
""focus"",""19"",""435054""
""focus"",""36"",""1242805""
""focus"",""36"",""1254666""
""focus"",""58"",""1435651""
""focus"",""58"",""1472345""
","""event"",""trial"",""time""
""fullscreenenter"",""1"",""1909""
","""event"",""trial"",""time""
""fullscreenexit"",""2"",""3337""
","","[{""page_index"":0,""viewing_time"":5583.0999999940395},{""page_index"":1,""viewing_time"":14656.699999988079},{""page_index"":2,""viewing_time"":5133.9000000059605},{""page_index"":3,""viewing_time"":41259.5},{""page_index"":4,""viewing_time"":9564.59999999404}]","76202.09999999404","","","","","","","","","","","","","","","","","","","","","","","",""
"pit-trial","59","1478036","0.0-2.0-14.0-0.0","battery-v0.2","","""event"",""trial"",""time""
""fullscreenenter"",""1"",""1909""
""fullscreenexit"",""2"",""3337""
""blur"",""7"",""100909""
""focus"",""7"",""108918""
""blur"",""7"",""117052""
""focus"",""7"",""126022""
""blur"",""14"",""198638""
""focus"",""19"",""239118""
""blur"",""19"",""246288""
""focus"",""19"",""251215""
""blur"",""19"",""277314""
""focus"",""19"",""284844""
""blur"",""19"",""293837""
""focus"",""19"",""310914""
""blur"",""19"",""342648""
""focus"",""19"",""347119""
""blur"",""19"",""350360""
""focus"",""19"",""362536""
""blur"",""19"",""386514""
""focus"",""19"",""394138""
""blur"",""19"",""433425""
""focus"",""19"",""435054""
""blur"",""36"",""501753""
""focus"",""36"",""1242805""
""blur"",""36"",""1245712""
""focus"",""36"",""1254666""
""blur"",""58"",""1419276""
""focus"",""58"",""1435651""
""blur"",""58"",""1464293""
""focus"",""58"",""1472345""
","""event"",""trial"",""time""
""blur"",""7"",""100909""
""blur"",""7"",""117052""
""blur"",""14"",""198638""
""blur"",""19"",""246288""
""blur"",""19"",""277314""
""blur"",""19"",""293837""
""blur"",""19"",""342648""
""blur"",""19"",""350360""
""blur"",""19"",""386514""
""blur"",""19"",""433425""
""blur"",""36"",""501753""
""blur"",""36"",""1245712""
""blur"",""58"",""1419276""
""blur"",""58"",""1464293""
","""event"",""trial"",""time""
""focus"",""7"",""108918""
""focus"",""7"",""126022""
""focus"",""19"",""239118""
""focus"",""19"",""251215""
""focus"",""19"",""284844""
""focus"",""19"",""310914""
""focus"",""19"",""347119""
""focus"",""19"",""362536""
""focus"",""19"",""394138""
""focus"",""19"",""435054""
""focus"",""36"",""1242805""
""focus"",""36"",""1254666""
""focus"",""58"",""1435651""
""focus"",""58"",""1472345""
","""event"",""trial"",""time""
""fullscreenenter"",""1"",""1909""
","""event"",""trial"",""time""
""fullscreenexit"",""2"",""3337""
","","","-1","","","18","5959","1120","&#9826;","elianto","#f73b6a7A","-1","-1","1","0","[]","0","0","3","","","","","","","",""
"pit-trial","60","1481428","0.0-2.0-14.0-1.0","battery-v0.2","","""event"",""trial"",""time""
""fullscreenenter"",""1"",""1909""
""fullscreenexit"",""2"",""3337""
""blur"",""7"",""100909""
""focus"",""7"",""108918""
""blur"",""7"",""117052""
""focus"",""7"",""126022""
""blur"",""14"",""198638""
""focus"",""19"",""239118""
""blur"",""19"",""246288""
""focus"",""19"",""251215""
""blur"",""19"",""277314""
""focus"",""19"",""284844""
""blur"",""19"",""293837""
""focus"",""19"",""310914""
""blur"",""19"",""342648""
""focus"",""19"",""347119""
""blur"",""19"",""350360""
""focus"",""19"",""362536""
""blur"",""19"",""386514""
""focus"",""19"",""394138""
""blur"",""19"",""433425""
""focus"",""19"",""435054""
""blur"",""36"",""501753""
""focus"",""36"",""1242805""
""blur"",""36"",""1245712""
""focus"",""36"",""1254666""
""blur"",""58"",""1419276""
""focus"",""58"",""1435651""
""blur"",""58"",""1464293""
""focus"",""58"",""1472345""
","""event"",""trial"",""time""
""blur"",""7"",""100909""
""blur"",""7"",""117052""
""blur"",""14"",""198638""
""blur"",""19"",""246288""
""blur"",""19"",""277314""
""blur"",""19"",""293837""
""blur"",""19"",""342648""
""blur"",""19"",""350360""
""blur"",""19"",""386514""
""blur"",""19"",""433425""
""blur"",""36"",""501753""
""blur"",""36"",""1245712""
""blur"",""58"",""1419276""
""blur"",""58"",""1464293""
","""event"",""trial"",""time""
""focus"",""7"",""108918""
""focus"",""7"",""126022""
""focus"",""19"",""239118""
""focus"",""19"",""251215""
""focus"",""19"",""284844""
""focus"",""19"",""310914""
""focus"",""19"",""347119""
""focus"",""19"",""362536""
""focus"",""19"",""394138""
""focus"",""19"",""435054""
""focus"",""36"",""1242805""
""focus"",""36"",""1254666""
""focus"",""58"",""1435651""
""focus"",""58"",""1472345""
","""event"",""trial"",""time""
""fullscreenenter"",""1"",""1909""
","""event"",""trial"",""time""
""fullscreenexit"",""2"",""3337""
","","","526.5999999940395","","","18","5959","1120","&#9826;","elianto","#f73b6a7A","-1"," ","0","-10","[1382.199999988079]","1","0","3","","","","","","","",""
"pit-trial","61","1484603","0.0-2.0-14.0-2.0","battery-v0.2","","""event"",""trial"",""time""
""fullscreenenter"",""1"",""1909""
""fullscreenexit"",""2"",""3337""
""blur"",""7"",""100909""
""focus"",""7"",""108918""
""blur"",""7"",""117052""
""focus"",""7"",""126022""
""blur"",""14"",""198638""
""focus"",""19"",""239118""
""blur"",""19"",""246288""
""focus"",""19"",""251215""
""blur"",""19"",""277314""
""focus"",""19"",""284844""
""blur"",""19"",""293837""
""focus"",""19"",""310914""
""blur"",""19"",""342648""
""focus"",""19"",""347119""
""blur"",""19"",""350360""
""focus"",""19"",""362536""
""blur"",""19"",""386514""
""focus"",""19"",""394138""
""blur"",""19"",""433425""
""focus"",""19"",""435054""
""blur"",""36"",""501753""
""focus"",""36"",""1242805""
""blur"",""36"",""1245712""
""focus"",""36"",""1254666""
""blur"",""58"",""1419276""
""focus"",""58"",""1435651""
""blur"",""58"",""1464293""
""focus"",""58"",""1472345""
","""event"",""trial"",""time""
""blur"",""7"",""100909""
""blur"",""7"",""117052""
""blur"",""14"",""198638""
""blur"",""19"",""246288""
""blur"",""19"",""277314""
""blur"",""19"",""293837""
""blur"",""19"",""342648""
""blur"",""19"",""350360""
""blur"",""19"",""386514""
""blur"",""19"",""433425""
""blur"",""36"",""501753""
""blur"",""36"",""1245712""
""blur"",""58"",""1419276""
""blur"",""58"",""1464293""
","""event"",""trial"",""time""
""focus"",""7"",""108918""
""focus"",""7"",""126022""
""focus"",""19"",""239118""
""focus"",""19"",""251215""
""focus"",""19"",""284844""
""focus"",""19"",""310914""
""focus"",""19"",""347119""
""focus"",""19"",""362536""
""focus"",""19"",""394138""
""focus"",""19"",""435054""
""focus"",""36"",""1242805""
""focus"",""36"",""1254666""
""focus"",""58"",""1435651""
""focus"",""58"",""1472345""
","""event"",""trial"",""time""
""fullscreenenter"",""1"",""1909""
","""event"",""trial"",""time""
""fullscreenexit"",""2"",""3337""
","","","303.40000000596046","","","18","5959","1120","&#9826;","elianto","#f73b6a7A","-1"," ","0","-10","[1161.7999999821186]","1","0","3","","","","","","","",""
"pit-trial","62","1487947","0.0-2.0-14.0-3.0","battery-v0.2","","""event"",""trial"",""time""
""fullscreenenter"",""1"",""1909""
""fullscreenexit"",""2"",""3337""
""blur"",""7"",""100909""
""focus"",""7"",""108918""
""blur"",""7"",""117052""
""focus"",""7"",""126022""
""blur"",""14"",""198638""
""focus"",""19"",""239118""
""blur"",""19"",""246288""
""focus"",""19"",""251215""
""blur"",""19"",""277314""
""focus"",""19"",""284844""
""blur"",""19"",""293837""
""focus"",""19"",""310914""
""blur"",""19"",""342648""
""focus"",""19"",""347119""
""blur"",""19"",""350360""
""focus"",""19"",""362536""
""blur"",""19"",""386514""
""focus"",""19"",""394138""
""blur"",""19"",""433425""
""focus"",""19"",""435054""
""blur"",""36"",""501753""
""focus"",""36"",""1242805""
""blur"",""36"",""1245712""
""focus"",""36"",""1254666""
""blur"",""58"",""1419276""
""focus"",""58"",""1435651""
""blur"",""58"",""1464293""
""focus"",""58"",""1472345""
","""event"",""trial"",""time""
""blur"",""7"",""100909""
""blur"",""7"",""117052""
""blur"",""14"",""198638""
""blur"",""19"",""246288""
""blur"",""19"",""277314""
""blur"",""19"",""293837""
""blur"",""19"",""342648""
""blur"",""19"",""350360""
""blur"",""19"",""386514""
""blur"",""19"",""433425""
""blur"",""36"",""501753""
""blur"",""36"",""1245712""
""blur"",""58"",""1419276""
""blur"",""58"",""1464293""
","""event"",""trial"",""time""
""focus"",""7"",""108918""
""focus"",""7"",""126022""
""focus"",""19"",""239118""
""focus"",""19"",""251215""
""focus"",""19"",""284844""
""focus"",""19"",""310914""
""focus"",""19"",""347119""
""focus"",""19"",""362536""
""focus"",""19"",""394138""
""focus"",""19"",""435054""
""focus"",""36"",""1242805""
""focus"",""36"",""1254666""
""focus"",""58"",""1435651""
""focus"",""58"",""1472345""
","""event"",""trial"",""time""
""fullscreenenter"",""1"",""1909""
","""event"",""trial"",""time""
""fullscreenexit"",""2"",""3337""
","","","486.40000000596046","","","18","5959","1120","&#9826;","elianto","#f73b6a7A","-1"," ","0","0","[1337.4000000059605]","1","0","3","","","","","","","",""
"pit-trial","63","1492811","0.0-2.0-14.0-4.0","battery-v0.2","","""event"",""trial"",""time""
""fullscreenenter"",""1"",""1909""
""fullscreenexit"",""2"",""3337""
""blur"",""7"",""100909""
""focus"",""7"",""108918""
""blur"",""7"",""117052""
""focus"",""7"",""126022""
""blur"",""14"",""198638""
""focus"",""19"",""239118""
""blur"",""19"",""246288""
""focus"",""19"",""251215""
""blur"",""19"",""277314""
""focus"",""19"",""284844""
""blur"",""19"",""293837""
""focus"",""19"",""310914""
""blur"",""19"",""342648""
""focus"",""19"",""347119""
""blur"",""19"",""350360""
""focus"",""19"",""362536""
""blur"",""19"",""386514""
""focus"",""19"",""394138""
""blur"",""19"",""433425""
""focus"",""19"",""435054""
""blur"",""36"",""501753""
""focus"",""36"",""1242805""
""blur"",""36"",""1245712""
""focus"",""36"",""1254666""
""blur"",""58"",""1419276""
""focus"",""58"",""1435651""
""blur"",""58"",""1464293""
""focus"",""58"",""1472345""
","""event"",""trial"",""time""
""blur"",""7"",""100909""
""blur"",""7"",""117052""
""blur"",""14"",""198638""
""blur"",""19"",""246288""
""blur"",""19"",""277314""
""blur"",""19"",""293837""
""blur"",""19"",""342648""
""blur"",""19"",""350360""
""blur"",""19"",""386514""
""blur"",""19"",""433425""
""blur"",""36"",""501753""
""blur"",""36"",""1245712""
""blur"",""58"",""1419276""
""blur"",""58"",""1464293""
","""event"",""trial"",""time""
""focus"",""7"",""108918""
""focus"",""7"",""126022""
""focus"",""19"",""239118""
""focus"",""19"",""251215""
""focus"",""19"",""284844""
""focus"",""19"",""310914""
""focus"",""19"",""347119""
""focus"",""19"",""362536""
""focus"",""19"",""394138""
""focus"",""19"",""435054""
""focus"",""36"",""1242805""
""focus"",""36"",""1254666""
""focus"",""58"",""1435651""
""focus"",""58"",""1472345""
","""event"",""trial"",""time""
""fullscreenenter"",""1"",""1909""
","""event"",""trial"",""time""
""fullscreenexit"",""2"",""3337""
","","","-1","","","18","5959","1120","&#9826;","elianto","#f73b6a7A","-1","-1","1","0","[]","0","0","3","","","","","","","",""
"pit-trial","64","1497681","0.0-2.0-14.1-0.1","battery-v0.2","","""event"",""trial"",""time""
""fullscreenenter"",""1"",""1909""
""fullscreenexit"",""2"",""3337""
""blur"",""7"",""100909""
""focus"",""7"",""108918""
""blur"",""7"",""117052""
""focus"",""7"",""126022""
""blur"",""14"",""198638""
""focus"",""19"",""239118""
""blur"",""19"",""246288""
""focus"",""19"",""251215""
""blur"",""19"",""277314""
""focus"",""19"",""284844""
""blur"",""19"",""293837""
""focus"",""19"",""310914""
""blur"",""19"",""342648""
""focus"",""19"",""347119""
""blur"",""19"",""350360""
""focus"",""19"",""362536""
""blur"",""19"",""386514""
""focus"",""19"",""394138""
""blur"",""19"",""433425""
""focus"",""19"",""435054""
""blur"",""36"",""501753""
""focus"",""36"",""1242805""
""blur"",""36"",""1245712""
""focus"",""36"",""1254666""
""blur"",""58"",""1419276""
""focus"",""58"",""1435651""
""blur"",""58"",""1464293""
""focus"",""58"",""1472345""
","""event"",""trial"",""time""
""blur"",""7"",""100909""
""blur"",""7"",""117052""
""blur"",""14"",""198638""
""blur"",""19"",""246288""
""blur"",""19"",""277314""
""blur"",""19"",""293837""
""blur"",""19"",""342648""
""blur"",""19"",""350360""
""blur"",""19"",""386514""
""blur"",""19"",""433425""
""blur"",""36"",""501753""
""blur"",""36"",""1245712""
""blur"",""58"",""1419276""
""blur"",""58"",""1464293""
","""event"",""trial"",""time""
""focus"",""7"",""108918""
""focus"",""7"",""126022""
""focus"",""19"",""239118""
""focus"",""19"",""251215""
""focus"",""19"",""284844""
""focus"",""19"",""310914""
""focus"",""19"",""347119""
""focus"",""19"",""362536""
""focus"",""19"",""394138""
""focus"",""19"",""435054""
