"trial_type","trial_index","time_elapsed","internal_node_id","task_version","subject_id","interactions","blur_events","focus_events","fullscreenenter_events","fullscreenexit_events","success","view_history","rt","responses","num_errors","age","subject","participantId","rune","rune_set","hex","correct","choice","accuracy","outcome","keys","total_keys","block","practice","value","sub","trial","stimulus","robot","valence","action","sham"
"pavlovia","0","205","0.0-0.0","battery-v0.2","","""event"",""trial"",""time""
""fullscreenenter"",""1"",""6358""
","
","
","""event"",""trial"",""time""
""fullscreenenter"",""1"",""6358""
","
","","","","","","","","","","","","","","","","","","","","","","","","","","",""
"fullscreen","1","7335","0.0-1.0","battery-v0.2","","""event"",""trial"",""time""
""fullscreenenter"",""1"",""6358""
","
","
","""event"",""trial"",""time""
""fullscreenenter"",""1"",""6358""
","
","true","","","","","","","","","","","","","","","","","","","","","","","","","",""
"pit-instructions","2","18743","0.0-2.0-0.0","battery-v0.2","","""event"",""trial"",""time""
""fullscreenenter"",""1"",""6358""
","
","
","""event"",""trial"",""time""
""fullscreenenter"",""1"",""6358""
","
","","[{""page_index"":0,""viewing_time"":11390.299999952316}]","11390.700000047684","","","","","","","","","","","","","","","","","","","","","","","",""
"pit-comprehension","3","22517","0.0-2.0-1.0-0.0","battery-v0.2","","""event"",""trial"",""time""
""fullscreenenter"",""1"",""6358""
","
","
","""event"",""trial"",""time""
""fullscreenenter"",""1"",""6358""
","
","","","3764.7000000476837","[""shark""]","0","19","15342","6071","","","","","","","","","","","","","","","","","","",""
"pit-instructions","4","25177","0.0-2.0-1.0-1.0","battery-v0.2","","""event"",""trial"",""time""
""fullscreenenter"",""1"",""6358""
","
","
","""event"",""trial"",""time""
""fullscreenenter"",""1"",""6358""
","
","","[{""page_index"":0,""viewing_time"":2640.2999999523163}]","2640.899999856949","","","","","","","","","","","","","","","","","","","","","","","",""
"pit-comprehension","5","28077","0.0-2.0-2.0-0.0","battery-v0.2","","""event"",""trial"",""time""
""fullscreenenter"",""1"",""6358""
","
","
","""event"",""trial"",""time""
""fullscreenenter"",""1"",""6358""
","
","","","2895.5999999046326","[""tiger""]","0","19","15342","6071","","","","","","","","","","","","","","","","","","",""
"pit-instructions","6","46477","0.0-2.0-2.0-1.0","battery-v0.2","","""event"",""trial"",""time""
""fullscreenenter"",""1"",""6358""
","
","
","""event"",""trial"",""time""
""fullscreenenter"",""1"",""6358""
","
","","[{""page_index"":0,""viewing_time"":18396.299999952316}]","18396.700000047684","","","","","","","","","","","","","","","","","","","","","","","",""
"pit-instructions","7","214453","0.0-2.0-3.0","battery-v0.2","","""event"",""trial"",""time""
""fullscreenenter"",""1"",""6358""
","
","
","""event"",""trial"",""time""
""fullscreenenter"",""1"",""6358""
","
","","[{""page_index"":0,""viewing_time"":12731.099999904633},{""page_index"":1,""viewing_time"":36507.700000047684},{""page_index"":2,""viewing_time"":25162.099999904633},{""page_index"":3,""viewing_time"":8347.799999952316},{""page_index"":4,""viewing_time"":6100.600000143051},{""page_index"":5,""viewing_time"":5316.899999856949},{""page_index"":6,""viewing_time"":6200.200000047684},{""page_index"":7,""viewing_time"":9283.900000095367},{""page_index"":8,""viewing_time"":22683},{""page_index"":9,""viewing_time"":7916.599999904633},{""page_index"":10,""viewing_time"":7776.100000143051},{""page_index"":11,""viewing_time"":7309.5},{""page_index"":12,""viewing_time"":7199},{""page_index"":13,""viewing_time"":5434.099999904633}]","167976.5","","","","","","","","","","","","","","","","","","","","","","","",""
"pit-trial","8","217701","0.0-2.0-4.0-0.0","battery-v0.2","","""event"",""trial"",""time""
""fullscreenenter"",""1"",""6358""
","
","
","""event"",""trial"",""time""
""fullscreenenter"",""1"",""6358""
","
","","","387.90000009536743","","","19","15342","6071","&#9784;","elianto","#FFFFF080"," "," ","1","&#10004","[1239.4000000953674]","1","0","0","","","","","","","",""
"pit-trial","9","221248","0.0-2.0-4.1-0.1","battery-v0.2","","""event"",""trial"",""time""
""fullscreenenter"",""1"",""6358""
","
","
","""event"",""trial"",""time""
""fullscreenenter"",""1"",""6358""
","
","","","687.7999999523163","","","19","15342","6071","&#9784;","elianto","#FFFFF080"," "," ","1","&#10004","[1539.7999999523163]","1","0","0","","","","","","","",""
"pit-trial","10","224762","0.0-2.0-4.2-0.2","battery-v0.2","","""event"",""trial"",""time""
""fullscreenenter"",""1"",""6358""
","
","
","""event"",""trial"",""time""
""fullscreenenter"",""1"",""6358""
","
","","","658.5","","","19","15342","6071","&#9784;","elianto","#FFFFF080"," "," ","1","&#10004","[1509.2000000476837]","1","0","0","","","","","","","",""
"pit-trial","11","228209","0.0-2.0-4.3-0.3","battery-v0.2","","""event"",""trial"",""time""
""fullscreenenter"",""1"",""6358""
","
","
","""event"",""trial"",""time""
""fullscreenenter"",""1"",""6358""
","
","","","591.4000000953674","","","19","15342","6071","&#9784;","elianto","#FFFFF080"," "," ","1","&#10004","[1442.1000001430511]","1","0","0","","","","","","","",""
"pit-trial","12","231808","0.0-2.0-4.4-0.4","battery-v0.2","","""event"",""trial"",""time""
""fullscreenenter"",""1"",""6358""
","
","
","""event"",""trial"",""time""
""fullscreenenter"",""1"",""6358""
","
","","","742.9000000953674","","","19","15342","6071","&#9784;","elianto","#FFFFF080"," "," ","1","&#10004","[1593.5999999046326]","1","0","0","","","","","","","",""
"pit-instructions","13","252762","0.0-2.0-5.0","battery-v0.2","","""event"",""trial"",""time""
""fullscreenenter"",""1"",""6358""
","
","
","""event"",""trial"",""time""
""fullscreenenter"",""1"",""6358""
","
","","[{""page_index"":0,""viewing_time"":4809.399999856949},{""page_index"":1,""viewing_time"":5217.200000047684},{""page_index"":2,""viewing_time"":5683.799999952316},{""page_index"":3,""viewing_time"":5235}]","20945.89999985695","","","","","","","","","","","","","","","","","","","","","","","",""
"pit-trial","14","257619","0.0-2.0-6.0-0.0","battery-v0.2","","""event"",""trial"",""time""
""fullscreenenter"",""1"",""6358""
","
","
","""event"",""trial"",""time""
""fullscreenenter"",""1"",""6358""
","
","","","-1","","","19","15342","6071","&#9854;","elianto","#FFFFF080","-1","-1","1","&#10004","[]","0","0","1","","","","","","","",""
"pit-trial","15","262478","0.0-2.0-6.1-0.1","battery-v0.2","","""event"",""trial"",""time""
""fullscreenenter"",""1"",""6358""
","
","
","""event"",""trial"",""time""
""fullscreenenter"",""1"",""6358""
","
","","","-1","","","19","15342","6071","&#9854;","elianto","#FFFFF080","-1","-1","1","&#10004","[]","0","0","1","","","","","","","",""
"pit-trial","16","267337","0.0-2.0-6.2-0.2","battery-v0.2","","""event"",""trial"",""time""
""fullscreenenter"",""1"",""6358""
","
","
","""event"",""trial"",""time""
""fullscreenenter"",""1"",""6358""
","
","","","-1","","","19","15342","6071","&#9854;","elianto","#FFFFF080","-1","-1","1","&#10004","[]","0","0","1","","","","","","","",""
"pit-trial","17","272194","0.0-2.0-6.3-0.3","battery-v0.2","","""event"",""trial"",""time""
""fullscreenenter"",""1"",""6358""
","
","
","""event"",""trial"",""time""
""fullscreenenter"",""1"",""6358""
","
","","","-1","","","19","15342","6071","&#9854;","elianto","#FFFFF080","-1","-1","1","&#10004","[]","0","0","1","","","","","","","",""
"pit-trial","18","277051","0.0-2.0-6.4-0.4","battery-v0.2","","""event"",""trial"",""time""
""fullscreenenter"",""1"",""6358""
","
","
","""event"",""trial"",""time""
""fullscreenenter"",""1"",""6358""
","
","","","-1","","","19","15342","6071","&#9854;","elianto","#FFFFF080","-1","-1","1","&#10004","[]","0","0","1","","","","","","","",""
"pit-instructions","19","406967","0.0-2.0-7.0","battery-v0.2","","""event"",""trial"",""time""
""fullscreenenter"",""1"",""6358""
","
","
","""event"",""trial"",""time""
""fullscreenenter"",""1"",""6358""
","
","","[{""page_index"":0,""viewing_time"":5740.100000143051},{""page_index"":1,""viewing_time"":7912.599999904633},{""page_index"":2,""viewing_time"":5868.100000143051},{""page_index"":3,""viewing_time"":5767},{""page_index"":4,""viewing_time"":5366.099999904633},{""page_index"":5,""viewing_time"":5353.200000047684},{""page_index"":6,""viewing_time"":4498.799999952316},{""page_index"":7,""viewing_time"":10248},{""page_index"":8,""viewing_time"":6534},{""page_index"":9,""viewing_time"":6017},{""page_index"":10,""viewing_time"":6249.700000047684},{""page_index"":11,""viewing_time"":4816.599999904633},{""page_index"":12,""viewing_time"":6751.200000047684},{""page_index"":13,""viewing_time"":13583.200000047684},{""page_index"":14,""viewing_time"":11486.399999856949},{""page_index"":15,""viewing_time"":11447.5},{""page_index"":16,""viewing_time"":6117.600000143051},{""page_index"":17,""viewing_time"":6149.799999952316}]","129911","","","","","","","","","","","","","","","","","","","","","","","",""
"pit-trial","20","410451","0.0-2.0-8.0-0.0","battery-v0.2","","""event"",""trial"",""time""
""fullscreenenter"",""1"",""6358""
","
","
","""event"",""trial"",""time""
""fullscreenenter"",""1"",""6358""
","
","","","622.5","","","19","15342","6071","&#9776;","elianto","#3366ff99"," "," ","1","+10","[1475.2999999523163]","1","0","1","","","","","","","",""
"pit-trial","21","413761","0.0-2.0-8.0-1.0","battery-v0.2","","""event"",""trial"",""time""
""fullscreenenter"",""1"",""6358""
","
","
","""event"",""trial"",""time""
""fullscreenenter"",""1"",""6358""
","
","","","454.10000014305115","","","19","15342","6071","&#9776;","elianto","#3366ff99"," "," ","1","+10","[1305.1000001430511]","1","0","1","","","","","","","",""
"pit-trial","22","417018","0.0-2.0-8.0-2.0","battery-v0.2","","""event"",""trial"",""time""
""fullscreenenter"",""1"",""6358""
","
","
","""event"",""trial"",""time""
""fullscreenenter"",""1"",""6358""
","
","","","400.2999999523163","","","19","15342","6071","&#9776;","elianto","#3366ff99"," "," ","1","+10","[1253.0999999046326]","1","0","1","","","","","","","",""
"pit-trial","23","420298","0.0-2.0-8.0-3.0","battery-v0.2","","""event"",""trial"",""time""
""fullscreenenter"",""1"",""6358""
","
","
","""event"",""trial"",""time""
""fullscreenenter"",""1"",""6358""
","
","","","421.90000009536743","","","19","15342","6071","&#9776;","elianto","#3366ff99"," "," ","1","0","[1273.5]","1","0","1","","","","","","","",""
"pit-trial","24","423621","0.0-2.0-8.0-4.0","battery-v0.2","","""event"",""trial"",""time""
""fullscreenenter"",""1"",""6358""
","
","
","""event"",""trial"",""time""
""fullscreenenter"",""1"",""6358""
","
","","","468","","","19","15342","6071","&#9776;","elianto","#3366ff99"," "," ","1","+10","[1318.6999998092651]","1","0","1","","","","","","","",""
"pit-trial","25","426987","0.0-2.0-8.1-0.1","battery-v0.2","","""event"",""trial"",""time""
""fullscreenenter"",""1"",""6358""
","
","
","""event"",""trial"",""time""
""fullscreenenter"",""1"",""6358""
","
","","","507.60000014305115","","","19","15342","6071","&#9776;","elianto","#3366ff99"," "," ","1","+10","[1358.6999998092651]","1","0","1","","","","","","","",""
"pit-trial","26","430483","0.0-2.0-8.1-1.1","battery-v0.2","","""event"",""trial"",""time""
""fullscreenenter"",""1"",""6358""
","
","
","""event"",""trial"",""time""
""fullscreenenter"",""1"",""6358""
","
","","","639.4000000953674","","","19","15342","6071","&#9776;","elianto","#3366ff99"," "," ","1","+10","[1491.2999999523163]","1","0","1","","","","","","","",""
"pit-trial","27","434397","0.0-2.0-8.1-2.1","battery-v0.2","","""event"",""trial"",""time""
""fullscreenenter"",""1"",""6358""
","
","
","""event"",""trial"",""time""
""fullscreenenter"",""1"",""6358""
","
","","","1059.3999998569489","","","19","15342","6071","&#9776;","elianto","#3366ff99"," "," ","1","+10","[1910.2999999523163]","1","0","1","","","","","","","",""
"pit-trial","28","437861","0.0-2.0-8.1-3.1","battery-v0.2","","""event"",""trial"",""time""
""fullscreenenter"",""1"",""6358""
","
","
","""event"",""trial"",""time""
""fullscreenenter"",""1"",""6358""
","
","","","607.5","","","19","15342","6071","&#9776;","elianto","#3366ff99"," "," ","1","0","[1458]","1","0","1","","","","","","","",""
"pit-trial","29","441687","0.0-2.0-8.1-4.1","battery-v0.2","","""event"",""trial"",""time""
""fullscreenenter"",""1"",""6358""
","
","
","""event"",""trial"",""time""
""fullscreenenter"",""1"",""6358""
","
","","","969.5","","","19","15342","6071","&#9776;","elianto","#3366ff99"," "," ","1","+10","[1821]","1","0","1","","","","","","","",""
"pit-trial","30","445253","0.0-2.0-8.2-0.2","battery-v0.2","","""event"",""trial"",""time""
""fullscreenenter"",""1"",""6358""
","
","
","""event"",""trial"",""time""
""fullscreenenter"",""1"",""6358""
","
","","","707.2000000476837","","","19","15342","6071","&#9776;","elianto","#3366ff99"," "," ","1","+10","[1559]","1","0","1","","","","","","","",""
"pit-trial","31","448568","0.0-2.0-8.2-1.2","battery-v0.2","","""event"",""trial"",""time""
""fullscreenenter"",""1"",""6358""
","
","
","""event"",""trial"",""time""
""fullscreenenter"",""1"",""6358""
","
","","","453.40000009536743","","","19","15342","6071","&#9776;","elianto","#3366ff99"," "," ","1","+10","[1304.7000000476837]","1","0","1","","","","","","","",""
"pit-trial","32","451818","0.0-2.0-8.2-2.2","battery-v0.2","","""event"",""trial"",""time""
""fullscreenenter"",""1"",""6358""
","
","
","""event"",""trial"",""time""
""fullscreenenter"",""1"",""6358""
","
","","","393.7000000476837","","","19","15342","6071","&#9776;","elianto","#3366ff99"," "," ","1","+10","[1245.2000000476837]","1","0","1","","","","","","","",""
"pit-trial","33","455029","0.0-2.0-8.2-3.2","battery-v0.2","","""event"",""trial"",""time""
""fullscreenenter"",""1"",""6358""
","
","
","""event"",""trial"",""time""
""fullscreenenter"",""1"",""6358""
","
","","","356.09999990463257","","","19","15342","6071","&#9776;","elianto","#3366ff99"," "," ","1","0","[1207.4000000953674]","1","0","1","","","","","","","",""
"pit-trial","34","458279","0.0-2.0-8.2-4.2","battery-v0.2","","""event"",""trial"",""time""
""fullscreenenter"",""1"",""6358""
","
","
","""event"",""trial"",""time""
""fullscreenenter"",""1"",""6358""
","
","","","394.80000019073486","","","19","15342","6071","&#9776;","elianto","#3366ff99"," "," ","1","+10","[1245.5]","1","0","1","","","","","","","",""
"call-function","35","458283","0.0-2.0-9.0","battery-v0.2","","""event"",""trial"",""time""
""fullscreenenter"",""1"",""6358""
","
","
","""event"",""trial"",""time""
""fullscreenenter"",""1"",""6358""
","
","","","","","","","","","","","","","","","","","","","","","","","","","","",""
"pit-instructions","36","501246","0.0-2.0-10.0","battery-v0.2","","""event"",""trial"",""time""
""fullscreenenter"",""1"",""6358""
","
","
","""event"",""trial"",""time""
""fullscreenenter"",""1"",""6358""
","
","","[{""page_index"":0,""viewing_time"":6141.700000047684},{""page_index"":1,""viewing_time"":8583.700000047684},{""page_index"":2,""viewing_time"":9534.400000095367},{""page_index"":3,""viewing_time"":11333.699999809265},{""page_index"":4,""viewing_time"":7367.200000047684}]","42962.5","","","","","","","","","","","","","","","","","","","","","","","",""
"pit-trial","37","504597","0.0-2.0-11.0-0.0","battery-v0.2","","""event"",""trial"",""time""
""fullscreenenter"",""1"",""6358""
","
","
","""event"",""trial"",""time""
""fullscreenenter"",""1"",""6358""
","
","","","493","","","19","15342","6071","&#9761;","elianto","#3366ff99","-1"," ","0","0","[1344.6000001430511]","1","0","2","","","","","","","",""
"pit-trial","38","509453","0.0-2.0-11.0-1.0","battery-v0.2","","""event"",""trial"",""time""
""fullscreenenter"",""1"",""6358""
","
","
","""event"",""trial"",""time""
""fullscreenenter"",""1"",""6358""
","
","","","-1","","","19","15342","6071","&#9761;","elianto","#3366ff99","-1","-1","1","+10","[]","0","0","2","","","","","","","",""
"pit-trial","39","514308","0.0-2.0-11.0-2.0","battery-v0.2","","""event"",""trial"",""time""
""fullscreenenter"",""1"",""6358""
","
","
","""event"",""trial"",""time""
""fullscreenenter"",""1"",""6358""
","
","","","-1","","","19","15342","6071","&#9761;","elianto","#3366ff99","-1","-1","1","+10","[]","0","0","2","","","","","","","",""
"pit-trial","40","519163","0.0-2.0-11.0-3.0","battery-v0.2","","""event"",""trial"",""time""
""fullscreenenter"",""1"",""6358""
","
","
","""event"",""trial"",""time""
""fullscreenenter"",""1"",""6358""
","
","","","-1","","","19","15342","6071","&#9761;","elianto","#3366ff99","-1","-1","1","0","[]","0","0","2","","","","","","","",""
"pit-trial","41","524021","0.0-2.0-11.0-4.0","battery-v0.2","","""event"",""trial"",""time""
""fullscreenenter"",""1"",""6358""
","
","
","""event"",""trial"",""time""
""fullscreenenter"",""1"",""6358""
","
","","","-1","","","19","15342","6071","&#9761;","elianto","#3366ff99","-1","-1","1","+10","[]","0","0","2","","","","","","","",""
"pit-trial","42","528880","0.0-2.0-11.1-0.1","battery-v0.2","","""event"",""trial"",""time""
""fullscreenenter"",""1"",""6358""
","
","
","""event"",""trial"",""time""
""fullscreenenter"",""1"",""6358""
","
","","","-1","","","19","15342","6071","&#9761;","elianto","#3366ff99","-1","-1","1","+10","[]","0","0","2","","","","","","","",""
"pit-trial","43","533736","0.0-2.0-11.1-1.1","battery-v0.2","","""event"",""trial"",""time""
""fullscreenenter"",""1"",""6358""
","
","
","""event"",""trial"",""time""
""fullscreenenter"",""1"",""6358""
","
","","","-1","","","19","15342","6071","&#9761;","elianto","#3366ff99","-1","-1","1","+10","[]","0","0","2","","","","","","","",""
"pit-trial","44","538591","0.0-2.0-11.1-2.1","battery-v0.2","","""event"",""trial"",""time""
""fullscreenenter"",""1"",""6358""
","
","
","""event"",""trial"",""time""
""fullscreenenter"",""1"",""6358""
","
","","","-1","","","19","15342","6071","&#9761;","elianto","#3366ff99","-1","-1","1","+10","[]","0","0","2","","","","","","","",""
"pit-trial","45","543447","0.0-2.0-11.1-3.1","battery-v0.2","","""event"",""trial"",""time""
""fullscreenenter"",""1"",""6358""
","
","
","""event"",""trial"",""time""
""fullscreenenter"",""1"",""6358""
","
","","","-1","","","19","15342","6071","&#9761;","elianto","#3366ff99","-1","-1","1","0","[]","0","0","2","","","","","","","",""
"pit-trial","46","548303","0.0-2.0-11.1-4.1","battery-v0.2","","""event"",""trial"",""time""
""fullscreenenter"",""1"",""6358""
","
","
","""event"",""trial"",""time""
""fullscreenenter"",""1"",""6358""
","
","","","-1","","","19","15342","6071","&#9761;","elianto","#3366ff99","-1","-1","1","+10","[]","0","0","2","","","","","","","",""
"pit-trial","47","553160","0.0-2.0-11.2-0.2","battery-v0.2","","""event"",""trial"",""time""
""fullscreenenter"",""1"",""6358""
","
","
","""event"",""trial"",""time""
""fullscreenenter"",""1"",""6358""
","
","","","-1","","","19","15342","6071","&#9761;","elianto","#3366ff99","-1","-1","1","+10","[]","0","0","2","","","","","","","",""
"pit-trial","48","558018","0.0-2.0-11.2-1.2","battery-v0.2","","""event"",""trial"",""time""
""fullscreenenter"",""1"",""6358""
","
","
","""event"",""trial"",""time""
""fullscreenenter"",""1"",""6358""
","
","","","-1","","","19","15342","6071","&#9761;","elianto","#3366ff99","-1","-1","1","+10","[]","0","0","2","","","","","","","",""
"pit-trial","49","562873","0.0-2.0-11.2-2.2","battery-v0.2","","""event"",""trial"",""time""
""fullscreenenter"",""1"",""6358""
","
","
","""event"",""trial"",""time""
""fullscreenenter"",""1"",""6358""
","
","","","-1","","","19","15342","6071","&#9761;","elianto","#3366ff99","-1","-1","1","+10","[]","0","0","2","","","","","","","",""
"pit-trial","50","567728","0.0-2.0-11.2-3.2","battery-v0.2","","""event"",""trial"",""time""
""fullscreenenter"",""1"",""6358""
","
","
","""event"",""trial"",""time""
""fullscreenenter"",""1"",""6358""
","
","","","-1","","","19","15342","6071","&#9761;","elianto","#3366ff99","-1","-1","1","0","[]","0","0","2","","","","","","","",""
"pit-trial","51","572585","0.0-2.0-11.2-4.2","battery-v0.2","","""event"",""trial"",""time""
""fullscreenenter"",""1"",""6358""
","
","
","""event"",""trial"",""time""
""fullscreenenter"",""1"",""6358""
","
","","","-1","","","19","15342","6071","&#9761;","elianto","#3366ff99","-1","-1","1","+10","[]","0","0","2","","","","","","","",""
"pit-trial","52","577442","0.0-2.0-11.3-0.3","battery-v0.2","","""event"",""trial"",""time""
""fullscreenenter"",""1"",""6358""
","
","
","""event"",""trial"",""time""
""fullscreenenter"",""1"",""6358""
","
","","","-1","","","19","15342","6071","&#9761;","elianto","#3366ff99","-1","-1","1","+10","[]","0","0","2","","","","","","","",""
"pit-trial","53","582298","0.0-2.0-11.3-1.3","battery-v0.2","","""event"",""trial"",""time""
""fullscreenenter"",""1"",""6358""
","
","
","""event"",""trial"",""time""
""fullscreenenter"",""1"",""6358""
","
","","","-1","","","19","15342","6071","&#9761;","elianto","#3366ff99","-1","-1","1","+10","[]","0","0","2","","","","","","","",""
"pit-trial","54","587155","0.0-2.0-11.3-2.3","battery-v0.2","","""event"",""trial"",""time""
""fullscreenenter"",""1"",""6358""
","
","
","""event"",""trial"",""time""
""fullscreenenter"",""1"",""6358""
","
","","","-1","","","19","15342","6071","&#9761;","elianto","#3366ff99","-1","-1","1","+10","[]","0","0","2","","","","","","","",""
"pit-trial","55","592012","0.0-2.0-11.3-3.3","battery-v0.2","","""event"",""trial"",""time""
""fullscreenenter"",""1"",""6358""
","
","
","""event"",""trial"",""time""
""fullscreenenter"",""1"",""6358""
","
","","","-1","","","19","15342","6071","&#9761;","elianto","#3366ff99","-1","-1","1","0","[]","0","0","2","","","","","","","",""
"pit-trial","56","596868","0.0-2.0-11.3-4.3","battery-v0.2","","""event"",""trial"",""time""
""fullscreenenter"",""1"",""6358""
","
","
","""event"",""trial"",""time""
""fullscreenenter"",""1"",""6358""
","
","","","-1","","","19","15342","6071","&#9761;","elianto","#3366ff99","-1","-1","1","+10","[]","0","0","2","","","","","","","",""
"call-function","57","596872","0.0-2.0-12.0","battery-v0.2","","""event"",""trial"",""time""
""fullscreenenter"",""1"",""6358""
","
","
","""event"",""trial"",""time""
""fullscreenenter"",""1"",""6358""
","
","","","","","","","","","","","","","","","","","","","","","","","","","","",""
"pit-instructions","58","627911","0.0-2.0-13.0","battery-v0.2","","""event"",""trial"",""time""
""fullscreenenter"",""1"",""6358""
","
","
","""event"",""trial"",""time""
""fullscreenenter"",""1"",""6358""
","
","","[{""page_index"":0,""viewing_time"":4569.599999904633},{""page_index"":1,""viewing_time"":7585.100000143051},{""page_index"":2,""viewing_time"":4466.200000047684},{""page_index"":3,""viewing_time"":10301.099999904633},{""page_index"":4,""viewing_time"":4115.099999904633}]","31037.799999952316","","","","","","","","","","","","","","","","","","","","","","","",""
"pit-trial","59","632574","0.0-2.0-14.0-0.0","battery-v0.2","","""event"",""trial"",""time""
""fullscreenenter"",""1"",""6358""
","
","
","""event"",""trial"",""time""
""fullscreenenter"",""1"",""6358""
","
","","","1807.9000000953674","","","19","15342","6071","&#9826;","elianto","#f73b6a7A","-1"," ","0","-10","[2658.9000000953674]","1","0","3","","","","","","","",""
"pit-trial","60","637431","0.0-2.0-14.0-1.0","battery-v0.2","","""event"",""trial"",""time""
""fullscreenenter"",""1"",""6358""
","
","
","""event"",""trial"",""time""
""fullscreenenter"",""1"",""6358""
","
","","","-1","","","19","15342","6071","&#9826;","elianto","#f73b6a7A","-1","-1","1","0","[]","0","0","3","","","","","","","",""
"pit-trial","61","642287","0.0-2.0-14.0-2.0","battery-v0.2","","""event"",""trial"",""time""
""fullscreenenter"",""1"",""6358""
","
","
","""event"",""trial"",""time""
""fullscreenenter"",""1"",""6358""
","
","","","-1","","","19","15342","6071","&#9826;","elianto","#f73b6a7A","-1","-1","1","0","[]","0","0","3","","","","","","","",""
"pit-trial","62","647143","0.0-2.0-14.0-3.0","battery-v0.2","","""event"",""trial"",""time""
""fullscreenenter"",""1"",""6358""
","
","
","""event"",""trial"",""time""
""fullscreenenter"",""1"",""6358""
","
","","","-1","","","19","15342","6071","&#9826;","elianto","#f73b6a7A","-1","-1","1","-10","[]","0","0","3","","","","","","","",""
"pit-trial","63","652000","0.0-2.0-14.0-4.0","battery-v0.2","","""event"",""trial"",""time""
""fullscreenenter"",""1"",""6358""
","
","
","""event"",""trial"",""time""
""fullscreenenter"",""1"",""6358""
","
","","","-1","","","19","15342","6071","&#9826;","elianto","#f73b6a7A","-1","-1","1","0","[]","0","0","3","","","","","","","",""
"pit-trial","64","656857","0.0-2.0-14.1-0.1","battery-v0.2","","""event"",""trial"",""time""
""fullscreenenter"",""1"",""6358""
","
","
","""event"",""trial"",""time""
""fullscreenenter"",""1"",""6358""
","
","","","-1","","","19","15342","6071","&#9826;","elianto","#f73b6a7A","-1","-1","1","0","[]","0","0","3","","","","","","","",""
"pit-trial","65","661712","0.0-2.0-14.1-1.1","battery-v0.2","","""event"",""trial"",""time""
""fullscreenenter"",""1"",""6358""
","
","
","""event"",""trial"",""time""
""fullscreenenter"",""1"",""6358""
","
","","","-1","","","19","15342","6071","&#9826;","elianto","#f73b6a7A","-1","-1","1","0","[]","0","0","3","","","","","","","",""
"pit-trial","66","666572","0.0-2.0-14.1-2.1","battery-v0.2","","""event"",""trial"",""time""
""fullscreenenter"",""1"",""6358""
","
","
","""event"",""trial"",""time""
""fullscreenenter"",""1"",""6358""
","
","","","-1","","","19","15342","6071","&#9826;","elianto","#f73b6a7A","-1","-1","1","0","[]","0","0","3","","","","","","","",""
"pit-trial","67","671431","0.0-2.0-14.1-3.1","battery-v0.2","","""event"",""trial"",""time""
""fullscreenenter"",""1"",""6358""
","
","
","""event"",""trial"",""time""
""fullscreenenter"",""1"",""6358""
","
","","","-1","","","19","15342","6071","&#9826;","elianto","#f73b6a7A","-1","-1","1","-10","[]","0","0","3","","","","","","","",""
"pit-trial","68","676289","0.0-2.0-14.1-4.1","battery-v0.2","","""event"",""trial"",""time""
""fullscreenenter"",""1"",""6358""
","
","
","""event"",""trial"",""time""
""fullscreenenter"",""1"",""6358""
","
","","","-1","","","19","15342","6071","&#9826;","elianto","#f73b6a7A","-1","-1","1","0","[]","0","0","3","","","","","","","",""
"pit-trial","69","681147","0.0-2.0-14.2-0.2","battery-v0.2","","""event"",""trial"",""time""
""fullscreenenter"",""1"",""6358""
","
","
","""event"",""trial"",""time""
""fullscreenenter"",""1"",""6358""
","
","","","-1","","","19","15342","6071","&#9826;","elianto","#f73b6a7A","-1","-1","1","0","[]","0","0","3","","","","","","","",""
"pit-trial","70","686002","0.0-2.0-14.2-1.2","battery-v0.2","","""event"",""trial"",""time""
""fullscreenenter"",""1"",""6358""
","
","
","""event"",""trial"",""time""
""fullscreenenter"",""1"",""6358""
","
","","","-1","","","19","15342","6071","&#9826;","elianto","#f73b6a7A","-1","-1","1","0","[]","0","0","3","","","","","","","",""
"pit-trial","71","690858","0.0-2.0-14.2-2.2","battery-v0.2","","""event"",""trial"",""time""
""fullscreenenter"",""1"",""6358""
","
","
","""event"",""trial"",""time""
""fullscreenenter"",""1"",""6358""
","
","","","-1","","","19","15342","6071","&#9826;","elianto","#f73b6a7A","-1","-1","1","0","[]","0","0","3","","","","","","","",""
"pit-trial","72","695718","0.0-2.0-14.2-3.2","battery-v0.2","","""event"",""trial"",""time""
""fullscreenenter"",""1"",""6358""
","
","
","""event"",""trial"",""time""
""fullscreenenter"",""1"",""6358""
","
","","","-1","","","19","15342","6071","&#9826;","elianto","#f73b6a7A","-1","-1","1","-10","[]","0","0","3","","","","","","","",""
"pit-trial","73","700574","0.0-2.0-14.2-4.2","battery-v0.2","","""event"",""trial"",""time""
""fullscreenenter"",""1"",""6358""
","
","
","""event"",""trial"",""time""
""fullscreenenter"",""1"",""6358""
","
","","","-1","","","19","15342","6071","&#9826;","elianto","#f73b6a7A","-1","-1","1","0","[]","0","0","3","","","","","","","",""
"pit-trial","74","705430","0.0-2.0-14.3-0.3","battery-v0.2","","""event"",""trial"",""time""
""fullscreenenter"",""1"",""6358""
","
","
","""event"",""trial"",""time""
""fullscreenenter"",""1"",""6358""
","
","","","-1","","","19","15342","6071","&#9826;","elianto","#f73b6a7A","-1","-1","1","0","[]","0","0","3","","","","","","","",""
"pit-trial","75","710288","0.0-2.0-14.3-1.3","battery-v0.2","","""event"",""trial"",""time""
""fullscreenenter"",""1"",""6358""
","
","
","""event"",""trial"",""time""
""fullscreenenter"",""1"",""6358""
","
","","","-1","","","19","15342","6071","&#9826;","elianto","#f73b6a7A","-1","-1","1","0","[]","0","0","3","","","","","","","",""
"pit-trial","76","715145","0.0-2.0-14.3-2.3","battery-v0.2","","""event"",""trial"",""time""
""fullscreenenter"",""1"",""6358""
","
","
","""event"",""trial"",""time""
""fullscreenenter"",""1"",""6358""
","
","","","-1","","","19","15342","6071","&#9826;","elianto","#f73b6a7A","-1","-1","1","0","[]","0","0","3","","","","","","","",""
"pit-trial","77","720006","0.0-2.0-14.3-3.3","battery-v0.2","","""event"",""trial"",""time""
""fullscreenenter"",""1"",""6358""
","
","
","""event"",""trial"",""time""
""fullscreenenter"",""1"",""6358""
","
","","","-1","","","19","15342","6071","&#9826;","elianto","#f73b6a7A","-1","-1","1","-10","[]","0","0","3","","","","","","","",""
"pit-trial","78","724866","0.0-2.0-14.3-4.3","battery-v0.2","","""event"",""trial"",""time""
""fullscreenenter"",""1"",""6358""
","
","
","""event"",""trial"",""time""
""fullscreenenter"",""1"",""6358""
","
","","","-1","","","19","15342","6071","&#9826;","elianto","#f73b6a7A","-1","-1","1","0","[]","0","0","3","","","","","","","",""
"call-function","79","724872","0.0-2.0-15.0","battery-v0.2","","""event"",""trial"",""time""
""fullscreenenter"",""1"",""6358""
","
","
","""event"",""trial"",""time""
""fullscreenenter"",""1"",""6358""
","
","","","","","","","","","","","","","","","","","","","","","","","","","","",""
"pit-instructions","80","757133","0.0-2.0-16.0","battery-v0.2","","""event"",""trial"",""time""
""fullscreenenter"",""1"",""6358""
","
","
","""event"",""trial"",""time""
""fullscreenenter"",""1"",""6358""
","
","","[{""page_index"":0,""viewing_time"":14756.900000095367},{""page_index"":1,""viewing_time"":8214.299999952316},{""page_index"":2,""viewing_time"":4566.700000047684},{""page_index"":3,""viewing_time"":4718.099999904633}]","32257.5","","","","","","","","","","","","","","","","","","","","","","","",""
"pit-trial","81","760394","0.0-2.0-17.0-0.0","battery-v0.2","","""event"",""trial"",""time""
""fullscreenenter"",""1"",""6358""
","
","
","""event"",""trial"",""time""
""fullscreenenter"",""1"",""6358""
","
","","","403.90000009536743","","","19","15342","6071","&#9789;","elianto","#f73b6a7A"," "," ","1","0","[1255.2000000476837]","1","0","4","","","","","","","",""
"pit-trial","82","763624","0.0-2.0-17.0-1.0","battery-v0.2","","""event"",""trial"",""time""
""fullscreenenter"",""1"",""6358""
","
","
","""event"",""trial"",""time""
""fullscreenenter"",""1"",""6358""
","
","","","374.7000000476837","","","19","15342","6071","&#9789;","elianto","#f73b6a7A"," "," ","1","0","[1225]","1","0","4","","","","","","","",""
"pit-trial","83","766898","0.0-2.0-17.0-2.0","battery-v0.2","","""event"",""trial"",""time""
""fullscreenenter"",""1"",""6358""
","
","
","""event"",""trial"",""time""
""fullscreenenter"",""1"",""6358""
","
","","","419.60000014305115","","","19","15342","6071","&#9789;","elianto","#f73b6a7A"," "," ","1","0","[1270.5999999046326]","1","0","4","","","","","","","",""
"pit-trial","84","770160","0.0-2.0-17.0-3.0","battery-v0.2","","""event"",""trial"",""time""
""fullscreenenter"",""1"",""6358""
","
","
","""event"",""trial"",""time""
""fullscreenenter"",""1"",""6358""
","
","","","407.09999990463257","","","19","15342","6071","&#9789;","elianto","#f73b6a7A"," "," ","1","-10","[1258]","1","0","4","","","","","","","",""
"pit-trial","85","773426","0.0-2.0-17.0-4.0","battery-v0.2","","""event"",""trial"",""time""
""fullscreenenter"",""1"",""6358""
","
","
","""event"",""trial"",""time""
""fullscreenenter"",""1"",""6358""
","
","","","410.39999985694885","","","19","15342","6071","&#9789;","elianto","#f73b6a7A"," "," ","1","0","[1260.7000000476837]","1","0","4","","","","","","","",""
"pit-trial","86","776622","0.0-2.0-17.1-0.1","battery-v0.2","","""event"",""trial"",""time""
""fullscreenenter"",""1"",""6358""
","
","
","""event"",""trial"",""time""
""fullscreenenter"",""1"",""6358""
","
","","","339.09999990463257","","","19","15342","6071","&#9789;","elianto","#f73b6a7A"," "," ","1","0","[1189.6999998092651]","1","0","4","","","","","","","",""
"pit-trial","87","779895","0.0-2.0-17.1-1.1","battery-v0.2","","""event"",""trial"",""time""
""fullscreenenter"",""1"",""6358""
","
","
","""event"",""trial"",""time""
""fullscreenenter"",""1"",""6358""
","
","","","416.2000000476837","","","19","15342","6071","&#9789;","elianto","#f73b6a7A"," "," ","1","0","[1267.7999999523163]","1","0","4","","","","","","","",""
"pit-trial","88","783153","0.0-2.0-17.1-2.1","battery-v0.2","","""event"",""trial"",""time""
""fullscreenenter"",""1"",""6358""
","
","
","""event"",""trial"",""time""
""fullscreenenter"",""1"",""6358""
","
","","","402","","","19","15342","6071","&#9789;","elianto","#f73b6a7A"," "," ","1","0","[1252.5999999046326]","1","0","4","","","","","","","",""
"pit-trial","89","786346","0.0-2.0-17.1-3.1","battery-v0.2","","""event"",""trial"",""time""
""fullscreenenter"",""1"",""6358""
","
","
","""event"",""trial"",""time""
""fullscreenenter"",""1"",""6358""
","
","","","336.80000019073486","","","19","15342","6071","&#9789;","elianto","#f73b6a7A"," "," ","1","-10","[1187.7999999523163]","1","0","4","","","","","","","",""
"pit-trial","90","789788","0.0-2.0-17.1-4.1","battery-v0.2","","""event"",""trial"",""time""
""fullscreenenter"",""1"",""6358""
","
","
","""event"",""trial"",""time""
""fullscreenenter"",""1"",""6358""
","
","","","587.9000000953674","","","19","15342","6071","&#9789;","elianto","#f73b6a7A"," "," ","1","0","[1438.2000000476837]","1","0","4","","","","","","","",""
"pit-trial","91","793059","0.0-2.0-17.2-0.2","battery-v0.2","","""event"",""trial"",""time""
""fullscreenenter"",""1"",""6358""
","
","
","""event"",""trial"",""time""
""fullscreenenter"",""1"",""6358""
","
","","","415.5","","","19","15342","6071","&#9789;","elianto","#f73b6a7A"," "," ","1","0","[1266.5]","1","0","4","","","","","","","",""
"pit-trial","92","796337","0.0-2.0-17.2-1.2","battery-v0.2","","""event"",""trial"",""time""
""fullscreenenter"",""1"",""6358""
","
","
","""event"",""trial"",""time""
""fullscreenenter"",""1"",""6358""
","
","","","420.7999999523163","","","19","15342","6071","&#9789;","elianto","#f73b6a7A"," "," ","1","0","[1271.7999999523163]","1","0","4","","","","","","","",""
"pit-trial","93","799628","0.0-2.0-17.2-2.2","battery-v0.2","","""event"",""trial"",""time""
""fullscreenenter"",""1"",""6358""
","
","
","""event"",""trial"",""time""
""fullscreenenter"",""1"",""6358""
","
","","","432.40000009536743","","","19","15342","6071","&#9789;","elianto","#f73b6a7A"," "," ","1","0","[1284.3000001907349]","1","0","4","","","","","","","",""
"pit-trial","94","802924","0.0-2.0-17.2-3.2","battery-v0.2","","""event"",""trial"",""time""
""fullscreenenter"",""1"",""6358""
","
","
","""event"",""trial"",""time""
""fullscreenenter"",""1"",""6358""
","
","","","432.7000000476837","","","19","15342","6071","&#9789;","elianto","#f73b6a7A"," "," ","1","-10","[1284.0999999046326]","1","0","4","","","","","","","",""
"pit-trial","95","806364","0.0-2.0-17.2-4.2","battery-v0.2","","""event"",""trial"",""time""
""fullscreenenter"",""1"",""6358""
","
","
","""event"",""trial"",""time""
""fullscreenenter"",""1"",""6358""
","
","","","584.7999999523163","","","19","15342","6071","&#9789;","elianto","#f73b6a7A"," "," ","1","0","[1436.7000000476837]","1","0","4","","","","","","","",""
"pit-trial","96","809653","0.0-2.0-17.3-0.3","battery-v0.2","","""event"",""trial"",""time""
""fullscreenenter"",""1"",""6358""
","
","
","""event"",""trial"",""time""
""fullscreenenter"",""1"",""6358""
","
","","","432.7000000476837","","","19","15342","6071","&#9789;","elianto","#f73b6a7A"," "," ","1","0","[1283.7999999523163]","1","0","4","","","","","","","",""
"pit-trial","97","812949","0.0-2.0-17.3-1.3","battery-v0.2","","""event"",""trial"",""time""
""fullscreenenter"",""1"",""6358""
","
","
","""event"",""trial"",""time""
""fullscreenenter"",""1"",""6358""
","
","","","439","","","19","15342","6071","&#9789;","elianto","#f73b6a7A"," "," ","1","0","[1291]","1","0","4","","","","","","","",""
"pit-trial","98","816247","0.0-2.0-17.3-2.3","battery-v0.2","","""event"",""trial"",""time""
""fullscreenenter"",""1"",""6358""
","
","
","""event"",""trial"",""time""
""fullscreenenter"",""1"",""6358""
","
","","","441.90000009536743","","","19","15342","6071","&#9789;","elianto","#f73b6a7A"," "," ","1","0","[1293.5]","1","0","4","","","","","","","",""
"pit-trial","99","819567","0.0-2.0-17.3-3.3","battery-v0.2","","""event"",""trial"",""time""
""fullscreenenter"",""1"",""6358""
","
","
","""event"",""trial"",""time""
""fullscreenenter"",""1"",""6358""
","
","","","465.40000009536743","","","19","15342","6071","&#9789;","elianto","#f73b6a7A"," "," ","1","-10","[1315.7999999523163]","1","0","4","","","","","","","",""
"pit-trial","100","822800","0.0-2.0-17.3-4.3","battery-v0.2","","""event"",""trial"",""time""
""fullscreenenter"",""1"",""6358""
","
","
","""event"",""trial"",""time""
""fullscreenenter"",""1"",""6358""
","
","","","378.2999999523163","","","19","15342","6071","&#9789;","elianto","#f73b6a7A"," "," ","1","0","[1229.1999998092651]","1","0","4","","","","","","","",""
"call-function","101","822805","0.0-2.0-18.0","battery-v0.2","","""event"",""trial"",""time""
""fullscreenenter"",""1"",""6358""
","
","
","""event"",""trial"",""time""
""fullscreenenter"",""1"",""6358""
","
","","","","","","","","","","","","","","","","","","","","","","","","","","",""
"pit-instructions","102","885993","0.0-2.0-19.0","battery-v0.2","","""event"",""trial"",""time""
""fullscreenenter"",""1"",""6358""
","
","
","""event"",""trial"",""time""
""fullscreenenter"",""1"",""6358""
","
","","[{""page_index"":0,""viewing_time"":9039.5},{""page_index"":1,""viewing_time"":7533.100000143051},{""page_index"":2,""viewing_time"":9215.899999856949},{""page_index"":3,""viewing_time"":4183.900000095367},{""page_index"":4,""viewing_time"":6116.099999904633},{""page_index"":5,""viewing_time"":8817},{""page_index"":6,""viewing_time"":8251.400000095367},{""page_index"":7,""viewing_time"":6216},{""page_index"":8,""viewing_time"":3816.2999999523163}]","63189.700000047684","","","","","","","","","","","","","","","","","","","","","","","",""
"pit-comprehension","103","890497","0.0-2.0-20.0-0.0","battery-v0.2","","""event"",""trial"",""time""
""fullscreenenter"",""1"",""6358""
","
","
","""event"",""trial"",""time""
""fullscreenenter"",""1"",""6358""
","
","","","4496.899999856949","[""SPACE""]","0","19","15342","6071","","","","","","","","","","","","","","","","","","",""
"pit-instructions","104","893961","0.0-2.0-20.0-1.0","battery-v0.2","","""event"",""trial"",""time""
""fullscreenenter"",""1"",""6358""
","
","
","""event"",""trial"",""time""
""fullscreenenter"",""1"",""6358""
","
","","[{""page_index"":0,""viewing_time"":3429.5999999046326}]","3430.2999999523163","","","","","","","","","","","","","","","","","","","","","","","",""
"pit-comprehension","105","899927","0.0-2.0-21.0-0.0","battery-v0.2","","""event"",""trial"",""time""
""fullscreenenter"",""1"",""6358""
","
","
","""event"",""trial"",""time""
""fullscreenenter"",""1"",""6358""
","
","","","5960","[""10""]","0","19","15342","6071","","","","","","","","","","","","","","","","","","",""
"pit-instructions","106","905294","0.0-2.0-21.0-1.0","battery-v0.2","","""event"",""trial"",""time""
""fullscreenenter"",""1"",""6358""
","
","
","""event"",""trial"",""time""
""fullscreenenter"",""1"",""6358""
","
","","[{""page_index"":0,""viewing_time"":5346.399999856949}]","5347","","","","","","","","","","","","","","","","","","","","","","","",""
"pit-comprehension","107","912062","0.0-2.0-22.0-0.0","battery-v0.2","","""event"",""trial"",""time""
""fullscreenenter"",""1"",""6358""
","
","
","""event"",""trial"",""time""
""fullscreenenter"",""1"",""6358""
","
","","","6761.200000047684","[""0""]","0","19","15342","6071","","","","","","","","","","","","","","","","","","",""
"pit-instructions","108","915794","0.0-2.0-22.0-1.0","battery-v0.2","","""event"",""trial"",""time""
""fullscreenenter"",""1"",""6358""
","
","
","""event"",""trial"",""time""
""fullscreenenter"",""1"",""6358""
","
","","[{""page_index"":0,""viewing_time"":3706.2999999523163}]","3706.9000000953674","","","","","","","","","","","","","","","","","","","","","","","",""
"pit-comprehension","109","924213","0.0-2.0-23.0-0.0","battery-v0.2","","""event"",""trial"",""time""
""fullscreenenter"",""1"",""6358""
","
","
","""event"",""trial"",""time""
""fullscreenenter"",""1"",""6358""
","
","","","8415","[""True""]","0","19","15342","6071","","","","","","","","","","","","","","","","","","",""
"pit-instructions","110","925962","0.0-2.0-23.0-1.0","battery-v0.2","","""event"",""trial"",""time""
""fullscreenenter"",""1"",""6358""
","
","
","""event"",""trial"",""time""
""fullscreenenter"",""1"",""6358""
","
","","[{""page_index"":0,""viewing_time"":1721.2999999523163}]","1721.5999999046326","","","","","","","","","","","","","","","","","","","","","","","",""
"pit-comprehension","111","933412","0.0-2.0-24.0-0.0","battery-v0.2","","""event"",""trial"",""time""
""fullscreenenter"",""1"",""6358""
","
","
","""event"",""trial"",""time""
""fullscreenenter"",""1"",""6358""
","
","","","7447.399999856949","[""True""]","0","19","15342","6071","","","","","","","","","","","","","","","","","","",""
"pit-instructions","112","935377","0.0-2.0-24.0-1.0","battery-v0.2","","""event"",""trial"",""time""
""fullscreenenter"",""1"",""6358""
","
","
","""event"",""trial"",""time""
""fullscreenenter"",""1"",""6358""
","
","","[{""page_index"":0,""viewing_time"":1938.4000000953674}]","1938.7999999523163","","","","","","","","","","","","","","","","","","","","","","","",""
"pit-comprehension","113","941845","0.0-2.0-25.0-0.0","battery-v0.2","","""event"",""trial"",""time""
""fullscreenenter"",""1"",""6358""
","
","
","""event"",""trial"",""time""
""fullscreenenter"",""1"",""6358""
","
","","","6464.200000047684","[""True""]","0","19","15342","6071","","","","","","","","","","","","","","","","","","",""
"pit-instructions","114","946612","0.0-2.0-25.0-1.0","battery-v0.2","","""event"",""trial"",""time""
""fullscreenenter"",""1"",""6358""
","
","
","""event"",""trial"",""time""
""fullscreenenter"",""1"",""6358""
","
","","[{""page_index"":0,""viewing_time"":4737.5}]","4738","","","","","","","","","","","","","","","","","","","","","","","",""
"pit-comprehension","115","951529","0.0-2.0-26.0-0.0","battery-v0.2","","""event"",""trial"",""time""
""fullscreenenter"",""1"",""6358""
","
","
","""event"",""trial"",""time""
""fullscreenenter"",""1"",""6358""
","
","","","4912.099999904633","[""False""]","0","19","15342","6071","","","","","","","","","","","","","","","","","","",""
"pit-instructions","116","954177","0.0-2.0-26.0-1.0","battery-v0.2","","""event"",""trial"",""time""
""fullscreenenter"",""1"",""6358""
","
","
","""event"",""trial"",""time""
""fullscreenenter"",""1"",""6358""
","
","","[{""page_index"":0,""viewing_time"":2622.2999999523163}]","2622.7999999523163","","","","","","","","","","","","","","","","","","","","","","","",""
"pit-instructions","117","971112","0.0-3.0","battery-v0.2","","""event"",""trial"",""time""
""fullscreenenter"",""1"",""6358""
","
","
","""event"",""trial"",""time""
""fullscreenenter"",""1"",""6358""
","
","","[{""page_index"":0,""viewing_time"":4862.300000190735},{""page_index"":1,""viewing_time"":5283.099999904633},{""page_index"":2,""viewing_time"":6784.700000047684}]","16930.5","","","","","","","","","","","","","","","","","","","","","","","",""
"pit-trial","118","975138","0.0-4.0","battery-v0.2","","""event"",""trial"",""time""
""fullscreenenter"",""1"",""6358""
","
","
","""event"",""trial"",""time""
""fullscreenenter"",""1"",""6358""
","
","","","1167.7999999523163","","","19","15342","6071","&#9730;","elianto","#3366ff99"," "," ","1","+10","[2018.6999998092651]","1","1","","","15342","1","1","1","win","go","0"
"pit-trial","119","978786","0.0-5.0","battery-v0.2","","""event"",""trial"",""time""
""fullscreenenter"",""1"",""6358""
","
","
","""event"",""trial"",""time""
""fullscreenenter"",""1"",""6358""
","
","","","788.2999999523163","","","19","15342","6071","&#9728;","elianto","#f73b6a7A","-1"," ","0","0","[1639.9000000953674]","1","1","","","15342","2","0","4","lose","no-go","1"
"pit-trial","120","982490","0.0-6.0","battery-v0.2","","""event"",""trial"",""time""
""fullscreenenter"",""1"",""6358""
","
","
","""event"",""trial"",""time""
""fullscreenenter"",""1"",""6358""
","
","","","847.1000001430511","","","19","15342","6071","&#9733;","elianto","#3366ff99","-1"," ","0","+10","[1698.2000000476837]","1","1","","","15342","3","2","2","win","no-go","1"
"pit-trial","121","986090","0.0-7.0","battery-v0.2","","""event"",""trial"",""time""
""fullscreenenter"",""1"",""6358""
","
","
","""event"",""trial"",""time""
""fullscreenenter"",""1"",""6358""
","
","","","744.3999998569489","","","19","15342","6071","&#9752;","elianto","#f73b6a7A"," "," ","1","0","[1595.5]","1","1","","","15342","4","3","3","lose","go","0"
"pit-trial","122","989670","0.0-8.0","battery-v0.2","","""event"",""trial"",""time""
""fullscreenenter"",""1"",""6358""
","
","
","""event"",""trial"",""time""
""fullscreenenter"",""1"",""6358""
","
","","","724.6999998092651","","","19","15342","6071","&#9752;","elianto","#f73b6a7A"," "," ","1","-10","[1575.6999998092651]","1","1","","","15342","5","3","3","lose","go","1"
"pit-trial","123","993191","0.0-9.0","battery-v0.2","","""event"",""trial"",""time""
""fullscreenenter"",""1"",""6358""
","
","
","""event"",""trial"",""time""
""fullscreenenter"",""1"",""6358""
","
","","","665","","","19","15342","6071","&#9733;","elianto","#3366ff99","-1"," ","0","0","[1516.8000001907349]","1","1","","","15342","6","2","2","win","no-go","0"
"pit-trial","124","996858","0.0-10.0","battery-v0.2","","""event"",""trial"",""time""
""fullscreenenter"",""1"",""6358""
","
","
","""event"",""trial"",""time""
""fullscreenenter"",""1"",""6358""
","
","","","811.2000000476837","","","19","15342","6071","&#9728;","elianto","#f73b6a7A","-1"," ","0","0","[1663]","1","1","","","15342","7","0","4","lose","no-go","1"
"pit-trial","125","1000862","0.0-11.0","battery-v0.2","","""event"",""trial"",""time""
""fullscreenenter"",""1"",""6358""
","
","
","""event"",""trial"",""time""
""fullscreenenter"",""1"",""6358""
","
","","","1146.5","","","19","15342","6071","&#9730;","elianto","#3366ff99"," "," ","1","+10","[1998.0999999046326]","1","1","","","15342","8","1","1","win","go","0"
"pit-trial","126","1004626","0.0-12.0","battery-v0.2","","""event"",""trial"",""time""
""fullscreenenter"",""1"",""6358""
","
","
","""event"",""trial"",""time""
""fullscreenenter"",""1"",""6358""
","
","","","909","","","19","15342","6071","&#9733;","elianto","#3366ff99","-1"," ","0","0","[1759.5999999046326]","1","1","","","15342","9","2","2","win","no-go","0"
"pit-trial","127","1009482","0.0-13.0","battery-v0.2","","""event"",""trial"",""time""
""fullscreenenter"",""1"",""6358""
","
","
","""event"",""trial"",""time""
""fullscreenenter"",""1"",""6358""
","
","","","-1","","","19","15342","6071","&#9730;","elianto","#3366ff99"," ","-1","0","+10","[]","0","1","","","15342","10","1","1","win","go","1"
"pit-trial","128","1013259","0.0-14.0","battery-v0.2","","""event"",""trial"",""time""
""fullscreenenter"",""1"",""6358""
","
","
","""event"",""trial"",""time""
""fullscreenenter"",""1"",""6358""
","
","","","921","","","19","15342","6071","&#9728;","elianto","#f73b6a7A","-1"," ","0","-10","[1771.7000000476837]","1","1","","","15342","11","0","4","lose","no-go","0"
"pit-trial","129","1018113","0.0-15.0","battery-v0.2","","""event"",""trial"",""time""
""fullscreenenter"",""1"",""6358""
","
","
","""event"",""trial"",""time""
""fullscreenenter"",""1"",""6358""
","
","","","-1","","","19","15342","6071","&#9752;","elianto","#f73b6a7A"," ","-1","0","-10","[]","0","1","","","15342","12","3","3","lose","go","0"
"pit-trial","130","1021890","0.0-16.0","battery-v0.2","","""event"",""trial"",""time""
""fullscreenenter"",""1"",""6358""
","
","
","""event"",""trial"",""time""
""fullscreenenter"",""1"",""6358""
","
","","","921.5","","","19","15342","6071","&#9752;","elianto","#f73b6a7A"," "," ","1","0","[1771.5999999046326]","1","1","","","15342","13","3","3","lose","go","0"
"pit-trial","131","1026746","0.0-17.0","battery-v0.2","","""event"",""trial"",""time""
""fullscreenenter"",""1"",""6358""
","
","
","""event"",""trial"",""time""
""fullscreenenter"",""1"",""6358""
","
","","","-1","","","19","15342","6071","&#9728;","elianto","#f73b6a7A","-1","-1","1","0","[]","0","1","","","15342","14","0","4","lose","no-go","0"
"pit-trial","132","1030396","0.0-18.0","battery-v0.2","","""event"",""trial"",""time""
""fullscreenenter"",""1"",""6358""
","
","
","""event"",""trial"",""time""
""fullscreenenter"",""1"",""6358""
","
","","","791.5","","","19","15342","6071","&#9733;","elianto","#3366ff99","-1"," ","0","+10","[1642.5999999046326]","1","1","","","15342","15","2","2","win","no-go","1"
"pit-trial","133","1033995","0.0-19.0","battery-v0.2","","""event"",""trial"",""time""
""fullscreenenter"",""1"",""6358""
","
","
","""event"",""trial"",""time""
""fullscreenenter"",""1"",""6358""
","
","","","744.0999999046326","","","19","15342","6071","&#9730;","elianto","#3366ff99"," "," ","1","+10","[1595.1000001430511]","1","1","","","15342","16","1","1","win","go","0"
"pit-trial","134","1037566","0.0-20.0","battery-v0.2","","""event"",""trial"",""time""
""fullscreenenter"",""1"",""6358""
","
","
","""event"",""trial"",""time""
""fullscreenenter"",""1"",""6358""
","
","","","715.7999999523163","","","19","15342","6071","&#9733;","elianto","#3366ff99","-1"," ","0","0","[1566.7000000476837]","1","1","","","15342","17","2","2","win","no-go","0"
"pit-trial","135","1041232","0.0-21.0","battery-v0.2","","""event"",""trial"",""time""
""fullscreenenter"",""1"",""6358""
","
","
","""event"",""trial"",""time""
""fullscreenenter"",""1"",""6358""
","
","","","809.2000000476837","","","19","15342","6071","&#9730;","elianto","#3366ff99"," "," ","1","+10","[1659.9000000953674]","1","1","","","15342","18","1","1","win","go","0"
"pit-trial","136","1044956","0.0-22.0","battery-v0.2","","""event"",""trial"",""time""
""fullscreenenter"",""1"",""6358""
","
","
","""event"",""trial"",""time""
""fullscreenenter"",""1"",""6358""
","
","","","866.7999999523163","","","19","15342","6071","&#9752;","elianto","#f73b6a7A"," "," ","1","0","[1717.7999999523163]","1","1","","","15342","19","3","3","lose","go","0"
"pit-trial","137","1049496","0.0-23.0","battery-v0.2","","""event"",""trial"",""time""
""fullscreenenter"",""1"",""6358""
","
","
","""event"",""trial"",""time""
""fullscreenenter"",""1"",""6358""
","
","","","1683.5","","","19","15342","6071","&#9728;","elianto","#f73b6a7A","-1"," ","0","0","[2535.4000000953674]","1","1","","","15342","20","0","4","lose","no-go","1"
"pit-instructions","138","1062079","0.0-24.0","battery-v0.2","","""event"",""trial"",""time""
""fullscreenenter"",""1"",""6358""
","
","
","""event"",""trial"",""time""
""fullscreenenter"",""1"",""6358""
","
","","[{""page_index"":0,""viewing_time"":6129},{""page_index"":1,""viewing_time"":6450.100000143051}]","12579.600000143051","","","","","","","","","","","","","","","","","","","","","","","",""
"pit-trial","139","1065884","0.0-25.0","battery-v0.2","","""event"",""trial"",""time""
""fullscreenenter"",""1"",""6358""
","
","
","""event"",""trial"",""time""
""fullscreenenter"",""1"",""6358""
","
","","","948.5999999046326","","","19","15342","6071","m","elianto","#f73b6a7A","-1"," ","0","-10","[1799]","1","2","","","15342","21","0","4","lose","no-go","0"
"pit-trial","140","1070740","0.0-26.0","battery-v0.2","","""event"",""trial"",""time""
""fullscreenenter"",""1"",""6358""
","
","
","""event"",""trial"",""time""
""fullscreenenter"",""1"",""6358""
","
","","","-1","","","19","15342","6071","h","elianto","#f73b6a7A"," ","-1","0","-10","[]","0","2","","","15342","22","3","3","lose","go","0"
"pit-trial","141","1074792","0.0-27.0","battery-v0.2","","""event"",""trial"",""time""
""fullscreenenter"",""1"",""6358""
","
","
","""event"",""trial"",""time""
""fullscreenenter"",""1"",""6358""
","
","","","1197.0999999046326","","","19","15342","6071","r","elianto","#3366ff99"," "," ","1","+10","[2048.0999999046326]","1","2","","","15342","23","1","1","win","go","0"
"pit-trial","142","1078619","0.0-28.0","battery-v0.2","","""event"",""trial"",""time""
""fullscreenenter"",""1"",""6358""
","
","
","""event"",""trial"",""time""
""fullscreenenter"",""1"",""6358""
","
","","","971.5","","","19","15342","6071","y","elianto","#f73b6a7A","-1"," ","0","0","[1822.5999999046326]","1","2","","","15342","24","2","4","lose","no-go","1"
"pit-trial","143","1082369","0.0-29.0","battery-v0.2","","""event"",""trial"",""time""
""fullscreenenter"",""1"",""6358""
","
","
","""event"",""trial"",""time""
""fullscreenenter"",""1"",""6358""
","
","","","894.5999999046326","","","19","15342","6071","y","elianto","#f73b6a7A","-1"," ","0","0","[1746.0999999046326]","1","2","","","15342","25","2","4","lose","no-go","1"
"pit-trial","144","1086336","0.0-30.0","battery-v0.2","","""event"",""trial"",""time""
""fullscreenenter"",""1"",""6358""
","
","
","""event"",""trial"",""time""
""fullscreenenter"",""1"",""6358""
","
","","","1112.2999999523163","","","19","15342","6071","r","elianto","#3366ff99"," "," ","1","+10","[1963]","1","2","","","15342","26","1","1","win","go","0"
"pit-trial","145","1090564","0.0-31.0","battery-v0.2","","""event"",""trial"",""time""
""fullscreenenter"",""1"",""6358""
","
","
","""event"",""trial"",""time""
""fullscreenenter"",""1"",""6358""
","
","","","1371.6999998092651","","","19","15342","6071","h","elianto","#f73b6a7A"," "," ","1","-10","[2223.0999999046326]","1","2","","","15342","27","3","3","lose","go","1"
"pit-trial","146","1095421","0.0-32.0","battery-v0.2","","""event"",""trial"",""time""
""fullscreenenter"",""1"",""6358""
","
","
","""event"",""trial"",""time""
""fullscreenenter"",""1"",""6358""
","
","","","-1","","","19","15342","6071","m","elianto","#f73b6a7A","-1","-1","1","0","[]","0","2","","","15342","28","0","4","lose","no-go","0"
"pit-trial","147","1099215","0.0-33.0","battery-v0.2","","""event"",""trial"",""time""
""fullscreenenter"",""1"",""6358""
","
","
","""event"",""trial"",""time""
""fullscreenenter"",""1"",""6358""
","
","","","936.5999999046326","","","19","15342","6071","y","elianto","#f73b6a7A","-1"," ","0","-10","[1788.2000000476837]","1","2","","","15342","29","2","4","lose","no-go","0"
"pit-trial","148","1103491","0.0-34.0","battery-v0.2","","""event"",""trial"",""time""
""fullscreenenter"",""1"",""6358""
","
","
","""event"",""trial"",""time""
""fullscreenenter"",""1"",""6358""
","
","","","1419.5999999046326","","","19","15342","6071","h","elianto","#f73b6a7A"," "," ","1","0","[2271.2000000476837]","1","2","","","15342","30","3","3","lose","go","0"
"pit-trial","149","1108347","0.0-35.0","battery-v0.2","","""event"",""trial"",""time""
""fullscreenenter"",""1"",""6358""
","
","
","""event"",""trial"",""time""
""fullscreenenter"",""1"",""6358""
","
","","","-1","","","19","15342","6071","m","elianto","#f73b6a7A","-1","-1","1","0","[]","0","2","","","15342","31","0","4","lose","no-go","0"
"pit-trial","150","1112200","0.0-36.0","battery-v0.2","","""event"",""trial"",""time""
""fullscreenenter"",""1"",""6358""
","
","
","""event"",""trial"",""time""
""fullscreenenter"",""1"",""6358""
","
","","","996.9000000953674","","","19","15342","6071","r","elianto","#3366ff99"," "," ","1","+10","[1848.1000001430511]","1","2","","","15342","32","1","1","win","go","0"
"pit-trial","151","1116258","0.0-37.0","battery-v0.2","","""event"",""trial"",""time""
""fullscreenenter"",""1"",""6358""
","
","
","""event"",""trial"",""time""
""fullscreenenter"",""1"",""6358""
","
","","","1202.5999999046326","","","19","15342","6071","h","elianto","#f73b6a7A"," "," ","1","0","[2053.9000000953674]","1","2","","","15342","33","3","3","lose","go","0"
"pit-trial","152","1121040","0.0-38.0","battery-v0.2","","""event"",""trial"",""time""
""fullscreenenter"",""1"",""6358""
","
","
","""event"",""trial"",""time""
""fullscreenenter"",""1"",""6358""
","
","","","1924.0999999046326","","","19","15342","6071","r","elianto","#3366ff99"," "," ","1","+10","[2775.2000000476837]","1","2","","","15342","34","1","1","win","go","0"
"pit-trial","153","1125896","0.0-39.0","battery-v0.2","","""event"",""trial"",""time""
""fullscreenenter"",""1"",""6358""
","
","
","""event"",""trial"",""time""
""fullscreenenter"",""1"",""6358""
","
","","","-1","","","19","15342","6071","m","elianto","#f73b6a7A","-1","-1","1","0","[]","0","2","","","15342","35","0","4","lose","no-go","0"
"pit-trial","154","1130753","0.0-40.0","battery-v0.2","","""event"",""trial"",""time""
""fullscreenenter"",""1"",""6358""
","
","
","""event"",""trial"",""time""
""fullscreenenter"",""1"",""6358""
","
","","","-1","","","19","15342","6071","y","elianto","#f73b6a7A","-1","-1","1","0","[]","0","2","","","15342","36","2","4","lose","no-go","0"
"pit-trial","155","1135611","0.0-41.0","battery-v0.2","","""event"",""trial"",""time""
""fullscreenenter"",""1"",""6358""
","
","
","""event"",""trial"",""time""
""fullscreenenter"",""1"",""6358""
","
","","","-1","","","19","15342","6071","m","elianto","#f73b6a7A","-1","-1","1","-10","[]","0","2","","","15342","37","0","4","lose","no-go","1"
"pit-trial","156","1140468","0.0-42.0","battery-v0.2","","""event"",""trial"",""time""
""fullscreenenter"",""1"",""6358""
","
","
","""event"",""trial"",""time""
""fullscreenenter"",""1"",""6358""
","
","","","-1","","","19","15342","6071","r","elianto","#3366ff99"," ","-1","0","0","[3039]","1","2","","","15342","38","1","1","win","go","0"
"pit-trial","157","1145326","0.0-43.0","battery-v0.2","","""event"",""trial"",""time""
""fullscreenenter"",""1"",""6358""
","
","
","""event"",""trial"",""time""
""fullscreenenter"",""1"",""6358""
","
","","","-1","","","19","15342","6071","y","elianto","#f73b6a7A","-1","-1","1","0","[]","0","2","","","15342","39","2","4","lose","no-go","0"
"pit-trial","158","1149182","0.0-44.0","battery-v0.2","","""event"",""trial"",""time""
""fullscreenenter"",""1"",""6358""
","
","
","""event"",""trial"",""time""
""fullscreenenter"",""1"",""6358""
","
","","","1001.5999999046326","","","19","15342","6071","h","elianto","#f73b6a7A"," "," ","1","0","[1853]","1","2","","","15342","40","3","3","lose","go","0"
"pit-trial","159","1154040","0.0-45.0","battery-v0.2","","""event"",""trial"",""time""
""fullscreenenter"",""1"",""6358""
","
","
","""event"",""trial"",""time""
""fullscreenenter"",""1"",""6358""
","
","","","-1","","","19","15342","6071","m","elianto","#f73b6a7A","-1","-1","1","0","[]","0","2","","","15342","41","0","4","lose","no-go","0"
"pit-trial","160","1158899","0.0-46.0","battery-v0.2","","""event"",""trial"",""time""
""fullscreenenter"",""1"",""6358""
","
","
","""event"",""trial"",""time""
""fullscreenenter"",""1"",""6358""
","
","","","-1","","","19","15342","6071","y","elianto","#f73b6a7A","-1","-1","1","0","[]","0","2","","","15342","42","2","4","lose","no-go","0"
"pit-trial","161","1162853","0.0-47.0","battery-v0.2","","""event"",""trial"",""time""
""fullscreenenter"",""1"",""6358""
","
","
","""event"",""trial"",""time""
""fullscreenenter"",""1"",""6358""
","
","","","1099.5","","","19","15342","6071","h","elianto","#f73b6a7A"," "," ","1","0","[1950.7000000476837]","1","2","","","15342","43","3","3","lose","go","0"
"pit-trial","162","1167708","0.0-48.0","battery-v0.2","","""event"",""trial"",""time""
""fullscreenenter"",""1"",""6358""
","
","
","""event"",""trial"",""time""
""fullscreenenter"",""1"",""6358""
","
","","","-1","","","19","15342","6071","r","elianto","#3366ff99"," ","-1","0","0","[3107.4000000953674]","1","2","","","15342","44","1","1","win","go","0"
"pit-trial","163","1171663","0.0-49.0","battery-v0.2","","""event"",""trial"",""time""
""fullscreenenter"",""1"",""6358""
","
","
","""event"",""trial"",""time""
""fullscreenenter"",""1"",""6358""
","
","","","1099.8999998569489","","","19","15342","6071","y","elianto","#f73b6a7A","-1"," ","0","0","[1951.3999998569489]","1","2","","","15342","45","2","4","lose","no-go","1"
"pit-trial","164","1175573","0.0-50.0","battery-v0.2","","""event"",""trial"",""time""
""fullscreenenter"",""1"",""6358""
","
","
","""event"",""trial"",""time""
""fullscreenenter"",""1"",""6358""
","
","","","1054.3999998569489","","","19","15342","6071","h","elianto","#f73b6a7A"," "," ","1","0","[1904.7999999523163]","1","2","","","15342","46","3","3","lose","go","0"
"pit-trial","165","1180429","0.0-51.0","battery-v0.2","","""event"",""trial"",""time""
""fullscreenenter"",""1"",""6358""
","
","
","""event"",""trial"",""time""
""fullscreenenter"",""1"",""6358""
","
","","","-1","","","19","15342","6071","m","elianto","#f73b6a7A","-1","-1","1","0","[]","0","2","","","15342","47","0","4","lose","no-go","0"
"pit-trial","166","1184292","0.0-52.0","battery-v0.2","","""event"",""trial"",""time""
""fullscreenenter"",""1"",""6358""
","
","
","""event"",""trial"",""time""
""fullscreenenter"",""1"",""6358""
","
","","","1007.1000001430511","","","19","15342","6071","z","elianto","#3366ff99","-1"," ","0","0","[1857.2999999523163]","1","2","","","15342","48","4","2","win","no-go","0"
"pit-trial","167","1188588","0.0-53.0","battery-v0.2","","""event"",""trial"",""time""
""fullscreenenter"",""1"",""6358""
","
","
","""event"",""trial"",""time""
""fullscreenenter"",""1"",""6358""
","
","","","1437.0999999046326","","","19","15342","6071","h","elianto","#f73b6a7A"," "," ","1","0","[2288.5]","1","2","","","15342","49","3","3","lose","go","0"
"pit-trial","168","1192888","0.0-54.0","battery-v0.2","","""event"",""trial"",""time""
""fullscreenenter"",""1"",""6358""
","
","
","""event"",""trial"",""time""
""fullscreenenter"",""1"",""6358""
","
","","","1440.2999999523163","","","19","15342","6071","r","elianto","#3366ff99"," "," ","1","0","[2291.699999809265]","1","2","","","15342","50","1","1","win","go","1"
"pit-trial","169","1197746","0.0-55.0","battery-v0.2","","""event"",""trial"",""time""
""fullscreenenter"",""1"",""6358""
","
","
","""event"",""trial"",""time""
""fullscreenenter"",""1"",""6358""
","
","","","-1","","","19","15342","6071","z","elianto","#3366ff99","-1","-1","1","+10","[]","0","2","","","15342","51","4","2","win","no-go","0"
"pit-trial","170","1202603","0.0-56.0","battery-v0.2","","""event"",""trial"",""time""
""fullscreenenter"",""1"",""6358""
","
","
","""event"",""trial"",""time""
""fullscreenenter"",""1"",""6358""
","
","","","-1","","","19","15342","6071","m","elianto","#f73b6a7A","-1","-1","1","0","[]","0","2","","","15342","52","0","4","lose","no-go","0"
"pit-trial","171","1207461","0.0-57.0","battery-v0.2","","""event"",""trial"",""time""
""fullscreenenter"",""1"",""6358""
","
","
","""event"",""trial"",""time""
""fullscreenenter"",""1"",""6358""
","
","","","-1","","","19","15342","6071","y","elianto","#f73b6a7A","-1","-1","1","-10","[]","0","2","","","15342","53","2","4","lose","no-go","1"
"pit-trial","172","1212318","0.0-58.0","battery-v0.2","","""event"",""trial"",""time""
""fullscreenenter"",""1"",""6358""
","
","
","""event"",""trial"",""time""
""fullscreenenter"",""1"",""6358""
","
","","","-1","","","19","15342","6071","z","elianto","#3366ff99","-1","-1","1","0","[]","0","2","","","15342","54","4","2","win","no-go","1"
"pit-trial","173","1217127","0.0-59.0","battery-v0.2","","""event"",""trial"",""time""
""fullscreenenter"",""1"",""6358""
","
","
","""event"",""trial"",""time""
""fullscreenenter"",""1"",""6358""
","
","","","1953.0999999046326","","","19","15342","6071","r","elianto","#3366ff99"," "," ","1","+10","[2803.7000000476837]","1","2","","","15342","55","1","1","win","go","0"
"pit-trial","174","1221984","0.0-60.0","battery-v0.2","","""event"",""trial"",""time""
""fullscreenenter"",""1"",""6358""
","
","
","""event"",""trial"",""time""
""fullscreenenter"",""1"",""6358""
","
","","","-1","","","19","15342","6071","m","elianto","#f73b6a7A","-1","-1","1","-10","[]","0","2","","","15342","56","0","4","lose","no-go","1"
"pit-trial","175","1226064","0.0-61.0","battery-v0.2","","""event"",""trial"",""time""
""fullscreenenter"",""1"",""6358""
","
","
","""event"",""trial"",""time""
""fullscreenenter"",""1"",""6358""
","
","","","1222.5999999046326","","","19","15342","6071","h","elianto","#f73b6a7A"," "," ","1","0","[2074.2000000476837]","1","2","","","15342","57","3","3","lose","go","0"
"pit-trial","176","1230920","0.0-62.0","battery-v0.2","","""event"",""trial"",""time""
""fullscreenenter"",""1"",""6358""
","
","
","""event"",""trial"",""time""
""fullscreenenter"",""1"",""6358""
","
","","","-1","","","19","15342","6071","z","elianto","#3366ff99","-1","-1","1","+10","[]","0","2","","","15342","58","4","2","win","no-go","0"
"pit-trial","177","1234986","0.0-63.0","battery-v0.2","","""event"",""trial"",""time""
""fullscreenenter"",""1"",""6358""
","
","
","""event"",""trial"",""time""
""fullscreenenter"",""1"",""6358""
","
","","","1210.3000001907349","","","19","15342","6071","r","elianto","#3366ff99"," "," ","1","+10","[2062.2000000476837]","1","2","","","15342","59","1","1","win","go","0"
"pit-trial","178","1239845","0.0-64.0","battery-v0.2","","""event"",""trial"",""time""
""fullscreenenter"",""1"",""6358""
","
","
","""event"",""trial"",""time""
""fullscreenenter"",""1"",""6358""
","
","","","-1","","","19","15342","6071","m","elianto","#f73b6a7A","-1","-1","1","0","[]","0","2","","","15342","60","0","4","lose","no-go","0"
"pit-trial","179","1244704","0.0-65.0","battery-v0.2","","""event"",""trial"",""time""
""fullscreenenter"",""1"",""6358""
","
","
","""event"",""trial"",""time""
""fullscreenenter"",""1"",""6358""
","
","","","-1","","","19","15342","6071","y","elianto","#f73b6a7A","-1","-1","1","-10","[]","0","2","","","15342","61","2","4","lose","no-go","1"
"pit-trial","180","1248790","0.0-66.0","battery-v0.2","","""event"",""trial"",""time""
""fullscreenenter"",""1"",""6358""
","
","
","""event"",""trial"",""time""
""fullscreenenter"",""1"",""6358""
","
","","","1227.9000000953674","","","19","15342","6071","r","elianto","#3366ff99"," "," ","1","+10","[2079.9000000953674]","1","2","","","15342","62","1","1","win","go","0"
"pit-trial","181","1252805","0.0-67.0","battery-v0.2","","""event"",""trial"",""time""
""fullscreenenter"",""1"",""6358""
","
","
","""event"",""trial"",""time""
""fullscreenenter"",""1"",""6358""
","
","","","1158.7999999523163","","","19","15342","6071","h","elianto","#f73b6a7A"," "," ","1","0","[2010.6999998092651]","1","2","","","15342","63","3","3","lose","go","0"
"pit-trial","182","1257665","0.0-68.0","battery-v0.2","","""event"",""trial"",""time""
""fullscreenenter"",""1"",""6358""
","
","
","""event"",""trial"",""time""
""fullscreenenter"",""1"",""6358""
","
","","","-1","","","19","15342","6071","z","elianto","#3366ff99","-1","-1","1","0","[]","0","2","","","15342","64","4","2","win","no-go","1"
"pit-trial","183","1262521","0.0-69.0","battery-v0.2","","""event"",""trial"",""time""
""fullscreenenter"",""1"",""6358""
","
","
","""event"",""trial"",""time""
""fullscreenenter"",""1"",""6358""
","
","","","-1","","","19","15342","6071","y","elianto","#f73b6a7A","-1","-1","1","0","[]","0","2","","","15342","65","2","4","lose","no-go","0"
"pit-trial","184","1266230","0.0-70.0","battery-v0.2","","""event"",""trial"",""time""
""fullscreenenter"",""1"",""6358""
","
","
","""event"",""trial"",""time""
""fullscreenenter"",""1"",""6358""
","
","","","851.7000000476837","","","19","15342","6071","z","elianto","#3366ff99","-1"," ","0","+10","[1703.1000001430511]","1","2","","","15342","66","4","2","win","no-go","1"
"pit-trial","185","1269998","0.0-71.0","battery-v0.2","","""event"",""trial"",""time""
""fullscreenenter"",""1"",""6358""
","
","
","""event"",""trial"",""time""
""fullscreenenter"",""1"",""6358""
","
","","","913.2000000476837","","","19","15342","6071","r","elianto","#3366ff99"," "," ","1","+10","[1762.6999998092651]","1","2","","","15342","67","1","1","win","go","0"
"pit-trial","186","1274307","0.0-72.0","battery-v0.2","","""event"",""trial"",""time""
""fullscreenenter"",""1"",""6358""
","
","
","""event"",""trial"",""time""
""fullscreenenter"",""1"",""6358""
","
","","","1453","","","19","15342","6071","h","elianto","#f73b6a7A"," "," ","1","-10","[2304.199999809265]","1","2","","","15342","68","3","3","lose","go","1"
"pit-trial","187","1278444","0.0-73.0","battery-v0.2","","""event"",""trial"",""time""
""fullscreenenter"",""1"",""6358""
","
","
","""event"",""trial"",""time""
""fullscreenenter"",""1"",""6358""
","
","","","1279.0999999046326","","","19","15342","6071","c","elianto","#3366ff99"," "," ","1","+10","[2130.5999999046326]","1","2","","","15342","69","5","1","win","go","0"
"pit-trial","188","1282634","0.0-74.0","battery-v0.2","","""event"",""trial"",""time""
""fullscreenenter"",""1"",""6358""
","
","
","""event"",""trial"",""time""
""fullscreenenter"",""1"",""6358""
","
","","","1335.5","","","19","15342","6071","r","elianto","#3366ff99"," "," ","1","0","[2185.7000000476837]","1","2","","","15342","70","1","1","win","go","1"
"pit-trial","189","1287219","0.0-75.0","battery-v0.2","","""event"",""trial"",""time""
""fullscreenenter"",""1"",""6358""
","
","
","""event"",""trial"",""time""
""fullscreenenter"",""1"",""6358""
","
","","","1729.1000001430511","","","19","15342","6071","z","elianto","#3366ff99","-1"," ","0","0","[2580.7000000476837]","1","2","","","15342","71","4","2","win","no-go","0"
"pit-trial","190","1291652","0.0-76.0","battery-v0.2","","""event"",""trial"",""time""
""fullscreenenter"",""1"",""6358""
","
","
","""event"",""trial"",""time""
""fullscreenenter"",""1"",""6358""
","
","","","1578.8000001907349","","","19","15342","6071","h","elianto","#f73b6a7A"," "," ","1","0","[2430.4000000953674]","1","2","","","15342","72","3","3","lose","go","0"
"pit-trial","191","1295505","0.0-77.0","battery-v0.2","","""event"",""trial"",""time""
""fullscreenenter"",""1"",""6358""
","
","
","""event"",""trial"",""time""
""fullscreenenter"",""1"",""6358""
","
","","","997.5","","","19","15342","6071","c","elianto","#3366ff99"," "," ","1","0","[1849.4000000953674]","1","2","","","15342","73","5","1","win","go","1"
"pit-trial","192","1299704","0.0-78.0","battery-v0.2","","""event"",""trial"",""time""
""fullscreenenter"",""1"",""6358""
","
","
","""event"",""trial"",""time""
""fullscreenenter"",""1"",""6358""
","
","","","1342.8999998569489","","","19","15342","6071","h","elianto","#f73b6a7A"," "," ","1","0","[2194.7999999523163]","1","2","","","15342","74","3","3","lose","go","0"
"pit-trial","193","1303419","0.0-79.0","battery-v0.2","","""event"",""trial"",""time""
""fullscreenenter"",""1"",""6358""
","
","
","""event"",""trial"",""time""
""fullscreenenter"",""1"",""6358""
","
","","","858.7999999523163","","","19","15342","6071","r","elianto","#3366ff99"," "," ","1","+10","[1709.8000001907349]","1","2","","","15342","75","1","1","win","go","0"
"pit-trial","194","1307806","0.0-80.0","battery-v0.2","","""event"",""trial"",""time""
""fullscreenenter"",""1"",""6358""
","
","
","""event"",""trial"",""time""
""fullscreenenter"",""1"",""6358""
","
","","","1531.5","","","19","15342","6071","z","elianto","#3366ff99","-1"," ","0","0","[2382.600000143051]","1","2","","","15342","76","4","2","win","no-go","0"
"pit-trial","195","1311543","0.0-81.0","battery-v0.2","","""event"",""trial"",""time""
""fullscreenenter"",""1"",""6358""
","
","
","""event"",""trial"",""time""
""fullscreenenter"",""1"",""6358""
","
","","","872.1000001430511","","","19","15342","6071","z","elianto","#3366ff99","-1"," ","0","0","[1722.6999998092651]","1","2","","","15342","77","4","2","win","no-go","0"
"pit-trial","196","1315889","0.0-82.0","battery-v0.2","","""event"",""trial"",""time""
""fullscreenenter"",""1"",""6358""
","
","
","""event"",""trial"",""time""
""fullscreenenter"",""1"",""6358""
","
","","","1490.5","","","19","15342","6071","b","elianto","#f73b6a7A","-1"," ","0","0","[2341.5]","1","2","","","15342","78","6","4","lose","no-go","1"
"pit-trial","197","1319829","0.0-83.0","battery-v0.2","","""event"",""trial"",""time""
""fullscreenenter"",""1"",""6358""
","
","
","""event"",""trial"",""time""
""fullscreenenter"",""1"",""6358""
","
","","","1084.1000001430511","","","19","15342","6071","c","elianto","#3366ff99"," "," ","1","+10","[1935.0999999046326]","1","2","","","15342","79","5","1","win","go","0"
"pit-trial","198","1323916","0.0-84.0","battery-v0.2","","""event"",""trial"",""time""
""fullscreenenter"",""1"",""6358""
","
","
","""event"",""trial"",""time""
""fullscreenenter"",""1"",""6358""
","
","","","1231.0999999046326","","","19","15342","6071","h","elianto","#f73b6a7A"," "," ","1","0","[2081.5]","1","2","","","15342","80","3","3","lose","go","0"
"pit-trial","199","1328100","0.0-85.0","battery-v0.2","","""event"",""trial"",""time""
""fullscreenenter"",""1"",""6358""
","
","
","""event"",""trial"",""time""
""fullscreenenter"",""1"",""6358""
","
","","","1329.4000000953674","","","19","15342","6071","t","elianto","#f73b6a7A"," "," ","1","0","[2179.899999856949]","1","2","","","15342","81","7","3","lose","go","0"
"pit-trial","200","1332338","0.0-86.0","battery-v0.2","","""event"",""trial"",""time""
""fullscreenenter"",""1"",""6358""
","
","
","""event"",""trial"",""time""
""fullscreenenter"",""1"",""6358""
","
","","","1381.5999999046326","","","19","15342","6071","b","elianto","#f73b6a7A","-1"," ","0","-10","[2232.5999999046326]","1","2","","","15342","82","6","4","lose","no-go","0"
"pit-trial","201","1336220","0.0-87.0","battery-v0.2","","""event"",""trial"",""time""
""fullscreenenter"",""1"",""6358""
","
","
","""event"",""trial"",""time""
""fullscreenenter"",""1"",""6358""
","
","","","1024.5","","","19","15342","6071","c","elianto","#3366ff99"," "," ","1","+10","[1876.2999999523163]","1","2","","","15342","83","5","1","win","go","0"
"pit-trial","202","1341077","0.0-88.0","battery-v0.2","","""event"",""trial"",""time""
""fullscreenenter"",""1"",""6358""
","
","
","""event"",""trial"",""time""
""fullscreenenter"",""1"",""6358""
","
","","","-1","","","19","15342","6071","z","elianto","#3366ff99","-1","-1","1","+10","[]","0","2","","","15342","84","4","2","win","no-go","0"
"pit-trial","203","1345155","0.0-89.0","battery-v0.2","","""event"",""trial"",""time""
""fullscreenenter"",""1"",""6358""
","
","
","""event"",""trial"",""time""
""fullscreenenter"",""1"",""6358""
","
","","","1221.0999999046326","","","19","15342","6071","c","elianto","#3366ff99"," "," ","1","+10","[2072.4000000953674]","1","2","","","15342","85","5","1","win","go","0"
"pit-trial","204","1349416","0.0-90.0","battery-v0.2","","""event"",""trial"",""time""
""fullscreenenter"",""1"",""6358""
","
","
","""event"",""trial"",""time""
""fullscreenenter"",""1"",""6358""
","
","","","1405.0999999046326","","","19","15342","6071","b","elianto","#f73b6a7A","-1"," ","0","0","[2257.0999999046326]","1","2","","","15342","86","6","4","lose","no-go","1"
"pit-trial","205","1353138","0.0-91.0","battery-v0.2","","""event"",""trial"",""time""
""fullscreenenter"",""1"",""6358""
","
","
","""event"",""trial"",""time""
""fullscreenenter"",""1"",""6358""
","
","","","863.5","","","19","15342","6071","z","elianto","#3366ff99","-1"," ","0","0","[1714.7999999523163]","1","2","","","15342","87","4","2","win","no-go","0"
"pit-trial","206","1357795","0.0-92.0","battery-v0.2","","""event"",""trial"",""time""
""fullscreenenter"",""1"",""6358""
","
","
","""event"",""trial"",""time""
""fullscreenenter"",""1"",""6358""
","
","","","1801.5","","","19","15342","6071","t","elianto","#f73b6a7A"," "," ","1","0","[2653.2000000476837]","1","2","","","15342","88","7","3","lose","go","0"
"pit-trial","207","1362651","0.0-93.0","battery-v0.2","","""event"",""trial"",""time""
""fullscreenenter"",""1"",""6358""
","
","
","""event"",""trial"",""time""
""fullscreenenter"",""1"",""6358""
","
","","","-1","","","19","15342","6071","b","elianto","#f73b6a7A","-1","-1","1","0","[]","0","2","","","15342","89","6","4","lose","no-go","0"
"pit-trial","208","1366631","0.0-94.0","battery-v0.2","","""event"",""trial"",""time""
""fullscreenenter"",""1"",""6358""
","
","
","""event"",""trial"",""time""
""fullscreenenter"",""1"",""6358""
","
","","","1123.6999998092651","","","19","15342","6071","t","elianto","#f73b6a7A"," "," ","1","0","[1974.8999998569489]","1","2","","","15342","90","7","3","lose","go","0"
"pit-trial","209","1370598","0.0-95.0","battery-v0.2","","""event"",""trial"",""time""
""fullscreenenter"",""1"",""6358""
","
","
","""event"",""trial"",""time""
""fullscreenenter"",""1"",""6358""
","
","","","1110.4000000953674","","","19","15342","6071","c","elianto","#3366ff99"," "," ","1","+10","[1961.4000000953674]","1","2","","","15342","91","5","1","win","go","0"
"pit-trial","210","1375455","0.0-96.0","battery-v0.2","","""event"",""trial"",""time""
""fullscreenenter"",""1"",""6358""
","
","
","""event"",""trial"",""time""
""fullscreenenter"",""1"",""6358""
","
","","","-1","","","19","15342","6071","z","elianto","#3366ff99","-1","-1","1","+10","[]","0","2","","","15342","92","4","2","win","no-go","0"
"pit-trial","211","1380032","0.0-97.0","battery-v0.2","","""event"",""trial"",""time""
""fullscreenenter"",""1"",""6358""
","
","
","""event"",""trial"",""time""
""fullscreenenter"",""1"",""6358""
","
","","","1720.2999999523163","","","19","15342","6071","f","elianto","#3366ff99","-1"," ","0","0","[2571.899999856949]","1","2","","","15342","93","8","2","win","no-go","0"
"pit-trial","212","1383984","0.0-98.0","battery-v0.2","","""event"",""trial"",""time""
""fullscreenenter"",""1"",""6358""
","
","
","""event"",""trial"",""time""
""fullscreenenter"",""1"",""6358""
","
","","","1095.2000000476837","","","19","15342","6071","c","elianto","#3366ff99"," "," ","1","+10","[1946.0999999046326]","1","2","","","15342","94","5","1","win","go","0"
"pit-trial","213","1388772","0.0-99.0","battery-v0.2","","""event"",""trial"",""time""
""fullscreenenter"",""1"",""6358""
","
","
","""event"",""trial"",""time""
""fullscreenenter"",""1"",""6358""
","
","","","1929.3999998569489","","","19","15342","6071","t","elianto","#f73b6a7A"," "," ","1","0","[2780.5999999046326]","1","2","","","15342","95","7","3","lose","go","0"
"pit-trial","214","1393628","0.0-100.0","battery-v0.2","","""event"",""trial"",""time""
""fullscreenenter"",""1"",""6358""
","
","
","""event"",""trial"",""time""
""fullscreenenter"",""1"",""6358""
","
","","","-1","","","19","15342","6071","b","elianto","#f73b6a7A","-1","-1","1","0","[]","0","2","","","15342","96","6","4","lose","no-go","0"
"pit-trial","215","1397962","0.0-101.0","battery-v0.2","","""event"",""trial"",""time""
""fullscreenenter"",""1"",""6358""
","
","
","""event"",""trial"",""time""
""fullscreenenter"",""1"",""6358""
","
","","","1477.8999998569489","","","19","15342","6071","t","elianto","#f73b6a7A"," "," ","1","0","[2328.0999999046326]","1","2","","","15342","97","7","3","lose","go","0"
"pit-trial","216","1402828","0.0-102.0","battery-v0.2","","""event"",""trial"",""time""
""fullscreenenter"",""1"",""6358""
","
","
","""event"",""trial"",""time""
""fullscreenenter"",""1"",""6358""
","
","","","-1","","","19","15342","6071","b","elianto","#f73b6a7A","-1","-1","1","0","[]","0","2","","","15342","98","6","4","lose","no-go","0"
"pit-trial","217","1406759","0.0-103.0","battery-v0.2","","""event"",""trial"",""time""
""fullscreenenter"",""1"",""6358""
","
","
","""event"",""trial"",""time""
""fullscreenenter"",""1"",""6358""
","
","","","1075.7999999523163","","","19","15342","6071","f","elianto","#3366ff99","-1"," ","0","+10","[1926.5]","1","2","","","15342","99","8","2","win","no-go","1"
"pit-trial","218","1410437","0.0-104.0","battery-v0.2","","""event"",""trial"",""time""
""fullscreenenter"",""1"",""6358""
","
","
","""event"",""trial"",""time""
""fullscreenenter"",""1"",""6358""
","
","","","822.2999999523163","","","19","15342","6071","c","elianto","#3366ff99"," "," ","1","+10","[1673.7999999523163]","1","2","","","15342","100","5","1","win","go","0"
"pit-trial","219","1414426","0.0-105.0","battery-v0.2","","""event"",""trial"",""time""
""fullscreenenter"",""1"",""6358""
","
","
","""event"",""trial"",""time""
""fullscreenenter"",""1"",""6358""
","
","","","1133.7999999523163","","","19","15342","6071","c","elianto","#3366ff99"," "," ","1","+10","[1985]","1","2","","","15342","101","5","1","win","go","0"
"pit-trial","220","1418771","0.0-106.0","battery-v0.2","","""event"",""trial"",""time""
""fullscreenenter"",""1"",""6358""
","
","
","""event"",""trial"",""time""
""fullscreenenter"",""1"",""6358""
","
","","","1488.8999998569489","","","19","15342","6071","n","elianto","#3366ff99","-1"," ","0","+10","[2340.2000000476837]","1","2","","","15342","102","9","2","win","no-go","1"
"pit-trial","221","1423630","0.0-107.0","battery-v0.2","","""event"",""trial"",""time""
""fullscreenenter"",""1"",""6358""
","
","
","""event"",""trial"",""time""
""fullscreenenter"",""1"",""6358""
","
","","","-1","","","19","15342","6071","b","elianto","#f73b6a7A","-1","-1","1","0","[]","0","2","","","15342","103","6","4","lose","no-go","0"
"pit-trial","222","1428507","0.0-108.0","battery-v0.2","","""event"",""trial"",""time""
""fullscreenenter"",""1"",""6358""
","
","
","""event"",""trial"",""time""
""fullscreenenter"",""1"",""6358""
","
","","","-1","","","19","15342","6071","f","elianto","#3366ff99","-1","-1","1","+10","[]","0","2","","","15342","104","8","2","win","no-go","0"
"pit-trial","223","1433370","0.0-109.0","battery-v0.2","","""event"",""trial"",""time""
""fullscreenenter"",""1"",""6358""
","
","
","""event"",""trial"",""time""
""fullscreenenter"",""1"",""6358""
","
","","","-1","","","19","15342","6071","f","elianto","#3366ff99","-1","-1","1","+10","[]","0","2","","","15342","105","8","2","win","no-go","0"
"pit-trial","224","1437804","0.0-110.0","battery-v0.2","","""event"",""trial"",""time""
""fullscreenenter"",""1"",""6358""
","
","
","""event"",""trial"",""time""
""fullscreenenter"",""1"",""6358""
","
","","","1580.3000001907349","","","19","15342","6071","n","elianto","#3366ff99","-1"," ","0","0","[2431.300000190735]","1","2","","","15342","106","9","2","win","no-go","0"
"pit-trial","225","1442661","0.0-111.0","battery-v0.2","","""event"",""trial"",""time""
""fullscreenenter"",""1"",""6358""
","
","
","""event"",""trial"",""time""
""fullscreenenter"",""1"",""6358""
","
","","","-1","","","19","15342","6071","b","elianto","#f73b6a7A","-1","-1","1","-10","[]","0","2","","","15342","107","6","4","lose","no-go","1"
"pit-trial","226","1446516","0.0-112.0","battery-v0.2","","""event"",""trial"",""time""
""fullscreenenter"",""1"",""6358""
","
","
","""event"",""trial"",""time""
""fullscreenenter"",""1"",""6358""
","
","","","997.0999999046326","","","19","15342","6071","c","elianto","#3366ff99"," "," ","1","+10","[1848.2999999523163]","1","2","","","15342","108","5","1","win","go","0"
"pit-trial","227","1451081","0.0-113.0","battery-v0.2","","""event"",""trial"",""time""
""fullscreenenter"",""1"",""6358""
","
","
","""event"",""trial"",""time""
""fullscreenenter"",""1"",""6358""
","
","","","1708.7000000476837","","","19","15342","6071","n","elianto","#3366ff99","-1"," ","0","0","[2560.2000000476837]","1","2","","","15342","109","9","2","win","no-go","0"
"pit-trial","228","1454872","0.0-114.0","battery-v0.2","","""event"",""trial"",""time""
""fullscreenenter"",""1"",""6358""
","
","
","""event"",""trial"",""time""
""fullscreenenter"",""1"",""6358""
","
","","","934.9000000953674","","","19","15342","6071","c","elianto","#3366ff99"," "," ","1","+10","[1786.1000001430511]","1","2","","","15342","110","5","1","win","go","0"
"pit-trial","229","1459728","0.0-115.0","battery-v0.2","","""event"",""trial"",""time""
""fullscreenenter"",""1"",""6358""
","
","
","""event"",""trial"",""time""
""fullscreenenter"",""1"",""6358""
","
","","","-1","","","19","15342","6071","b","elianto","#f73b6a7A","-1","-1","1","0","[]","0","2","","","15342","111","6","4","lose","no-go","0"
"pit-trial","230","1464587","0.0-116.0","battery-v0.2","","""event"",""trial"",""time""
""fullscreenenter"",""1"",""6358""
","
","
","""event"",""trial"",""time""
""fullscreenenter"",""1"",""6358""
","
","","","-1","","","19","15342","6071","f","elianto","#3366ff99","-1","-1","1","+10","[]","0","2","","","15342","112","8","2","win","no-go","0"
"pit-trial","231","1469001","0.0-117.0","battery-v0.2","","""event"",""trial"",""time""
""fullscreenenter"",""1"",""6358""
","
","
","""event"",""trial"",""time""
""fullscreenenter"",""1"",""6358""
","
","","","1558.2999999523163","","","19","15342","6071","c","elianto","#3366ff99"," "," ","1","+10","[2410]","1","2","","","15342","113","5","1","win","go","0"
"pit-trial","232","1473857","0.0-118.0","battery-v0.2","","""event"",""trial"",""time""
""fullscreenenter"",""1"",""6358""
","
","
","""event"",""trial"",""time""
""fullscreenenter"",""1"",""6358""
","
","","","-1","","","19","15342","6071","f","elianto","#3366ff99","-1","-1","1","+10","[]","0","2","","","15342","114","8","2","win","no-go","0"
"pit-trial","233","1478531","0.0-119.0","battery-v0.2","","""event"",""trial"",""time""
""fullscreenenter"",""1"",""6358""
","
","
","""event"",""trial"",""time""
""fullscreenenter"",""1"",""6358""
","
","","","1814","","","19","15342","6071","t","elianto","#f73b6a7A"," "," ","1","0","[2665.5]","1","2","","","15342","115","7","3","lose","go","0"
"pit-trial","234","1483387","0.0-120.0","battery-v0.2","","""event"",""trial"",""time""
""fullscreenenter"",""1"",""6358""
","
","
","""event"",""trial"",""time""
""fullscreenenter"",""1"",""6358""
","
","","","-1","","","19","15342","6071","n","elianto","#3366ff99","-1","-1","1","+10","[]","0","2","","","15342","116","9","2","win","no-go","0"
"pit-trial","235","1488243","0.0-121.0","battery-v0.2","","""event"",""trial"",""time""
""fullscreenenter"",""1"",""6358""
","
","
","""event"",""trial"",""time""
""fullscreenenter"",""1"",""6358""
","
","","","-1","","","19","15342","6071","n","elianto","#3366ff99","-1","-1","1","+10","[]","0","2","","","15342","117","9","2","win","no-go","0"
"pit-trial","236","1493099","0.0-122.0","battery-v0.2","","""event"",""trial"",""time""
""fullscreenenter"",""1"",""6358""
","
","
","""event"",""trial"",""time""
""fullscreenenter"",""1"",""6358""
","
","","","-1","","","19","15342","6071","b","elianto","#f73b6a7A","-1","-1","1","0","[]","0","2","","","15342","118","6","4","lose","no-go","0"
"pit-trial","237","1497956","0.0-123.0","battery-v0.2","","""event"",""trial"",""time""
""fullscreenenter"",""1"",""6358""
","
","
","""event"",""trial"",""time""
""fullscreenenter"",""1"",""6358""
","
","","","-1","","","19","15342","6071","f","elianto","#3366ff99","-1","-1","1","+10","[]","0","2","","","15342","119","8","2","win","no-go","0"
"pit-trial","238","1502614","0.0-124.0","battery-v0.2","","""event"",""trial"",""time""
""fullscreenenter"",""1"",""6358""
","
","
","""event"",""trial"",""time""
""fullscreenenter"",""1"",""6358""
","
","","","1802.8999998569489","","","19","15342","6071","c","elianto","#3366ff99"," "," ","1","+10","[2654.0999999046326]","1","2","","","15342","120","5","1","win","go","0"
"pit-trial","239","1507047","0.0-125.0","battery-v0.2","","""event"",""trial"",""time""
""fullscreenenter"",""1"",""6358""
","
","
","""event"",""trial"",""time""
""fullscreenenter"",""1"",""6358""
","
","","","1578.7000000476837","","","19","15342","6071","n","elianto","#3366ff99","-1"," ","0","0","[2429.800000190735]","1","2","","","15342","121","9","2","win","no-go","0"
"pit-trial","240","1511904","0.0-126.0","battery-v0.2","","""event"",""trial"",""time""
""fullscreenenter"",""1"",""6358""
","
","
","""event"",""trial"",""time""
""fullscreenenter"",""1"",""6358""
","
","","","-1","","","19","15342","6071","f","elianto","#3366ff99","-1","-1","1","+10","[]","0","2","","","15342","122","8","2","win","no-go","0"
"pit-trial","241","1516758","0.0-127.0","battery-v0.2","","""event"",""trial"",""time""
""fullscreenenter"",""1"",""6358""
","
","
","""event"",""trial"",""time""
""fullscreenenter"",""1"",""6358""
","
","","","-1","","","19","15342","6071","t","elianto","#f73b6a7A"," ","-1","0","-10","[3027.800000190735]","1","2","","","15342","123","7","3","lose","go","0"
"pit-trial","242","1521047","0.0-128.0","battery-v0.2","","""event"",""trial"",""time""
""fullscreenenter"",""1"",""6358""
","
","
","""event"",""trial"",""time""
""fullscreenenter"",""1"",""6358""
","
","","","1432.9000000953674","","","19","15342","6071","c","elianto","#3366ff99"," "," ","1","+10","[2284.4000000953674]","1","2","","","15342","124","5","1","win","go","0"
"pit-trial","243","1525905","0.0-129.0","battery-v0.2","","""event"",""trial"",""time""
""fullscreenenter"",""1"",""6358""
","
","
","""event"",""trial"",""time""
""fullscreenenter"",""1"",""6358""
","
","","","-1","","","19","15342","6071","n","elianto","#3366ff99","-1","-1","1","+10","[]","0","2","","","15342","125","9","2","win","no-go","0"
"pit-trial","244","1529792","0.0-130.0","battery-v0.2","","""event"",""trial"",""time""
""fullscreenenter"",""1"",""6358""
","
","
","""event"",""trial"",""time""
""fullscreenenter"",""1"",""6358""
","
","","","1031","","","19","15342","6071","t","elianto","#f73b6a7A"," "," ","1","0","[1882.7000000476837]","1","2","","","15342","126","7","3","lose","go","0"
"pit-trial","245","1534650","0.0-131.0","battery-v0.2","","""event"",""trial"",""time""
""fullscreenenter"",""1"",""6358""
","
","
","""event"",""trial"",""time""
""fullscreenenter"",""1"",""6358""
","
","","","-1","","","19","15342","6071","b","elianto","#f73b6a7A","-1","-1","1","0","[]","0","2","","","15342","127","6","4","lose","no-go","0"
"pit-trial","246","1539506","0.0-132.0","battery-v0.2","","""event"",""trial"",""time""
""fullscreenenter"",""1"",""6358""
","
","
","""event"",""trial"",""time""
""fullscreenenter"",""1"",""6358""
","
","","","-1","","","19","15342","6071","f","elianto","#3366ff99","-1","-1","1","0","[3073]","1","2","","","15342","128","8","2","win","no-go","1"
"pit-trial","247","1544364","0.0-133.0","battery-v0.2","","""event"",""trial"",""time""
""fullscreenenter"",""1"",""6358""
","
","
","""event"",""trial"",""time""
""fullscreenenter"",""1"",""6358""
","
","","","-1","","","19","15342","6071","f","elianto","#3366ff99","-1","-1","1","+10","[]","0","2","","","15342","129","8","2","win","no-go","0"
"pit-trial","248","1549220","0.0-134.0","battery-v0.2","","""event"",""trial"",""time""
""fullscreenenter"",""1"",""6358""
","
","
","""event"",""trial"",""time""
""fullscreenenter"",""1"",""6358""
","
","","","-1","","","19","15342","6071","n","elianto","#3366ff99","-1","-1","1","+10","[]","0","2","","","15342","130","9","2","win","no-go","0"
"pit-trial","249","1553528","0.0-135.0","battery-v0.2","","""event"",""trial"",""time""
""fullscreenenter"",""1"",""6358""
","
","
","""event"",""trial"",""time""
""fullscreenenter"",""1"",""6358""
","
","","","1451.8999998569489","","","19","15342","6071","t","elianto","#f73b6a7A"," "," ","1","-10","[2303.5999999046326]","1","2","","","15342","131","7","3","lose","go","1"
"pit-trial","250","1558383","0.0-136.0","battery-v0.2","","""event"",""trial"",""time""
""fullscreenenter"",""1"",""6358""
","
","
","""event"",""trial"",""time""
""fullscreenenter"",""1"",""6358""
","
","","","-1","","","19","15342","6071","b","elianto","#f73b6a7A","-1","-1","1","0","[]","0","2","","","15342","132","6","4","lose","no-go","0"
"pit-trial","251","1563240","0.0-137.0","battery-v0.2","","""event"",""trial"",""time""
""fullscreenenter"",""1"",""6358""
","
","
","""event"",""trial"",""time""
""fullscreenenter"",""1"",""6358""
","
","","","-1","","","19","15342","6071","n","elianto","#3366ff99","-1","-1","1","0","[]","0","2","","","15342","133","9","2","win","no-go","1"
"pit-trial","252","1568097","0.0-138.0","battery-v0.2","","""event"",""trial"",""time""
""fullscreenenter"",""1"",""6358""
","
","
","""event"",""trial"",""time""
""fullscreenenter"",""1"",""6358""
","
","","","-1","","","19","15342","6071","b","elianto","#f73b6a7A","-1","-1","1","0","[]","0","2","","","15342","134","6","4","lose","no-go","0"
"pit-trial","253","1571936","0.0-139.0","battery-v0.2","","""event"",""trial"",""time""
""fullscreenenter"",""1"",""6358""
","
","
","""event"",""trial"",""time""
""fullscreenenter"",""1"",""6358""
","
","","","981.4000000953674","","","19","15342","6071","f","elianto","#3366ff99","-1"," ","0","0","[1832.0999999046326]","1","2","","","15342","135","8","2","win","no-go","0"
"pit-trial","254","1576272","0.0-140.0","battery-v0.2","","""event"",""trial"",""time""
""fullscreenenter"",""1"",""6358""
","
","
","""event"",""trial"",""time""
""fullscreenenter"",""1"",""6358""
","
","","","1480.2999999523163","","","19","15342","6071","t","elianto","#f73b6a7A"," "," ","1","0","[2331.2999999523163]","1","2","","","15342","136","7","3","lose","go","0"
"pit-trial","255","1581130","0.0-141.0","battery-v0.2","","""event"",""trial"",""time""
""fullscreenenter"",""1"",""6358""
","
","
","""event"",""trial"",""time""
""fullscreenenter"",""1"",""6358""
","
","","","-1","","","19","15342","6071","f","elianto","#3366ff99","-1","-1","1","+10","[]","0","2","","","15342","137","8","2","win","no-go","0"
"pit-trial","256","1585989","0.0-142.0","battery-v0.2","","""event"",""trial"",""time""
""fullscreenenter"",""1"",""6358""
","
","
","""event"",""trial"",""time""
""fullscreenenter"",""1"",""6358""
","
","","","-1","","","19","15342","6071","b","elianto","#f73b6a7A","-1","-1","1","0","[]","0","2","","","15342","138","6","4","lose","no-go","0"
"pit-trial","257","1590535","0.0-143.0","battery-v0.2","","""event"",""trial"",""time""
""fullscreenenter"",""1"",""6358""
","
","
","""event"",""trial"",""time""
""fullscreenenter"",""1"",""6358""
","
","","","1688","","","19","15342","6071","n","elianto","#3366ff99","-1"," ","0","0","[2539.9000000953674]","1","2","","","15342","139","9","2","win","no-go","0"
"pit-trial","258","1595318","0.0-144.0","battery-v0.2","","""event"",""trial"",""time""
""fullscreenenter"",""1"",""6358""
","
","
","""event"",""trial"",""time""
""fullscreenenter"",""1"",""6358""
","
","","","1928.0999999046326","","","19","15342","6071","t","elianto","#f73b6a7A"," "," ","1","0","[2778.5999999046326]","1","2","","","15342","140","7","3","lose","go","0"
"pit-instructions","259","1615279","0.0-145.0","battery-v0.2","","""event"",""trial"",""time""
""fullscreenenter"",""1"",""6358""
","
","
","""event"",""trial"",""time""
""fullscreenenter"",""1"",""6358""
","
","","[{""page_index"":0,""viewing_time"":11691.400000095367},{""page_index"":1,""viewing_time"":8267}]","19958.900000095367","","","","","","","","","","","","","","","","","","","","","","","",""
"pit-trial","260","1619455","0.0-146.0","battery-v0.2","","""event"",""trial"",""time""
""fullscreenenter"",""1"",""6358""
","
","
","""event"",""trial"",""time""
""fullscreenenter"",""1"",""6358""
","
","","","1314.7999999523163","","","19","15342","6071","u","elianto","#f73b6a7A"," "," ","1","-10","[2165.9000000953674]","1","3","","","15342","141","0","3","lose","go","1"
"pit-trial","261","1624095","0.0-147.0","battery-v0.2","","""event"",""trial"",""time""
""fullscreenenter"",""1"",""6358""
","
","
","""event"",""trial"",""time""
""fullscreenenter"",""1"",""6358""
","
","","","1782.2999999523163","","","19","15342","6071","l","elianto","#3366ff99","-1"," ","0","0","[2634.2000000476837]","1","3","","","15342","142","1","2","win","no-go","0"
"pit-trial","262","1627816","0.0-148.0","battery-v0.2","","""event"",""trial"",""time""
""fullscreenenter"",""1"",""6358""
","
","
","""event"",""trial"",""time""
""fullscreenenter"",""1"",""6358""
","
","","","866.6999998092651","","","19","15342","6071","a","elianto","#f73b6a7A"," "," ","1","0","[1716.5999999046326]","1","3","","","15342","143","2","3","lose","go","0"
"pit-trial","263","1632156","0.0-149.0","battery-v0.2","","""event"",""trial"",""time""
""fullscreenenter"",""1"",""6358""
","
","
","""event"",""trial"",""time""
""fullscreenenter"",""1"",""6358""
","
","","","1483.2000000476837","","","19","15342","6071","g","elianto","#f73b6a7A","-1"," ","0","-10","[2334.600000143051]","1","3","","","15342","144","3","4","lose","no-go","0"
"pit-trial","264","1637012","0.0-150.0","battery-v0.2","","""event"",""trial"",""time""
""fullscreenenter"",""1"",""6358""
","
","
","""event"",""trial"",""time""
""fullscreenenter"",""1"",""6358""
","
","","","-1","","","19","15342","6071","g","elianto","#f73b6a7A","-1","-1","1","0","[]","0","3","","","15342","145","3","4","lose","no-go","0"
"pit-trial","265","1641458","0.0-151.0","battery-v0.2","","""event"",""trial"",""time""
""fullscreenenter"",""1"",""6358""
","
","
","""event"",""trial"",""time""
""fullscreenenter"",""1"",""6358""
","
","","","1581.1000001430511","","","19","15342","6071","a","elianto","#f73b6a7A"," "," ","1","0","[2432.100000143051]","1","3","","","15342","146","2","3","lose","go","0"
