"trial_type","trial_index","time_elapsed","internal_node_id","task_version","subject_id","interactions","blur_events","focus_events","fullscreenenter_events","fullscreenexit_events","success","view_history","rt","responses","num_errors","age","subject","participantId","rune","rune_set","hex","correct","choice","accuracy","outcome","keys","total_keys","block","practice","value","sub","trial","stimulus","robot","valence","action","sham"
"pavlovia","0","30","0.0-0.0","battery-v0.2","","""event"",""trial"",""time""
""fullscreenenter"",""1"",""2583""
","
","
","""event"",""trial"",""time""
""fullscreenenter"",""1"",""2583""
","
","","","","","","","","","","","","","","","","","","","","","","","","","","",""
"fullscreen","1","3535","0.0-1.0","battery-v0.2","","""event"",""trial"",""time""
""fullscreenenter"",""1"",""2583""
","
","
","""event"",""trial"",""time""
""fullscreenenter"",""1"",""2583""
","
","true","","","","","","","","","","","","","","","","","","","","","","","","","",""
"pit-instructions","2","33336","0.0-2.0-0.0","battery-v0.2","","""event"",""trial"",""time""
""fullscreenenter"",""1"",""2583""
","
","
","""event"",""trial"",""time""
""fullscreenenter"",""1"",""2583""
","
","","[{""page_index"":0,""viewing_time"":29797}]","29798","","","","","","","","","","","","","","","","","","","","","","","",""
"pit-comprehension","3","43412","0.0-2.0-1.0-0.0","battery-v0.2","","""event"",""trial"",""time""
""fullscreenenter"",""1"",""2583""
","
","
","""event"",""trial"",""time""
""fullscreenenter"",""1"",""2583""
","
","","","10037","[""shark""]","0","25","17757","6666","","","","","","","","","","","","","","","","","","",""
"pit-instructions","4","63572","0.0-2.0-1.0-1.0","battery-v0.2","","""event"",""trial"",""time""
""fullscreenenter"",""1"",""2583""
","
","
","""event"",""trial"",""time""
""fullscreenenter"",""1"",""2583""
","
","","[{""page_index"":0,""viewing_time"":20149}]","20149","","","","","","","","","","","","","","","","","","","","","","","",""
"pit-comprehension","5","66071","0.0-2.0-2.0-0.0","battery-v0.2","","""event"",""trial"",""time""
""fullscreenenter"",""1"",""2583""
","
","
","""event"",""trial"",""time""
""fullscreenenter"",""1"",""2583""
","
","","","2491","[""tiger""]","0","25","17757","6666","","","","","","","","","","","","","","","","","","",""
"pit-instructions","6","70816","0.0-2.0-2.0-1.0","battery-v0.2","","""event"",""trial"",""time""
""fullscreenenter"",""1"",""2583""
","
","
","""event"",""trial"",""time""
""fullscreenenter"",""1"",""2583""
","
","","[{""page_index"":0,""viewing_time"":4738}]","4738","","","","","","","","","","","","","","","","","","","","","","","",""
"pit-instructions","7","228097","0.0-2.0-3.0","battery-v0.2","","""event"",""trial"",""time""
""fullscreenenter"",""1"",""2583""
","
","
","""event"",""trial"",""time""
""fullscreenenter"",""1"",""2583""
","
","","[{""page_index"":0,""viewing_time"":8385},{""page_index"":1,""viewing_time"":6625},{""page_index"":2,""viewing_time"":62445},{""page_index"":3,""viewing_time"":5565},{""page_index"":4,""viewing_time"":7444},{""page_index"":5,""viewing_time"":6293},{""page_index"":6,""viewing_time"":9311},{""page_index"":7,""viewing_time"":8996},{""page_index"":8,""viewing_time"":6458},{""page_index"":9,""viewing_time"":9406},{""page_index"":10,""viewing_time"":7368},{""page_index"":11,""viewing_time"":4097.000000000029},{""page_index"":12,""viewing_time"":8214.99999999997},{""page_index"":13,""viewing_time"":6661}]","157270","","","","","","","","","","","","","","","","","","","","","","","",""
"pit-trial","8","231555","0.0-2.0-4.0-0.0","battery-v0.2","","""event"",""trial"",""time""
""fullscreenenter"",""1"",""2583""
","
","
","""event"",""trial"",""time""
""fullscreenenter"",""1"",""2583""
","
","","","601","","","25","17757","6666","&#9784;","elianto","#FFFFF080"," "," ","1","&#10004","[1452]","1","0","0","","","","","","","",""
"pit-trial","9","234953","0.0-2.0-4.1-0.1","battery-v0.2","","""event"",""trial"",""time""
""fullscreenenter"",""1"",""2583""
","
","
","""event"",""trial"",""time""
""fullscreenenter"",""1"",""2583""
","
","","","541","","","25","17757","6666","&#9784;","elianto","#FFFFF080"," "," ","1","&#10004","[1391.000000000029]","1","0","0","","","","","","","",""
"pit-trial","10","238337","0.0-2.0-4.2-0.2","battery-v0.2","","""event"",""trial"",""time""
""fullscreenenter"",""1"",""2583""
","
","
","""event"",""trial"",""time""
""fullscreenenter"",""1"",""2583""
","
","","","525.9999999999709","","","25","17757","6666","&#9784;","elianto","#FFFFF080"," "," ","1","&#10004","[1378]","1","0","0","","","","","","","",""
"pit-trial","11","241566","0.0-2.0-4.3-0.3","battery-v0.2","","""event"",""trial"",""time""
""fullscreenenter"",""1"",""2583""
","
","
","""event"",""trial"",""time""
""fullscreenenter"",""1"",""2583""
","
","","","373.0000000000291","","","25","17757","6666","&#9784;","elianto","#FFFFF080"," "," ","1","&#10004","[1223.000000000029]","1","0","0","","","","","","","",""
"pit-trial","12","244958","0.0-2.0-4.4-0.4","battery-v0.2","","""event"",""trial"",""time""
""fullscreenenter"",""1"",""2583""
","
","
","""event"",""trial"",""time""
""fullscreenenter"",""1"",""2583""
","
","","","534","","","25","17757","6666","&#9784;","elianto","#FFFFF080"," "," ","1","&#10004","[1384.999999999971]","1","0","0","","","","","","","",""
"pit-instructions","13","301472","0.0-2.0-5.0","battery-v0.2","","""event"",""trial"",""time""
""fullscreenenter"",""1"",""2583""
","
","
","""event"",""trial"",""time""
""fullscreenenter"",""1"",""2583""
","
","","[{""page_index"":0,""viewing_time"":23182},{""page_index"":1,""viewing_time"":21861},{""page_index"":2,""viewing_time"":4044},{""page_index"":3,""viewing_time"":7420}]","56507","","","","","","","","","","","","","","","","","","","","","","","",""
"pit-trial","14","306328","0.0-2.0-6.0-0.0","battery-v0.2","","""event"",""trial"",""time""
""fullscreenenter"",""1"",""2583""
","
","
","""event"",""trial"",""time""
""fullscreenenter"",""1"",""2583""
","
","","","-1","","","25","17757","6666","&#9854;","elianto","#FFFFF080","-1","-1","1","&#10004","[]","0","0","1","","","","","","","",""
"pit-trial","15","311184","0.0-2.0-6.1-0.1","battery-v0.2","","""event"",""trial"",""time""
""fullscreenenter"",""1"",""2583""
","
","
","""event"",""trial"",""time""
""fullscreenenter"",""1"",""2583""
","
","","","-1","","","25","17757","6666","&#9854;","elianto","#FFFFF080","-1","-1","1","&#10004","[]","0","0","1","","","","","","","",""
"pit-trial","16","316040","0.0-2.0-6.2-0.2","battery-v0.2","","""event"",""trial"",""time""
""fullscreenenter"",""1"",""2583""
","
","
","""event"",""trial"",""time""
""fullscreenenter"",""1"",""2583""
","
","","","-1","","","25","17757","6666","&#9854;","elianto","#FFFFF080","-1","-1","1","&#10004","[]","0","0","1","","","","","","","",""
"pit-trial","17","320896","0.0-2.0-6.3-0.3","battery-v0.2","","""event"",""trial"",""time""
""fullscreenenter"",""1"",""2583""
","
","
","""event"",""trial"",""time""
""fullscreenenter"",""1"",""2583""
","
","","","-1","","","25","17757","6666","&#9854;","elianto","#FFFFF080","-1","-1","1","&#10004","[]","0","0","1","","","","","","","",""
"pit-trial","18","325752","0.0-2.0-6.4-0.4","battery-v0.2","","""event"",""trial"",""time""
""fullscreenenter"",""1"",""2583""
","
","
","""event"",""trial"",""time""
""fullscreenenter"",""1"",""2583""
","
","","","-1","","","25","17757","6666","&#9854;","elianto","#FFFFF080","-1","-1","1","&#10004","[]","0","0","1","","","","","","","",""
"pit-instructions","19","627556","0.0-2.0-7.0","battery-v0.2","","""event"",""trial"",""time""
""fullscreenenter"",""1"",""2583""
","
","
","""event"",""trial"",""time""
""fullscreenenter"",""1"",""2583""
","
","","[{""page_index"":0,""viewing_time"":6853},{""page_index"":1,""viewing_time"":12472},{""page_index"":2,""viewing_time"":35961},{""page_index"":3,""viewing_time"":18877},{""page_index"":4,""viewing_time"":8114},{""page_index"":5,""viewing_time"":9314},{""page_index"":6,""viewing_time"":13509.000000000058},{""page_index"":7,""viewing_time"":11376.999999999942},{""page_index"":8,""viewing_time"":9421.000000000058},{""page_index"":9,""viewing_time"":17489.99999999994},{""page_index"":10,""viewing_time"":40757},{""page_index"":11,""viewing_time"":9253.000000000058},{""page_index"":12,""viewing_time"":10488.999999999942},{""page_index"":13,""viewing_time"":12892},{""page_index"":14,""viewing_time"":13822},{""page_index"":15,""viewing_time"":48691},{""page_index"":16,""viewing_time"":9075},{""page_index"":17,""viewing_time"":13421}]","301789","","","","","","","","","","","","","","","","","","","","","","","",""
"pit-trial","20","631959","0.0-2.0-8.0-0.0","battery-v0.2","","""event"",""trial"",""time""
""fullscreenenter"",""1"",""2583""
","
","
","""event"",""trial"",""time""
""fullscreenenter"",""1"",""2583""
","
","","","1544","","","25","17757","6666","&#9776;","elianto","#3366ff99"," "," ","1","+10","[2394]","1","0","1","","","","","","","",""
"pit-trial","21","636289","0.0-2.0-8.0-1.0","battery-v0.2","","""event"",""trial"",""time""
""fullscreenenter"",""1"",""2583""
","
","
","""event"",""trial"",""time""
""fullscreenenter"",""1"",""2583""
","
","","","1470","","","25","17757","6666","&#9776;","elianto","#3366ff99"," "," ","1","+10","[2323]","1","0","1","","","","","","","",""
"pit-trial","22","639684","0.0-2.0-8.0-2.0","battery-v0.2","","""event"",""trial"",""time""
""fullscreenenter"",""1"",""2583""
","
","
","""event"",""trial"",""time""
""fullscreenenter"",""1"",""2583""
","
","","","536","","","25","17757","6666","&#9776;","elianto","#3366ff99"," "," ","1","+10","[1387]","1","0","1","","","","","","","",""
"pit-trial","23","643575","0.0-2.0-8.0-3.0","battery-v0.2","","""event"",""trial"",""time""
""fullscreenenter"",""1"",""2583""
","
","
","""event"",""trial"",""time""
""fullscreenenter"",""1"",""2583""
","
","","","1032","","","25","17757","6666","&#9776;","elianto","#3366ff99"," "," ","1","0","[1882]","1","0","1","","","","","","","",""
"pit-trial","24","647069","0.0-2.0-8.0-4.0","battery-v0.2","","""event"",""trial"",""time""
""fullscreenenter"",""1"",""2583""
","
","
","""event"",""trial"",""time""
""fullscreenenter"",""1"",""2583""
","
","","","633.0000000001164","","","25","17757","6666","&#9776;","elianto","#3366ff99"," "," ","1","+10","[1484.0000000001164]","1","0","1","","","","","","","",""
"pit-trial","25","650465","0.0-2.0-8.1-0.1","battery-v0.2","","""event"",""trial"",""time""
""fullscreenenter"",""1"",""2583""
","
","
","""event"",""trial"",""time""
""fullscreenenter"",""1"",""2583""
","
","","","535","","","25","17757","6666","&#9776;","elianto","#3366ff99"," "," ","1","+10","[1387]","1","0","1","","","","","","","",""
"pit-trial","26","653884","0.0-2.0-8.1-1.1","battery-v0.2","","""event"",""trial"",""time""
""fullscreenenter"",""1"",""2583""
","
","
","""event"",""trial"",""time""
""fullscreenenter"",""1"",""2583""
","
","","","561","","","25","17757","6666","&#9776;","elianto","#3366ff99"," "," ","1","+10","[1411]","1","0","1","","","","","","","",""
"pit-trial","27","657408","0.0-2.0-8.1-2.1","battery-v0.2","","""event"",""trial"",""time""
""fullscreenenter"",""1"",""2583""
","
","
","""event"",""trial"",""time""
""fullscreenenter"",""1"",""2583""
","
","","","666","","","25","17757","6666","&#9776;","elianto","#3366ff99"," "," ","1","+10","[1516]","1","0","1","","","","","","","",""
"pit-trial","28","660976","0.0-2.0-8.1-3.1","battery-v0.2","","""event"",""trial"",""time""
""fullscreenenter"",""1"",""2583""
","
","
","""event"",""trial"",""time""
""fullscreenenter"",""1"",""2583""
","
","","","711","","","25","17757","6666","&#9776;","elianto","#3366ff99"," "," ","1","0","[1562]","1","0","1","","","","","","","",""
"pit-trial","29","664252","0.0-2.0-8.1-4.1","battery-v0.2","","""event"",""trial"",""time""
""fullscreenenter"",""1"",""2583""
","
","
","""event"",""trial"",""time""
""fullscreenenter"",""1"",""2583""
","
","","","419","","","25","17757","6666","&#9776;","elianto","#3366ff99"," "," ","1","+10","[1270]","1","0","1","","","","","","","",""
"pit-trial","30","667514","0.0-2.0-8.2-0.2","battery-v0.2","","""event"",""trial"",""time""
""fullscreenenter"",""1"",""2583""
","
","
","""event"",""trial"",""time""
""fullscreenenter"",""1"",""2583""
","
","","","405","","","25","17757","6666","&#9776;","elianto","#3366ff99"," "," ","1","+10","[1255]","1","0","1","","","","","","","",""
"pit-trial","31","670887","0.0-2.0-8.2-1.2","battery-v0.2","","""event"",""trial"",""time""
""fullscreenenter"",""1"",""2583""
","
","
","""event"",""trial"",""time""
""fullscreenenter"",""1"",""2583""
","
","","","516","","","25","17757","6666","&#9776;","elianto","#3366ff99"," "," ","1","+10","[1367]","1","0","1","","","","","","","",""
"pit-trial","32","674075","0.0-2.0-8.2-2.2","battery-v0.2","","""event"",""trial"",""time""
""fullscreenenter"",""1"",""2583""
","
","
","""event"",""trial"",""time""
""fullscreenenter"",""1"",""2583""
","
","","","331","","","25","17757","6666","&#9776;","elianto","#3366ff99"," "," ","1","+10","[1182]","1","0","1","","","","","","","",""
"pit-trial","33","678932","0.0-2.0-8.2-3.2","battery-v0.2","","""event"",""trial"",""time""
""fullscreenenter"",""1"",""2583""
","
","
","""event"",""trial"",""time""
""fullscreenenter"",""1"",""2583""
","
","","","-1","","","25","17757","6666","&#9776;","elianto","#3366ff99"," ","-1","0","+10","[]","0","0","1","","","","","","","",""
"pit-trial","34","682157","0.0-2.0-8.2-4.2","battery-v0.2","","""event"",""trial"",""time""
""fullscreenenter"",""1"",""2583""
","
","
","""event"",""trial"",""time""
""fullscreenenter"",""1"",""2583""
","
","","","367","","","25","17757","6666","&#9776;","elianto","#3366ff99"," "," ","1","+10","[1218]","1","0","1","","","","","","","",""
"call-function","35","682162","0.0-2.0-9.0","battery-v0.2","","""event"",""trial"",""time""
""fullscreenenter"",""1"",""2583""
","
","
","""event"",""trial"",""time""
""fullscreenenter"",""1"",""2583""
","
","","","","","","","","","","","","","","","","","","","","","","","","","","",""
"pit-instructions","36","787784","0.0-2.0-10.0","battery-v0.2","","""event"",""trial"",""time""
""fullscreenenter"",""1"",""2583""
","
","
","""event"",""trial"",""time""
""fullscreenenter"",""1"",""2583""
","
","","[{""page_index"":0,""viewing_time"":24167},{""page_index"":1,""viewing_time"":7515},{""page_index"":2,""viewing_time"":14558},{""page_index"":3,""viewing_time"":16882.000000000116},{""page_index"":4,""viewing_time"":42493.99999999988}]","105617.00000000012","","","","","","","","","","","","","","","","","","","","","","","",""
"pit-trial","37","792642","0.0-2.0-11.0-0.0","battery-v0.2","","""event"",""trial"",""time""
""fullscreenenter"",""1"",""2583""
","
","
","""event"",""trial"",""time""
""fullscreenenter"",""1"",""2583""
","
","","","-1","","","25","17757","6666","&#9761;","elianto","#3366ff99","-1","-1","1","+10","[]","0","0","2","","","","","","","",""
"pit-trial","38","797498","0.0-2.0-11.0-1.0","battery-v0.2","","""event"",""trial"",""time""
""fullscreenenter"",""1"",""2583""
","
","
","""event"",""trial"",""time""
""fullscreenenter"",""1"",""2583""
","
","","","-1","","","25","17757","6666","&#9761;","elianto","#3366ff99","-1","-1","1","+10","[]","0","0","2","","","","","","","",""
"pit-trial","39","802354","0.0-2.0-11.0-2.0","battery-v0.2","","""event"",""trial"",""time""
""fullscreenenter"",""1"",""2583""
","
","
","""event"",""trial"",""time""
""fullscreenenter"",""1"",""2583""
","
","","","-1","","","25","17757","6666","&#9761;","elianto","#3366ff99","-1","-1","1","+10","[]","0","0","2","","","","","","","",""
"pit-trial","40","806978","0.0-2.0-11.0-3.0","battery-v0.2","","""event"",""trial"",""time""
""fullscreenenter"",""1"",""2583""
","
","
","""event"",""trial"",""time""
""fullscreenenter"",""1"",""2583""
","
","","","1765","","","25","17757","6666","&#9761;","elianto","#3366ff99","-1"," ","0","+10","[2615]","1","0","2","","","","","","","",""
"pit-trial","41","811835","0.0-2.0-11.0-4.0","battery-v0.2","","""event"",""trial"",""time""
""fullscreenenter"",""1"",""2583""
","
","
","""event"",""trial"",""time""
""fullscreenenter"",""1"",""2583""
","
","","","-1","","","25","17757","6666","&#9761;","elianto","#3366ff99","-1","-1","1","+10","[]","0","0","2","","","","","","","",""
"pit-trial","42","816690","0.0-2.0-11.1-0.1","battery-v0.2","","""event"",""trial"",""time""
""fullscreenenter"",""1"",""2583""
","
","
","""event"",""trial"",""time""
""fullscreenenter"",""1"",""2583""
","
","","","-1","","","25","17757","6666","&#9761;","elianto","#3366ff99","-1","-1","1","+10","[]","0","0","2","","","","","","","",""
"pit-trial","43","821546","0.0-2.0-11.1-1.1","battery-v0.2","","""event"",""trial"",""time""
""fullscreenenter"",""1"",""2583""
","
","
","""event"",""trial"",""time""
""fullscreenenter"",""1"",""2583""
","
","","","-1","","","25","17757","6666","&#9761;","elianto","#3366ff99","-1","-1","1","+10","[]","0","0","2","","","","","","","",""
"pit-trial","44","826401","0.0-2.0-11.1-2.1","battery-v0.2","","""event"",""trial"",""time""
""fullscreenenter"",""1"",""2583""
","
","
","""event"",""trial"",""time""
""fullscreenenter"",""1"",""2583""
","
","","","-1","","","25","17757","6666","&#9761;","elianto","#3366ff99","-1","-1","1","+10","[]","0","0","2","","","","","","","",""
"pit-trial","45","829705","0.0-2.0-11.1-3.1","battery-v0.2","","""event"",""trial"",""time""
""fullscreenenter"",""1"",""2583""
","
","
","""event"",""trial"",""time""
""fullscreenenter"",""1"",""2583""
","
","","","446.0000000001164","","","25","17757","6666","&#9761;","elianto","#3366ff99","-1"," ","0","+10","[1297.0000000001164]","1","0","2","","","","","","","",""
"pit-trial","46","834561","0.0-2.0-11.1-4.1","battery-v0.2","","""event"",""trial"",""time""
""fullscreenenter"",""1"",""2583""
","
","
","""event"",""trial"",""time""
""fullscreenenter"",""1"",""2583""
","
","","","-1","","","25","17757","6666","&#9761;","elianto","#3366ff99","-1","-1","1","+10","[]","0","0","2","","","","","","","",""
"pit-trial","47","839417","0.0-2.0-11.2-0.2","battery-v0.2","","""event"",""trial"",""time""
""fullscreenenter"",""1"",""2583""
","
","
","""event"",""trial"",""time""
""fullscreenenter"",""1"",""2583""
","
","","","-1","","","25","17757","6666","&#9761;","elianto","#3366ff99","-1","-1","1","+10","[]","0","0","2","","","","","","","",""
"pit-trial","48","844273","0.0-2.0-11.2-1.2","battery-v0.2","","""event"",""trial"",""time""
""fullscreenenter"",""1"",""2583""
","
","
","""event"",""trial"",""time""
""fullscreenenter"",""1"",""2583""
","
","","","-1","","","25","17757","6666","&#9761;","elianto","#3366ff99","-1","-1","1","+10","[]","0","0","2","","","","","","","",""
"pit-trial","49","849130","0.0-2.0-11.2-2.2","battery-v0.2","","""event"",""trial"",""time""
""fullscreenenter"",""1"",""2583""
","
","
","""event"",""trial"",""time""
""fullscreenenter"",""1"",""2583""
","
","","","-1","","","25","17757","6666","&#9761;","elianto","#3366ff99","-1","-1","1","+10","[]","0","0","2","","","","","","","",""
"pit-trial","50","852427","0.0-2.0-11.2-3.2","battery-v0.2","","""event"",""trial"",""time""
""fullscreenenter"",""1"",""2583""
","
","
","""event"",""trial"",""time""
""fullscreenenter"",""1"",""2583""
","
","","","438.0000000001164","","","25","17757","6666","&#9761;","elianto","#3366ff99","-1"," ","0","+10","[1289.0000000001164]","1","0","2","","","","","","","",""
"pit-trial","51","857283","0.0-2.0-11.2-4.2","battery-v0.2","","""event"",""trial"",""time""
""fullscreenenter"",""1"",""2583""
","
","
","""event"",""trial"",""time""
""fullscreenenter"",""1"",""2583""
","
","","","-1","","","25","17757","6666","&#9761;","elianto","#3366ff99","-1","-1","1","+10","[]","0","0","2","","","","","","","",""
"pit-trial","52","862141","0.0-2.0-11.3-0.3","battery-v0.2","","""event"",""trial"",""time""
""fullscreenenter"",""1"",""2583""
","
","
","""event"",""trial"",""time""
""fullscreenenter"",""1"",""2583""
","
","","","-1","","","25","17757","6666","&#9761;","elianto","#3366ff99","-1","-1","1","+10","[]","0","0","2","","","","","","","",""
"pit-trial","53","866998","0.0-2.0-11.3-1.3","battery-v0.2","","""event"",""trial"",""time""
""fullscreenenter"",""1"",""2583""
","
","
","""event"",""trial"",""time""
""fullscreenenter"",""1"",""2583""
","
","","","-1","","","25","17757","6666","&#9761;","elianto","#3366ff99","-1","-1","1","+10","[]","0","0","2","","","","","","","",""
"pit-trial","54","871855","0.0-2.0-11.3-2.3","battery-v0.2","","""event"",""trial"",""time""
""fullscreenenter"",""1"",""2583""
","
","
","""event"",""trial"",""time""
""fullscreenenter"",""1"",""2583""
","
","","","-1","","","25","17757","6666","&#9761;","elianto","#3366ff99","-1","-1","1","+10","[]","0","0","2","","","","","","","",""
"pit-trial","55","875463","0.0-2.0-11.3-3.3","battery-v0.2","","""event"",""trial"",""time""
""fullscreenenter"",""1"",""2583""
","
","
","""event"",""trial"",""time""
""fullscreenenter"",""1"",""2583""
","
","","","751","","","25","17757","6666","&#9761;","elianto","#3366ff99","-1"," ","0","+10","[1602]","1","0","2","","","","","","","",""
"pit-trial","56","880320","0.0-2.0-11.3-4.3","battery-v0.2","","""event"",""trial"",""time""
""fullscreenenter"",""1"",""2583""
","
","
","""event"",""trial"",""time""
""fullscreenenter"",""1"",""2583""
","
","","","-1","","","25","17757","6666","&#9761;","elianto","#3366ff99","-1","-1","1","+10","[]","0","0","2","","","","","","","",""
"call-function","57","880325","0.0-2.0-12.0","battery-v0.2","","""event"",""trial"",""time""
""fullscreenenter"",""1"",""2583""
","
","
","""event"",""trial"",""time""
""fullscreenenter"",""1"",""2583""
","
","","","","","","","","","","","","","","","","","","","","","","","","","","",""
"pit-instructions","58","948628","0.0-2.0-13.0","battery-v0.2","","""event"",""trial"",""time""
""fullscreenenter"",""1"",""2583""
","
","
","""event"",""trial"",""time""
""fullscreenenter"",""1"",""2583""
","
","","[{""page_index"":0,""viewing_time"":17495},{""page_index"":1,""viewing_time"":14401},{""page_index"":2,""viewing_time"":11342},{""page_index"":3,""viewing_time"":15429},{""page_index"":4,""viewing_time"":9633}]","68300","","","","","","","","","","","","","","","","","","","","","","","",""
"pit-trial","59","953486","0.0-2.0-14.0-0.0","battery-v0.2","","""event"",""trial"",""time""
""fullscreenenter"",""1"",""2583""
","
","
","""event"",""trial"",""time""
""fullscreenenter"",""1"",""2583""
","
","","","-1","","","25","17757","6666","&#9826;","elianto","#f73b6a7A","-1","-1","1","0","[]","0","0","3","","","","","","","",""
"pit-trial","60","956955","0.0-2.0-14.0-1.0","battery-v0.2","","""event"",""trial"",""time""
""fullscreenenter"",""1"",""2583""
","
","
","""event"",""trial"",""time""
""fullscreenenter"",""1"",""2583""
","
","","","612","","","25","17757","6666","&#9826;","elianto","#f73b6a7A","-1"," ","0","-10","[1461.9999999998836]","1","0","3","","","","","","","",""
"pit-trial","61","961812","0.0-2.0-14.0-2.0","battery-v0.2","","""event"",""trial"",""time""
""fullscreenenter"",""1"",""2583""
","
","
","""event"",""trial"",""time""
""fullscreenenter"",""1"",""2583""
","
","","","-1","","","25","17757","6666","&#9826;","elianto","#f73b6a7A","-1","-1","1","0","[]","0","0","3","","","","","","","",""
"pit-trial","62","966669","0.0-2.0-14.0-3.0","battery-v0.2","","""event"",""trial"",""time""
""fullscreenenter"",""1"",""2583""
","
","
","""event"",""trial"",""time""
""fullscreenenter"",""1"",""2583""
","
","","","-1","","","25","17757","6666","&#9826;","elianto","#f73b6a7A","-1","-1","1","-10","[]","0","0","3","","","","","","","",""
"pit-trial","63","971529","0.0-2.0-14.0-4.0","battery-v0.2","","""event"",""trial"",""time""
""fullscreenenter"",""1"",""2583""
","
","
","""event"",""trial"",""time""
""fullscreenenter"",""1"",""2583""
","
","","","-1","","","25","17757","6666","&#9826;","elianto","#f73b6a7A","-1","-1","1","0","[]","0","0","3","","","","","","","",""
"pit-trial","64","974844","0.0-2.0-14.1-0.1","battery-v0.2","","""event"",""trial"",""time""
""fullscreenenter"",""1"",""2583""
","
","
","""event"",""trial"",""time""
""fullscreenenter"",""1"",""2583""
","
","","","456.0000000001164","","","25","17757","6666","&#9826;","elianto","#f73b6a7A","-1"," ","0","-10","[1308]","1","0","3","","","","","","","",""
"pit-trial","65","979704","0.0-2.0-14.1-1.1","battery-v0.2","","""event"",""trial"",""time""
""fullscreenenter"",""1"",""2583""
","
","
","""event"",""trial"",""time""
""fullscreenenter"",""1"",""2583""
","
","","","-1","","","25","17757","6666","&#9826;","elianto","#f73b6a7A","-1","-1","1","0","[]","0","0","3","","","","","","","",""
"pit-trial","66","984561","0.0-2.0-14.1-2.1","battery-v0.2","","""event"",""trial"",""time""
""fullscreenenter"",""1"",""2583""
","
","
","""event"",""trial"",""time""
""fullscreenenter"",""1"",""2583""
","
","","","-1","","","25","17757","6666","&#9826;","elianto","#f73b6a7A","-1","-1","1","0","[]","0","0","3","","","","","","","",""
"pit-trial","67","989418","0.0-2.0-14.1-3.1","battery-v0.2","","""event"",""trial"",""time""
""fullscreenenter"",""1"",""2583""
","
","
","""event"",""trial"",""time""
""fullscreenenter"",""1"",""2583""
","
","","","-1","","","25","17757","6666","&#9826;","elianto","#f73b6a7A","-1","-1","1","-10","[]","0","0","3","","","","","","","",""
"pit-trial","68","994278","0.0-2.0-14.1-4.1","battery-v0.2","","""event"",""trial"",""time""
""fullscreenenter"",""1"",""2583""
","
","
","""event"",""trial"",""time""
""fullscreenenter"",""1"",""2583""
","
","","","-1","","","25","17757","6666","&#9826;","elianto","#f73b6a7A","-1","-1","1","0","[]","0","0","3","","","","","","","",""
"pit-trial","69","997465","0.0-2.0-14.2-0.2","battery-v0.2","","""event"",""trial"",""time""
""fullscreenenter"",""1"",""2583""
","
","
","""event"",""trial"",""time""
""fullscreenenter"",""1"",""2583""
","
","","","329.0000000001164","","","25","17757","6666","&#9826;","elianto","#f73b6a7A","-1"," ","0","-10","[1179]","1","0","3","","","","","","","",""
"pit-trial","70","1002322","0.0-2.0-14.2-1.2","battery-v0.2","","""event"",""trial"",""time""
""fullscreenenter"",""1"",""2583""
","
","
","""event"",""trial"",""time""
""fullscreenenter"",""1"",""2583""
","
","","","-1","","","25","17757","6666","&#9826;","elianto","#f73b6a7A","-1","-1","1","0","[438]","1","0","3","","","","","","","",""
"pit-trial","71","1007179","0.0-2.0-14.2-2.2","battery-v0.2","","""event"",""trial"",""time""
""fullscreenenter"",""1"",""2583""
","
","
","""event"",""trial"",""time""
""fullscreenenter"",""1"",""2583""
","
","","","-1","","","25","17757","6666","&#9826;","elianto","#f73b6a7A","-1","-1","1","0","[]","0","0","3","","","","","","","",""
"pit-trial","72","1012037","0.0-2.0-14.2-3.2","battery-v0.2","","""event"",""trial"",""time""
""fullscreenenter"",""1"",""2583""
","
","
","""event"",""trial"",""time""
""fullscreenenter"",""1"",""2583""
","
","","","-1","","","25","17757","6666","&#9826;","elianto","#f73b6a7A","-1","-1","1","-10","[2918.9999999998836]","1","0","3","","","","","","","",""
"pit-trial","73","1015517","0.0-2.0-14.2-4.2","battery-v0.2","","""event"",""trial"",""time""
""fullscreenenter"",""1"",""2583""
","
","
","""event"",""trial"",""time""
""fullscreenenter"",""1"",""2583""
","
","","","622","","","25","17757","6666","&#9826;","elianto","#f73b6a7A","-1"," ","0","-10","[1473]","1","0","3","","","","","","","",""
"pit-trial","74","1020375","0.0-2.0-14.3-0.3","battery-v0.2","","""event"",""trial"",""time""
""fullscreenenter"",""1"",""2583""
","
","
","""event"",""trial"",""time""
""fullscreenenter"",""1"",""2583""
","
","","","-1","","","25","17757","6666","&#9826;","elianto","#f73b6a7A","-1","-1","1","0","[]","0","0","3","","","","","","","",""
"pit-trial","75","1025233","0.0-2.0-14.3-1.3","battery-v0.2","","""event"",""trial"",""time""
""fullscreenenter"",""1"",""2583""
","
","
","""event"",""trial"",""time""
""fullscreenenter"",""1"",""2583""
","
","","","-1","","","25","17757","6666","&#9826;","elianto","#f73b6a7A","-1","-1","1","0","[]","0","0","3","","","","","","","",""
"pit-trial","76","1030091","0.0-2.0-14.3-2.3","battery-v0.2","","""event"",""trial"",""time""
""fullscreenenter"",""1"",""2583""
","
","
","""event"",""trial"",""time""
""fullscreenenter"",""1"",""2583""
","
","","","-1","","","25","17757","6666","&#9826;","elianto","#f73b6a7A","-1","-1","1","0","[]","0","0","3","","","","","","","",""
"pit-trial","77","1034947","0.0-2.0-14.3-3.3","battery-v0.2","","""event"",""trial"",""time""
""fullscreenenter"",""1"",""2583""
","
","
","""event"",""trial"",""time""
""fullscreenenter"",""1"",""2583""
","
","","","-1","","","25","17757","6666","&#9826;","elianto","#f73b6a7A","-1","-1","1","-10","[]","0","0","3","","","","","","","",""
"pit-trial","78","1039804","0.0-2.0-14.3-4.3","battery-v0.2","","""event"",""trial"",""time""
""fullscreenenter"",""1"",""2583""
","
","
","""event"",""trial"",""time""
""fullscreenenter"",""1"",""2583""
","
","","","-1","","","25","17757","6666","&#9826;","elianto","#f73b6a7A","-1","-1","1","0","[]","0","0","3","","","","","","","",""
"call-function","79","1039810","0.0-2.0-15.0","battery-v0.2","","""event"",""trial"",""time""
""fullscreenenter"",""1"",""2583""
","
","
","""event"",""trial"",""time""
""fullscreenenter"",""1"",""2583""
","
","","","","","","","","","","","","","","","","","","","","","","","","","","",""
"pit-instructions","80","1109433","0.0-2.0-16.0","battery-v0.2","","""event"",""trial"",""time""
""fullscreenenter"",""1"",""2583""
","
","
","""event"",""trial"",""time""
""fullscreenenter"",""1"",""2583""
","
","","[{""page_index"":0,""viewing_time"":9985},{""page_index"":1,""viewing_time"":32048},{""page_index"":2,""viewing_time"":10115},{""page_index"":3,""viewing_time"":17472}]","69621","","","","","","","","","","","","","","","","","","","","","","","",""
"pit-trial","81","1114292","0.0-2.0-17.0-0.0","battery-v0.2","","""event"",""trial"",""time""
""fullscreenenter"",""1"",""2583""
","
","
","""event"",""trial"",""time""
""fullscreenenter"",""1"",""2583""
","
","","","-1","","","25","17757","6666","&#9789;","elianto","#f73b6a7A"," ","-1","0","-10","[]","0","0","4","","","","","","","",""
"pit-trial","82","1119151","0.0-2.0-17.0-1.0","battery-v0.2","","""event"",""trial"",""time""
""fullscreenenter"",""1"",""2583""
","
","
","""event"",""trial"",""time""
""fullscreenenter"",""1"",""2583""
","
","","","-1","","","25","17757","6666","&#9789;","elianto","#f73b6a7A"," ","-1","0","-10","[]","0","0","4","","","","","","","",""
"pit-trial","83","1122493","0.0-2.0-17.0-2.0","battery-v0.2","","""event"",""trial"",""time""
""fullscreenenter"",""1"",""2583""
","
","
","""event"",""trial"",""time""
""fullscreenenter"",""1"",""2583""
","
","","","485","","","25","17757","6666","&#9789;","elianto","#f73b6a7A"," "," ","1","0","[1335]","1","0","4","","","","","","","",""
"pit-trial","84","1125814","0.0-2.0-17.0-3.0","battery-v0.2","","""event"",""trial"",""time""
""fullscreenenter"",""1"",""2583""
","
","
","""event"",""trial"",""time""
""fullscreenenter"",""1"",""2583""
","
","","","463","","","25","17757","6666","&#9789;","elianto","#f73b6a7A"," "," ","1","-10","[1313]","1","0","4","","","","","","","",""
"pit-trial","85","1130671","0.0-2.0-17.0-4.0","battery-v0.2","","""event"",""trial"",""time""
""fullscreenenter"",""1"",""2583""
","
","
","""event"",""trial"",""time""
""fullscreenenter"",""1"",""2583""
","
","","","-1","","","25","17757","6666","&#9789;","elianto","#f73b6a7A"," ","-1","0","-10","[]","0","0","4","","","","","","","",""
"pit-trial","86","1135532","0.0-2.0-17.1-0.1","battery-v0.2","","""event"",""trial"",""time""
""fullscreenenter"",""1"",""2583""
","
","
","""event"",""trial"",""time""
""fullscreenenter"",""1"",""2583""
","
","","","-1","","","25","17757","6666","&#9789;","elianto","#f73b6a7A"," ","-1","0","-10","[]","0","0","4","","","","","","","",""
"pit-trial","87","1140390","0.0-2.0-17.1-1.1","battery-v0.2","","""event"",""trial"",""time""
""fullscreenenter"",""1"",""2583""
","
","
","""event"",""trial"",""time""
""fullscreenenter"",""1"",""2583""
","
","","","-1","","","25","17757","6666","&#9789;","elianto","#f73b6a7A"," ","-1","0","-10","[]","0","0","4","","","","","","","",""
"pit-trial","88","1143749","0.0-2.0-17.1-2.1","battery-v0.2","","""event"",""trial"",""time""
""fullscreenenter"",""1"",""2583""
","
","
","""event"",""trial"",""time""
""fullscreenenter"",""1"",""2583""
","
","","","502","","","25","17757","6666","&#9789;","elianto","#f73b6a7A"," "," ","1","0","[1352]","1","0","4","","","","","","","",""
"pit-trial","89","1146792","0.0-2.0-17.1-3.1","battery-v0.2","","""event"",""trial"",""time""
""fullscreenenter"",""1"",""2583""
","
","
","""event"",""trial"",""time""
""fullscreenenter"",""1"",""2583""
","
","","","187","","","25","17757","6666","&#9789;","elianto","#f73b6a7A"," "," ","1","-10","[1037]","1","0","4","","","","","","","",""
"pit-trial","90","1150109","0.0-2.0-17.1-4.1","battery-v0.2","","""event"",""trial"",""time""
""fullscreenenter"",""1"",""2583""
","
","
","""event"",""trial"",""time""
""fullscreenenter"",""1"",""2583""
","
","","","460","","","25","17757","6666","&#9789;","elianto","#f73b6a7A"," "," ","1","0","[1310.9999999997672]","1","0","4","","","","","","","",""
"pit-trial","91","1153361","0.0-2.0-17.2-0.2","battery-v0.2","","""event"",""trial"",""time""
""fullscreenenter"",""1"",""2583""
","
","
","""event"",""trial"",""time""
""fullscreenenter"",""1"",""2583""
","
","","","395","","","25","17757","6666","&#9789;","elianto","#f73b6a7A"," "," ","1","0","[1245]","1","0","4","","","","","","","",""
"pit-trial","92","1156454","0.0-2.0-17.2-1.2","battery-v0.2","","""event"",""trial"",""time""
""fullscreenenter"",""1"",""2583""
","
","
","""event"",""trial"",""time""
""fullscreenenter"",""1"",""2583""
","
","","","236","","","25","17757","6666","&#9789;","elianto","#f73b6a7A"," "," ","1","0","[1086]","1","0","4","","","","","","","",""
"pit-trial","93","1159615","0.0-2.0-17.2-2.2","battery-v0.2","","""event"",""trial"",""time""
""fullscreenenter"",""1"",""2583""
","
","
","""event"",""trial"",""time""
""fullscreenenter"",""1"",""2583""
","
","","","304","","","25","17757","6666","&#9789;","elianto","#f73b6a7A"," "," ","1","0","[1154]","1","0","4","","","","","","","",""
"pit-trial","94","1164473","0.0-2.0-17.2-3.2","battery-v0.2","","""event"",""trial"",""time""
""fullscreenenter"",""1"",""2583""
","
","
","""event"",""trial"",""time""
""fullscreenenter"",""1"",""2583""
","
","","","-1","","","25","17757","6666","&#9789;","elianto","#f73b6a7A"," ","-1","0","0","[]","0","0","4","","","","","","","",""
"pit-trial","95","1167730","0.0-2.0-17.2-4.2","battery-v0.2","","""event"",""trial"",""time""
""fullscreenenter"",""1"",""2583""
","
","
","""event"",""trial"",""time""
""fullscreenenter"",""1"",""2583""
","
","","","400","","","25","17757","6666","&#9789;","elianto","#f73b6a7A"," "," ","1","0","[1251]","1","0","4","","","","","","","",""
"pit-trial","96","1170958","0.0-2.0-17.3-0.3","battery-v0.2","","""event"",""trial"",""time""
""fullscreenenter"",""1"",""2583""
","
","
","""event"",""trial"",""time""
""fullscreenenter"",""1"",""2583""
","
","","","371","","","25","17757","6666","&#9789;","elianto","#f73b6a7A"," "," ","1","0","[1221]","1","0","4","","","","","","","",""
"pit-trial","97","1173931","0.0-2.0-17.3-1.3","battery-v0.2","","""event"",""trial"",""time""
""fullscreenenter"",""1"",""2583""
","
","
","""event"",""trial"",""time""
""fullscreenenter"",""1"",""2583""
","
","","","116","","","25","17757","6666","&#9789;","elianto","#f73b6a7A"," "," ","1","0","[966]","1","0","4","","","","","","","",""
"pit-trial","98","1176932","0.0-2.0-17.3-2.3","battery-v0.2","","""event"",""trial"",""time""
""fullscreenenter"",""1"",""2583""
","
","
","""event"",""trial"",""time""
""fullscreenenter"",""1"",""2583""
","
","","","146","","","25","17757","6666","&#9789;","elianto","#f73b6a7A"," "," ","1","0","[997]","1","0","4","","","","","","","",""
"pit-trial","99","1181790","0.0-2.0-17.3-3.3","battery-v0.2","","""event"",""trial"",""time""
""fullscreenenter"",""1"",""2583""
","
","
","""event"",""trial"",""time""
""fullscreenenter"",""1"",""2583""
","
","","","-1","","","25","17757","6666","&#9789;","elianto","#f73b6a7A"," ","-1","0","0","[]","0","0","4","","","","","","","",""
"pit-trial","100","1185161","0.0-2.0-17.3-4.3","battery-v0.2","","""event"",""trial"",""time""
""fullscreenenter"",""1"",""2583""
","
","
","""event"",""trial"",""time""
""fullscreenenter"",""1"",""2583""
","
","","","513","","","25","17757","6666","&#9789;","elianto","#f73b6a7A"," "," ","1","0","[1364]","1","0","4","","","","","","","",""
"call-function","101","1185166","0.0-2.0-18.0","battery-v0.2","","""event"",""trial"",""time""
""fullscreenenter"",""1"",""2583""
","
","
","""event"",""trial"",""time""
""fullscreenenter"",""1"",""2583""
","
","","","","","","","","","","","","","","","","","","","","","","","","","","",""
"pit-instructions","102","1339657","0.0-2.0-19.0","battery-v0.2","","""event"",""trial"",""time""
""fullscreenenter"",""1"",""2583""
","
","
","""event"",""trial"",""time""
""fullscreenenter"",""1"",""2583""
","
","","[{""page_index"":0,""viewing_time"":9367},{""page_index"":1,""viewing_time"":23180},{""page_index"":2,""viewing_time"":55497},{""page_index"":3,""viewing_time"":19621},{""page_index"":4,""viewing_time"":7118},{""page_index"":5,""viewing_time"":9458},{""page_index"":6,""viewing_time"":6066},{""page_index"":7,""viewing_time"":9074.000000000233},{""page_index"":8,""viewing_time"":15103.999999999767}]","154486","","","","","","","","","","","","","","","","","","","","","","","",""
"pit-comprehension","103","1345600","0.0-2.0-20.0-0.0","battery-v0.2","","""event"",""trial"",""time""
""fullscreenenter"",""1"",""2583""
","
","
","""event"",""trial"",""time""
""fullscreenenter"",""1"",""2583""
","
","","","5936","[""SPACE""]","0","25","17757","6666","","","","","","","","","","","","","","","","","","",""
"pit-instructions","104","1353604","0.0-2.0-20.0-1.0","battery-v0.2","","""event"",""trial"",""time""
""fullscreenenter"",""1"",""2583""
","
","
","""event"",""trial"",""time""
""fullscreenenter"",""1"",""2583""
","
","","[{""page_index"":0,""viewing_time"":7970}]","7970","","","","","","","","","","","","","","","","","","","","","","","",""
"pit-comprehension","105","1358591","0.0-2.0-21.0-0.0","battery-v0.2","","""event"",""trial"",""time""
""fullscreenenter"",""1"",""2583""
","
","
","""event"",""trial"",""time""
""fullscreenenter"",""1"",""2583""
","
","","","4978.999999999767","[""10""]","0","25","17757","6666","","","","","","","","","","","","","","","","","","",""
"pit-instructions","106","1364463","0.0-2.0-21.0-1.0","battery-v0.2","","""event"",""trial"",""time""
""fullscreenenter"",""1"",""2583""
","
","
","""event"",""trial"",""time""
""fullscreenenter"",""1"",""2583""
","
","","[{""page_index"":0,""viewing_time"":5838}]","5839","","","","","","","","","","","","","","","","","","","","","","","",""
"pit-comprehension","107","1371567","0.0-2.0-22.0-0.0","battery-v0.2","","""event"",""trial"",""time""
""fullscreenenter"",""1"",""2583""
","
","
","""event"",""trial"",""time""
""fullscreenenter"",""1"",""2583""
","
","","","7097","[""0""]","0","25","17757","6666","","","","","","","","","","","","","","","","","","",""
"pit-instructions","108","1373174","0.0-2.0-22.0-1.0","battery-v0.2","","""event"",""trial"",""time""
""fullscreenenter"",""1"",""2583""
","
","
","""event"",""trial"",""time""
""fullscreenenter"",""1"",""2583""
","
","","[{""page_index"":0,""viewing_time"":1573}]","1574","","","","","","","","","","","","","","","","","","","","","","","",""
"pit-comprehension","109","1382200","0.0-2.0-23.0-0.0","battery-v0.2","","""event"",""trial"",""time""
""fullscreenenter"",""1"",""2583""
","
","
","""event"",""trial"",""time""
""fullscreenenter"",""1"",""2583""
","
","","","9019","[""True""]","0","25","17757","6666","","","","","","","","","","","","","","","","","","",""
"pit-instructions","110","1383471","0.0-2.0-23.0-1.0","battery-v0.2","","""event"",""trial"",""time""
""fullscreenenter"",""1"",""2583""
","
","
","""event"",""trial"",""time""
""fullscreenenter"",""1"",""2583""
","
","","[{""page_index"":0,""viewing_time"":1232}]","1232","","","","","","","","","","","","","","","","","","","","","","","",""
"pit-comprehension","111","1391409","0.0-2.0-24.0-0.0","battery-v0.2","","""event"",""trial"",""time""
""fullscreenenter"",""1"",""2583""
","
","
","""event"",""trial"",""time""
""fullscreenenter"",""1"",""2583""
","
","","","7930.999999999767","[""True""]","0","25","17757","6666","","","","","","","","","","","","","","","","","","",""
"pit-instructions","112","1393604","0.0-2.0-24.0-1.0","battery-v0.2","","""event"",""trial"",""time""
""fullscreenenter"",""1"",""2583""
","
","
","""event"",""trial"",""time""
""fullscreenenter"",""1"",""2583""
","
","","[{""page_index"":0,""viewing_time"":2161}]","2161","","","","","","","","","","","","","","","","","","","","","","","",""
"pit-comprehension","113","1400797","0.0-2.0-25.0-0.0","battery-v0.2","","""event"",""trial"",""time""
""fullscreenenter"",""1"",""2583""
","
","
","""event"",""trial"",""time""
""fullscreenenter"",""1"",""2583""
","
","","","7186","[""True""]","0","25","17757","6666","","","","","","","","","","","","","","","","","","",""
"pit-instructions","114","1402136","0.0-2.0-25.0-1.0","battery-v0.2","","""event"",""trial"",""time""
""fullscreenenter"",""1"",""2583""
","
","
","""event"",""trial"",""time""
""fullscreenenter"",""1"",""2583""
","
","","[{""page_index"":0,""viewing_time"":1304}]","1304","","","","","","","","","","","","","","","","","","","","","","","",""
"pit-comprehension","115","1408156","0.0-2.0-26.0-0.0","battery-v0.2","","""event"",""trial"",""time""
""fullscreenenter"",""1"",""2583""
","
","
","""event"",""trial"",""time""
""fullscreenenter"",""1"",""2583""
","
","","","6013.999999999767","[""True""]","1","25","17757","6666","","","","","","","","","","","","","","","","","","",""
"pit-instructions","116","1412832","0.0-2.0-26.0-1.0","battery-v0.2","","""event"",""trial"",""time""
""fullscreenenter"",""1"",""2583""
","
","
","""event"",""trial"",""time""
""fullscreenenter"",""1"",""2583""
","
","","[{""page_index"":0,""viewing_time"":4637}]","4638","","","","","","","","","","","","","","","","","","","","","","","",""
"pit-instructions","117","1413606","0.0-2.0-26.0-2.0-0.0","battery-v0.2","","""event"",""trial"",""time""
""fullscreenenter"",""1"",""2583""
","
","
","""event"",""trial"",""time""
""fullscreenenter"",""1"",""2583""
","
","","[{""page_index"":0,""viewing_time"":767}]","768","","","","","","","","","","","","","","","","","","","","","","","",""
"pit-comprehension","118","1418491","0.0-2.0-26.1-0.1","battery-v0.2","","""event"",""trial"",""time""
""fullscreenenter"",""1"",""2583""
","
","
","""event"",""trial"",""time""
""fullscreenenter"",""1"",""2583""
","
","","","4878","[""False""]","0","25","17757","6666","","","","","","","","","","","","","","","","","","",""
"pit-instructions","119","1419593","0.0-2.0-26.1-1.1","battery-v0.2","","""event"",""trial"",""time""
""fullscreenenter"",""1"",""2583""
","
","
","""event"",""trial"",""time""
""fullscreenenter"",""1"",""2583""
","
","","[{""page_index"":0,""viewing_time"":1062.0000000002328}]","1062.0000000002328","","","","","","","","","","","","","","","","","","","","","","","",""
"pit-instructions","120","1435254","0.0-3.0","battery-v0.2","","""event"",""trial"",""time""
""fullscreenenter"",""1"",""2583""
","
","
","""event"",""trial"",""time""
""fullscreenenter"",""1"",""2583""
","
","","[{""page_index"":0,""viewing_time"":3521},{""page_index"":1,""viewing_time"":5496},{""page_index"":2,""viewing_time"":6637}]","15654","","","","","","","","","","","","","","","","","","","","","","","",""
"pit-trial","121","1439815","0.0-4.0","battery-v0.2","","""event"",""trial"",""time""
""fullscreenenter"",""1"",""2583""
","
","
","""event"",""trial"",""time""
""fullscreenenter"",""1"",""2583""
","
","","","1701","","","25","17757","6666","&#9730;","elianto","#3366ff99"," "," ","1","+10","[2552]","1","1","","","17757","1","1","1","win","go","0"
"pit-trial","122","1443406","0.0-5.0","battery-v0.2","","""event"",""trial"",""time""
""fullscreenenter"",""1"",""2583""
","
","
","""event"",""trial"",""time""
""fullscreenenter"",""1"",""2583""
","
","","","732","","","25","17757","6666","&#9733;","elianto","#3366ff99","-1"," ","0","0","[1583]","1","1","","","17757","2","2","2","win","no-go","0"
"pit-trial","123","1447240","0.0-6.0","battery-v0.2","","""event"",""trial"",""time""
""fullscreenenter"",""1"",""2583""
","
","
","""event"",""trial"",""time""
""fullscreenenter"",""1"",""2583""
","
","","","972","","","25","17757","6666","&#9728;","elianto","#f73b6a7A","-1"," ","0","-10","[1823]","1","1","","","17757","3","0","4","lose","no-go","0"
"pit-trial","124","1452100","0.0-7.0","battery-v0.2","","""event"",""trial"",""time""
""fullscreenenter"",""1"",""2583""
","
","
","""event"",""trial"",""time""
""fullscreenenter"",""1"",""2583""
","
","","","-1","","","25","17757","6666","&#9752;","elianto","#f73b6a7A"," ","-1","0","-10","[]","0","1","","","17757","4","3","3","lose","go","0"
"pit-trial","125","1455569","0.0-8.0","battery-v0.2","","""event"",""trial"",""time""
""fullscreenenter"",""1"",""2583""
","
","
","""event"",""trial"",""time""
""fullscreenenter"",""1"",""2583""
","
","","","609","","","25","17757","6666","&#9730;","elianto","#3366ff99"," "," ","1","+10","[1460]","1","1","","","17757","5","1","1","win","go","0"
"pit-trial","126","1460429","0.0-9.0","battery-v0.2","","""event"",""trial"",""time""
""fullscreenenter"",""1"",""2583""
","
","
","""event"",""trial"",""time""
""fullscreenenter"",""1"",""2583""
","
","","","-1","","","25","17757","6666","&#9733;","elianto","#3366ff99","-1","-1","1","+10","[]","0","1","","","17757","6","2","2","win","no-go","0"
"pit-trial","127","1465289","0.0-10.0","battery-v0.2","","""event"",""trial"",""time""
""fullscreenenter"",""1"",""2583""
","
","
","""event"",""trial"",""time""
""fullscreenenter"",""1"",""2583""
","
","","","-1","","","25","17757","6666","&#9728;","elianto","#f73b6a7A","-1","-1","1","-10","[]","0","1","","","17757","7","0","4","lose","no-go","1"
"pit-trial","128","1468815","0.0-11.0","battery-v0.2","","""event"",""trial"",""time""
""fullscreenenter"",""1"",""2583""
","
","
","""event"",""trial"",""time""
""fullscreenenter"",""1"",""2583""
","
","","","665","","","25","17757","6666","&#9752;","elianto","#f73b6a7A"," "," ","1","0","[1515.9999999997672]","1","1","","","17757","8","3","3","lose","go","0"
"pit-trial","129","1472304","0.0-12.0","battery-v0.2","","""event"",""trial"",""time""
""fullscreenenter"",""1"",""2583""
","
","
","""event"",""trial"",""time""
""fullscreenenter"",""1"",""2583""
","
","","","629.9999999997672","","","25","17757","6666","&#9730;","elianto","#3366ff99"," "," ","1","0","[1480]","1","1","","","17757","9","1","1","win","go","1"
"pit-trial","130","1475800","0.0-13.0","battery-v0.2","","""event"",""trial"",""time""
""fullscreenenter"",""1"",""2583""
","
","
","""event"",""trial"",""time""
""fullscreenenter"",""1"",""2583""
","
","","","637","","","25","17757","6666","&#9752;","elianto","#f73b6a7A"," "," ","1","0","[1487]","1","1","","","17757","10","3","3","lose","go","0"
"pit-trial","131","1479282","0.0-14.0","battery-v0.2","","""event"",""trial"",""time""
""fullscreenenter"",""1"",""2583""
","
","
","""event"",""trial"",""time""
""fullscreenenter"",""1"",""2583""
","
","","","622","","","25","17757","6666","&#9733;","elianto","#3366ff99","-1"," ","0","0","[1472.9999999997672]","1","1","","","17757","11","2","2","win","no-go","0"
"pit-trial","132","1483558","0.0-15.0","battery-v0.2","","""event"",""trial"",""time""
""fullscreenenter"",""1"",""2583""
","
","
","""event"",""trial"",""time""
""fullscreenenter"",""1"",""2583""
","
","","","1415.0000000002328","","","25","17757","6666","&#9728;","elianto","#f73b6a7A","-1"," ","0","-10","[2268.000000000233]","1","1","","","17757","12","0","4","lose","no-go","0"
"pit-trial","133","1487008","0.0-16.0","battery-v0.2","","""event"",""trial"",""time""
""fullscreenenter"",""1"",""2583""
","
","
","""event"",""trial"",""time""
""fullscreenenter"",""1"",""2583""
","
","","","590","","","25","17757","6666","&#9728;","elianto","#f73b6a7A","-1"," ","0","-10","[1440]","1","1","","","17757","13","0","4","lose","no-go","0"
"pit-trial","134","1490349","0.0-17.0","battery-v0.2","","""event"",""trial"",""time""
""fullscreenenter"",""1"",""2583""
","
","
","""event"",""trial"",""time""
""fullscreenenter"",""1"",""2583""
","
","","","481.99999999976717","","","25","17757","6666","&#9733;","elianto","#3366ff99","-1"," ","0","0","[1332]","1","1","","","17757","14","2","2","win","no-go","0"
"pit-trial","135","1493903","0.0-18.0","battery-v0.2","","""event"",""trial"",""time""
""fullscreenenter"",""1"",""2583""
","
","
","""event"",""trial"",""time""
""fullscreenenter"",""1"",""2583""
","
","","","694","","","25","17757","6666","&#9752;","elianto","#f73b6a7A"," "," ","1","0","[1545]","1","1","","","17757","15","3","3","lose","go","0"
"pit-trial","136","1497333","0.0-19.0","battery-v0.2","","""event"",""trial"",""time""
""fullscreenenter"",""1"",""2583""
","
","
","""event"",""trial"",""time""
""fullscreenenter"",""1"",""2583""
","
","","","571","","","25","17757","6666","&#9730;","elianto","#3366ff99"," "," ","1","+10","[1421]","1","1","","","17757","16","1","1","win","go","0"
"pit-trial","137","1502193","0.0-20.0","battery-v0.2","","""event"",""trial"",""time""
""fullscreenenter"",""1"",""2583""
","
","
","""event"",""trial"",""time""
""fullscreenenter"",""1"",""2583""
","
","","","-1","","","25","17757","6666","&#9728;","elianto","#f73b6a7A","-1","-1","1","0","[]","0","1","","","17757","17","0","4","lose","no-go","0"
"pit-trial","138","1505611","0.0-21.0","battery-v0.2","","""event"",""trial"",""time""
""fullscreenenter"",""1"",""2583""
","
","
","""event"",""trial"",""time""
""fullscreenenter"",""1"",""2583""
","
","","","559","","","25","17757","6666","&#9733;","elianto","#3366ff99","-1"," ","0","0","[1410]","1","1","","","17757","18","2","2","win","no-go","0"
"pit-trial","139","1509022","0.0-22.0","battery-v0.2","","""event"",""trial"",""time""
""fullscreenenter"",""1"",""2583""
","
","
","""event"",""trial"",""time""
""fullscreenenter"",""1"",""2583""
","
","","","552","","","25","17757","6666","&#9730;","elianto","#3366ff99"," "," ","1","0","[1403]","1","1","","","17757","19","1","1","win","go","1"
"pit-trial","140","1512873","0.0-23.0","battery-v0.2","","""event"",""trial"",""time""
""fullscreenenter"",""1"",""2583""
","
","
","""event"",""trial"",""time""
""fullscreenenter"",""1"",""2583""
","
","","","994","","","25","17757","6666","&#9752;","elianto","#f73b6a7A"," "," ","1","0","[1843.9999999997672]","1","1","","","17757","20","3","3","lose","go","0"
"pit-instructions","141","1526998","0.0-24.0","battery-v0.2","","""event"",""trial"",""time""
""fullscreenenter"",""1"",""2583""
","
","
","""event"",""trial"",""time""
""fullscreenenter"",""1"",""2583""
","
","","[{""page_index"":0,""viewing_time"":6132},{""page_index"":1,""viewing_time"":7984}]","14116","","","","","","","","","","","","","","","","","","","","","","","",""
"pit-trial","142","1531860","0.0-25.0","battery-v0.2","","""event"",""trial"",""time""
""fullscreenenter"",""1"",""2583""
","
","
","""event"",""trial"",""time""
""fullscreenenter"",""1"",""2583""
","
","","","-1","","","25","17757","6666","y","elianto","#f73b6a7A"," ","-1","0","-10","[]","0","2","","","17757","21","2","3","lose","go","0"
"pit-trial","143","1536374","0.0-26.0","battery-v0.2","","""event"",""trial"",""time""
""fullscreenenter"",""1"",""2583""
","
","
","""event"",""trial"",""time""
""fullscreenenter"",""1"",""2583""
","
","","","1655","","","25","17757","6666","m","elianto","#f73b6a7A"," "," ","1","0","[2504]","1","2","","","17757","22","0","3","lose","go","0"
"pit-trial","144","1539773","0.0-27.0","battery-v0.2","","""event"",""trial"",""time""
""fullscreenenter"",""1"",""2583""
","
","
","""event"",""trial"",""time""
""fullscreenenter"",""1"",""2583""
","
","","","539.9999999997672","","","25","17757","6666","h","elianto","#f73b6a7A","-1"," ","0","-10","[1390]","1","2","","","17757","23","3","4","lose","no-go","0"
"pit-trial","145","1543215","0.0-28.0","battery-v0.2","","""event"",""trial"",""time""
""fullscreenenter"",""1"",""2583""
","
","
","""event"",""trial"",""time""
""fullscreenenter"",""1"",""2583""
","
","","","583.0000000002328","","","25","17757","6666","r","elianto","#3366ff99","-1"," ","0","0","[1434.0000000002328]","1","2","","","17757","24","1","2","win","no-go","0"
"pit-trial","146","1546803","0.0-29.0","battery-v0.2","","""event"",""trial"",""time""
""fullscreenenter"",""1"",""2583""
","
","
","""event"",""trial"",""time""
""fullscreenenter"",""1"",""2583""
","
","","","728","","","25","17757","6666","y","elianto","#f73b6a7A"," "," ","1","0","[1578.9999999997672]","1","2","","","17757","25","2","3","lose","go","0"
"pit-trial","147","1551662","0.0-30.0","battery-v0.2","","""event"",""trial"",""time""
""fullscreenenter"",""1"",""2583""
","
","
","""event"",""trial"",""time""
""fullscreenenter"",""1"",""2583""
","
","","","-1","","","25","17757","6666","h","elianto","#f73b6a7A","-1","-1","1","0","[]","0","2","","","17757","26","3","4","lose","no-go","0"
"pit-trial","148","1555214","0.0-31.0","battery-v0.2","","""event"",""trial"",""time""
""fullscreenenter"",""1"",""2583""
","
","
","""event"",""trial"",""time""
""fullscreenenter"",""1"",""2583""
","
","","","694.0000000002328","","","25","17757","6666","r","elianto","#3366ff99","-1"," ","0","0","[1544.0000000002328]","1","2","","","17757","27","1","2","win","no-go","0"
"pit-trial","149","1558800","0.0-32.0","battery-v0.2","","""event"",""trial"",""time""
""fullscreenenter"",""1"",""2583""
","
","
","""event"",""trial"",""time""
""fullscreenenter"",""1"",""2583""
","
","","","725","","","25","17757","6666","m","elianto","#f73b6a7A"," "," ","1","0","[1575.9999999997672]","1","2","","","17757","28","0","3","lose","go","0"
"pit-trial","150","1563660","0.0-33.0","battery-v0.2","","""event"",""trial"",""time""
""fullscreenenter"",""1"",""2583""
","
","
","""event"",""trial"",""time""
""fullscreenenter"",""1"",""2583""
","
","","","-1","","","25","17757","6666","h","elianto","#f73b6a7A","-1","-1","1","-10","[]","0","2","","","17757","29","3","4","lose","no-go","1"
"pit-trial","151","1567972","0.0-34.0","battery-v0.2","","""event"",""trial"",""time""
""fullscreenenter"",""1"",""2583""
","
","
","""event"",""trial"",""time""
""fullscreenenter"",""1"",""2583""
","
","","","1452","","","25","17757","6666","m","elianto","#f73b6a7A"," "," ","1","0","[2304.999999999767]","1","2","","","17757","30","0","3","lose","go","0"
"pit-trial","152","1571389","0.0-35.0","battery-v0.2","","""event"",""trial"",""time""
""fullscreenenter"",""1"",""2583""
","
","
","""event"",""trial"",""time""
""fullscreenenter"",""1"",""2583""
","
","","","556","","","25","17757","6666","r","elianto","#3366ff99","-1"," ","0","0","[1407]","1","2","","","17757","31","1","2","win","no-go","0"
"pit-trial","153","1575100","0.0-36.0","battery-v0.2","","""event"",""trial"",""time""
""fullscreenenter"",""1"",""2583""
","
","
","""event"",""trial"",""time""
""fullscreenenter"",""1"",""2583""
","
","","","852.0000000002328","","","25","17757","6666","y","elianto","#f73b6a7A"," "," ","1","-10","[1702]","1","2","","","17757","32","2","3","lose","go","1"
"pit-trial","154","1579960","0.0-37.0","battery-v0.2","","""event"",""trial"",""time""
""fullscreenenter"",""1"",""2583""
","
","
","""event"",""trial"",""time""
""fullscreenenter"",""1"",""2583""
","
","","","-1","","","25","17757","6666","h","elianto","#f73b6a7A","-1","-1","1","0","[]","0","2","","","17757","33","3","4","lose","no-go","0"
"pit-trial","155","1584821","0.0-38.0","battery-v0.2","","""event"",""trial"",""time""
""fullscreenenter"",""1"",""2583""
","
","
","""event"",""trial"",""time""
""fullscreenenter"",""1"",""2583""
","
","","","-1","","","25","17757","6666","y","elianto","#f73b6a7A"," ","-1","0","0","[]","0","2","","","17757","34","2","3","lose","go","1"
"pit-trial","156","1589005","0.0-39.0","battery-v0.2","","""event"",""trial"",""time""
""fullscreenenter"",""1"",""2583""
","
","
","""event"",""trial"",""time""
""fullscreenenter"",""1"",""2583""
","
","","","1326","","","25","17757","6666","m","elianto","#f73b6a7A"," "," ","1","-10","[2176]","1","2","","","17757","35","0","3","lose","go","1"
"pit-trial","157","1592643","0.0-40.0","battery-v0.2","","""event"",""trial"",""time""
""fullscreenenter"",""1"",""2583""
","
","
","""event"",""trial"",""time""
""fullscreenenter"",""1"",""2583""
","
","","","778","","","25","17757","6666","r","elianto","#3366ff99","-1"," ","0","0","[1628.9999999997672]","1","2","","","17757","36","1","2","win","no-go","0"
"pit-trial","158","1597502","0.0-41.0","battery-v0.2","","""event"",""trial"",""time""
""fullscreenenter"",""1"",""2583""
","
","
","""event"",""trial"",""time""
""fullscreenenter"",""1"",""2583""
","
","","","-1","","","25","17757","6666","h","elianto","#f73b6a7A","-1","-1","1","0","[]","0","2","","","17757","37","3","4","lose","no-go","0"
"pit-trial","159","1602361","0.0-42.0","battery-v0.2","","""event"",""trial"",""time""
""fullscreenenter"",""1"",""2583""
","
","
","""event"",""trial"",""time""
""fullscreenenter"",""1"",""2583""
","
","","","-1","","","25","17757","6666","y","elianto","#f73b6a7A"," ","-1","0","-10","[]","0","2","","","17757","38","2","3","lose","go","0"
"pit-trial","160","1605780","0.0-43.0","battery-v0.2","","""event"",""trial"",""time""
""fullscreenenter"",""1"",""2583""
","
","
","""event"",""trial"",""time""
""fullscreenenter"",""1"",""2583""
","
","","","560","","","25","17757","6666","r","elianto","#3366ff99","-1"," ","0","0","[1411]","1","2","","","17757","39","1","2","win","no-go","0"
"pit-trial","161","1609318","0.0-44.0","battery-v0.2","","""event"",""trial"",""time""
""fullscreenenter"",""1"",""2583""
","
","
","""event"",""trial"",""time""
""fullscreenenter"",""1"",""2583""
","
","","","678.9999999997672","","","25","17757","6666","m","elianto","#f73b6a7A"," "," ","1","-10","[1529]","1","2","","","17757","40","0","3","lose","go","1"
"pit-trial","162","1614177","0.0-45.0","battery-v0.2","","""event"",""trial"",""time""
""fullscreenenter"",""1"",""2583""
","
","
","""event"",""trial"",""time""
""fullscreenenter"",""1"",""2583""
","
","","","-1","","","25","17757","6666","m","elianto","#f73b6a7A"," ","-1","0","0","[]","0","2","","","17757","41","0","3","lose","go","1"
"pit-trial","163","1618170","0.0-46.0","battery-v0.2","","""event"",""trial"",""time""
""fullscreenenter"",""1"",""2583""
","
","
","""event"",""trial"",""time""
""fullscreenenter"",""1"",""2583""
","
","","","1134","","","25","17757","6666","h","elianto","#f73b6a7A","-1"," ","0","-10","[1984]","1","2","","","17757","42","3","4","lose","no-go","0"
"pit-trial","164","1621770","0.0-47.0","battery-v0.2","","""event"",""trial"",""time""
""fullscreenenter"",""1"",""2583""
","
","
","""event"",""trial"",""time""
""fullscreenenter"",""1"",""2583""
","
","","","741","","","25","17757","6666","y","elianto","#f73b6a7A"," "," ","1","-10","[1592]","1","2","","","17757","43","2","3","lose","go","1"
"pit-trial","165","1625332","0.0-48.0","battery-v0.2","","""event"",""trial"",""time""
""fullscreenenter"",""1"",""2583""
","
","
","""event"",""trial"",""time""
""fullscreenenter"",""1"",""2583""
","
","","","704","","","25","17757","6666","r","elianto","#3366ff99","-1"," ","0","0","[1555]","1","2","","","17757","44","1","2","win","no-go","0"
"pit-trial","166","1629040","0.0-49.0","battery-v0.2","","""event"",""trial"",""time""
""fullscreenenter"",""1"",""2583""
","
","
","""event"",""trial"",""time""
""fullscreenenter"",""1"",""2583""
","
","","","849","","","25","17757","6666","y","elianto","#f73b6a7A"," "," ","1","0","[1699]","1","2","","","17757","45","2","3","lose","go","0"
"pit-trial","167","1633901","0.0-50.0","battery-v0.2","","""event"",""trial"",""time""
""fullscreenenter"",""1"",""2583""
","
","
","""event"",""trial"",""time""
""fullscreenenter"",""1"",""2583""
","
","","","-1","","","25","17757","6666","m","elianto","#f73b6a7A"," ","-1","0","-10","[]","0","2","","","17757","46","0","3","lose","go","0"
"pit-trial","168","1637412","0.0-51.0","battery-v0.2","","""event"",""trial"",""time""
""fullscreenenter"",""1"",""2583""
","
","
","""event"",""trial"",""time""
""fullscreenenter"",""1"",""2583""
","
","","","653","","","25","17757","6666","r","elianto","#3366ff99","-1"," ","0","0","[1503.9999999997672]","1","2","","","17757","47","1","2","win","no-go","0"
"pit-trial","169","1642271","0.0-52.0","battery-v0.2","","""event"",""trial"",""time""
""fullscreenenter"",""1"",""2583""
","
","
","""event"",""trial"",""time""
""fullscreenenter"",""1"",""2583""
","
","","","-1","","","25","17757","6666","h","elianto","#f73b6a7A","-1","-1","1","0","[]","0","2","","","17757","48","3","4","lose","no-go","0"
"pit-trial","170","1647130","0.0-53.0","battery-v0.2","","""event"",""trial"",""time""
""fullscreenenter"",""1"",""2583""
","
","
","""event"",""trial"",""time""
""fullscreenenter"",""1"",""2583""
","
","","","-1","","","25","17757","6666","m","elianto","#f73b6a7A"," ","-1","0","0","[]","0","2","","","17757","49","0","3","lose","go","1"
"pit-trial","171","1651989","0.0-54.0","battery-v0.2","","""event"",""trial"",""time""
""fullscreenenter"",""1"",""2583""
","
","
","""event"",""trial"",""time""
""fullscreenenter"",""1"",""2583""
","
","","","-1","","","25","17757","6666","h","elianto","#f73b6a7A","-1","-1","1","0","[]","0","2","","","17757","50","3","4","lose","no-go","0"
"pit-trial","172","1655362","0.0-55.0","battery-v0.2","","""event"",""trial"",""time""
""fullscreenenter"",""1"",""2583""
","
","
","""event"",""trial"",""time""
""fullscreenenter"",""1"",""2583""
","
","","","514.0000000002328","","","25","17757","6666","r","elianto","#3366ff99","-1"," ","0","+10","[1364.0000000002328]","1","2","","","17757","51","1","2","win","no-go","1"
"pit-trial","173","1658822","0.0-56.0","battery-v0.2","","""event"",""trial"",""time""
""fullscreenenter"",""1"",""2583""
","
","
","""event"",""trial"",""time""
""fullscreenenter"",""1"",""2583""
","
","","","602.0000000002328","","","25","17757","6666","y","elianto","#f73b6a7A"," "," ","1","-10","[1452]","1","2","","","17757","52","2","3","lose","go","1"
"pit-trial","174","1663681","0.0-57.0","battery-v0.2","","""event"",""trial"",""time""
""fullscreenenter"",""1"",""2583""
","
","
","""event"",""trial"",""time""
""fullscreenenter"",""1"",""2583""
","
","","","-1","","","25","17757","6666","h","elianto","#f73b6a7A","-1","-1","1","0","[]","0","2","","","17757","53","3","4","lose","no-go","0"
"pit-trial","175","1668541","0.0-58.0","battery-v0.2","","""event"",""trial"",""time""
""fullscreenenter"",""1"",""2583""
","
","
","""event"",""trial"",""time""
""fullscreenenter"",""1"",""2583""
","
","","","-1","","","25","17757","6666","m","elianto","#f73b6a7A"," ","-1","0","-10","[]","0","2","","","17757","54","0","3","lose","go","0"
"pit-trial","176","1673401","0.0-59.0","battery-v0.2","","""event"",""trial"",""time""
""fullscreenenter"",""1"",""2583""
","
","
","""event"",""trial"",""time""
""fullscreenenter"",""1"",""2583""
","
","","","-1","","","25","17757","6666","y","elianto","#f73b6a7A"," ","-1","0","-10","[]","0","2","","","17757","55","2","3","lose","go","0"
"pit-trial","177","1677173","0.0-60.0","battery-v0.2","","""event"",""trial"",""time""
""fullscreenenter"",""1"",""2583""
","
","
","""event"",""trial"",""time""
""fullscreenenter"",""1"",""2583""
","
","","","913","","","25","17757","6666","r","elianto","#3366ff99","-1"," ","0","+10","[1764]","1","2","","","17757","56","1","2","win","no-go","1"
"pit-trial","178","1682033","0.0-61.0","battery-v0.2","","""event"",""trial"",""time""
""fullscreenenter"",""1"",""2583""
","
","
","""event"",""trial"",""time""
""fullscreenenter"",""1"",""2583""
","
","","","-1","","","25","17757","6666","z","elianto","#3366ff99"," ","-1","0","0","[]","0","2","","","17757","57","4","1","win","go","0"
"pit-trial","179","1685681","0.0-62.0","battery-v0.2","","""event"",""trial"",""time""
""fullscreenenter"",""1"",""2583""
","
","
","""event"",""trial"",""time""
""fullscreenenter"",""1"",""2583""
","
","","","789.9999999997672","","","25","17757","6666","y","elianto","#f73b6a7A"," "," ","1","-10","[1640]","1","2","","","17757","58","2","3","lose","go","1"
"pit-trial","180","1689186","0.0-63.0","battery-v0.2","","""event"",""trial"",""time""
""fullscreenenter"",""1"",""2583""
","
","
","""event"",""trial"",""time""
""fullscreenenter"",""1"",""2583""
","
","","","645","","","25","17757","6666","h","elianto","#f73b6a7A","-1"," ","0","-10","[1496]","1","2","","","17757","59","3","4","lose","no-go","0"
"pit-trial","181","1694045","0.0-64.0","battery-v0.2","","""event"",""trial"",""time""
""fullscreenenter"",""1"",""2583""
","
","
","""event"",""trial"",""time""
""fullscreenenter"",""1"",""2583""
","
","","","-1","","","25","17757","6666","m","elianto","#f73b6a7A"," ","-1","0","-10","[]","0","2","","","17757","60","0","3","lose","go","0"
"pit-trial","182","1698905","0.0-65.0","battery-v0.2","","""event"",""trial"",""time""
""fullscreenenter"",""1"",""2583""
","
","
","""event"",""trial"",""time""
""fullscreenenter"",""1"",""2583""
","
","","","-1","","","25","17757","6666","y","elianto","#f73b6a7A"," ","-1","0","-10","[]","0","2","","","17757","61","2","3","lose","go","0"
"pit-trial","183","1702329","0.0-66.0","battery-v0.2","","""event"",""trial"",""time""
""fullscreenenter"",""1"",""2583""
","
","
","""event"",""trial"",""time""
""fullscreenenter"",""1"",""2583""
","
","","","563","","","25","17757","6666","r","elianto","#3366ff99","-1"," ","0","0","[1415]","1","2","","","17757","62","1","2","win","no-go","0"
"pit-trial","184","1706792","0.0-67.0","battery-v0.2","","""event"",""trial"",""time""
""fullscreenenter"",""1"",""2583""
","
","
","""event"",""trial"",""time""
""fullscreenenter"",""1"",""2583""
","
","","","1604","","","25","17757","6666","h","elianto","#f73b6a7A","-1"," ","0","-10","[2454]","1","2","","","17757","63","3","4","lose","no-go","0"
"pit-trial","185","1711650","0.0-68.0","battery-v0.2","","""event"",""trial"",""time""
""fullscreenenter"",""1"",""2583""
","
","
","""event"",""trial"",""time""
""fullscreenenter"",""1"",""2583""
","
","","","-1","","","25","17757","6666","z","elianto","#3366ff99"," ","-1","0","0","[]","0","2","","","17757","64","4","1","win","go","0"
"pit-trial","186","1716510","0.0-69.0","battery-v0.2","","""event"",""trial"",""time""
""fullscreenenter"",""1"",""2583""
","
","
","""event"",""trial"",""time""
""fullscreenenter"",""1"",""2583""
","
","","","-1","","","25","17757","6666","r","elianto","#3366ff99","-1","-1","1","0","[]","0","2","","","17757","65","1","2","win","no-go","1"
"pit-trial","187","1719903","0.0-70.0","battery-v0.2","","""event"",""trial"",""time""
""fullscreenenter"",""1"",""2583""
","
","
","""event"",""trial"",""time""
""fullscreenenter"",""1"",""2583""
","
","","","533.0000000002328","","","25","17757","6666","z","elianto","#3366ff99"," "," ","1","+10","[1384.0000000002328]","1","2","","","17757","66","4","1","win","go","0"
"pit-trial","188","1723123","0.0-71.0","battery-v0.2","","""event"",""trial"",""time""
""fullscreenenter"",""1"",""2583""
","
","
","""event"",""trial"",""time""
""fullscreenenter"",""1"",""2583""
","
","","","359.00000000023283","","","25","17757","6666","c","elianto","#3366ff99","-1"," ","0","0","[1210.0000000002328]","1","2","","","17757","67","5","2","win","no-go","0"
"pit-trial","189","1726408","0.0-72.0","battery-v0.2","","""event"",""trial"",""time""
""fullscreenenter"",""1"",""2583""
","
","
","""event"",""trial"",""time""
""fullscreenenter"",""1"",""2583""
","
","","","424","","","25","17757","6666","h","elianto","#f73b6a7A","-1"," ","0","-10","[1276]","1","2","","","17757","68","3","4","lose","no-go","0"
"pit-trial","190","1729955","0.0-73.0","battery-v0.2","","""event"",""trial"",""time""
""fullscreenenter"",""1"",""2583""
","
","
","""event"",""trial"",""time""
""fullscreenenter"",""1"",""2583""
","
","","","688","","","25","17757","6666","y","elianto","#f73b6a7A"," "," ","1","0","[1538]","1","2","","","17757","69","2","3","lose","go","0"
"pit-trial","191","1733406","0.0-74.0","battery-v0.2","","""event"",""trial"",""time""
""fullscreenenter"",""1"",""2583""
","
","
","""event"",""trial"",""time""
""fullscreenenter"",""1"",""2583""
","
","","","588.9999999997672","","","25","17757","6666","r","elianto","#3366ff99","-1"," ","0","0","[1440]","1","2","","","17757","70","1","2","win","no-go","0"
"pit-trial","192","1736820","0.0-75.0","battery-v0.2","","""event"",""trial"",""time""
""fullscreenenter"",""1"",""2583""
","
","
","""event"",""trial"",""time""
""fullscreenenter"",""1"",""2583""
","
","","","554","","","25","17757","6666","z","elianto","#3366ff99"," "," ","1","+10","[1405]","1","2","","","17757","71","4","1","win","go","0"
"pit-trial","193","1740265","0.0-76.0","battery-v0.2","","""event"",""trial"",""time""
""fullscreenenter"",""1"",""2583""
","
","
","""event"",""trial"",""time""
""fullscreenenter"",""1"",""2583""
","
","","","587","","","25","17757","6666","c","elianto","#3366ff99","-1"," ","0","0","[1438]","1","2","","","17757","72","5","2","win","no-go","0"
"pit-trial","194","1743933","0.0-77.0","battery-v0.2","","""event"",""trial"",""time""
""fullscreenenter"",""1"",""2583""
","
","
","""event"",""trial"",""time""
""fullscreenenter"",""1"",""2583""
","
","","","808.9999999997672","","","25","17757","6666","z","elianto","#3366ff99"," "," ","1","+10","[1660]","1","2","","","17757","73","4","1","win","go","0"
"pit-trial","195","1747687","0.0-78.0","battery-v0.2","","""event"",""trial"",""time""
""fullscreenenter"",""1"",""2583""
","
","
","""event"",""trial"",""time""
""fullscreenenter"",""1"",""2583""
","
","","","895","","","25","17757","6666","h","elianto","#f73b6a7A","-1"," ","0","-10","[1746]","1","2","","","17757","74","3","4","lose","no-go","0"
"pit-trial","196","1751185","0.0-79.0","battery-v0.2","","""event"",""trial"",""time""
""fullscreenenter"",""1"",""2583""
","
","
","""event"",""trial"",""time""
""fullscreenenter"",""1"",""2583""
","
","","","637.9999999997672","","","25","17757","6666","c","elianto","#3366ff99","-1"," ","0","+10","[1489]","1","2","","","17757","75","5","2","win","no-go","1"
"pit-trial","197","1754580","0.0-80.0","battery-v0.2","","""event"",""trial"",""time""
""fullscreenenter"",""1"",""2583""
","
","
","""event"",""trial"",""time""
""fullscreenenter"",""1"",""2583""
","
","","","535","","","25","17757","6666","r","elianto","#3366ff99","-1"," ","0","0","[1386]","1","2","","","17757","76","1","2","win","no-go","0"
"pit-trial","198","1757965","0.0-81.0","battery-v0.2","","""event"",""trial"",""time""
""fullscreenenter"",""1"",""2583""
","
","
","""event"",""trial"",""time""
""fullscreenenter"",""1"",""2583""
","
","","","527","","","25","17757","6666","z","elianto","#3366ff99"," "," ","1","+10","[1377]","1","2","","","17757","77","4","1","win","go","0"
"pit-trial","199","1761374","0.0-82.0","battery-v0.2","","""event"",""trial"",""time""
""fullscreenenter"",""1"",""2583""
","
","
","""event"",""trial"",""time""
""fullscreenenter"",""1"",""2583""
","
","","","550.0000000002328","","","25","17757","6666","c","elianto","#3366ff99","-1"," ","0","0","[1401.0000000002328]","1","2","","","17757","78","5","2","win","no-go","0"
"pit-trial","200","1765093","0.0-83.0","battery-v0.2","","""event"",""trial"",""time""
""fullscreenenter"",""1"",""2583""
","
","
","""event"",""trial"",""time""
""fullscreenenter"",""1"",""2583""
","
","","","860","","","25","17757","6666","z","elianto","#3366ff99"," "," ","1","+10","[1711]","1","2","","","17757","79","4","1","win","go","0"
"pit-trial","201","1769954","0.0-84.0","battery-v0.2","","""event"",""trial"",""time""
""fullscreenenter"",""1"",""2583""
","
","
","""event"",""trial"",""time""
""fullscreenenter"",""1"",""2583""
","
","","","-1","","","25","17757","6666","h","elianto","#f73b6a7A","-1","-1","1","0","[]","0","2","","","17757","80","3","4","lose","no-go","0"
"pit-trial","202","1774814","0.0-85.0","battery-v0.2","","""event"",""trial"",""time""
""fullscreenenter"",""1"",""2583""
","
","
","""event"",""trial"",""time""
""fullscreenenter"",""1"",""2583""
","
","","","-1","","","25","17757","6666","h","elianto","#f73b6a7A","-1","-1","1","0","[]","0","2","","","17757","81","3","4","lose","no-go","0"
"pit-trial","203","1778236","0.0-86.0","battery-v0.2","","""event"",""trial"",""time""
""fullscreenenter"",""1"",""2583""
","
","
","""event"",""trial"",""time""
""fullscreenenter"",""1"",""2583""
","
","","","561.9999999997672","","","25","17757","6666","z","elianto","#3366ff99"," "," ","1","+10","[1412]","1","2","","","17757","82","4","1","win","go","0"
"pit-trial","204","1783096","0.0-87.0","battery-v0.2","","""event"",""trial"",""time""
""fullscreenenter"",""1"",""2583""
","
","
","""event"",""trial"",""time""
""fullscreenenter"",""1"",""2583""
","
","","","-1","","","25","17757","6666","c","elianto","#3366ff99","-1","-1","1","+10","[]","0","2","","","17757","83","5","2","win","no-go","0"
"pit-trial","205","1787955","0.0-88.0","battery-v0.2","","""event"",""trial"",""time""
""fullscreenenter"",""1"",""2583""
","
","
","""event"",""trial"",""time""
""fullscreenenter"",""1"",""2583""
","
","","","-1","","","25","17757","6666","t","elianto","#f73b6a7A","-1","-1","1","0","[]","0","2","","","17757","84","7","4","lose","no-go","0"
"pit-trial","206","1792814","0.0-89.0","battery-v0.2","","""event"",""trial"",""time""
""fullscreenenter"",""1"",""2583""
","
","
","""event"",""trial"",""time""
""fullscreenenter"",""1"",""2583""
","
","","","-1","","","25","17757","6666","b","elianto","#f73b6a7A"," ","-1","0","-10","[]","0","2","","","17757","85","6","3","lose","go","0"
"pit-trial","207","1797673","0.0-90.0","battery-v0.2","","""event"",""trial"",""time""
""fullscreenenter"",""1"",""2583""
","
","
","""event"",""trial"",""time""
""fullscreenenter"",""1"",""2583""
","
","","","-1","","","25","17757","6666","t","elianto","#f73b6a7A","-1","-1","1","-10","[]","0","2","","","17757","86","7","4","lose","no-go","1"
"pit-trial","208","1801227","0.0-91.0","battery-v0.2","","""event"",""trial"",""time""
""fullscreenenter"",""1"",""2583""
","
","
","""event"",""trial"",""time""
""fullscreenenter"",""1"",""2583""
","
","","","694","","","25","17757","6666","c","elianto","#3366ff99","-1"," ","0","+10","[1545]","1","2","","","17757","87","5","2","win","no-go","1"
"pit-trial","209","1804556","0.0-92.0","battery-v0.2","","""event"",""trial"",""time""
""fullscreenenter"",""1"",""2583""
","
","
","""event"",""trial"",""time""
""fullscreenenter"",""1"",""2583""
","
","","","467","","","25","17757","6666","z","elianto","#3366ff99"," "," ","1","0","[1318]","1","2","","","17757","88","4","1","win","go","1"
"pit-trial","210","1808527","0.0-93.0","battery-v0.2","","""event"",""trial"",""time""
""fullscreenenter"",""1"",""2583""
","
","
","""event"",""trial"",""time""
""fullscreenenter"",""1"",""2583""
","
","","","1111","","","25","17757","6666","b","elianto","#f73b6a7A"," "," ","1","-10","[1962]","1","2","","","17757","89","6","3","lose","go","1"
"pit-trial","211","1811897","0.0-94.0","battery-v0.2","","""event"",""trial"",""time""
""fullscreenenter"",""1"",""2583""
","
","
","""event"",""trial"",""time""
""fullscreenenter"",""1"",""2583""
","
","","","511.99999999976717","","","25","17757","6666","z","elianto","#3366ff99"," "," ","1","+10","[1362]","1","2","","","17757","90","4","1","win","go","0"
"pit-trial","212","1816757","0.0-95.0","battery-v0.2","","""event"",""trial"",""time""
""fullscreenenter"",""1"",""2583""
","
","
","""event"",""trial"",""time""
""fullscreenenter"",""1"",""2583""
","
","","","-1","","","25","17757","6666","t","elianto","#f73b6a7A","-1","-1","1","-10","[]","0","2","","","17757","91","7","4","lose","no-go","1"
"pit-trial","213","1820014","0.0-96.0","battery-v0.2","","""event"",""trial"",""time""
""fullscreenenter"",""1"",""2583""
","
","
","""event"",""trial"",""time""
""fullscreenenter"",""1"",""2583""
","
","","","396.99999999976717","","","25","17757","6666","c","elianto","#3366ff99","-1"," ","0","0","[1248]","1","2","","","17757","92","5","2","win","no-go","0"
"pit-trial","214","1824873","0.0-97.0","battery-v0.2","","""event"",""trial"",""time""
""fullscreenenter"",""1"",""2583""
","
","
","""event"",""trial"",""time""
""fullscreenenter"",""1"",""2583""
","
","","","-1","","","25","17757","6666","c","elianto","#3366ff99","-1","-1","1","0","[]","0","2","","","17757","93","5","2","win","no-go","1"
"pit-trial","215","1828791","0.0-98.0","battery-v0.2","","""event"",""trial"",""time""
""fullscreenenter"",""1"",""2583""
","
","
","""event"",""trial"",""time""
""fullscreenenter"",""1"",""2583""
","
","","","1061","","","25","17757","6666","t","elianto","#f73b6a7A","-1"," ","0","-10","[1911]","1","2","","","17757","94","7","4","lose","no-go","0"
"pit-trial","216","1832453","0.0-99.0","battery-v0.2","","""event"",""trial"",""time""
""fullscreenenter"",""1"",""2583""
","
","
","""event"",""trial"",""time""
""fullscreenenter"",""1"",""2583""
","
","","","804.0000000002328","","","25","17757","6666","b","elianto","#f73b6a7A"," "," ","1","0","[1655]","1","2","","","17757","95","6","3","lose","go","0"
"pit-trial","217","1836103","0.0-100.0","battery-v0.2","","""event"",""trial"",""time""
""fullscreenenter"",""1"",""2583""
","
","
","""event"",""trial"",""time""
""fullscreenenter"",""1"",""2583""
","
","","","791","","","25","17757","6666","f","elianto","#3366ff99"," "," ","1","+10","[1641]","1","2","","","17757","96","8","1","win","go","0"
"pit-trial","218","1839606","0.0-101.0","battery-v0.2","","""event"",""trial"",""time""
""fullscreenenter"",""1"",""2583""
","
","
","""event"",""trial"",""time""
""fullscreenenter"",""1"",""2583""
","
","","","642.9999999997672","","","25","17757","6666","c","elianto","#3366ff99","-1"," ","0","0","[1494]","1","2","","","17757","97","5","2","win","no-go","0"
"pit-trial","219","1844465","0.0-102.0","battery-v0.2","","""event"",""trial"",""time""
""fullscreenenter"",""1"",""2583""
","
","
","""event"",""trial"",""time""
""fullscreenenter"",""1"",""2583""
","
","","","-1","","","25","17757","6666","f","elianto","#3366ff99"," ","-1","0","0","[]","0","2","","","17757","98","8","1","win","go","0"
"pit-trial","220","1848406","0.0-103.0","battery-v0.2","","""event"",""trial"",""time""
""fullscreenenter"",""1"",""2583""
","
","
","""event"",""trial"",""time""
""fullscreenenter"",""1"",""2583""
","
","","","1082.0000000002328","","","25","17757","6666","b","elianto","#f73b6a7A"," "," ","1","0","[1932]","1","2","","","17757","99","6","3","lose","go","0"
"pit-trial","221","1853266","0.0-104.0","battery-v0.2","","""event"",""trial"",""time""
""fullscreenenter"",""1"",""2583""
","
","
","""event"",""trial"",""time""
""fullscreenenter"",""1"",""2583""
","
","","","-1","","","25","17757","6666","t","elianto","#f73b6a7A","-1","-1","1","-10","[]","0","2","","","17757","100","7","4","lose","no-go","1"
"pit-trial","222","1858124","0.0-105.0","battery-v0.2","","""event"",""trial"",""time""
""fullscreenenter"",""1"",""2583""
","
","
","""event"",""trial"",""time""
""fullscreenenter"",""1"",""2583""
","
","","","-1","","","25","17757","6666","c","elianto","#3366ff99","-1","-1","1","+10","[]","0","2","","","17757","101","5","2","win","no-go","0"
"pit-trial","223","1861990","0.0-106.0","battery-v0.2","","""event"",""trial"",""time""
""fullscreenenter"",""1"",""2583""
","
","
","""event"",""trial"",""time""
""fullscreenenter"",""1"",""2583""
","
","","","1006.9999999997672","","","25","17757","6666","t","elianto","#f73b6a7A","-1"," ","0","0","[1857]","1","2","","","17757","102","7","4","lose","no-go","1"
"pit-trial","224","1866850","0.0-107.0","battery-v0.2","","""event"",""trial"",""time""
""fullscreenenter"",""1"",""2583""
","
","
","""event"",""trial"",""time""
""fullscreenenter"",""1"",""2583""
","
","","","-1","","","25","17757","6666","f","elianto","#3366ff99"," ","-1","0","0","[]","0","2","","","17757","103","8","1","win","go","0"
"pit-trial","225","1870698","0.0-108.0","battery-v0.2","","""event"",""trial"",""time""
""fullscreenenter"",""1"",""2583""
","
","
","""event"",""trial"",""time""
""fullscreenenter"",""1"",""2583""
","
","","","990","","","25","17757","6666","n","elianto","#3366ff99"," "," ","1","+10","[1839.9999999997672]","1","2","","","17757","104","9","1","win","go","0"
"pit-trial","226","1874028","0.0-109.0","battery-v0.2","","""event"",""trial"",""time""
""fullscreenenter"",""1"",""2583""
","
","
","""event"",""trial"",""time""
""fullscreenenter"",""1"",""2583""
","
","","","470","","","25","17757","6666","n","elianto","#3366ff99"," "," ","1","0","[1321]","1","2","","","17757","105","9","1","win","go","1"
"pit-trial","227","1877575","0.0-110.0","battery-v0.2","","""event"",""trial"",""time""
""fullscreenenter"",""1"",""2583""
","
","
","""event"",""trial"",""time""
""fullscreenenter"",""1"",""2583""
","
","","","686.9999999997672","","","25","17757","6666","z","elianto","#3366ff99"," "," ","1","+10","[1538]","1","2","","","17757","106","4","1","win","go","0"
"pit-trial","228","1882434","0.0-111.0","battery-v0.2","","""event"",""trial"",""time""
""fullscreenenter"",""1"",""2583""
","
","
","""event"",""trial"",""time""
""fullscreenenter"",""1"",""2583""
","
","","","-1","","","25","17757","6666","f","elianto","#3366ff99"," ","-1","0","0","[]","0","2","","","17757","107","8","1","win","go","0"
"pit-trial","229","1885968","0.0-112.0","battery-v0.2","","""event"",""trial"",""time""
""fullscreenenter"",""1"",""2583""
","
","
","""event"",""trial"",""time""
""fullscreenenter"",""1"",""2583""
","
","","","674","","","25","17757","6666","b","elianto","#f73b6a7A"," "," ","1","-10","[1525]","1","2","","","17757","108","6","3","lose","go","1"
"pit-trial","230","1889423","0.0-113.0","battery-v0.2","","""event"",""trial"",""time""
""fullscreenenter"",""1"",""2583""
","
","
","""event"",""trial"",""time""
""fullscreenenter"",""1"",""2583""
","
","","","596","","","25","17757","6666","f","elianto","#3366ff99"," "," ","1","0","[1446]","1","2","","","17757","109","8","1","win","go","1"
"pit-trial","231","1892999","0.0-114.0","battery-v0.2","","""event"",""trial"",""time""
""fullscreenenter"",""1"",""2583""
","
","
","""event"",""trial"",""time""
""fullscreenenter"",""1"",""2583""
","
","","","716.9999999997672","","","25","17757","6666","c","elianto","#3366ff99","-1"," ","0","0","[1568]","1","2","","","17757","110","5","2","win","no-go","0"
"pit-trial","232","1896999","0.0-115.0","battery-v0.2","","""event"",""trial"",""time""
""fullscreenenter"",""1"",""2583""
","
","
","""event"",""trial"",""time""
""fullscreenenter"",""1"",""2583""
","
","","","1140.9999999997672","","","25","17757","6666","b","elianto","#f73b6a7A"," "," ","1","0","[1991]","1","2","","","17757","111","6","3","lose","go","0"
"pit-trial","233","1900433","0.0-116.0","battery-v0.2","","""event"",""trial"",""time""
""fullscreenenter"",""1"",""2583""
","
","
","""event"",""trial"",""time""
""fullscreenenter"",""1"",""2583""
","
","","","575","","","25","17757","6666","n","elianto","#3366ff99"," "," ","1","+10","[1425]","1","2","","","17757","112","9","1","win","go","0"
"pit-trial","234","1905295","0.0-117.0","battery-v0.2","","""event"",""trial"",""time""
""fullscreenenter"",""1"",""2583""
","
","
","""event"",""trial"",""time""
""fullscreenenter"",""1"",""2583""
","
","","","-1","","","25","17757","6666","f","elianto","#3366ff99"," ","-1","0","0","[]","0","2","","","17757","113","8","1","win","go","0"
"pit-trial","235","1908604","0.0-118.0","battery-v0.2","","""event"",""trial"",""time""
""fullscreenenter"",""1"",""2583""
","
","
","""event"",""trial"",""time""
""fullscreenenter"",""1"",""2583""
","
","","","448","","","25","17757","6666","n","elianto","#3366ff99"," "," ","1","+10","[1298]","1","2","","","17757","114","9","1","win","go","0"
"pit-trial","236","1911952","0.0-119.0","battery-v0.2","","""event"",""trial"",""time""
""fullscreenenter"",""1"",""2583""
","
","
","""event"",""trial"",""time""
""fullscreenenter"",""1"",""2583""
","
","","","490","","","25","17757","6666","c","elianto","#3366ff99","-1"," ","0","0","[1340]","1","2","","","17757","115","5","2","win","no-go","0"
"pit-trial","237","1915647","0.0-120.0","battery-v0.2","","""event"",""trial"",""time""
""fullscreenenter"",""1"",""2583""
","
","
","""event"",""trial"",""time""
""fullscreenenter"",""1"",""2583""
","
","","","836","","","25","17757","6666","b","elianto","#f73b6a7A"," "," ","1","0","[1686]","1","2","","","17757","116","6","3","lose","go","0"
"pit-trial","238","1919058","0.0-121.0","battery-v0.2","","""event"",""trial"",""time""
""fullscreenenter"",""1"",""2583""
","
","
","""event"",""trial"",""time""
""fullscreenenter"",""1"",""2583""
","
","","","552","","","25","17757","6666","b","elianto","#f73b6a7A"," "," ","1","0","[1403]","1","2","","","17757","117","6","3","lose","go","0"
"pit-trial","239","1922365","0.0-122.0","battery-v0.2","","""event"",""trial"",""time""
""fullscreenenter"",""1"",""2583""
","
","
","""event"",""trial"",""time""
""fullscreenenter"",""1"",""2583""
","
","","","450","","","25","17757","6666","c","elianto","#3366ff99","-1"," ","0","0","[1300]","1","2","","","17757","118","5","2","win","no-go","0"
"pit-trial","240","1925990","0.0-123.0","battery-v0.2","","""event"",""trial"",""time""
""fullscreenenter"",""1"",""2583""
","
","
","""event"",""trial"",""time""
""fullscreenenter"",""1"",""2583""
","
","","","764.9999999997672","","","25","17757","6666","f","elianto","#3366ff99"," "," ","1","+10","[1616]","1","2","","","17757","119","8","1","win","go","0"
"pit-trial","241","1929687","0.0-124.0","battery-v0.2","","""event"",""trial"",""time""
""fullscreenenter"",""1"",""2583""
","
","
","""event"",""trial"",""time""
""fullscreenenter"",""1"",""2583""
","
","","","838.0000000002328","","","25","17757","6666","n","elianto","#3366ff99"," "," ","1","+10","[1689.0000000002328]","1","2","","","17757","120","9","1","win","go","0"
"pit-trial","242","1933175","0.0-125.0","battery-v0.2","","""event"",""trial"",""time""
""fullscreenenter"",""1"",""2583""
","
","
","""event"",""trial"",""time""
""fullscreenenter"",""1"",""2583""
","
","","","628","","","25","17757","6666","t","elianto","#f73b6a7A","-1"," ","0","-10","[1479]","1","2","","","17757","121","7","4","lose","no-go","0"
"pit-trial","243","1936982","0.0-126.0","battery-v0.2","","""event"",""trial"",""time""
""fullscreenenter"",""1"",""2583""
","
","
","""event"",""trial"",""time""
""fullscreenenter"",""1"",""2583""
","
","","","947.9999999997672","","","25","17757","6666","n","elianto","#3366ff99"," "," ","1","0","[1798]","1","2","","","17757","122","9","1","win","go","1"
"pit-trial","244","1940172","0.0-127.0","battery-v0.2","","""event"",""trial"",""time""
""fullscreenenter"",""1"",""2583""
","
","
","""event"",""trial"",""time""
""fullscreenenter"",""1"",""2583""
","
","","","330","","","25","17757","6666","b","elianto","#f73b6a7A"," "," ","1","0","[1181]","1","2","","","17757","123","6","3","lose","go","0"
"pit-trial","245","1943414","0.0-128.0","battery-v0.2","","""event"",""trial"",""time""
""fullscreenenter"",""1"",""2583""
","
","
","""event"",""trial"",""time""
""fullscreenenter"",""1"",""2583""
","
","","","382","","","25","17757","6666","f","elianto","#3366ff99"," "," ","1","+10","[1233,2187]","2","2","","","17757","124","8","1","win","go","0"
"pit-trial","246","1948273","0.0-129.0","battery-v0.2","","""event"",""trial"",""time""
""fullscreenenter"",""1"",""2583""
","
","
","""event"",""trial"",""time""
""fullscreenenter"",""1"",""2583""
","
","","","-1","","","25","17757","6666","t","elianto","#f73b6a7A","-1","-1","1","0","[]","0","2","","","17757","125","7","4","lose","no-go","0"
"pit-trial","247","1952064","0.0-130.0","battery-v0.2","","""event"",""trial"",""time""
""fullscreenenter"",""1"",""2583""
","
","
","""event"",""trial"",""time""
""fullscreenenter"",""1"",""2583""
","
","","","933","","","25","17757","6666","b","elianto","#f73b6a7A"," "," ","1","0","[1783]","1","2","","","17757","126","6","3","lose","go","0"
"pit-trial","248","1956926","0.0-131.0","battery-v0.2","","""event"",""trial"",""time""
""fullscreenenter"",""1"",""2583""
","
","
","""event"",""trial"",""time""
""fullscreenenter"",""1"",""2583""
","
","","","-1","","","25","17757","6666","f","elianto","#3366ff99"," ","-1","0","0","[]","0","2","","","17757","127","8","1","win","go","0"
"pit-trial","249","1960234","0.0-132.0","battery-v0.2","","""event"",""trial"",""time""
""fullscreenenter"",""1"",""2583""
","
","
","""event"",""trial"",""time""
""fullscreenenter"",""1"",""2583""
","
","","","448","","","25","17757","6666","n","elianto","#3366ff99"," "," ","1","+10","[1298]","1","2","","","17757","128","9","1","win","go","0"
"pit-trial","250","1963590","0.0-133.0","battery-v0.2","","""event"",""trial"",""time""
""fullscreenenter"",""1"",""2583""
","
","
","""event"",""trial"",""time""
""fullscreenenter"",""1"",""2583""
","
","","","495","","","25","17757","6666","f","elianto","#3366ff99"," "," ","1","+10","[1345]","1","2","","","17757","129","8","1","win","go","0"
"pit-trial","251","1966940","0.0-134.0","battery-v0.2","","""event"",""trial"",""time""
""fullscreenenter"",""1"",""2583""
","
","
","""event"",""trial"",""time""
""fullscreenenter"",""1"",""2583""
","
","","","491","","","25","17757","6666","b","elianto","#f73b6a7A"," "," ","1","0","[1340]","1","2","","","17757","130","6","3","lose","go","0"
"pit-trial","252","1970452","0.0-135.0","battery-v0.2","","""event"",""trial"",""time""
""fullscreenenter"",""1"",""2583""
","
","
","""event"",""trial"",""time""
""fullscreenenter"",""1"",""2583""
","
","","","652","","","25","17757","6666","n","elianto","#3366ff99"," "," ","1","+10","[1502.9999999997672]","1","2","","","17757","131","9","1","win","go","0"
"pit-trial","253","1974060","0.0-136.0","battery-v0.2","","""event"",""trial"",""time""
""fullscreenenter"",""1"",""2583""
","
","
","""event"",""trial"",""time""
""fullscreenenter"",""1"",""2583""
","
","","","750","","","25","17757","6666","t","elianto","#f73b6a7A","-1"," ","0","-10","[1600]","1","2","","","17757","132","7","4","lose","no-go","0"
"pit-trial","254","1977346","0.0-137.0","battery-v0.2","","""event"",""trial"",""time""
""fullscreenenter"",""1"",""2583""
","
","
","""event"",""trial"",""time""
""fullscreenenter"",""1"",""2583""
","
","","","429","","","25","17757","6666","t","elianto","#f73b6a7A","-1"," ","0","-10","[1279]","1","2","","","17757","133","7","4","lose","no-go","0"
"pit-trial","255","1980628","0.0-138.0","battery-v0.2","","""event"",""trial"",""time""
""fullscreenenter"",""1"",""2583""
","
","
","""event"",""trial"",""time""
""fullscreenenter"",""1"",""2583""
","
","","","425","","","25","17757","6666","f","elianto","#3366ff99"," "," ","1","+10","[1275]","1","2","","","17757","134","8","1","win","go","0"
"pit-trial","256","1984046","0.0-139.0","battery-v0.2","","""event"",""trial"",""time""
""fullscreenenter"",""1"",""2583""
","
","
","""event"",""trial"",""time""
""fullscreenenter"",""1"",""2583""
","
","","","559.9999999997672","","","25","17757","6666","b","elianto","#f73b6a7A"," "," ","1","-10","[1410]","1","2","","","17757","135","6","3","lose","go","1"
"pit-trial","257","1988136","0.0-140.0","battery-v0.2","","""event"",""trial"",""time""
""fullscreenenter"",""1"",""2583""
","
","
","""event"",""trial"",""time""
""fullscreenenter"",""1"",""2583""
","
","","","1228","","","25","17757","6666","n","elianto","#3366ff99"," "," ","1","+10","[2078,3672]","2","2","","","17757","136","9","1","win","go","0"
"pit-trial","258","1992996","0.0-141.0","battery-v0.2","","""event"",""trial"",""time""
""fullscreenenter"",""1"",""2583""
","
","
","""event"",""trial"",""time""
""fullscreenenter"",""1"",""2583""
","
","","","-1","","","25","17757","6666","t","elianto","#f73b6a7A","-1","-1","1","0","[]","0","2","","","17757","137","7","4","lose","no-go","0"
"pit-trial","259","1996565","0.0-142.0","battery-v0.2","","""event"",""trial"",""time""
""fullscreenenter"",""1"",""2583""
","
","
","""event"",""trial"",""time""
""fullscreenenter"",""1"",""2583""
","
","","","710","","","25","17757","6666","b","elianto","#f73b6a7A"," "," ","1","0","[1561]","1","2","","","17757","138","6","3","lose","go","0"
"pit-trial","260","1999983","0.0-143.0","battery-v0.2","","""event"",""trial"",""time""
""fullscreenenter"",""1"",""2583""
","
","
","""event"",""trial"",""time""
""fullscreenenter"",""1"",""2583""
","
","","","559","","","25","17757","6666","f","elianto","#3366ff99"," "," ","1","+10","[1408.9999999997672,2118.999999999767]","2","2","","","17757","139","8","1","win","go","0"
"pit-trial","261","2003895","0.0-144.0","battery-v0.2","","""event"",""trial"",""time""
""fullscreenenter"",""1"",""2583""
","
","
","""event"",""trial"",""time""
""fullscreenenter"",""1"",""2583""
","
","","","1053","","","25","17757","6666","n","elianto","#3366ff99"," "," ","1","0","[1904]","1","2","","","17757","140","9","1","win","go","1"
"pit-instructions","262","2082442","0.0-145.0","battery-v0.2","","""event"",""trial"",""time""
""fullscreenenter"",""1"",""2583""
","
","
","""event"",""trial"",""time""
""fullscreenenter"",""1"",""2583""
","
","","[{""page_index"":0,""viewing_time"":68534},{""page_index"":1,""viewing_time"":10003}]","78537.99999999977","","","","","","","","","","","","","","","","","","","","","","","",""
"pit-trial","263","2087304","0.0-146.0","battery-v0.2","","""event"",""trial"",""time""
""fullscreenenter"",""1"",""2583""
","
","
","""event"",""trial"",""time""
""fullscreenenter"",""1"",""2583""
","
","","","-1","","","25","17757","6666","d","elianto","#3366ff99"," ","-1","0","0","[]","0","3","","","17757","141","1","1","win","go","0"
"pit-trial","264","2092163","0.0-147.0","battery-v0.2","","""event"",""trial"",""time""
""fullscreenenter"",""1"",""2583""
","
","
","""event"",""trial"",""time""
""fullscreenenter"",""1"",""2583""
","
","","","-1","","","25","17757","6666","e","elianto","#f73b6a7A","-1","-1","1","0","[2908]","1","3","","","17757","142","2","4","lose","no-go","0"
"pit-trial","265","2096110","0.0-148.0","battery-v0.2","","""event"",""trial"",""time""
""fullscreenenter"",""1"",""2583""
","
","
","""event"",""trial"",""time""
""fullscreenenter"",""1"",""2583""
","
","","","1089","","","25","17757","6666","j","elianto","#f73b6a7A","-1"," ","0","0","[1938.9999999997672]","1","3","","","17757","143","0","4","lose","no-go","1"
"pit-trial","266","2099351","0.0-149.0","battery-v0.2","","""event"",""trial"",""time""
""fullscreenenter"",""1"",""2583""
","
","
","""event"",""trial"",""time""
""fullscreenenter"",""1"",""2583""
","
","","","382","","","25","17757","6666","w","elianto","#f73b6a7A"," "," ","1","0","[1233]","1","3","","","17757","144","3","3","lose","go","0"
"pit-trial","267","2104210","0.0-150.0","battery-v0.2","","""event"",""trial"",""time""
""fullscreenenter"",""1"",""2583""
","
","
","""event"",""trial"",""time""
""fullscreenenter"",""1"",""2583""
","
","","","-1","","","25","17757","6666","d","elianto","#3366ff99"," ","-1","0","0","[63]","1","3","","","17757","145","1","1","win","go","0"
"pit-trial","268","2107498","0.0-151.0","battery-v0.2","","""event"",""trial"",""time""
""fullscreenenter"",""1"",""2583""
","
","
","""event"",""trial"",""time""
""fullscreenenter"",""1"",""2583""
","
","","","429","","","25","17757","6666","e","elianto","#f73b6a7A","-1"," ","0","0","[1280]","1","3","","","17757","146","2","4","lose","no-go","1"
"pit-trial","269","2110739","0.0-152.0","battery-v0.2","","""event"",""trial"",""time""
""fullscreenenter"",""1"",""2583""
","
","
","""event"",""trial"",""time""
""fullscreenenter"",""1"",""2583""
","
","","","380","","","25","17757","6666","w","elianto","#f73b6a7A"," "," ","1","-10","[1231]","1","3","","","17757","147","3","3","lose","go","1"
"pit-trial","270","2115598","0.0-153.0","battery-v0.2","","""event"",""trial"",""time""
""fullscreenenter"",""1"",""2583""
","
","
","""event"",""trial"",""time""
""fullscreenenter"",""1"",""2583""
","
","","","-1","","","25","17757","6666","j","elianto","#f73b6a7A","-1","-1","1","-10","[]","0","3","","","17757","148","0","4","lose","no-go","1"
"pit-trial","271","2118983","0.0-154.0","battery-v0.2","","""event"",""trial"",""time""
""fullscreenenter"",""1"",""2583""
","
","
","""event"",""trial"",""time""
""fullscreenenter"",""1"",""2583""
","
","","","524.9999999995343","","","25","17757","6666","e","elianto","#f73b6a7A","-1"," ","0","-10","[1376]","1","3","","","17757","149","2","4","lose","no-go","0"
"pit-trial","272","2123842","0.0-155.0","battery-v0.2","","""event"",""trial"",""time""
""fullscreenenter"",""1"",""2583""
","
","
","""event"",""trial"",""time""
""fullscreenenter"",""1"",""2583""
","
","","","-1","","","25","17757","6666","j","elianto","#f73b6a7A","-1","-1","1","0","[]","0","3","","","17757","150","0","4","lose","no-go","0"
"pit-trial","273","2128700","0.0-156.0","battery-v0.2","","""event"",""trial"",""time""
""fullscreenenter"",""1"",""2583""
","
","
","""event"",""trial"",""time""
""fullscreenenter"",""1"",""2583""
","
","","","-1","","","25","17757","6666","w","elianto","#f73b6a7A"," ","-1","0","-10","[]","0","3","","","17757","151","3","3","lose","go","0"
"pit-trial","274","2132453","0.0-157.0","battery-v0.2","","""event"",""trial"",""time""
""fullscreenenter"",""1"",""2583""
","
","
","""event"",""trial"",""time""
