"trial_type","trial_index","time_elapsed","internal_node_id","task_version","subject_id","interactions","blur_events","focus_events","fullscreenenter_events","fullscreenexit_events","success","view_history","rt","responses","num_errors","age","subject","participantId","rune","rune_set","hex","correct","choice","accuracy","outcome","keys","total_keys","block","practice","value","sub","trial","stimulus","robot","valence","action","sham"
"pavlovia","0","9","0.0-0.0","battery-v0.2","","""event"",""trial"",""time""
""fullscreenenter"",""1"",""2372""
","
","
","""event"",""trial"",""time""
""fullscreenenter"",""1"",""2372""
","
","","","","","","","","","","","","","","","","","","","","","","","","","","",""
"fullscreen","1","3288","0.0-1.0","battery-v0.2","","""event"",""trial"",""time""
""fullscreenenter"",""1"",""2372""
","
","
","""event"",""trial"",""time""
""fullscreenenter"",""1"",""2372""
","
","true","","","","","","","","","","","","","","","","","","","","","","","","","",""
"pit-instructions","2","7603","0.0-2.0-0.0","battery-v0.2","","""event"",""trial"",""time""
""fullscreenenter"",""1"",""2372""
","
","
","""event"",""trial"",""time""
""fullscreenenter"",""1"",""2372""
","
","","[{""page_index"":0,""viewing_time"":4299.700000000186}]","4301.9000000003725","","","","","","","","","","","","","","","","","","","","","","","",""
"pit-comprehension","3","21223","0.0-2.0-1.0-0.0","battery-v0.2","","""event"",""trial"",""time""
""fullscreenenter"",""1"",""2372""
","
","
","""event"",""trial"",""time""
""fullscreenenter"",""1"",""2372""
","
","","","13610.200000000186","[""turtle""]","1","10","6145","3464","","","","","","","","","","","","","","","","","","",""
"pit-instructions","4","28521","0.0-2.0-1.0-1.0","battery-v0.2","","""event"",""trial"",""time""
""fullscreenenter"",""1"",""2372""
","
","
","""event"",""trial"",""time""
""fullscreenenter"",""1"",""2372""
","
","","[{""page_index"":0,""viewing_time"":7286.0999999996275}]","7287.0999999996275","","","","","","","","","","","","","","","","","","","","","","","",""
"pit-instructions","5","30736","0.0-2.0-1.0-2.0-0.0","battery-v0.2","","""event"",""trial"",""time""
""fullscreenenter"",""1"",""2372""
","
","
","""event"",""trial"",""time""
""fullscreenenter"",""1"",""2372""
","
","","[{""page_index"":0,""viewing_time"":2167.699999999255}]","2168.2999999998137","","","","","","","","","","","","","","","","","","","","","","","",""
"pit-comprehension","6","33327","0.0-2.0-1.1-0.1","battery-v0.2","","""event"",""trial"",""time""
""fullscreenenter"",""1"",""2372""
","
","
","""event"",""trial"",""time""
""fullscreenenter"",""1"",""2372""
","
","","","2586.0999999996275","[""shark""]","0","10","6145","3464","","","","","","","","","","","","","","","","","","",""
"pit-instructions","7","37494","0.0-2.0-1.1-1.1","battery-v0.2","","""event"",""trial"",""time""
""fullscreenenter"",""1"",""2372""
","
","
","""event"",""trial"",""time""
""fullscreenenter"",""1"",""2372""
","
","","[{""page_index"":0,""viewing_time"":4164.799999999814}]","4165.0999999996275","","","","","","","","","","","","","","","","","","","","","","","",""
"pit-comprehension","8","40721","0.0-2.0-2.0-0.0","battery-v0.2","","""event"",""trial"",""time""
""fullscreenenter"",""1"",""2372""
","
","
","""event"",""trial"",""time""
""fullscreenenter"",""1"",""2372""
","
","","","3223.199999999255","[""tiger""]","0","10","6145","3464","","","","","","","","","","","","","","","","","","",""
"pit-instructions","9","44048","0.0-2.0-2.0-1.0","battery-v0.2","","""event"",""trial"",""time""
""fullscreenenter"",""1"",""2372""
","
","
","""event"",""trial"",""time""
""fullscreenenter"",""1"",""2372""
","
","","[{""page_index"":0,""viewing_time"":3313.5}]","3314.2999999998137","","","","","","","","","","","","","","","","","","","","","","","",""
"pit-instructions","10","172623","0.0-2.0-3.0","battery-v0.2","","""event"",""trial"",""time""
""fullscreenenter"",""1"",""2372""
","
","
","""event"",""trial"",""time""
""fullscreenenter"",""1"",""2372""
","
","","[{""page_index"":0,""viewing_time"":14047.900000000373},{""page_index"":1,""viewing_time"":8216.399999999441},{""page_index"":2,""viewing_time"":7231.299999999814},{""page_index"":3,""viewing_time"":6144.5},{""page_index"":4,""viewing_time"":8840.100000000559},{""page_index"":5,""viewing_time"":8255.5},{""page_index"":6,""viewing_time"":9856.200000000186},{""page_index"":7,""viewing_time"":9718.599999999627},{""page_index"":8,""viewing_time"":7880.799999999814},{""page_index"":9,""viewing_time"":13814.799999999814},{""page_index"":10,""viewing_time"":10575.700000000186},{""page_index"":11,""viewing_time"":9151.900000000373},{""page_index"":12,""viewing_time"":7791.700000000186},{""page_index"":13,""viewing_time"":7040.299999999814}]","128566.20000000019","","","","","","","","","","","","","","","","","","","","","","","",""
"pit-trial","11","176108","0.0-2.0-4.0-0.0","battery-v0.2","","""event"",""trial"",""time""
""fullscreenenter"",""1"",""2372""
","
","
","""event"",""trial"",""time""
""fullscreenenter"",""1"",""2372""
","
","","","620.2999999998137","","","10","6145","3464","&#9784;","elianto","#FFFFF080"," "," ","1","&#10004","[1478.7000000001863]","1","0","0","","","","","","","",""
"pit-trial","12","179692","0.0-2.0-4.1-0.1","battery-v0.2","","""event"",""trial"",""time""
""fullscreenenter"",""1"",""2372""
","
","
","""event"",""trial"",""time""
""fullscreenenter"",""1"",""2372""
","
","","","722.8999999994412","","","10","6145","3464","&#9784;","elianto","#FFFFF080"," "," ","1","&#10004","[1575.7999999998137]","1","0","0","","","","","","","",""
"pit-trial","13","183292","0.0-2.0-4.2-0.2","battery-v0.2","","""event"",""trial"",""time""
""fullscreenenter"",""1"",""2372""
","
","
","""event"",""trial"",""time""
""fullscreenenter"",""1"",""2372""
","
","","","740.6999999992549","","","10","6145","3464","&#9784;","elianto","#FFFFF080"," "," ","1","&#10004","[1593.7999999998137]","1","0","0","","","","","","","",""
"pit-trial","14","187084","0.0-2.0-4.3-0.3","battery-v0.2","","""event"",""trial"",""time""
""fullscreenenter"",""1"",""2372""
","
","
","""event"",""trial"",""time""
""fullscreenenter"",""1"",""2372""
","
","","","932.2000000001863","","","10","6145","3464","&#9784;","elianto","#FFFFF080"," "," ","1","&#10004","[1783.800000000745]","1","0","0","","","","","","","",""
"pit-trial","15","190684","0.0-2.0-4.4-0.4","battery-v0.2","","""event"",""trial"",""time""
""fullscreenenter"",""1"",""2372""
","
","
","""event"",""trial"",""time""
""fullscreenenter"",""1"",""2372""
","
","","","743.2000000001863","","","10","6145","3464","&#9784;","elianto","#FFFFF080"," "," ","1","&#10004","[1593.2000000001863]","1","0","0","","","","","","","",""
"pit-instructions","16","213879","0.0-2.0-5.0","battery-v0.2","","""event"",""trial"",""time""
""fullscreenenter"",""1"",""2372""
","
","
","""event"",""trial"",""time""
""fullscreenenter"",""1"",""2372""
","
","","[{""page_index"":0,""viewing_time"":5807},{""page_index"":1,""viewing_time"":6263.700000000186},{""page_index"":2,""viewing_time"":5695.799999999814},{""page_index"":3,""viewing_time"":5423.9000000003725}]","23190.799999999814","","","","","","","","","","","","","","","","","","","","","","","",""
"pit-trial","17","218741","0.0-2.0-6.0-0.0","battery-v0.2","","""event"",""trial"",""time""
""fullscreenenter"",""1"",""2372""
","
","
","""event"",""trial"",""time""
""fullscreenenter"",""1"",""2372""
","
","","","-1","","","10","6145","3464","&#9854;","elianto","#FFFFF080","-1","-1","1","&#10004","[]","0","0","1","","","","","","","",""
"pit-trial","18","223605","0.0-2.0-6.1-0.1","battery-v0.2","","""event"",""trial"",""time""
""fullscreenenter"",""1"",""2372""
","
","
","""event"",""trial"",""time""
""fullscreenenter"",""1"",""2372""
","
","","","-1","","","10","6145","3464","&#9854;","elianto","#FFFFF080","-1","-1","1","&#10004","[]","0","0","1","","","","","","","",""
"pit-trial","19","228469","0.0-2.0-6.2-0.2","battery-v0.2","","""event"",""trial"",""time""
""fullscreenenter"",""1"",""2372""
","
","
","""event"",""trial"",""time""
""fullscreenenter"",""1"",""2372""
","
","","","-1","","","10","6145","3464","&#9854;","elianto","#FFFFF080","-1","-1","1","&#10004","[]","0","0","1","","","","","","","",""
"pit-trial","20","233333","0.0-2.0-6.3-0.3","battery-v0.2","","""event"",""trial"",""time""
""fullscreenenter"",""1"",""2372""
","
","
","""event"",""trial"",""time""
""fullscreenenter"",""1"",""2372""
","
","","","-1","","","10","6145","3464","&#9854;","elianto","#FFFFF080","-1","-1","1","&#10004","[]","0","0","1","","","","","","","",""
"pit-trial","21","238197","0.0-2.0-6.4-0.4","battery-v0.2","","""event"",""trial"",""time""
""fullscreenenter"",""1"",""2372""
","
","
","""event"",""trial"",""time""
""fullscreenenter"",""1"",""2372""
","
","","","-1","","","10","6145","3464","&#9854;","elianto","#FFFFF080","-1","-1","1","&#10004","[]","0","0","1","","","","","","","",""
"pit-instructions","22","389368","0.0-2.0-7.0","battery-v0.2","","""event"",""trial"",""time""
""fullscreenenter"",""1"",""2372""
","
","
","""event"",""trial"",""time""
""fullscreenenter"",""1"",""2372""
","
","","[{""page_index"":0,""viewing_time"":6775.0999999996275},{""page_index"":1,""viewing_time"":8864.299999999814},{""page_index"":2,""viewing_time"":8392.100000000559},{""page_index"":3,""viewing_time"":8082.0999999996275},{""page_index"":4,""viewing_time"":6340.5999999996275},{""page_index"":5,""viewing_time"":5848.800000000745},{""page_index"":6,""viewing_time"":5606.899999999441},{""page_index"":7,""viewing_time"":11031.799999999814},{""page_index"":8,""viewing_time"":10585.900000000373},{""page_index"":9,""viewing_time"":7725.700000000186},{""page_index"":10,""viewing_time"":8144.700000000186},{""page_index"":11,""viewing_time"":5551.0999999996275},{""page_index"":12,""viewing_time"":10712.200000000186},{""page_index"":13,""viewing_time"":8224},{""page_index"":14,""viewing_time"":8434.700000000186},{""page_index"":15,""viewing_time"":10093.199999999255},{""page_index"":16,""viewing_time"":9095.300000000745},{""page_index"":17,""viewing_time"":11656.299999999814}]","151165.69999999925","","","","","","","","","","","","","","","","","","","","","","","",""
"pit-trial","23","392873","0.0-2.0-8.0-0.0","battery-v0.2","","""event"",""trial"",""time""
""fullscreenenter"",""1"",""2372""
","
","
","""event"",""trial"",""time""
""fullscreenenter"",""1"",""2372""
","
","","","648.1000000005588","","","10","6145","3464","&#9776;","elianto","#3366ff99"," "," ","1","+10","[1499.2000000001863]","1","0","1","","","","","","","",""
"pit-trial","24","396281","0.0-2.0-8.0-1.0","battery-v0.2","","""event"",""trial"",""time""
""fullscreenenter"",""1"",""2372""
","
","
","""event"",""trial"",""time""
""fullscreenenter"",""1"",""2372""
","
","","","550.5","","","10","6145","3464","&#9776;","elianto","#3366ff99"," "," ","1","+10","[1403]","1","0","1","","","","","","","",""
"pit-trial","25","399770","0.0-2.0-8.0-2.0","battery-v0.2","","""event"",""trial"",""time""
""fullscreenenter"",""1"",""2372""
","
","
","""event"",""trial"",""time""
""fullscreenenter"",""1"",""2372""
","
","","","631.3000000007451","","","10","6145","3464","&#9776;","elianto","#3366ff99"," "," ","1","+10","[1484.2999999998137]","1","0","1","","","","","","","",""
"pit-trial","26","403257","0.0-2.0-8.0-3.0","battery-v0.2","","""event"",""trial"",""time""
""fullscreenenter"",""1"",""2372""
","
","
","""event"",""trial"",""time""
""fullscreenenter"",""1"",""2372""
","
","","","630.2999999998137","","","10","6145","3464","&#9776;","elianto","#3366ff99"," "," ","1","0","[1483.5999999996275]","1","0","1","","","","","","","",""
"pit-trial","27","408122","0.0-2.0-8.0-4.0","battery-v0.2","","""event"",""trial"",""time""
""fullscreenenter"",""1"",""2372""
","
","
","""event"",""trial"",""time""
""fullscreenenter"",""1"",""2372""
","
","","","-1","","","10","6145","3464","&#9776;","elianto","#3366ff99"," ","-1","0","0","[]","0","0","1","","","","","","","",""
"pit-trial","28","411850","0.0-2.0-8.1-0.1","battery-v0.2","","""event"",""trial"",""time""
""fullscreenenter"",""1"",""2372""
","
","
","""event"",""trial"",""time""
""fullscreenenter"",""1"",""2372""
","
","","","870.0999999996275","","","10","6145","3464","&#9776;","elianto","#3366ff99"," "," ","1","+10","[1721]","1","0","1","","","","","","","",""
"pit-trial","29","416713","0.0-2.0-8.1-1.1","battery-v0.2","","""event"",""trial"",""time""
""fullscreenenter"",""1"",""2372""
","
","
","""event"",""trial"",""time""
""fullscreenenter"",""1"",""2372""
","
","","","-1","","","10","6145","3464","&#9776;","elianto","#3366ff99"," ","-1","0","0","[]","0","0","1","","","","","","","",""
"pit-trial","30","420177","0.0-2.0-8.1-2.1","battery-v0.2","","""event"",""trial"",""time""
""fullscreenenter"",""1"",""2372""
","
","
","""event"",""trial"",""time""
""fullscreenenter"",""1"",""2372""
","
","","","599.3999999994412","","","10","6145","3464","&#9776;","elianto","#3366ff99"," "," ","1","+10","[1452.2999999998137]","1","0","1","","","","","","","",""
"pit-trial","31","423865","0.0-2.0-8.1-3.1","battery-v0.2","","""event"",""trial"",""time""
""fullscreenenter"",""1"",""2372""
","
","
","""event"",""trial"",""time""
""fullscreenenter"",""1"",""2372""
","
","","","826.9000000003725","","","10","6145","3464","&#9776;","elianto","#3366ff99"," "," ","1","0","[1685.5]","1","0","1","","","","","","","",""
"pit-trial","32","427401","0.0-2.0-8.1-4.1","battery-v0.2","","""event"",""trial"",""time""
""fullscreenenter"",""1"",""2372""
","
","
","""event"",""trial"",""time""
""fullscreenenter"",""1"",""2372""
","
","","","680.8000000007451","","","10","6145","3464","&#9776;","elianto","#3366ff99"," "," ","1","+10","[1533]","1","0","1","","","","","","","",""
"pit-trial","33","430841","0.0-2.0-8.2-0.2","battery-v0.2","","""event"",""trial"",""time""
""fullscreenenter"",""1"",""2372""
","
","
","""event"",""trial"",""time""
""fullscreenenter"",""1"",""2372""
","
","","","578.5","","","10","6145","3464","&#9776;","elianto","#3366ff99"," "," ","1","+10","[1436.3999999994412]","1","0","1","","","","","","","",""
"pit-trial","34","435705","0.0-2.0-8.2-1.2","battery-v0.2","","""event"",""trial"",""time""
""fullscreenenter"",""1"",""2372""
","
","
","""event"",""trial"",""time""
""fullscreenenter"",""1"",""2372""
","
","","","-1","","","10","6145","3464","&#9776;","elianto","#3366ff99"," ","-1","0","0","[]","0","0","1","","","","","","","",""
"pit-trial","35","439105","0.0-2.0-8.2-2.2","battery-v0.2","","""event"",""trial"",""time""
""fullscreenenter"",""1"",""2372""
","
","
","""event"",""trial"",""time""
""fullscreenenter"",""1"",""2372""
","
","","","535.8999999994412","","","10","6145","3464","&#9776;","elianto","#3366ff99"," "," ","1","+10","[1389.5]","1","0","1","","","","","","","",""
"pit-trial","36","442457","0.0-2.0-8.2-3.2","battery-v0.2","","""event"",""trial"",""time""
""fullscreenenter"",""1"",""2372""
","
","
","""event"",""trial"",""time""
""fullscreenenter"",""1"",""2372""
","
","","","494.8999999994412","","","10","6145","3464","&#9776;","elianto","#3366ff99"," "," ","1","0","[1348.5]","1","0","1","","","","","","","",""
"pit-trial","37","445970","0.0-2.0-8.2-4.2","battery-v0.2","","""event"",""trial"",""time""
""fullscreenenter"",""1"",""2372""
","
","
","""event"",""trial"",""time""
""fullscreenenter"",""1"",""2372""
","
","","","647","","","10","6145","3464","&#9776;","elianto","#3366ff99"," "," ","1","+10","[1501.2000000001863]","1","0","1","","","","","","","",""
"call-function","38","445972","0.0-2.0-9.0","battery-v0.2","","""event"",""trial"",""time""
""fullscreenenter"",""1"",""2372""
","
","
","""event"",""trial"",""time""
""fullscreenenter"",""1"",""2372""
","
","","","","","","","","","","","","","","","","","","","","","","","","","","",""
"pit-instructions","39","529616","0.0-2.0-10.0","battery-v0.2","","""event"",""trial"",""time""
""fullscreenenter"",""1"",""2372""
","
","
","""event"",""trial"",""time""
""fullscreenenter"",""1"",""2372""
","
","","[{""page_index"":0,""viewing_time"":41560.60000000056},{""page_index"":1,""viewing_time"":9448.599999999627},{""page_index"":2,""viewing_time"":12095.5},{""page_index"":3,""viewing_time"":11031.799999999814},{""page_index"":4,""viewing_time"":9504}]","83641.10000000056","","","","","","","","","","","","","","","","","","","","","","","",""
"pit-trial","40","533021","0.0-2.0-11.0-0.0","battery-v0.2","","""event"",""trial"",""time""
""fullscreenenter"",""1"",""2372""
","
","
","""event"",""trial"",""time""
""fullscreenenter"",""1"",""2372""
","
","","","535.2000000001863","","","10","6145","3464","&#9761;","elianto","#3366ff99","-1"," ","0","0","[1395.7000000001863]","1","0","2","","","","","","","",""
"pit-trial","41","537883","0.0-2.0-11.0-1.0","battery-v0.2","","""event"",""trial"",""time""
""fullscreenenter"",""1"",""2372""
","
","
","""event"",""trial"",""time""
""fullscreenenter"",""1"",""2372""
","
","","","-1","","","10","6145","3464","&#9761;","elianto","#3366ff99","-1","-1","1","+10","[]","0","0","2","","","","","","","",""
"pit-trial","42","541260","0.0-2.0-11.0-2.0","battery-v0.2","","""event"",""trial"",""time""
""fullscreenenter"",""1"",""2372""
","
","
","""event"",""trial"",""time""
""fullscreenenter"",""1"",""2372""
","
","","","517","","","10","6145","3464","&#9761;","elianto","#3366ff99","-1"," ","0","0","[1368.2999999998137]","1","0","2","","","","","","","",""
"pit-trial","43","544612","0.0-2.0-11.0-3.0","battery-v0.2","","""event"",""trial"",""time""
""fullscreenenter"",""1"",""2372""
","
","
","""event"",""trial"",""time""
""fullscreenenter"",""1"",""2372""
","
","","","483","","","10","6145","3464","&#9761;","elianto","#3366ff99","-1"," ","0","+10","[1338.1000000005588]","1","0","2","","","","","","","",""
"pit-trial","44","549476","0.0-2.0-11.0-4.0","battery-v0.2","","""event"",""trial"",""time""
""fullscreenenter"",""1"",""2372""
","
","
","""event"",""trial"",""time""
""fullscreenenter"",""1"",""2372""
","
","","","-1","","","10","6145","3464","&#9761;","elianto","#3366ff99","-1","-1","1","+10","[]","0","0","2","","","","","","","",""
"pit-trial","45","552891","0.0-2.0-11.1-0.1","battery-v0.2","","""event"",""trial"",""time""
""fullscreenenter"",""1"",""2372""
","
","
","""event"",""trial"",""time""
""fullscreenenter"",""1"",""2372""
","
","","","538","","","10","6145","3464","&#9761;","elianto","#3366ff99","-1"," ","0","0","[1390.2999999998137]","1","0","2","","","","","","","",""
"pit-trial","46","556284","0.0-2.0-11.1-1.1","battery-v0.2","","""event"",""trial"",""time""
""fullscreenenter"",""1"",""2372""
","
","
","""event"",""trial"",""time""
""fullscreenenter"",""1"",""2372""
","
","","","525","","","10","6145","3464","&#9761;","elianto","#3366ff99","-1"," ","0","0","[1385.5]","1","0","2","","","","","","","",""
"pit-trial","47","559643","0.0-2.0-11.1-2.1","battery-v0.2","","""event"",""trial"",""time""
""fullscreenenter"",""1"",""2372""
","
","
","""event"",""trial"",""time""
""fullscreenenter"",""1"",""2372""
","
","","","483.30000000074506","","","10","6145","3464","&#9761;","elianto","#3366ff99","-1"," ","0","0","[1335.2000000001863]","1","0","2","","","","","","","",""
"pit-trial","48","562924","0.0-2.0-11.1-3.1","battery-v0.2","","""event"",""trial"",""time""
""fullscreenenter"",""1"",""2372""
","
","
","""event"",""trial"",""time""
""fullscreenenter"",""1"",""2372""
","
","","","418.29999999981374","","","10","6145","3464","&#9761;","elianto","#3366ff99","-1"," ","0","+10","[1273.5999999996275]","1","0","2","","","","","","","",""
"pit-trial","49","566235","0.0-2.0-11.1-4.1","battery-v0.2","","""event"",""trial"",""time""
""fullscreenenter"",""1"",""2372""
","
","
","""event"",""trial"",""time""
""fullscreenenter"",""1"",""2372""
","
","","","452.29999999981374","","","10","6145","3464","&#9761;","elianto","#3366ff99","-1"," ","0","0","[1302.7999999998137]","1","0","2","","","","","","","",""
"pit-trial","50","569547","0.0-2.0-11.2-0.2","battery-v0.2","","""event"",""trial"",""time""
""fullscreenenter"",""1"",""2372""
","
","
","""event"",""trial"",""time""
""fullscreenenter"",""1"",""2372""
","
","","","451.79999999981374","","","10","6145","3464","&#9761;","elianto","#3366ff99","-1"," ","0","0","[1306.3999999994412]","1","0","2","","","","","","","",""
"pit-trial","51","574418","0.0-2.0-11.2-1.2","battery-v0.2","","""event"",""trial"",""time""
""fullscreenenter"",""1"",""2372""
","
","
","""event"",""trial"",""time""
""fullscreenenter"",""1"",""2372""
","
","","","-1","","","10","6145","3464","&#9761;","elianto","#3366ff99","-1","-1","1","+10","[]","0","0","2","","","","","","","",""
"pit-trial","52","579285","0.0-2.0-11.2-2.2","battery-v0.2","","""event"",""trial"",""time""
""fullscreenenter"",""1"",""2372""
","
","
","""event"",""trial"",""time""
""fullscreenenter"",""1"",""2372""
","
","","","-1","","","10","6145","3464","&#9761;","elianto","#3366ff99","-1","-1","1","+10","[]","0","0","2","","","","","","","",""
"pit-trial","53","582605","0.0-2.0-11.2-3.2","battery-v0.2","","""event"",""trial"",""time""
""fullscreenenter"",""1"",""2372""
","
","
","""event"",""trial"",""time""
""fullscreenenter"",""1"",""2372""
","
","","","459.1000000005588","","","10","6145","3464","&#9761;","elianto","#3366ff99","-1"," ","0","+10","[1313.6000000005588]","1","0","2","","","","","","","",""
"pit-trial","54","585917","0.0-2.0-11.2-4.2","battery-v0.2","","""event"",""trial"",""time""
""fullscreenenter"",""1"",""2372""
","
","
","""event"",""trial"",""time""
""fullscreenenter"",""1"",""2372""
","
","","","444.70000000018626","","","10","6145","3464","&#9761;","elianto","#3366ff99","-1"," ","0","0","[1304.5]","1","0","2","","","","","","","",""
"pit-trial","55","589517","0.0-2.0-11.3-0.3","battery-v0.2","","""event"",""trial"",""time""
""fullscreenenter"",""1"",""2372""
","
","
","""event"",""trial"",""time""
""fullscreenenter"",""1"",""2372""
","
","","","740.5999999996275","","","10","6145","3464","&#9761;","elianto","#3366ff99","-1"," ","0","0","[1592]","1","0","2","","","","","","","",""
"pit-trial","56","592837","0.0-2.0-11.3-1.3","battery-v0.2","","""event"",""trial"",""time""
""fullscreenenter"",""1"",""2372""
","
","
","""event"",""trial"",""time""
""fullscreenenter"",""1"",""2372""
","
","","","456.6000000005588","","","10","6145","3464","&#9761;","elianto","#3366ff99","-1"," ","0","0","[1314.3999999994412]","1","0","2","","","","","","","",""
"pit-trial","57","596141","0.0-2.0-11.3-2.3","battery-v0.2","","""event"",""trial"",""time""
""fullscreenenter"",""1"",""2372""
","
","
","""event"",""trial"",""time""
""fullscreenenter"",""1"",""2372""
","
","","","441.6000000005588","","","10","6145","3464","&#9761;","elianto","#3366ff99","-1"," ","0","0","[1295.1000000005588]","1","0","2","","","","","","","",""
"pit-trial","58","600999","0.0-2.0-11.3-3.3","battery-v0.2","","""event"",""trial"",""time""
""fullscreenenter"",""1"",""2372""
","
","
","""event"",""trial"",""time""
""fullscreenenter"",""1"",""2372""
","
","","","-1","","","10","6145","3464","&#9761;","elianto","#3366ff99","-1","-1","1","0","[]","0","0","2","","","","","","","",""
"pit-trial","59","605861","0.0-2.0-11.3-4.3","battery-v0.2","","""event"",""trial"",""time""
""fullscreenenter"",""1"",""2372""
","
","
","""event"",""trial"",""time""
""fullscreenenter"",""1"",""2372""
","
","","","-1","","","10","6145","3464","&#9761;","elianto","#3366ff99","-1","-1","1","+10","[]","0","0","2","","","","","","","",""
"call-function","60","605864","0.0-2.0-12.0","battery-v0.2","","""event"",""trial"",""time""
""fullscreenenter"",""1"",""2372""
","
","
","""event"",""trial"",""time""
""fullscreenenter"",""1"",""2372""
","
","","","","","","","","","","","","","","","","","","","","","","","","","","",""
"pit-instructions","61","646256","0.0-2.0-13.0","battery-v0.2","","""event"",""trial"",""time""
""fullscreenenter"",""1"",""2372""
","
","
","""event"",""trial"",""time""
""fullscreenenter"",""1"",""2372""
","
","","[{""page_index"":0,""viewing_time"":6189.799999999814},{""page_index"":1,""viewing_time"":9391.300000000745},{""page_index"":2,""viewing_time"":4866.5999999996275},{""page_index"":3,""viewing_time"":13844.400000000373},{""page_index"":4,""viewing_time"":6096.899999999441}]","40389.60000000056","","","","","","","","","","","","","","","","","","","","","","","",""
"pit-trial","62","649598","0.0-2.0-14.0-0.0","battery-v0.2","","""event"",""trial"",""time""
""fullscreenenter"",""1"",""2372""
","
","
","""event"",""trial"",""time""
""fullscreenenter"",""1"",""2372""
","
","","","481.6000000005588","","","10","6145","3464","&#9826;","elianto","#f73b6a7A","-1"," ","0","-10","[1334.1000000005588]","1","0","3","","","","","","","",""
"pit-trial","63","654462","0.0-2.0-14.0-1.0","battery-v0.2","","""event"",""trial"",""time""
""fullscreenenter"",""1"",""2372""
","
","
","""event"",""trial"",""time""
""fullscreenenter"",""1"",""2372""
","
","","","-1","","","10","6145","3464","&#9826;","elianto","#f73b6a7A","-1","-1","1","0","[]","0","0","3","","","","","","","",""
"pit-trial","64","657917","0.0-2.0-14.0-2.0","battery-v0.2","","""event"",""trial"",""time""
""fullscreenenter"",""1"",""2372""
","
","
","""event"",""trial"",""time""
""fullscreenenter"",""1"",""2372""
","
","","","589.5999999996275","","","10","6145","3464","&#9826;","elianto","#f73b6a7A","-1"," ","0","-10","[1447.7999999998137]","1","0","3","","","","","","","",""
"pit-trial","65","662781","0.0-2.0-14.0-3.0","battery-v0.2","","""event"",""trial"",""time""
""fullscreenenter"",""1"",""2372""
","
","
","""event"",""trial"",""time""
""fullscreenenter"",""1"",""2372""
","
","","","-1","","","10","6145","3464","&#9826;","elianto","#f73b6a7A","-1","-1","1","-10","[]","0","0","3","","","","","","","",""
"pit-trial","66","667646","0.0-2.0-14.0-4.0","battery-v0.2","","""event"",""trial"",""time""
""fullscreenenter"",""1"",""2372""
","
","
","""event"",""trial"",""time""
""fullscreenenter"",""1"",""2372""
","
","","","-1","","","10","6145","3464","&#9826;","elianto","#f73b6a7A","-1","-1","1","0","[]","0","0","3","","","","","","","",""
"pit-trial","67","671054","0.0-2.0-14.1-0.1","battery-v0.2","","""event"",""trial"",""time""
""fullscreenenter"",""1"",""2372""
","
","
","""event"",""trial"",""time""
""fullscreenenter"",""1"",""2372""
","
","","","545.6000000005588","","","10","6145","3464","&#9826;","elianto","#f73b6a7A","-1"," ","0","-10","[1396.699999999255]","1","0","3","","","","","","","",""
"pit-trial","68","675917","0.0-2.0-14.1-1.1","battery-v0.2","","""event"",""trial"",""time""
""fullscreenenter"",""1"",""2372""
","
","
","""event"",""trial"",""time""
""fullscreenenter"",""1"",""2372""
","
","","","-1","","","10","6145","3464","&#9826;","elianto","#f73b6a7A","-1","-1","1","0","[]","0","0","3","","","","","","","",""
"pit-trial","69","679262","0.0-2.0-14.1-2.1","battery-v0.2","","""event"",""trial"",""time""
""fullscreenenter"",""1"",""2372""
","
","
","""event"",""trial"",""time""
""fullscreenenter"",""1"",""2372""
","
","","","484.1000000005588","","","10","6145","3464","&#9826;","elianto","#f73b6a7A","-1"," ","0","-10","[1335.1000000005588]","1","0","3","","","","","","","",""
"pit-trial","70","684126","0.0-2.0-14.1-3.1","battery-v0.2","","""event"",""trial"",""time""
""fullscreenenter"",""1"",""2372""
","
","
","""event"",""trial"",""time""
""fullscreenenter"",""1"",""2372""
","
","","","-1","","","10","6145","3464","&#9826;","elianto","#f73b6a7A","-1","-1","1","-10","[]","0","0","3","","","","","","","",""
"pit-trial","71","687534","0.0-2.0-14.1-4.1","battery-v0.2","","""event"",""trial"",""time""
""fullscreenenter"",""1"",""2372""
","
","
","""event"",""trial"",""time""
""fullscreenenter"",""1"",""2372""
","
","","","543","","","10","6145","3464","&#9826;","elianto","#f73b6a7A","-1"," ","0","-10","[1398.7999999998137]","1","0","3","","","","","","","",""
"pit-trial","72","690894","0.0-2.0-14.2-0.2","battery-v0.2","","""event"",""trial"",""time""
""fullscreenenter"",""1"",""2372""
","
","
","""event"",""trial"",""time""
""fullscreenenter"",""1"",""2372""
","
","","","495.5","","","10","6145","3464","&#9826;","elianto","#f73b6a7A","-1"," ","0","-10","[1346.8999999994412]","1","0","3","","","","","","","",""
"pit-trial","73","695758","0.0-2.0-14.2-1.2","battery-v0.2","","""event"",""trial"",""time""
""fullscreenenter"",""1"",""2372""
","
","
","""event"",""trial"",""time""
""fullscreenenter"",""1"",""2372""
","
","","","-1","","","10","6145","3464","&#9826;","elianto","#f73b6a7A","-1","-1","1","0","[]","0","0","3","","","","","","","",""
"pit-trial","74","699791","0.0-2.0-14.2-2.2","battery-v0.2","","""event"",""trial"",""time""
""fullscreenenter"",""1"",""2372""
","
","
","""event"",""trial"",""time""
""fullscreenenter"",""1"",""2372""
","
","","","1172.199999999255","","","10","6145","3464","&#9826;","elianto","#f73b6a7A","-1"," ","0","-10","[2023.699999999255]","1","0","3","","","","","","","",""
"pit-trial","75","704650","0.0-2.0-14.2-3.2","battery-v0.2","","""event"",""trial"",""time""
""fullscreenenter"",""1"",""2372""
","
","
","""event"",""trial"",""time""
""fullscreenenter"",""1"",""2372""
","
","","","-1","","","10","6145","3464","&#9826;","elianto","#f73b6a7A","-1","-1","1","-10","[]","0","0","3","","","","","","","",""
"pit-trial","76","708096","0.0-2.0-14.2-4.2","battery-v0.2","","""event"",""trial"",""time""
""fullscreenenter"",""1"",""2372""
","
","
","""event"",""trial"",""time""
""fullscreenenter"",""1"",""2372""
","
","","","581.8999999994412","","","10","6145","3464","&#9826;","elianto","#f73b6a7A","-1"," ","0","-10","[1436]","1","0","3","","","","","","","",""
"pit-trial","77","711471","0.0-2.0-14.3-0.3","battery-v0.2","","""event"",""trial"",""time""
""fullscreenenter"",""1"",""2372""
","
","
","""event"",""trial"",""time""
""fullscreenenter"",""1"",""2372""
","
","","","511.79999999981374","","","10","6145","3464","&#9826;","elianto","#f73b6a7A","-1"," ","0","-10","[1365.3999999994412]","1","0","3","","","","","","","",""
"pit-trial","78","716335","0.0-2.0-14.3-1.3","battery-v0.2","","""event"",""trial"",""time""
""fullscreenenter"",""1"",""2372""
","
","
","""event"",""trial"",""time""
""fullscreenenter"",""1"",""2372""
","
","","","-1","","","10","6145","3464","&#9826;","elianto","#f73b6a7A","-1","-1","1","0","[]","0","0","3","","","","","","","",""
"pit-trial","79","721200","0.0-2.0-14.3-2.3","battery-v0.2","","""event"",""trial"",""time""
""fullscreenenter"",""1"",""2372""
","
","
","""event"",""trial"",""time""
""fullscreenenter"",""1"",""2372""
","
","","","-1","","","10","6145","3464","&#9826;","elianto","#f73b6a7A","-1","-1","1","0","[]","0","0","3","","","","","","","",""
"pit-trial","80","724520","0.0-2.0-14.3-3.3","battery-v0.2","","""event"",""trial"",""time""
""fullscreenenter"",""1"",""2372""
","
","
","""event"",""trial"",""time""
""fullscreenenter"",""1"",""2372""
","
","","","465.09999999962747","","","10","6145","3464","&#9826;","elianto","#f73b6a7A","-1"," ","0","0","[1317.5999999996275]","1","0","3","","","","","","","",""
"pit-trial","81","727880","0.0-2.0-14.3-4.3","battery-v0.2","","""event"",""trial"",""time""
""fullscreenenter"",""1"",""2372""
","
","
","""event"",""trial"",""time""
""fullscreenenter"",""1"",""2372""
","
","","","505.5","","","10","6145","3464","&#9826;","elianto","#f73b6a7A","-1"," ","0","-10","[1357.3999999994412]","1","0","3","","","","","","","",""
"call-function","82","727881","0.0-2.0-15.0","battery-v0.2","","""event"",""trial"",""time""
""fullscreenenter"",""1"",""2372""
","
","
","""event"",""trial"",""time""
""fullscreenenter"",""1"",""2372""
","
","","","","","","","","","","","","","","","","","","","","","","","","","","",""
"pit-instructions","83","758192","0.0-2.0-16.0","battery-v0.2","","""event"",""trial"",""time""
""fullscreenenter"",""1"",""2372""
","
","
","""event"",""trial"",""time""
""fullscreenenter"",""1"",""2372""
","
","","[{""page_index"":0,""viewing_time"":8365.5},{""page_index"":1,""viewing_time"":10367},{""page_index"":2,""viewing_time"":5279.800000000745},{""page_index"":3,""viewing_time"":6296.5999999996275}]","30309.60000000056","","","","","","","","","","","","","","","","","","","","","","","",""
"pit-trial","84","761544","0.0-2.0-17.0-0.0","battery-v0.2","","""event"",""trial"",""time""
""fullscreenenter"",""1"",""2372""
","
","
","""event"",""trial"",""time""
""fullscreenenter"",""1"",""2372""
","
","","","494.5","","","10","6145","3464","&#9789;","elianto","#f73b6a7A"," "," ","1","0","[1348]","1","0","4","","","","","","","",""
"pit-trial","85","764856","0.0-2.0-17.0-1.0","battery-v0.2","","""event"",""trial"",""time""
""fullscreenenter"",""1"",""2372""
","
","
","""event"",""trial"",""time""
""fullscreenenter"",""1"",""2372""
","
","","","454.6000000005588","","","10","6145","3464","&#9789;","elianto","#f73b6a7A"," "," ","1","0","[1309.6000000005588]","1","0","4","","","","","","","",""
"pit-trial","86","768233","0.0-2.0-17.0-2.0","battery-v0.2","","""event"",""trial"",""time""
""fullscreenenter"",""1"",""2372""
","
","
","""event"",""trial"",""time""
""fullscreenenter"",""1"",""2372""
","
","","","519.7000000001863","","","10","6145","3464","&#9789;","elianto","#f73b6a7A"," "," ","1","0","[1372.8999999994412]","1","0","4","","","","","","","",""
"pit-trial","87","771570","0.0-2.0-17.0-3.0","battery-v0.2","","""event"",""trial"",""time""
""fullscreenenter"",""1"",""2372""
","
","
","""event"",""trial"",""time""
""fullscreenenter"",""1"",""2372""
","
","","","471","","","10","6145","3464","&#9789;","elianto","#f73b6a7A"," "," ","1","-10","[1325.7000000001863]","1","0","4","","","","","","","",""
"pit-trial","88","776433","0.0-2.0-17.0-4.0","battery-v0.2","","""event"",""trial"",""time""
""fullscreenenter"",""1"",""2372""
","
","
","""event"",""trial"",""time""
""fullscreenenter"",""1"",""2372""
","
","","","-1","","","10","6145","3464","&#9789;","elianto","#f73b6a7A"," ","-1","0","-10","[]","0","0","4","","","","","","","",""
"pit-trial","89","779785","0.0-2.0-17.1-0.1","battery-v0.2","","""event"",""trial"",""time""
""fullscreenenter"",""1"",""2372""
","
","
","""event"",""trial"",""time""
""fullscreenenter"",""1"",""2372""
","
","","","494.90000000037253","","","10","6145","3464","&#9789;","elianto","#f73b6a7A"," "," ","1","0","[1347.5999999996275]","1","0","4","","","","","","","",""
"pit-trial","90","784649","0.0-2.0-17.1-1.1","battery-v0.2","","""event"",""trial"",""time""
""fullscreenenter"",""1"",""2372""
","
","
","""event"",""trial"",""time""
""fullscreenenter"",""1"",""2372""
","
","","","-1","","","10","6145","3464","&#9789;","elianto","#f73b6a7A"," ","-1","0","-10","[]","0","0","4","","","","","","","",""
"pit-trial","91","787977","0.0-2.0-17.1-2.1","battery-v0.2","","""event"",""trial"",""time""
""fullscreenenter"",""1"",""2372""
","
","
","""event"",""trial"",""time""
""fullscreenenter"",""1"",""2372""
","
","","","470","","","10","6145","3464","&#9789;","elianto","#f73b6a7A"," "," ","1","0","[1323.2999999998137]","1","0","4","","","","","","","",""
"pit-trial","92","791433","0.0-2.0-17.1-3.1","battery-v0.2","","""event"",""trial"",""time""
""fullscreenenter"",""1"",""2372""
","
","
","""event"",""trial"",""time""
""fullscreenenter"",""1"",""2372""
","
","","","597.7999999998137","","","10","6145","3464","&#9789;","elianto","#f73b6a7A"," "," ","1","-10","[1452.5999999996275]","1","0","4","","","","","","","",""
"pit-trial","93","796291","0.0-2.0-17.1-4.1","battery-v0.2","","""event"",""trial"",""time""
""fullscreenenter"",""1"",""2372""
","
","
","""event"",""trial"",""time""
""fullscreenenter"",""1"",""2372""
","
","","","-1","","","10","6145","3464","&#9789;","elianto","#f73b6a7A"," ","-1","0","-10","[]","0","0","4","","","","","","","",""
"pit-trial","94","799496","0.0-2.0-17.2-0.2","battery-v0.2","","""event"",""trial"",""time""
""fullscreenenter"",""1"",""2372""
","
","
","""event"",""trial"",""time""
""fullscreenenter"",""1"",""2372""
","
","","","351","","","10","6145","3464","&#9789;","elianto","#f73b6a7A"," "," ","1","0","[1202]","1","0","4","","","","","","","",""
"pit-trial","95","802745","0.0-2.0-17.2-1.2","battery-v0.2","","""event"",""trial"",""time""
""fullscreenenter"",""1"",""2372""
","
","
","""event"",""trial"",""time""
""fullscreenenter"",""1"",""2372""
","
","","","393.30000000074506","","","10","6145","3464","&#9789;","elianto","#f73b6a7A"," "," ","1","0","[1244.6000000005588]","1","0","4","","","","","","","",""
"pit-trial","96","807608","0.0-2.0-17.2-2.2","battery-v0.2","","""event"",""trial"",""time""
""fullscreenenter"",""1"",""2372""
","
","
","""event"",""trial"",""time""
""fullscreenenter"",""1"",""2372""
","
","","","-1","","","10","6145","3464","&#9789;","elianto","#f73b6a7A"," ","-1","0","-10","[]","0","0","4","","","","","","","",""
"pit-trial","97","810905","0.0-2.0-17.2-3.2","battery-v0.2","","""event"",""trial"",""time""
""fullscreenenter"",""1"",""2372""
","
","
","""event"",""trial"",""time""
""fullscreenenter"",""1"",""2372""
","
","","","437.90000000037253","","","10","6145","3464","&#9789;","elianto","#f73b6a7A"," "," ","1","-10","[1292.5]","1","0","4","","","","","","","",""
"pit-trial","98","814233","0.0-2.0-17.2-4.2","battery-v0.2","","""event"",""trial"",""time""
""fullscreenenter"",""1"",""2372""
","
","
","""event"",""trial"",""time""
""fullscreenenter"",""1"",""2372""
","
","","","469.70000000018626","","","10","6145","3464","&#9789;","elianto","#f73b6a7A"," "," ","1","0","[1323.7999999998137]","1","0","4","","","","","","","",""
"pit-trial","99","817529","0.0-2.0-17.3-0.3","battery-v0.2","","""event"",""trial"",""time""
""fullscreenenter"",""1"",""2372""
","
","
","""event"",""trial"",""time""
""fullscreenenter"",""1"",""2372""
","
","","","436.40000000037253","","","10","6145","3464","&#9789;","elianto","#f73b6a7A"," "," ","1","0","[1291.1000000005588]","1","0","4","","","","","","","",""
"pit-trial","100","822394","0.0-2.0-17.3-1.3","battery-v0.2","","""event"",""trial"",""time""
""fullscreenenter"",""1"",""2372""
","
","
","""event"",""trial"",""time""
""fullscreenenter"",""1"",""2372""
","
","","","-1","","","10","6145","3464","&#9789;","elianto","#f73b6a7A"," ","-1","0","-10","[]","0","0","4","","","","","","","",""
"pit-trial","101","825746","0.0-2.0-17.3-2.3","battery-v0.2","","""event"",""trial"",""time""
""fullscreenenter"",""1"",""2372""
","
","
","""event"",""trial"",""time""
""fullscreenenter"",""1"",""2372""
","
","","","481","","","10","6145","3464","&#9789;","elianto","#f73b6a7A"," "," ","1","0","[1339.2999999998137]","1","0","4","","","","","","","",""
"pit-trial","102","829082","0.0-2.0-17.3-3.3","battery-v0.2","","""event"",""trial"",""time""
""fullscreenenter"",""1"",""2372""
","
","
","""event"",""trial"",""time""
""fullscreenenter"",""1"",""2372""
","
","","","476.79999999981374","","","10","6145","3464","&#9789;","elianto","#f73b6a7A"," "," ","1","-10","[1331.5]","1","0","4","","","","","","","",""
"pit-trial","103","832346","0.0-2.0-17.3-4.3","battery-v0.2","","""event"",""trial"",""time""
""fullscreenenter"",""1"",""2372""
","
","
","""event"",""trial"",""time""
""fullscreenenter"",""1"",""2372""
","
","","","404.5","","","10","6145","3464","&#9789;","elianto","#f73b6a7A"," "," ","1","0","[1258.9000000003725]","1","0","4","","","","","","","",""
"call-function","104","832347","0.0-2.0-18.0","battery-v0.2","","""event"",""trial"",""time""
""fullscreenenter"",""1"",""2372""
","
","
","""event"",""trial"",""time""
""fullscreenenter"",""1"",""2372""
","
","","","","","","","","","","","","","","","","","","","","","","","","","","",""
"pit-instructions","105","919846","0.0-2.0-19.0","battery-v0.2","","""event"",""trial"",""time""
""fullscreenenter"",""1"",""2372""
","
","
","""event"",""trial"",""time""
""fullscreenenter"",""1"",""2372""
","
","","[{""page_index"":0,""viewing_time"":7035.200000000186},{""page_index"":1,""viewing_time"":6383.799999999814},{""page_index"":2,""viewing_time"":21032.299999999814},{""page_index"":3,""viewing_time"":10375},{""page_index"":4,""viewing_time"":10471.799999999814},{""page_index"":5,""viewing_time"":9263.100000000559},{""page_index"":6,""viewing_time"":10423.799999999814},{""page_index"":7,""viewing_time"":7480.5999999996275},{""page_index"":8,""viewing_time"":5030.799999999814}]","87496.70000000019","","","","","","","","","","","","","","","","","","","","","","","",""
"pit-comprehension","106","926857","0.0-2.0-20.0-0.0","battery-v0.2","","""event"",""trial"",""time""
""fullscreenenter"",""1"",""2372""
","
","
","""event"",""trial"",""time""
""fullscreenenter"",""1"",""2372""
","
","","","7007.4000000003725","[""SPACE""]","0","10","6145","3464","","","","","","","","","","","","","","","","","","",""
"pit-instructions","107","931175","0.0-2.0-20.0-1.0","battery-v0.2","","""event"",""trial"",""time""
""fullscreenenter"",""1"",""2372""
","
","
","""event"",""trial"",""time""
""fullscreenenter"",""1"",""2372""
","
","","[{""page_index"":0,""viewing_time"":4265.4000000003725}]","4266.100000000559","","","","","","","","","","","","","","","","","","","","","","","",""
"pit-comprehension","108","940591","0.0-2.0-21.0-0.0","battery-v0.2","","""event"",""trial"",""time""
""fullscreenenter"",""1"",""2372""
","
","
","""event"",""trial"",""time""
""fullscreenenter"",""1"",""2372""
","
","","","9408.699999999255","[""10""]","0","10","6145","3464","","","","","","","","","","","","","","","","","","",""
"pit-instructions","109","942607","0.0-2.0-21.0-1.0","battery-v0.2","","""event"",""trial"",""time""
""fullscreenenter"",""1"",""2372""
","
","
","""event"",""trial"",""time""
""fullscreenenter"",""1"",""2372""
","
","","[{""page_index"":0,""viewing_time"":1976.8999999994412}]","1977.0999999996275","","","","","","","","","","","","","","","","","","","","","","","",""
"pit-comprehension","110","952209","0.0-2.0-22.0-0.0","battery-v0.2","","""event"",""trial"",""time""
""fullscreenenter"",""1"",""2372""
","
","
","""event"",""trial"",""time""
""fullscreenenter"",""1"",""2372""
","
","","","9599.099999999627","[""0""]","0","10","6145","3464","","","","","","","","","","","","","","","","","","",""
"pit-instructions","111","954167","0.0-2.0-22.0-1.0","battery-v0.2","","""event"",""trial"",""time""
""fullscreenenter"",""1"",""2372""
","
","
","""event"",""trial"",""time""
""fullscreenenter"",""1"",""2372""
","
","","[{""page_index"":0,""viewing_time"":1909.199999999255}]","1909.3999999994412","","","","","","","","","","","","","","","","","","","","","","","",""
"pit-comprehension","112","964623","0.0-2.0-23.0-0.0","battery-v0.2","","""event"",""trial"",""time""
""fullscreenenter"",""1"",""2372""
","
","
","""event"",""trial"",""time""
""fullscreenenter"",""1"",""2372""
","
","","","10454","[""True""]","0","10","6145","3464","","","","","","","","","","","","","","","","","","",""
"pit-instructions","113","970360","0.0-2.0-23.0-1.0","battery-v0.2","","""event"",""trial"",""time""
""fullscreenenter"",""1"",""2372""
","
","
","""event"",""trial"",""time""
""fullscreenenter"",""1"",""2372""
","
","","[{""page_index"":0,""viewing_time"":5701}]","5701.5","","","","","","","","","","","","","","","","","","","","","","","",""
"pit-comprehension","114","978926","0.0-2.0-24.0-0.0","battery-v0.2","","""event"",""trial"",""time""
""fullscreenenter"",""1"",""2372""
","
","
","""event"",""trial"",""time""
""fullscreenenter"",""1"",""2372""
","
","","","8560.200000000186","[""True""]","0","10","6145","3464","","","","","","","","","","","","","","","","","","",""
"pit-instructions","115","980968","0.0-2.0-24.0-1.0","battery-v0.2","","""event"",""trial"",""time""
""fullscreenenter"",""1"",""2372""
","
","
","""event"",""trial"",""time""
""fullscreenenter"",""1"",""2372""
","
","","[{""page_index"":0,""viewing_time"":1967.3999999994412}]","1968","","","","","","","","","","","","","","","","","","","","","","","",""
"pit-comprehension","116","987878","0.0-2.0-25.0-0.0","battery-v0.2","","""event"",""trial"",""time""
""fullscreenenter"",""1"",""2372""
","
","
","""event"",""trial"",""time""
""fullscreenenter"",""1"",""2372""
","
","","","6905.200000000186","[""True""]","0","10","6145","3464","","","","","","","","","","","","","","","","","","",""
"pit-instructions","117","989761","0.0-2.0-25.0-1.0","battery-v0.2","","""event"",""trial"",""time""
""fullscreenenter"",""1"",""2372""
","
","
","""event"",""trial"",""time""
""fullscreenenter"",""1"",""2372""
","
","","[{""page_index"":0,""viewing_time"":1841.6000000005588}]","1842.2999999998137","","","","","","","","","","","","","","","","","","","","","","","",""
"pit-comprehension","118","996142","0.0-2.0-26.0-0.0","battery-v0.2","","""event"",""trial"",""time""
""fullscreenenter"",""1"",""2372""
","
","
","""event"",""trial"",""time""
""fullscreenenter"",""1"",""2372""
","
","","","6375.9000000003725","[""False""]","0","10","6145","3464","","","","","","","","","","","","","","","","","","",""
"pit-instructions","119","998781","0.0-2.0-26.0-1.0","battery-v0.2","","""event"",""trial"",""time""
""fullscreenenter"",""1"",""2372""
","
","
","""event"",""trial"",""time""
""fullscreenenter"",""1"",""2372""
","
","","[{""page_index"":0,""viewing_time"":2590.7000000001863}]","2591.2000000001863","","","","","","","","","","","","","","","","","","","","","","","",""
"pit-instructions","120","1019504","0.0-3.0","battery-v0.2","","""event"",""trial"",""time""
""fullscreenenter"",""1"",""2372""
","
","
","""event"",""trial"",""time""
""fullscreenenter"",""1"",""2372""
","
","","[{""page_index"":0,""viewing_time"":4340.100000000559},{""page_index"":1,""viewing_time"":6783.799999999814},{""page_index"":2,""viewing_time"":9592.099999999627}]","20716.5","","","","","","","","","","","","","","","","","","","","","","","",""
"pit-trial","121","1023070","0.0-4.0","battery-v0.2","","""event"",""trial"",""time""
""fullscreenenter"",""1"",""2372""
","
","
","""event"",""trial"",""time""
""fullscreenenter"",""1"",""2372""
","
","","","678.2000000001863","","","10","6145","3464","&#9728;","elianto","#f73b6a7A","-1"," ","0","0","[1531.6000000005588]","1","1","","","6145","1","0","4","lose","no-go","1"
"pit-trial","122","1026734","0.0-5.0","battery-v0.2","","""event"",""trial"",""time""
""fullscreenenter"",""1"",""2372""
","
","
","""event"",""trial"",""time""
""fullscreenenter"",""1"",""2372""
","
","","","800.9000000003725","","","10","6145","3464","&#9730;","elianto","#3366ff99"," "," ","1","+10","[1654.7999999998137]","1","1","","","6145","2","1","1","win","go","0"
"pit-trial","123","1030285","0.0-6.0","battery-v0.2","","""event"",""trial"",""time""
""fullscreenenter"",""1"",""2372""
","
","
","""event"",""trial"",""time""
""fullscreenenter"",""1"",""2372""
","
","","","686.7000000001863","","","10","6145","3464","&#9752;","elianto","#f73b6a7A"," "," ","1","0","[1541.4000000003725]","1","1","","","6145","3","3","3","lose","go","0"
"pit-trial","124","1033742","0.0-7.0","battery-v0.2","","""event"",""trial"",""time""
""fullscreenenter"",""1"",""2372""
","
","
","""event"",""trial"",""time""
""fullscreenenter"",""1"",""2372""
","
","","","594.8999999994412","","","10","6145","3464","&#9733;","elianto","#3366ff99","-1"," ","0","+10","[1448.7999999998137]","1","1","","","6145","4","2","2","win","no-go","1"
"pit-trial","125","1037262","0.0-8.0","battery-v0.2","","""event"",""trial"",""time""
""fullscreenenter"",""1"",""2372""
","
","
","""event"",""trial"",""time""
""fullscreenenter"",""1"",""2372""
","
","","","655.6000000005588","","","10","6145","3464","&#9733;","elianto","#3366ff99","-1"," ","0","0","[1509.7999999998137]","1","1","","","6145","5","2","2","win","no-go","0"
"pit-trial","126","1040797","0.0-9.0","battery-v0.2","","""event"",""trial"",""time""
""fullscreenenter"",""1"",""2372""
","
","
","""event"",""trial"",""time""
""fullscreenenter"",""1"",""2372""
","
","","","671.4000000003725","","","10","6145","3464","&#9730;","elianto","#3366ff99"," "," ","1","+10","[1525.699999999255]","1","1","","","6145","6","1","1","win","go","0"
"pit-trial","127","1044366","0.0-10.0","battery-v0.2","","""event"",""trial"",""time""
""fullscreenenter"",""1"",""2372""
","
","
","""event"",""trial"",""time""
""fullscreenenter"",""1"",""2372""
","
","","","703.5","","","10","6145","3464","&#9728;","elianto","#f73b6a7A","-1"," ","0","0","[1559]","1","1","","","6145","7","0","4","lose","no-go","1"
"pit-trial","128","1048000","0.0-11.0","battery-v0.2","","""event"",""trial"",""time""
""fullscreenenter"",""1"",""2372""
","
","
","""event"",""trial"",""time""
""fullscreenenter"",""1"",""2372""
","
","","","763.4000000003725","","","10","6145","3464","&#9752;","elianto","#f73b6a7A"," "," ","1","0","[1622.2999999998137]","1","1","","","6145","8","3","3","lose","go","0"
"pit-trial","129","1051438","0.0-12.0","battery-v0.2","","""event"",""trial"",""time""
""fullscreenenter"",""1"",""2372""
","
","
","""event"",""trial"",""time""
""fullscreenenter"",""1"",""2372""
","
","","","568.8999999994412","","","10","6145","3464","&#9730;","elianto","#3366ff99"," "," ","1","+10","[1426.699999999255]","1","1","","","6145","9","1","1","win","go","0"
"pit-trial","130","1055054","0.0-13.0","battery-v0.2","","""event"",""trial"",""time""
""fullscreenenter"",""1"",""2372""
","
","
","""event"",""trial"",""time""
""fullscreenenter"",""1"",""2372""
","
","","","753.5","","","10","6145","3464","&#9752;","elianto","#f73b6a7A"," "," ","1","0","[1606]","1","1","","","6145","10","3","3","lose","go","0"
"pit-trial","131","1058494","0.0-14.0","battery-v0.2","","""event"",""trial"",""time""
""fullscreenenter"",""1"",""2372""
","
","
","""event"",""trial"",""time""
""fullscreenenter"",""1"",""2372""
","
","","","576","","","10","6145","3464","&#9733;","elianto","#3366ff99","-1"," ","0","0","[1428.7999999998137]","1","1","","","6145","11","2","2","win","no-go","0"
"pit-trial","132","1062000","0.0-15.0","battery-v0.2","","""event"",""trial"",""time""
""fullscreenenter"",""1"",""2372""
","
","
","""event"",""trial"",""time""
""fullscreenenter"",""1"",""2372""
","
","","","640","","","10","6145","3464","&#9728;","elianto","#f73b6a7A","-1"," ","0","-10","[1494.5]","1","1","","","6145","12","0","4","lose","no-go","0"
"pit-trial","133","1065488","0.0-16.0","battery-v0.2","","""event"",""trial"",""time""
""fullscreenenter"",""1"",""2372""
","
","
","""event"",""trial"",""time""
""fullscreenenter"",""1"",""2372""
","
","","","623.9000000003725","","","10","6145","3464","&#9733;","elianto","#3366ff99","-1"," ","0","0","[1476.5]","1","1","","","6145","13","2","2","win","no-go","0"
"pit-trial","134","1069296","0.0-17.0","battery-v0.2","","""event"",""trial"",""time""
""fullscreenenter"",""1"",""2372""
","
","
","""event"",""trial"",""time""
""fullscreenenter"",""1"",""2372""
","
","","","939.6000000005588","","","10","6145","3464","&#9730;","elianto","#3366ff99"," "," ","1","+10","[1796.7999999998137]","1","1","","","6145","14","1","1","win","go","0"
"pit-trial","135","1072927","0.0-18.0","battery-v0.2","","""event"",""trial"",""time""
""fullscreenenter"",""1"",""2372""
","
","
","""event"",""trial"",""time""
""fullscreenenter"",""1"",""2372""
","
","","","765.7999999998137","","","10","6145","3464","&#9752;","elianto","#f73b6a7A"," "," ","1","0","[1620.0999999996275]","1","1","","","6145","15","3","3","lose","go","0"
"pit-trial","136","1077791","0.0-19.0","battery-v0.2","","""event"",""trial"",""time""
""fullscreenenter"",""1"",""2372""
","
","
","""event"",""trial"",""time""
""fullscreenenter"",""1"",""2372""
","
","","","-1","","","10","6145","3464","&#9728;","elianto","#f73b6a7A","-1","-1","1","0","[]","0","1","","","6145","16","0","4","lose","no-go","0"
"pit-trial","137","1082655","0.0-20.0","battery-v0.2","","""event"",""trial"",""time""
""fullscreenenter"",""1"",""2372""
","
","
","""event"",""trial"",""time""
""fullscreenenter"",""1"",""2372""
","
","","","-1","","","10","6145","3464","&#9728;","elianto","#f73b6a7A","-1","-1","1","0","[]","0","1","","","6145","17","0","4","lose","no-go","0"
"pit-trial","138","1086208","0.0-21.0","battery-v0.2","","""event"",""trial"",""time""
""fullscreenenter"",""1"",""2372""
","
","
","""event"",""trial"",""time""
""fullscreenenter"",""1"",""2372""
","
","","","684.6999999992549","","","10","6145","3464","&#9752;","elianto","#f73b6a7A"," "," ","1","0","[1543.7999999998137]","1","1","","","6145","18","3","3","lose","go","0"
"pit-trial","139","1089751","0.0-22.0","battery-v0.2","","""event"",""trial"",""time""
""fullscreenenter"",""1"",""2372""
","
","
","""event"",""trial"",""time""
""fullscreenenter"",""1"",""2372""
","
","","","681.3999999994412","","","10","6145","3464","&#9730;","elianto","#3366ff99"," "," ","1","+10","[1539.0999999996275]","1","1","","","6145","19","1","1","win","go","0"
"pit-trial","140","1093220","0.0-23.0","battery-v0.2","","""event"",""trial"",""time""
""fullscreenenter"",""1"",""2372""
","
","
","""event"",""trial"",""time""
""fullscreenenter"",""1"",""2372""
","
","","","600.2000000001863","","","10","6145","3464","&#9733;","elianto","#3366ff99","-1"," ","0","0","[1453.6000000005588]","1","1","","","6145","20","2","2","win","no-go","0"
"pit-instructions","141","1109111","0.0-24.0","battery-v0.2","","""event"",""trial"",""time""
""fullscreenenter"",""1"",""2372""
","
","
","""event"",""trial"",""time""
""fullscreenenter"",""1"",""2372""
","
","","[{""page_index"":0,""viewing_time"":7001.100000000559},{""page_index"":1,""viewing_time"":8887.799999999814}]","15889.600000000559","","","","","","","","","","","","","","","","","","","","","","","",""
"pit-trial","142","1112776","0.0-25.0","battery-v0.2","","""event"",""trial"",""time""
""fullscreenenter"",""1"",""2372""
","
","
","""event"",""trial"",""time""
""fullscreenenter"",""1"",""2372""
","
","","","799.6000000005588","","","10","6145","3464","h","elianto","#f73b6a7A"," "," ","1","0","[1657.7000000001863]","1","2","","","6145","21","3","3","lose","go","0"
"pit-trial","143","1116263","0.0-26.0","battery-v0.2","","""event"",""trial"",""time""
""fullscreenenter"",""1"",""2372""
","
","
","""event"",""trial"",""time""
""fullscreenenter"",""1"",""2372""
","
","","","630.5","","","10","6145","3464","m","elianto","#f73b6a7A","-1"," ","0","-10","[1482.5999999996275]","1","2","","","6145","22","0","4","lose","no-go","0"
"pit-trial","144","1121127","0.0-27.0","battery-v0.2","","""event"",""trial"",""time""
""fullscreenenter"",""1"",""2372""
","
","
","""event"",""trial"",""time""
""fullscreenenter"",""1"",""2372""
","
","","","-1","","","10","6145","3464","y","elianto","#f73b6a7A","-1","-1","1","0","[]","0","2","","","6145","23","2","4","lose","no-go","0"
"pit-trial","145","1124624","0.0-28.0","battery-v0.2","","""event"",""trial"",""time""
""fullscreenenter"",""1"",""2372""
","
","
","""event"",""trial"",""time""
""fullscreenenter"",""1"",""2372""
","
","","","634.7000000001863","","","10","6145","3464","r","elianto","#3366ff99"," "," ","1","0","[1487.4000000003725]","1","2","","","6145","24","1","1","win","go","1"
"pit-trial","146","1129489","0.0-29.0","battery-v0.2","","""event"",""trial"",""time""
""fullscreenenter"",""1"",""2372""
","
","
","""event"",""trial"",""time""
""fullscreenenter"",""1"",""2372""
","
","","","-1","","","10","6145","3464","r","elianto","#3366ff99"," ","-1","0","+10","[]","0","2","","","6145","25","1","1","win","go","1"
"pit-trial","147","1133065","0.0-30.0","battery-v0.2","","""event"",""trial"",""time""
""fullscreenenter"",""1"",""2372""
","
","
","""event"",""trial"",""time""
""fullscreenenter"",""1"",""2372""
","
","","","700.3999999994412","","","10","6145","3464","m","elianto","#f73b6a7A","-1"," ","0","-10","[1571.2000000001863]","1","2","","","6145","26","0","4","lose","no-go","0"
"pit-trial","148","1137929","0.0-31.0","battery-v0.2","","""event"",""trial"",""time""
""fullscreenenter"",""1"",""2372""
","
","
","""event"",""trial"",""time""
""fullscreenenter"",""1"",""2372""
","
","","","-1","","","10","6145","3464","y","elianto","#f73b6a7A","-1","-1","1","0","[]","0","2","","","6145","27","2","4","lose","no-go","0"
"pit-trial","149","1142785","0.0-32.0","battery-v0.2","","""event"",""trial"",""time""
""fullscreenenter"",""1"",""2372""
","
","
","""event"",""trial"",""time""
""fullscreenenter"",""1"",""2372""
","
","","","-1","","","10","6145","3464","h","elianto","#f73b6a7A"," ","-1","0","-10","[]","0","2","","","6145","28","3","3","lose","go","0"
"pit-trial","150","1147649","0.0-33.0","battery-v0.2","","""event"",""trial"",""time""
""fullscreenenter"",""1"",""2372""
","
","
","""event"",""trial"",""time""
""fullscreenenter"",""1"",""2372""
","
","","","-1","","","10","6145","3464","y","elianto","#f73b6a7A","-1","-1","1","0","[]","0","2","","","6145","29","2","4","lose","no-go","0"
"pit-trial","151","1151261","0.0-34.0","battery-v0.2","","""event"",""trial"",""time""
""fullscreenenter"",""1"",""2372""
","
","
","""event"",""trial"",""time""
""fullscreenenter"",""1"",""2372""
","
","","","753.7000000001863","","","10","6145","3464","m","elianto","#f73b6a7A","-1"," ","0","0","[1606.8999999994412]","1","2","","","6145","30","0","4","lose","no-go","1"
"pit-trial","152","1155498","0.0-35.0","battery-v0.2","","""event"",""trial"",""time""
""fullscreenenter"",""1"",""2372""
","
","
","""event"",""trial"",""time""
""fullscreenenter"",""1"",""2372""
","
","","","1378","","","10","6145","3464","h","elianto","#f73b6a7A"," "," ","1","0","[2232.2999999998137]","1","2","","","6145","31","3","3","lose","go","0"
"pit-trial","153","1159001","0.0-36.0","battery-v0.2","","""event"",""trial"",""time""
""fullscreenenter"",""1"",""2372""
","
","
","""event"",""trial"",""time""
""fullscreenenter"",""1"",""2372""
","
","","","644.5999999996275","","","10","6145","3464","r","elianto","#3366ff99"," "," ","1","+10","[1498.0999999996275]","1","2","","","6145","32","1","1","win","go","0"
"pit-trial","154","1162473","0.0-37.0","battery-v0.2","","""event"",""trial"",""time""
""fullscreenenter"",""1"",""2372""
","
","
","""event"",""trial"",""time""
""fullscreenenter"",""1"",""2372""
","
","","","611.5999999996275","","","10","6145","3464","r","elianto","#3366ff99"," "," ","1","+10","[1466.7999999998137]","1","2","","","6145","33","1","1","win","go","0"
"pit-trial","155","1167337","0.0-38.0","battery-v0.2","","""event"",""trial"",""time""
""fullscreenenter"",""1"",""2372""
","
","
","""event"",""trial"",""time""
""fullscreenenter"",""1"",""2372""
","
","","","-1","","","10","6145","3464","h","elianto","#f73b6a7A"," ","-1","0","-10","[]","0","2","","","6145","34","3","3","lose","go","0"
"pit-trial","156","1171257","0.0-39.0","battery-v0.2","","""event"",""trial"",""time""
""fullscreenenter"",""1"",""2372""
","
","
","""event"",""trial"",""time""
""fullscreenenter"",""1"",""2372""
","
","","","1062.2999999998137","","","10","6145","3464","y","elianto","#f73b6a7A","-1"," ","0","-10","[1916.0999999996275]","1","2","","","6145","35","2","4","lose","no-go","0"
"pit-trial","157","1176121","0.0-40.0","battery-v0.2","","""event"",""trial"",""time""
""fullscreenenter"",""1"",""2372""
","
","
","""event"",""trial"",""time""
""fullscreenenter"",""1"",""2372""
","
","","","-1","","","10","6145","3464","m","elianto","#f73b6a7A","-1","-1","1","0","[]","0","2","","","6145","36","0","4","lose","no-go","0"
"pit-trial","158","1179625","0.0-41.0","battery-v0.2","","""event"",""trial"",""time""
""fullscreenenter"",""1"",""2372""
","
","
","""event"",""trial"",""time""
""fullscreenenter"",""1"",""2372""
","
","","","648.9000000003725","","","10","6145","3464","r","elianto","#3366ff99"," "," ","1","0","[1499.5999999996275]","1","2","","","6145","37","1","1","win","go","1"
"pit-trial","159","1183467","0.0-42.0","battery-v0.2","","""event"",""trial"",""time""
""fullscreenenter"",""1"",""2372""
","
","
","""event"",""trial"",""time""
""fullscreenenter"",""1"",""2372""
","
","","","983.7999999998137","","","10","6145","3464","h","elianto","#f73b6a7A"," "," ","1","-10","[1835.800000000745]","1","2","","","6145","38","3","3","lose","go","1"
"pit-trial","160","1187162","0.0-43.0","battery-v0.2","","""event"",""trial"",""time""
""fullscreenenter"",""1"",""2372""
","
","
","""event"",""trial"",""time""
""fullscreenenter"",""1"",""2372""
","
","","","836.7999999998137","","","10","6145","3464","y","elianto","#f73b6a7A","-1"," ","0","-10","[1689.5]","1","2","","","6145","39","2","4","lose","no-go","0"
"pit-trial","161","1190802","0.0-44.0","battery-v0.2","","""event"",""trial"",""time""
""fullscreenenter"",""1"",""2372""
","
","
","""event"",""trial"",""time""
""fullscreenenter"",""1"",""2372""
","
","","","776.1999999992549","","","10","6145","3464","m","elianto","#f73b6a7A","-1"," ","0","-10","[1630.5]","1","2","","","6145","40","0","4","lose","no-go","0"
"pit-trial","162","1194362","0.0-45.0","battery-v0.2","","""event"",""trial"",""time""
""fullscreenenter"",""1"",""2372""
","
","
","""event"",""trial"",""time""
""fullscreenenter"",""1"",""2372""
","
","","","701.3999999994412","","","10","6145","3464","r","elianto","#3366ff99"," "," ","1","0","[1554.0999999996275]","1","2","","","6145","41","1","1","win","go","1"
"pit-trial","163","1199226","0.0-46.0","battery-v0.2","","""event"",""trial"",""time""
""fullscreenenter"",""1"",""2372""
","
","
","""event"",""trial"",""time""
""fullscreenenter"",""1"",""2372""
","
","","","-1","","","10","6145","3464","h","elianto","#f73b6a7A"," ","-1","0","-10","[]","0","2","","","6145","42","3","3","lose","go","0"
"pit-trial","164","1204090","0.0-47.0","battery-v0.2","","""event"",""trial"",""time""
""fullscreenenter"",""1"",""2372""
","
","
","""event"",""trial"",""time""
""fullscreenenter"",""1"",""2372""
","
","","","-1","","","10","6145","3464","y","elianto","#f73b6a7A","-1","-1","1","0","[]","0","2","","","6145","43","2","4","lose","no-go","0"
"pit-trial","165","1208954","0.0-48.0","battery-v0.2","","""event"",""trial"",""time""
""fullscreenenter"",""1"",""2372""
","
","
","""event"",""trial"",""time""
""fullscreenenter"",""1"",""2372""
","
","","","-1","","","10","6145","3464","m","elianto","#f73b6a7A","-1","-1","1","-10","[]","0","2","","","6145","44","0","4","lose","no-go","1"
"pit-trial","166","1212668","0.0-49.0","battery-v0.2","","""event"",""trial"",""time""
""fullscreenenter"",""1"",""2372""
","
","
","""event"",""trial"",""time""
""fullscreenenter"",""1"",""2372""
","
","","","854.5","","","10","6145","3464","m","elianto","#f73b6a7A","-1"," ","0","-10","[1707.5999999996275]","1","2","","","6145","45","0","4","lose","no-go","0"
"pit-trial","167","1216186","0.0-50.0","battery-v0.2","","""event"",""trial"",""time""
""fullscreenenter"",""1"",""2372""
","
","
","""event"",""trial"",""time""
""fullscreenenter"",""1"",""2372""
","
","","","654","","","10","6145","3464","z","elianto","#3366ff99","-1"," ","0","0","[1509.5999999996275]","1","2","","","6145","46","4","2","win","no-go","0"
"pit-trial","168","1221049","0.0-51.0","battery-v0.2","","""event"",""trial"",""time""
""fullscreenenter"",""1"",""2372""
","
","
","""event"",""trial"",""time""
""fullscreenenter"",""1"",""2372""
","
","","","-1","","","10","6145","3464","y","elianto","#f73b6a7A","-1","-1","1","0","[]","0","2","","","6145","47","2","4","lose","no-go","0"
"pit-trial","169","1224649","0.0-52.0","battery-v0.2","","""event"",""trial"",""time""
""fullscreenenter"",""1"",""2372""
","
","
","""event"",""trial"",""time""
""fullscreenenter"",""1"",""2372""
","
","","","745.7999999998137","","","10","6145","3464","h","elianto","#f73b6a7A"," "," ","1","0","[1595.7999999998137]","1","2","","","6145","48","3","3","lose","go","0"
"pit-trial","170","1228242","0.0-53.0","battery-v0.2","","""event"",""trial"",""time""
""fullscreenenter"",""1"",""2372""
","
","
","""event"",""trial"",""time""
""fullscreenenter"",""1"",""2372""
","
","","","724.6000000005588","","","10","6145","3464","r","elianto","#3366ff99"," "," ","1","+10","[1579.2999999998137]","1","2","","","6145","49","1","1","win","go","0"
"pit-trial","171","1231818","0.0-54.0","battery-v0.2","","""event"",""trial"",""time""
""fullscreenenter"",""1"",""2372""
","
","
","""event"",""trial"",""time""
""fullscreenenter"",""1"",""2372""
","
","","","716.2999999998137","","","10","6145","3464","z","elianto","#3366ff99","-1"," ","0","0","[1570.7999999998137]","1","2","","","6145","50","4","2","win","no-go","0"
"pit-trial","172","1236683","0.0-55.0","battery-v0.2","","""event"",""trial"",""time""
""fullscreenenter"",""1"",""2372""
","
","
","""event"",""trial"",""time""
""fullscreenenter"",""1"",""2372""
","
","","","-1","","","10","6145","3464","m","elianto","#f73b6a7A","-1","-1","1","0","[]","0","2","","","6145","51","0","4","lose","no-go","0"
"pit-trial","173","1240250","0.0-56.0","battery-v0.2","","""event"",""trial"",""time""
""fullscreenenter"",""1"",""2372""
","
","
","""event"",""trial"",""time""
""fullscreenenter"",""1"",""2372""
","
","","","708.6000000005588","","","10","6145","3464","h","elianto","#f73b6a7A"," "," ","1","0","[1561.6000000005588]","1","2","","","6145","52","3","3","lose","go","0"
"pit-trial","174","1245116","0.0-57.0","battery-v0.2","","""event"",""trial"",""time""
""fullscreenenter"",""1"",""2372""
","
","
","""event"",""trial"",""time""
""fullscreenenter"",""1"",""2372""
","
","","","-1","","","10","6145","3464","y","elianto","#f73b6a7A","-1","-1","1","0","[]","0","2","","","6145","53","2","4","lose","no-go","0"
"pit-trial","175","1248652","0.0-58.0","battery-v0.2","","""event"",""trial"",""time""
""fullscreenenter"",""1"",""2372""
","
","
","""event"",""trial"",""time""
""fullscreenenter"",""1"",""2372""
","
","","","675.7999999998137","","","10","6145","3464","z","elianto","#3366ff99","-1"," ","0","0","[1529.2999999998137]","1","2","","","6145","54","4","2","win","no-go","0"
"pit-trial","176","1253516","0.0-59.0","battery-v0.2","","""event"",""trial"",""time""
""fullscreenenter"",""1"",""2372""
","
","
","""event"",""trial"",""time""
""fullscreenenter"",""1"",""2372""
","
","","","-1","","","10","6145","3464","m","elianto","#f73b6a7A","-1","-1","1","0","[]","0","2","","","6145","55","0","4","lose","no-go","0"
"pit-trial","177","1257115","0.0-60.0","battery-v0.2","","""event"",""trial"",""time""
""fullscreenenter"",""1"",""2372""
","
","
","""event"",""trial"",""time""
""fullscreenenter"",""1"",""2372""
","
","","","743","","","10","6145","3464","r","elianto","#3366ff99"," "," ","1","+10","[1593.4000000003725]","1","2","","","6145","56","1","1","win","go","0"
"pit-trial","178","1260667","0.0-61.0","battery-v0.2","","""event"",""trial"",""time""
""fullscreenenter"",""1"",""2372""
","
","
","""event"",""trial"",""time""
""fullscreenenter"",""1"",""2372""
","
","","","693.5","","","10","6145","3464","z","elianto","#3366ff99","-1"," ","0","+10","[1548.0999999996275]","1","2","","","6145","57","4","2","win","no-go","1"
"pit-trial","179","1265531","0.0-62.0","battery-v0.2","","""event"",""trial"",""time""
""fullscreenenter"",""1"",""2372""
","
","
","""event"",""trial"",""time""
""fullscreenenter"",""1"",""2372""
","
","","","-1","","","10","6145","3464","m","elianto","#f73b6a7A","-1","-1","1","-10","[]","0","2","","","6145","58","0","4","lose","no-go","1"
"pit-trial","180","1270395","0.0-63.0","battery-v0.2","","""event"",""trial"",""time""
""fullscreenenter"",""1"",""2372""
","
","
","""event"",""trial"",""time""
""fullscreenenter"",""1"",""2372""
","
","","","-1","","","10","6145","3464","h","elianto","#f73b6a7A"," ","-1","0","-10","[]","0","2","","","6145","59","3","3","lose","go","0"
"pit-trial","181","1273931","0.0-64.0","battery-v0.2","","""event"",""trial"",""time""
""fullscreenenter"",""1"",""2372""
","
","
","""event"",""trial"",""time""
""fullscreenenter"",""1"",""2372""
","
","","","676.2000000001863","","","10","6145","3464","r","elianto","#3366ff99"," "," ","1","0","[1530.7999999998137]","1","2","","","6145","60","1","1","win","go","1"
"pit-trial","182","1277596","0.0-65.0","battery-v0.2","","""event"",""trial"",""time""
""fullscreenenter"",""1"",""2372""
","
","
","""event"",""trial"",""time""
""fullscreenenter"",""1"",""2372""
","
","","","801.6999999992549","","","10","6145","3464","h","elianto","#f73b6a7A"," "," ","1","0","[1656.5999999996275]","1","2","","","6145","61","3","3","lose","go","0"
"pit-trial","183","1281132","0.0-66.0","battery-v0.2","","""event"",""trial"",""time""
""fullscreenenter"",""1"",""2372""
","
","
","""event"",""trial"",""time""
""fullscreenenter"",""1"",""2372""
","
","","","674.7999999998137","","","10","6145","3464","z","elianto","#3366ff99","-1"," ","0","+10","[1527.7000000001863]","1","2","","","6145","62","4","2","win","no-go","1"
"pit-trial","184","1284652","0.0-67.0","battery-v0.2","","""event"",""trial"",""time""
""fullscreenenter"",""1"",""2372""
","
","
","""event"",""trial"",""time""
""fullscreenenter"",""1"",""2372""
","
","","","660","","","10","6145","3464","r","elianto","#3366ff99"," "," ","1","+10","[1512.800000000745]","1","2","","","6145","63","1","1","win","go","0"
"pit-trial","185","1288511","0.0-68.0","battery-v0.2","","""event"",""trial"",""time""
""fullscreenenter"",""1"",""2372""
","
","
","""event"",""trial"",""time""
""fullscreenenter"",""1"",""2372""
","
","","","994.7999999998137","","","10","6145","3464","y","elianto","#f73b6a7A","-1"," ","0","0","[1847.5]","1","2","","","6145","64","2","4","lose","no-go","1"
"pit-trial","186","1292044","0.0-69.0","battery-v0.2","","""event"",""trial"",""time""
""fullscreenenter"",""1"",""2372""
","
","
","""event"",""trial"",""time""
""fullscreenenter"",""1"",""2372""
","
","","","673.3000000007451","","","10","6145","3464","z","elianto","#3366ff99","-1"," ","0","+10","[1524]","1","2","","","6145","65","4","2","win","no-go","1"
"pit-trial","187","1295563","0.0-70.0","battery-v0.2","","""event"",""trial"",""time""
""fullscreenenter"",""1"",""2372""
","
","
","""event"",""trial"",""time""
""fullscreenenter"",""1"",""2372""
","
","","","659.7999999998137","","","10","6145","3464","r","elianto","#3366ff99"," "," ","1","+10","[1512.7000000001863]","1","2","","","6145","66","1","1","win","go","0"
"pit-trial","188","1299243","0.0-71.0","battery-v0.2","","""event"",""trial"",""time""
""fullscreenenter"",""1"",""2372""
","
","
","""event"",""trial"",""time""
""fullscreenenter"",""1"",""2372""
","
","","","818.7000000001863","","","10","6145","3464","h","elianto","#f73b6a7A"," "," ","1","0","[1671.9000000003725]","1","2","","","6145","67","3","3","lose","go","0"
"pit-trial","189","1302923","0.0-72.0","battery-v0.2","","""event"",""trial"",""time""
""fullscreenenter"",""1"",""2372""
","
","
","""event"",""trial"",""time""
""fullscreenenter"",""1"",""2372""
","
","","","821.6999999992549","","","10","6145","3464","y","elianto","#f73b6a7A","-1"," ","0","-10","[1674.5]","1","2","","","6145","68","2","4","lose","no-go","0"
"pit-trial","190","1306493","0.0-73.0","battery-v0.2","","""event"",""trial"",""time""
""fullscreenenter"",""1"",""2372""
","
","
","""event"",""trial"",""time""
""fullscreenenter"",""1"",""2372""
","
","","","702.3999999994412","","","10","6145","3464","c","elianto","#3366ff99"," "," ","1","+10","[1561.3999999994412]","1","2","","","6145","69","5","1","win","go","0"
"pit-trial","191","1310012","0.0-74.0","battery-v0.2","","""event"",""trial"",""time""
""fullscreenenter"",""1"",""2372""
","
","
","""event"",""trial"",""time""
""fullscreenenter"",""1"",""2372""
","
","","","658.9000000003725","","","10","6145","3464","r","elianto","#3366ff99"," "," ","1","+10","[1511.7000000001863]","1","2","","","6145","70","1","1","win","go","0"
"pit-trial","192","1313548","0.0-75.0","battery-v0.2","","""event"",""trial"",""time""
""fullscreenenter"",""1"",""2372""
","
","
","""event"",""trial"",""time""
""fullscreenenter"",""1"",""2372""
","
","","","675.5","","","10","6145","3464","z","elianto","#3366ff99","-1"," ","0","0","[1527.9000000003725]","1","2","","","6145","71","4","2","win","no-go","0"
"pit-trial","193","1317580","0.0-76.0","battery-v0.2","","""event"",""trial"",""time""
""fullscreenenter"",""1"",""2372""
","
","
","""event"",""trial"",""time""
""fullscreenenter"",""1"",""2372""
","
","","","1172.2000000001863","","","10","6145","3464","h","elianto","#f73b6a7A"," "," ","1","0","[2024.800000000745]","1","2","","","6145","72","3","3","lose","go","0"
"pit-trial","194","1321228","0.0-77.0","battery-v0.2","","""event"",""trial"",""time""
""fullscreenenter"",""1"",""2372""
","
","
","""event"",""trial"",""time""
""fullscreenenter"",""1"",""2372""
","
","","","788","","","10","6145","3464","c","elianto","#3366ff99"," "," ","1","0","[1641]","1","2","","","6145","73","5","1","win","go","1"
"pit-trial","195","1324861","0.0-78.0","battery-v0.2","","""event"",""trial"",""time""
""fullscreenenter"",""1"",""2372""
","
","
","""event"",""trial"",""time""
""fullscreenenter"",""1"",""2372""
","
","","","769.8000000007451","","","10","6145","3464","z","elianto","#3366ff99","-1"," ","0","0","[1624.5]","1","2","","","6145","74","4","2","win","no-go","0"
"pit-trial","196","1328525","0.0-79.0","battery-v0.2","","""event"",""trial"",""time""
""fullscreenenter"",""1"",""2372""
","
","
","""event"",""trial"",""time""
""fullscreenenter"",""1"",""2372""
","
","","","803.7999999998137","","","10","6145","3464","h","elianto","#f73b6a7A"," "," ","1","0","[1658.7999999998137]","1","2","","","6145","75","3","3","lose","go","0"
"pit-trial","197","1332157","0.0-80.0","battery-v0.2","","""event"",""trial"",""time""
""fullscreenenter"",""1"",""2372""
","
","
","""event"",""trial"",""time""
""fullscreenenter"",""1"",""2372""
","
","","","770.1000000005588","","","10","6145","3464","r","elianto","#3366ff99"," "," ","1","+10","[1622.9000000003725]","1","2","","","6145","76","1","1","win","go","0"
"pit-trial","198","1336060","0.0-81.0","battery-v0.2","","""event"",""trial"",""time""
""fullscreenenter"",""1"",""2372""
","
","
","""event"",""trial"",""time""
""fullscreenenter"",""1"",""2372""
","
","","","1039.3999999994412","","","10","6145","3464","b","elianto","#f73b6a7A","-1"," ","0","-10","[1894]","1","2","","","6145","77","6","4","lose","no-go","0"
"pit-trial","199","1339949","0.0-82.0","battery-v0.2","","""event"",""trial"",""time""
""fullscreenenter"",""1"",""2372""
","
","
","""event"",""trial"",""time""
""fullscreenenter"",""1"",""2372""
","
","","","1025.0999999996275","","","10","6145","3464","h","elianto","#f73b6a7A"," "," ","1","0","[1881.199999999255]","1","2","","","6145","78","3","3","lose","go","0"
"pit-trial","200","1343469","0.0-83.0","battery-v0.2","","""event"",""trial"",""time""
""fullscreenenter"",""1"",""2372""
","
","
","""event"",""trial"",""time""
""fullscreenenter"",""1"",""2372""
","
","","","655.5","","","10","6145","3464","c","elianto","#3366ff99"," "," ","1","+10","[1511.0999999996275]","1","2","","","6145","79","5","1","win","go","0"
"pit-trial","201","1347037","0.0-84.0","battery-v0.2","","""event"",""trial"",""time""
""fullscreenenter"",""1"",""2372""
","
","
","""event"",""trial"",""time""
""fullscreenenter"",""1"",""2372""
","
","","","705.2999999998137","","","10","6145","3464","z","elianto","#3366ff99","-1"," ","0","0","[1558.2000000001863]","1","2","","","6145","80","4","2","win","no-go","0"
"pit-trial","202","1350637","0.0-85.0","battery-v0.2","","""event"",""trial"",""time""
""fullscreenenter"",""1"",""2372""
","
","
","""event"",""trial"",""time""
""fullscreenenter"",""1"",""2372""
","
","","","735.0999999996275","","","10","6145","3464","c","elianto","#3366ff99"," "," ","1","+10","[1591]","1","2","","","6145","81","5","1","win","go","0"
"pit-trial","203","1355500","0.0-86.0","battery-v0.2","","""event"",""trial"",""time""
""fullscreenenter"",""1"",""2372""
","
","
","""event"",""trial"",""time""
""fullscreenenter"",""1"",""2372""
","
","","","-1","","","10","6145","3464","t","elianto","#f73b6a7A"," ","-1","0","-10","[]","0","2","","","6145","82","7","3","lose","go","0"
"pit-trial","204","1359069","0.0-87.0","battery-v0.2","","""event"",""trial"",""time""
""fullscreenenter"",""1"",""2372""
","
","
","""event"",""trial"",""time""
""fullscreenenter"",""1"",""2372""
","
","","","710.4000000003725","","","10","6145","3464","b","elianto","#f73b6a7A","-1"," ","0","-10","[1561.1000000005588]","1","2","","","6145","83","6","4","lose","no-go","0"
"pit-trial","205","1362620","0.0-88.0","battery-v0.2","","""event"",""trial"",""time""
""fullscreenenter"",""1"",""2372""
","
","
","""event"",""trial"",""time""
""fullscreenenter"",""1"",""2372""
","
","","","691.5","","","10","6145","3464","z","elianto","#3366ff99","-1"," ","0","0","[1543.5999999996275]","1","2","","","6145","84","4","2","win","no-go","0"
"pit-trial","206","1366364","0.0-89.0","battery-v0.2","","""event"",""trial"",""time""
""fullscreenenter"",""1"",""2372""
","
","
","""event"",""trial"",""time""
""fullscreenenter"",""1"",""2372""
","
","","","881.1999999992549","","","10","6145","3464","t","elianto","#f73b6a7A"," "," ","1","0","[1734.199999999255]","1","2","","","6145","85","7","3","lose","go","0"
"pit-trial","207","1369982","0.0-90.0","battery-v0.2","","""event"",""trial"",""time""
""fullscreenenter"",""1"",""2372""
","
","
","""event"",""trial"",""time""
""fullscreenenter"",""1"",""2372""
","
","","","755.8000000007451","","","10","6145","3464","z","elianto","#3366ff99","-1"," ","0","0","[1608.8999999994412]","1","2","","","6145","86","4","2","win","no-go","0"
"pit-trial","208","1373558","0.0-91.0","battery-v0.2","","""event"",""trial"",""time""
""fullscreenenter"",""1"",""2372""
","
","
","""event"",""trial"",""time""
""fullscreenenter"",""1"",""2372""
","
","","","710.1000000005588","","","10","6145","3464","c","elianto","#3366ff99"," "," ","1","+10","[1563]","1","2","","","6145","87","5","1","win","go","0"
"pit-trial","209","1377486","0.0-92.0","battery-v0.2","","""event"",""trial"",""time""
""fullscreenenter"",""1"",""2372""
","
","
","""event"",""trial"",""time""
""fullscreenenter"",""1"",""2372""
","
","","","1065.2000000001863","","","10","6145","3464","b","elianto","#f73b6a7A","-1"," ","0","-10","[1918.2999999998137]","1","2","","","6145","88","6","4","lose","no-go","0"
"pit-trial","210","1381150","0.0-93.0","battery-v0.2","","""event"",""trial"",""time""
""fullscreenenter"",""1"",""2372""
","
","
","""event"",""trial"",""time""
""fullscreenenter"",""1"",""2372""
","
","","","800.1000000005588","","","10","6145","3464","t","elianto","#f73b6a7A"," "," ","1","0","[1656.4000000003725]","1","2","","","6145","89","7","3","lose","go","0"
"pit-trial","211","1384734","0.0-94.0","battery-v0.2","","""event"",""trial"",""time""
""fullscreenenter"",""1"",""2372""
","
","
","""event"",""trial"",""time""
""fullscreenenter"",""1"",""2372""
","
","","","722.5","","","10","6145","3464","c","elianto","#3366ff99"," "," ","1","+10","[1576.8999999994412]","1","2","","","6145","90","5","1","win","go","0"
"pit-trial","212","1389598","0.0-95.0","battery-v0.2","","""event"",""trial"",""time""
""fullscreenenter"",""1"",""2372""
","
","
","""event"",""trial"",""time""
""fullscreenenter"",""1"",""2372""
","
","","","-1","","","10","6145","3464","z","elianto","#3366ff99","-1","-1","1","+10","[]","0","2","","","6145","91","4","2","win","no-go","0"
"pit-trial","213","1393390","0.0-96.0","battery-v0.2","","""event"",""trial"",""time""
""fullscreenenter"",""1"",""2372""
","
","
","""event"",""trial"",""time""
""fullscreenenter"",""1"",""2372""
","
","","","928.2000000001863","","","10","6145","3464","b","elianto","#f73b6a7A","-1"," ","0","0","[1781.1000000005588]","1","2","","","6145","92","6","4","lose","no-go","1"
"pit-trial","214","1397342","0.0-97.0","battery-v0.2","","""event"",""trial"",""time""
""fullscreenenter"",""1"",""2372""
","
","
","""event"",""trial"",""time""
""fullscreenenter"",""1"",""2372""
","
","","","1089.9000000003725","","","10","6145","3464","c","elianto","#3366ff99"," "," ","1","0","[1942.9000000003725]","1","2","","","6145","93","5","1","win","go","1"
"pit-trial","215","1401006","0.0-98.0","battery-v0.2","","""event"",""trial"",""time""
""fullscreenenter"",""1"",""2372""
","
","
","""event"",""trial"",""time""
""fullscreenenter"",""1"",""2372""
","
","","","801.7000000001863","","","10","6145","3464","f","elianto","#3366ff99","-1"," ","0","0","[1654.5]","1","2","","","6145","94","8","2","win","no-go","0"
"pit-trial","216","1404878","0.0-99.0","battery-v0.2","","""event"",""trial"",""time""
""fullscreenenter"",""1"",""2372""
","
","
","""event"",""trial"",""time""
""fullscreenenter"",""1"",""2372""
","
","","","1004.2999999998137","","","10","6145","3464","b","elianto","#f73b6a7A","-1"," ","0","-10","[1860.7000000001863]","1","2","","","6145","95","6","4","lose","no-go","0"
"pit-trial","217","1408461","0.0-100.0","battery-v0.2","","""event"",""trial"",""time""
""fullscreenenter"",""1"",""2372""
","
","
","""event"",""trial"",""time""
""fullscreenenter"",""1"",""2372""
","
","","","719.2000000001863","","","10","6145","3464","t","elianto","#f73b6a7A"," "," ","1","0","[1575.2000000001863]","1","2","","","6145","96","7","3","lose","go","0"
"pit-trial","218","1412221","0.0-101.0","battery-v0.2","","""event"",""trial"",""time""
""fullscreenenter"",""1"",""2372""
","
","
","""event"",""trial"",""time""
""fullscreenenter"",""1"",""2372""
","
","","","896.7999999998137","","","10","6145","3464","t","elianto","#f73b6a7A"," "," ","1","0","[1751.7000000001863]","1","2","","","6145","97","7","3","lose","go","0"
"pit-trial","219","1415822","0.0-102.0","battery-v0.2","","""event"",""trial"",""time""
""fullscreenenter"",""1"",""2372""
","
","
","""event"",""trial"",""time""
""fullscreenenter"",""1"",""2372""
","
","","","738.5999999996275","","","10","6145","3464","f","elianto","#3366ff99","-1"," ","0","0","[1592.2000000001863]","1","2","","","6145","98","8","2","win","no-go","0"
"pit-trial","220","1419662","0.0-103.0","battery-v0.2","","""event"",""trial"",""time""
""fullscreenenter"",""1"",""2372""
","
","
","""event"",""trial"",""time""
""fullscreenenter"",""1"",""2372""
","
","","","981.7999999998137","","","10","6145","3464","b","elianto","#f73b6a7A","-1"," ","0","-10","[1832.3999999994412]","1","2","","","6145","99","6","4","lose","no-go","0"
"pit-trial","221","1423278","0.0-104.0","battery-v0.2","","""event"",""trial"",""time""
""fullscreenenter"",""1"",""2372""
","
","
","""event"",""trial"",""time""
""fullscreenenter"",""1"",""2372""
","
","","","754.5","","","10","6145","3464","c","elianto","#3366ff99"," "," ","1","+10","[1606.2000000001863]","1","2","","","6145","100","5","1","win","go","0"
"pit-trial","222","1426832","0.0-105.0","battery-v0.2","","""event"",""trial"",""time""
""fullscreenenter"",""1"",""2372""
","
","
","""event"",""trial"",""time""
""fullscreenenter"",""1"",""2372""
","
","","","684.7000000001863","","","10","6145","3464","c","elianto","#3366ff99"," "," ","1","+10","[1541.5]","1","2","","","6145","101","5","1","win","go","0"
"pit-trial","223","1430448","0.0-106.0","battery-v0.2","","""event"",""trial"",""time""
""fullscreenenter"",""1"",""2372""
","
","
","""event"",""trial"",""time""
""fullscreenenter"",""1"",""2372""
","
","","","748.7000000001863","","","10","6145","3464","n","elianto","#3366ff99","-1"," ","0","0","[1606.3999999994412]","1","2","","","6145","102","9","2","win","no-go","0"
"pit-trial","224","1434272","0.0-107.0","battery-v0.2","","""event"",""trial"",""time""
""fullscreenenter"",""1"",""2372""
","
","
","""event"",""trial"",""time""
""fullscreenenter"",""1"",""2372""
","
","","","960.0999999996275","","","10","6145","3464","b","elianto","#f73b6a7A","-1"," ","0","-10","[1812.7000000001863]","1","2","","","6145","103","6","4","lose","no-go","0"
"pit-trial","225","1437936","0.0-108.0","battery-v0.2","","""event"",""trial"",""time""
""fullscreenenter"",""1"",""2372""
","
","
","""event"",""trial"",""time""
""fullscreenenter"",""1"",""2372""
","
","","","799.6000000005588","","","10","6145","3464","f","elianto","#3366ff99","-1"," ","0","+10","[1651.7999999998137]","1","2","","","6145","104","8","2","win","no-go","1"
"pit-trial","226","1441551","0.0-109.0","battery-v0.2","","""event"",""trial"",""time""
""fullscreenenter"",""1"",""2372""
","
","
","""event"",""trial"",""time""
""fullscreenenter"",""1"",""2372""
","
","","","753.2000000001863","","","10","6145","3464","c","elianto","#3366ff99"," "," ","1","0","[1605.699999999255]","1","2","","","6145","105","5","1","win","go","1"
"pit-trial","227","1445231","0.0-110.0","battery-v0.2","","""event"",""trial"",""time""
""fullscreenenter"",""1"",""2372""
","
","
","""event"",""trial"",""time""
""fullscreenenter"",""1"",""2372""
","
","","","815.5999999996275","","","10","6145","3464","n","elianto","#3366ff99","-1"," ","0","0","[1670.1000000005588]","1","2","","","6145","106","9","2","win","no-go","0"
"pit-trial","228","1449023","0.0-111.0","battery-v0.2","","""event"",""trial"",""time""
""fullscreenenter"",""1"",""2372""
","
","
","""event"",""trial"",""time""
""fullscreenenter"",""1"",""2372""
","
","","","927.6000000005588","","","10","6145","3464","b","elianto","#f73b6a7A","-1"," ","0","0","[1779.7999999998137]","1","2","","","6145","107","6","4","lose","no-go","1"
"pit-trial","229","1452607","0.0-112.0","battery-v0.2","","""event"",""trial"",""time""
""fullscreenenter"",""1"",""2372""
","
","
","""event"",""trial"",""time""
""fullscreenenter"",""1"",""2372""
","
","","","719.7000000001863","","","10","6145","3464","f","elianto","#3366ff99","-1"," ","0","+10","[1574.9000000003725]","1","2","","","6145","108","8","2","win","no-go","1"
"pit-trial","230","1456223","0.0-113.0","battery-v0.2","","""event"",""trial"",""time""
""fullscreenenter"",""1"",""2372""
","
","
","""event"",""trial"",""time""
""fullscreenenter"",""1"",""2372""
","
","","","746.2999999998137","","","10","6145","3464","n","elianto","#3366ff99","-1"," ","0","+10","[1605.0999999996275]","1","2","","","6145","109","9","2","win","no-go","1"
"pit-trial","231","1459775","0.0-114.0","battery-v0.2","","""event"",""trial"",""time""
""fullscreenenter"",""1"",""2372""
","
","
","""event"",""trial"",""time""
""fullscreenenter"",""1"",""2372""
","
","","","688.2999999998137","","","10","6145","3464","f","elianto","#3366ff99","-1"," ","0","0","[1541.5999999996275]","1","2","","","6145","110","8","2","win","no-go","0"
"pit-trial","232","1463456","0.0-115.0","battery-v0.2","","""event"",""trial"",""time""
""fullscreenenter"",""1"",""2372""
","
","
","""event"",""trial"",""time""
""fullscreenenter"",""1"",""2372""
","
","","","817.4000000003725","","","10","6145","3464","b","elianto","#f73b6a7A","-1"," ","0","-10","[1670.4000000003725]","1","2","","","6145","111","6","4","lose","no-go","0"
"pit-trial","233","1467040","0.0-116.0","battery-v0.2","","""event"",""trial"",""time""
""fullscreenenter"",""1"",""2372""
","
","
","""event"",""trial"",""time""
""fullscreenenter"",""1"",""2372""
","
","","","721.3000000007451","","","10","6145","3464","c","elianto","#3366ff99"," "," ","1","+10","[1571.7000000001863]","1","2","","","6145","112","5","1","win","go","0"
"pit-trial","234","1470584","0.0-117.0","battery-v0.2","","""event"",""trial"",""time""
""fullscreenenter"",""1"",""2372""
","
","
","""event"",""trial"",""time""
""fullscreenenter"",""1"",""2372""
","
","","","651.7000000001863","","","10","6145","3464","n","elianto","#3366ff99","-1"," ","0","+10","[1508.5]","1","2","","","6145","113","9","2","win","no-go","1"
"pit-trial","235","1474144","0.0-118.0","battery-v0.2","","""event"",""trial"",""time""
""fullscreenenter"",""1"",""2372""
","
","
","""event"",""trial"",""time""
""fullscreenenter"",""1"",""2372""
","
","","","699.7999999998137","","","10","6145","3464","c","elianto","#3366ff99"," "," ","1","0","[1550.5]","1","2","","","6145","114","5","1","win","go","1"
"pit-trial","236","1477800","0.0-119.0","battery-v0.2","","""event"",""trial"",""time""
""fullscreenenter"",""1"",""2372""
","
","
","""event"",""trial"",""time""
""fullscreenenter"",""1"",""2372""
","
","","","798.5","","","10","6145","3464","t","elianto","#f73b6a7A"," "," ","1","0","[1651.5]","1","2","","","6145","115","7","3","lose","go","0"
"pit-trial","237","1481399","0.0-120.0","battery-v0.2","","""event"",""trial"",""time""
""fullscreenenter"",""1"",""2372""
","
","
","""event"",""trial"",""time""
""fullscreenenter"",""1"",""2372""
","
","","","740.7000000001863","","","10","6145","3464","f","elianto","#3366ff99","-1"," ","0","0","[1596]","1","2","","","6145","116","8","2","win","no-go","0"
"pit-trial","238","1486263","0.0-121.0","battery-v0.2","","""event"",""trial"",""time""
""fullscreenenter"",""1"",""2372""
","
","
","""event"",""trial"",""time""
""fullscreenenter"",""1"",""2372""
","
","","","-1","","","10","6145","3464","c","elianto","#3366ff99"," ","-1","0","0","[]","0","2","","","6145","117","5","1","win","go","0"
"pit-trial","239","1489988","0.0-122.0","battery-v0.2","","""event"",""trial"",""time""
""fullscreenenter"",""1"",""2372""
","
","
","""event"",""trial"",""time""
""fullscreenenter"",""1"",""2372""
","
","","","841.7000000001863","","","10","6145","3464","b","elianto","#f73b6a7A","-1"," ","0","-10","[1693]","1","2","","","6145","118","6","4","lose","no-go","0"
"pit-trial","240","1493889","0.0-123.0","battery-v0.2","","""event"",""trial"",""time""
""fullscreenenter"",""1"",""2372""
","
","
","""event"",""trial"",""time""
""fullscreenenter"",""1"",""2372""
","
","","","1039.199999999255","","","10","6145","3464","f","elianto","#3366ff99","-1"," ","0","0","[1889.7999999998137]","1","2","","","6145","119","8","2","win","no-go","0"
"pit-trial","241","1497424","0.0-124.0","battery-v0.2","","""event"",""trial"",""time""
""fullscreenenter"",""1"",""2372""
","
","
","""event"",""trial"",""time""
""fullscreenenter"",""1"",""2372""
","
","","","673.7000000001863","","","10","6145","3464","n","elianto","#3366ff99","-1"," ","0","+10","[1525.5]","1","2","","","6145","120","9","2","win","no-go","1"
"pit-trial","242","1500912","0.0-125.0","battery-v0.2","","""event"",""trial"",""time""
""fullscreenenter"",""1"",""2372""
","
","
","""event"",""trial"",""time""
""fullscreenenter"",""1"",""2372""
","
","","","625.8999999994412","","","10","6145","3464","n","elianto","#3366ff99","-1"," ","0","0","[1477.5]","1","2","","","6145","121","9","2","win","no-go","0"
"pit-trial","243","1504456","0.0-126.0","battery-v0.2","","""event"",""trial"",""time""
""fullscreenenter"",""1"",""2372""
","
","
","""event"",""trial"",""time""
""fullscreenenter"",""1"",""2372""
","
","","","690.2000000001863","","","10","6145","3464","c","elianto","#3366ff99"," "," ","1","+10","[1540.9000000003725]","1","2","","","6145","122","5","1","win","go","0"
"pit-trial","244","1507929","0.0-127.0","battery-v0.2","","""event"",""trial"",""time""
""fullscreenenter"",""1"",""2372""
","
","
","""event"",""trial"",""time""
""fullscreenenter"",""1"",""2372""
","
","","","615","","","10","6145","3464","f","elianto","#3366ff99","-1"," ","0","0","[1469.5]","1","2","","","6145","123","8","2","win","no-go","0"
"pit-trial","245","1511514","0.0-128.0","battery-v0.2","","""event"",""trial"",""time""
""fullscreenenter"",""1"",""2372""
","
","
","""event"",""trial"",""time""
""fullscreenenter"",""1"",""2372""
","
","","","727.2000000001863","","","10","6145","3464","t","elianto","#f73b6a7A"," "," ","1","0","[1578.7999999998137]","1","2","","","6145","124","7","3","lose","go","0"
"pit-trial","246","1515192","0.0-129.0","battery-v0.2","","""event"",""trial"",""time""
""fullscreenenter"",""1"",""2372""
","
","
","""event"",""trial"",""time""
""fullscreenenter"",""1"",""2372""
","
","","","822.1000000005588","","","10","6145","3464","t","elianto","#f73b6a7A"," "," ","1","-10","[1673.7000000001863]","1","2","","","6145","125","7","3","lose","go","1"
"pit-trial","247","1518728","0.0-130.0","battery-v0.2","","""event"",""trial"",""time""
""fullscreenenter"",""1"",""2372""
","
","
","""event"",""trial"",""time""
""fullscreenenter"",""1"",""2372""
","
","","","679.5999999996275","","","10","6145","3464","n","elianto","#3366ff99","-1"," ","0","+10","[1530.0999999996275]","1","2","","","6145","126","9","2","win","no-go","1"
"pit-trial","248","1522737","0.0-131.0","battery-v0.2","","""event"",""trial"",""time""
""fullscreenenter"",""1"",""2372""
","
","
","""event"",""trial"",""time""
""fullscreenenter"",""1"",""2372""
","
","","","1147.4000000003725","","","10","6145","3464","b","elianto","#f73b6a7A","-1"," ","0","-10","[1999.9000000003725]","1","2","","","6145","127","6","4","lose","no-go","0"
"pit-trial","249","1526305","0.0-132.0","battery-v0.2","","""event"",""trial"",""time""
""fullscreenenter"",""1"",""2372""
","
","
","""event"",""trial"",""time""
""fullscreenenter"",""1"",""2372""
","
","","","702.1000000005588","","","10","6145","3464","f","elianto","#3366ff99","-1"," ","0","0","[1555.4000000003725]","1","2","","","6145","128","8","2","win","no-go","0"
"pit-trial","250","1529936","0.0-133.0","battery-v0.2","","""event"",""trial"",""time""
""fullscreenenter"",""1"",""2372""
","
","
","""event"",""trial"",""time""
""fullscreenenter"",""1"",""2372""
","
","","","771.2999999998137","","","10","6145","3464","t","elianto","#f73b6a7A"," "," ","1","0","[1622.0999999996275]","1","2","","","6145","129","7","3","lose","go","0"
"pit-trial","251","1533410","0.0-134.0","battery-v0.2","","""event"",""trial"",""time""
""fullscreenenter"",""1"",""2372""
","
","
","""event"",""trial"",""time""
""fullscreenenter"",""1"",""2372""
","
","","","606","","","10","6145","3464","n","elianto","#3366ff99","-1"," ","0","+10","[1460.7999999998137]","1","2","","","6145","130","9","2","win","no-go","1"
"pit-trial","252","1537072","0.0-135.0","battery-v0.2","","""event"",""trial"",""time""
""fullscreenenter"",""1"",""2372""
","
","
","""event"",""trial"",""time""
""fullscreenenter"",""1"",""2372""
","
","","","798.2000000001863","","","10","6145","3464","f","elianto","#3366ff99","-1"," ","0","0","[1651]","1","2","","","6145","131","8","2","win","no-go","0"
"pit-trial","253","1541090","0.0-136.0","battery-v0.2","","""event"",""trial"",""time""
""fullscreenenter"",""1"",""2372""
","
","
","""event"",""trial"",""time""
""fullscreenenter"",""1"",""2372""
","
","","","1150.5","","","10","6145","3464","b","elianto","#f73b6a7A","-1"," ","0","-10","[2003.5]","1","2","","","6145","132","6","4","lose","no-go","0"
"pit-trial","254","1544712","0.0-137.0","battery-v0.2","","""event"",""trial"",""time""
""fullscreenenter"",""1"",""2372""
","
","
","""event"",""trial"",""time""
""fullscreenenter"",""1"",""2372""
","
","","","765.5","","","10","6145","3464","f","elianto","#3366ff99","-1"," ","0","0","[1618]","1","2","","","6145","133","8","2","win","no-go","0"
"pit-trial","255","1548330","0.0-138.0","battery-v0.2","","""event"",""trial"",""time""
""fullscreenenter"",""1"",""2372""
","
","
","""event"",""trial"",""time""
""fullscreenenter"",""1"",""2372""
","
","","","758.2000000001863","","","10","6145","3464","t","elianto","#f73b6a7A"," "," ","1","-10","[1611.2000000001863]","1","2","","","6145","134","7","3","lose","go","1"
"pit-trial","256","1551849","0.0-139.0","battery-v0.2","","""event"",""trial"",""time""
""fullscreenenter"",""1"",""2372""
","
","
","""event"",""trial"",""time""
""fullscreenenter"",""1"",""2372""
","
","","","661.5","","","10","6145","3464","n","elianto","#3366ff99","-1"," ","0","0","[1514.9000000003725]","1","2","","","6145","135","9","2","win","no-go","0"
"pit-trial","257","1556714","0.0-140.0","battery-v0.2","","""event"",""trial"",""time""
""fullscreenenter"",""1"",""2372""
","
","
","""event"",""trial"",""time""
""fullscreenenter"",""1"",""2372""
","
","","","-1","","","10","6145","3464","b","elianto","#f73b6a7A","-1","-1","1","0","[]","0","2","","","6145","136","6","4","lose","no-go","0"
"pit-trial","258","1560323","0.0-141.0","battery-v0.2","","""event"",""trial"",""time""
""fullscreenenter"",""1"",""2372""
","
","
","""event"",""trial"",""time""
""fullscreenenter"",""1"",""2372""
","
","","","742.3000000007451","","","10","6145","3464","n","elianto","#3366ff99","-1"," ","0","0","[1596.7999999998137]","1","2","","","6145","137","9","2","win","no-go","0"
"pit-trial","259","1564346","0.0-142.0","battery-v0.2","","""event"",""trial"",""time""
""fullscreenenter"",""1"",""2372""
","
","
","""event"",""trial"",""time""
""fullscreenenter"",""1"",""2372""
","
","","","1168.300000000745","","","10","6145","3464","f","elianto","#3366ff99","-1"," ","0","0","[2019.5999999996275]","1","2","","","6145","138","8","2","win","no-go","0"
"pit-trial","260","1569222","0.0-143.0","battery-v0.2","","""event"",""trial"",""time""
""fullscreenenter"",""1"",""2372""
","
","
","""event"",""trial"",""time""
""fullscreenenter"",""1"",""2372""
","
","","","-1","","","10","6145","3464","b","elianto","#f73b6a7A","-1","-1","1","0","[]","0","2","","","6145","139","6","4","lose","no-go","0"
"pit-trial","261","1574090","0.0-144.0","battery-v0.2","","""event"",""trial"",""time""
""fullscreenenter"",""1"",""2372""
","
","
","""event"",""trial"",""time""
""fullscreenenter"",""1"",""2372""
","
","","","-1","","","10","6145","3464","t","elianto","#f73b6a7A"," ","-1","0","-10","[]","0","2","","","6145","140","7","3","lose","go","0"
"pit-instructions","262","1590738","0.0-145.0","battery-v0.2","","""event"",""trial"",""time""
""fullscreenenter"",""1"",""2372""
","
","
","""event"",""trial"",""time""
""fullscreenenter"",""1"",""2372""
","
","","[{""page_index"":0,""viewing_time"":7089.299999999814},{""page_index"":1,""viewing_time"":9555.5}]","16645.799999999814","","","","","","","","","","","","","","","","","","","","","","","",""
"pit-trial","263","1594489","0.0-146.0","battery-v0.2","","""event"",""trial"",""time""
""fullscreenenter"",""1"",""2372""
","
","
","""event"",""trial"",""time""
""fullscreenenter"",""1"",""2372""
","
","","","881.8999999994412","","","10","6145","3464","g","elianto","#f73b6a7A","-1"," ","0","-10","[1741.3999999994412]","1","3","","","6145","141","3","4","lose","no-go","0"
"pit-trial","264","1599353","0.0-147.0","battery-v0.2","","""event"",""trial"",""time""
""fullscreenenter"",""1"",""2372""
","
","
