"trial_type","trial_index","time_elapsed","internal_node_id","task_version","subject_id","interactions","blur_events","focus_events","fullscreenenter_events","fullscreenexit_events","success","view_history","rt","responses","num_errors","age","subject","participantId","rune","rune_set","hex","correct","choice","accuracy","outcome","keys","total_keys","block","practice","value","sub","trial","stimulus","robot","valence","action","sham"
"pavlovia","0","19","0.0-0.0","battery-v0.2","","""event"",""trial"",""time""
""fullscreenenter"",""1"",""2803""
","
","
","""event"",""trial"",""time""
""fullscreenenter"",""1"",""2803""
","
","","","","","","","","","","","","","","","","","","","","","","","","","","",""
"fullscreen","1","3726","0.0-1.0","battery-v0.2","","""event"",""trial"",""time""
""fullscreenenter"",""1"",""2803""
","
","
","""event"",""trial"",""time""
""fullscreenenter"",""1"",""2803""
","
","true","","","","","","","","","","","","","","","","","","","","","","","","","",""
"pit-instructions","2","8447","0.0-2.0-0.0","battery-v0.2","","""event"",""trial"",""time""
""fullscreenenter"",""1"",""2803""
","
","
","""event"",""trial"",""time""
""fullscreenenter"",""1"",""2803""
","
","","[{""page_index"":0,""viewing_time"":4710}]","4710.899999976158","","","","","","","","","","","","","","","","","","","","","","","",""
"pit-comprehension","3","18253","0.0-2.0-1.0-0.0","battery-v0.2","","""event"",""trial"",""time""
""fullscreenenter"",""1"",""2803""
","
","
","""event"",""trial"",""time""
""fullscreenenter"",""1"",""2803""
","
","","","9794.799999952316","[""shark""]","0","13","19827","7137","","","","","","","","","","","","","","","","","","",""
"pit-instructions","4","20732","0.0-2.0-1.0-1.0","battery-v0.2","","""event"",""trial"",""time""
""fullscreenenter"",""1"",""2803""
","
","
","""event"",""trial"",""time""
""fullscreenenter"",""1"",""2803""
","
","","[{""page_index"":0,""viewing_time"":2456.2999999523163}]","2456.7999999523163","","","","","","","","","","","","","","","","","","","","","","","",""
"pit-comprehension","5","28210","0.0-2.0-2.0-0.0","battery-v0.2","","""event"",""trial"",""time""
""fullscreenenter"",""1"",""2803""
","
","
","""event"",""trial"",""time""
""fullscreenenter"",""1"",""2803""
","
","","","7470.799999952316","[""tiger""]","0","13","19827","7137","","","","","","","","","","","","","","","","","","",""
"pit-instructions","6","29402","0.0-2.0-2.0-1.0","battery-v0.2","","""event"",""trial"",""time""
""fullscreenenter"",""1"",""2803""
","
","
","""event"",""trial"",""time""
""fullscreenenter"",""1"",""2803""
","
","","[{""page_index"":0,""viewing_time"":1185.1000000238419}]","1185.7000000476837","","","","","","","","","","","","","","","","","","","","","","","",""
"pit-instructions","7","114782","0.0-2.0-3.0","battery-v0.2","","""event"",""trial"",""time""
""fullscreenenter"",""1"",""2803""
","
","
","""event"",""trial"",""time""
""fullscreenenter"",""1"",""2803""
","
","","[{""page_index"":0,""viewing_time"":7755.699999928474},{""page_index"":1,""viewing_time"":5720.5},{""page_index"":2,""viewing_time"":6050.200000047684},{""page_index"":3,""viewing_time"":5417.299999952316},{""page_index"":4,""viewing_time"":6703.300000071526},{""page_index"":5,""viewing_time"":5058.199999928474},{""page_index"":6,""viewing_time"":6223.5},{""page_index"":7,""viewing_time"":6104.5},{""page_index"":8,""viewing_time"":6383.700000047684},{""page_index"":9,""viewing_time"":5837.399999976158},{""page_index"":10,""viewing_time"":7978.799999952316},{""page_index"":11,""viewing_time"":4530.900000095367},{""page_index"":12,""viewing_time"":6586.899999976158},{""page_index"":13,""viewing_time"":5028.5}]","85380.5","","","","","","","","","","","","","","","","","","","","","","","",""
"pit-trial","8","119639","0.0-2.0-4.0-0.0","battery-v0.2","","""event"",""trial"",""time""
""fullscreenenter"",""1"",""2803""
","
","
","""event"",""trial"",""time""
""fullscreenenter"",""1"",""2803""
","
","","","-1","","","13","19827","7137","&#9784;","elianto","#FFFFF080"," ","-1","0","&#10060","[]","0","0","0","","","","","","","",""
"pit-trial","9","124511","0.0-2.0-4.1-0.1","battery-v0.2","","""event"",""trial"",""time""
""fullscreenenter"",""1"",""2803""
","
","
","""event"",""trial"",""time""
""fullscreenenter"",""1"",""2803""
","
","","","-1","","","13","19827","7137","&#9784;","elianto","#FFFFF080"," ","-1","0","&#10060","[]","0","0","0","","","","","","","",""
"pit-trial","10","129374","0.0-2.0-4.2-0.2","battery-v0.2","","""event"",""trial"",""time""
""fullscreenenter"",""1"",""2803""
","
","
","""event"",""trial"",""time""
""fullscreenenter"",""1"",""2803""
","
","","","-1","","","13","19827","7137","&#9784;","elianto","#FFFFF080"," ","-1","0","&#10060","[4506.599999904633]","1","0","0","","","","","","","",""
"pit-trial","11","132521","0.0-2.0-4.3-0.3","battery-v0.2","","""event"",""trial"",""time""
""fullscreenenter"",""1"",""2803""
","
","
","""event"",""trial"",""time""
""fullscreenenter"",""1"",""2803""
","
","","","283.1999999284744","","","13","19827","7137","&#9784;","elianto","#FFFFF080"," "," ","1","&#10004","[321.39999997615814,1139.1999999284744]","2","0","0","","","","","","","",""
"pit-trial","12","136374","0.0-2.0-4.4-0.4","battery-v0.2","","""event"",""trial"",""time""
""fullscreenenter"",""1"",""2803""
","
","
","""event"",""trial"",""time""
""fullscreenenter"",""1"",""2803""
","
","","","990.8999999761581","","","13","19827","7137","&#9784;","elianto","#FFFFF080"," "," ","1","&#10004","[1843.1999999284744]","1","0","0","","","","","","","",""
"pit-trial","13","140132","0.0-2.0-4.5-0.5","battery-v0.2","","""event"",""trial"",""time""
""fullscreenenter"",""1"",""2803""
","
","
","""event"",""trial"",""time""
""fullscreenenter"",""1"",""2803""
","
","","","884","","","13","19827","7137","&#9784;","elianto","#FFFFF080"," "," ","1","&#10004","[1743.3000000715256]","1","0","0","","","","","","","",""
"pit-instructions","14","160645","0.0-2.0-5.0","battery-v0.2","","""event"",""trial"",""time""
""fullscreenenter"",""1"",""2803""
","
","
","""event"",""trial"",""time""
""fullscreenenter"",""1"",""2803""
","
","","[{""page_index"":0,""viewing_time"":5330.300000071526},{""page_index"":1,""viewing_time"":5057.699999928474},{""page_index"":2,""viewing_time"":4328.5},{""page_index"":3,""viewing_time"":5786.399999976158}]","20503.5","","","","","","","","","","","","","","","","","","","","","","","",""
"pit-trial","15","165511","0.0-2.0-6.0-0.0","battery-v0.2","","""event"",""trial"",""time""
""fullscreenenter"",""1"",""2803""
","
","
","""event"",""trial"",""time""
""fullscreenenter"",""1"",""2803""
","
","","","-1","","","13","19827","7137","&#9854;","elianto","#FFFFF080","-1","-1","1","&#10004","[]","0","0","1","","","","","","","",""
"pit-trial","16","170376","0.0-2.0-6.1-0.1","battery-v0.2","","""event"",""trial"",""time""
""fullscreenenter"",""1"",""2803""
","
","
","""event"",""trial"",""time""
""fullscreenenter"",""1"",""2803""
","
","","","-1","","","13","19827","7137","&#9854;","elianto","#FFFFF080","-1","-1","1","&#10004","[]","0","0","1","","","","","","","",""
"pit-trial","17","175253","0.0-2.0-6.2-0.2","battery-v0.2","","""event"",""trial"",""time""
""fullscreenenter"",""1"",""2803""
","
","
","""event"",""trial"",""time""
""fullscreenenter"",""1"",""2803""
","
","","","-1","","","13","19827","7137","&#9854;","elianto","#FFFFF080","-1","-1","1","&#10004","[]","0","0","1","","","","","","","",""
"pit-trial","18","180113","0.0-2.0-6.3-0.3","battery-v0.2","","""event"",""trial"",""time""
""fullscreenenter"",""1"",""2803""
","
","
","""event"",""trial"",""time""
""fullscreenenter"",""1"",""2803""
","
","","","-1","","","13","19827","7137","&#9854;","elianto","#FFFFF080","-1","-1","1","&#10004","[]","0","0","1","","","","","","","",""
"pit-trial","19","184982","0.0-2.0-6.4-0.4","battery-v0.2","","""event"",""trial"",""time""
""fullscreenenter"",""1"",""2803""
","
","
","""event"",""trial"",""time""
""fullscreenenter"",""1"",""2803""
","
","","","-1","","","13","19827","7137","&#9854;","elianto","#FFFFF080","-1","-1","1","&#10004","[]","0","0","1","","","","","","","",""
"pit-instructions","20","350804","0.0-2.0-7.0","battery-v0.2","","""event"",""trial"",""time""
""fullscreenenter"",""1"",""2803""
","
","
","""event"",""trial"",""time""
""fullscreenenter"",""1"",""2803""
","
","","[{""page_index"":0,""viewing_time"":8738.299999952316},{""page_index"":1,""viewing_time"":6838.899999976158},{""page_index"":2,""viewing_time"":5433.600000023842},{""page_index"":3,""viewing_time"":7355.5},{""page_index"":4,""viewing_time"":5844.399999976158},{""page_index"":5,""viewing_time"":8838.800000071526},{""page_index"":6,""viewing_time"":7074.899999976158},{""page_index"":7,""viewing_time"":7874.600000023842},{""page_index"":8,""viewing_time"":9942.699999928474},{""page_index"":9,""viewing_time"":24425.5},{""page_index"":10,""viewing_time"":6657.5},{""page_index"":11,""viewing_time"":6463},{""page_index"":12,""viewing_time"":8048.5},{""page_index"":13,""viewing_time"":8500.900000095367},{""page_index"":14,""viewing_time"":7761.299999952316},{""page_index"":15,""viewing_time"":7786.600000023842},{""page_index"":16,""viewing_time"":8049.299999952316},{""page_index"":17,""viewing_time"":20178.700000047684}]","165813.69999992847","","","","","","","","","","","","","","","","","","","","","","","",""
"pit-trial","21","355671","0.0-2.0-8.0-0.0","battery-v0.2","","""event"",""trial"",""time""
""fullscreenenter"",""1"",""2803""
","
","
","""event"",""trial"",""time""
""fullscreenenter"",""1"",""2803""
","
","","","-1","","","13","19827","7137","&#9776;","elianto","#3366ff99"," ","-1","0","0","[2953.7999999523163]","1","0","1","","","","","","","",""
"pit-trial","22","360548","0.0-2.0-8.0-1.0","battery-v0.2","","""event"",""trial"",""time""
""fullscreenenter"",""1"",""2803""
","
","
","""event"",""trial"",""time""
""fullscreenenter"",""1"",""2803""
","
","","","-1","","","13","19827","7137","&#9776;","elianto","#3366ff99"," ","-1","0","0","[]","0","0","1","","","","","","","",""
"pit-trial","23","364370","0.0-2.0-8.0-2.0","battery-v0.2","","""event"",""trial"",""time""
""fullscreenenter"",""1"",""2803""
","
","
","""event"",""trial"",""time""
""fullscreenenter"",""1"",""2803""
","
","","","965.5","","","13","19827","7137","&#9776;","elianto","#3366ff99"," "," ","1","+10","[1816.3000000715256]","1","0","1","","","","","","","",""
"pit-trial","24","367959","0.0-2.0-8.0-3.0","battery-v0.2","","""event"",""trial"",""time""
""fullscreenenter"",""1"",""2803""
","
","
","""event"",""trial"",""time""
""fullscreenenter"",""1"",""2803""
","
","","","717.7999999523163","","","13","19827","7137","&#9776;","elianto","#3366ff99"," "," ","1","0","[1575.5]","1","0","1","","","","","","","",""
"pit-trial","25","371437","0.0-2.0-8.0-4.0","battery-v0.2","","""event"",""trial"",""time""
""fullscreenenter"",""1"",""2803""
","
","
","""event"",""trial"",""time""
""fullscreenenter"",""1"",""2803""
","
","","","619","","","13","19827","7137","&#9776;","elianto","#3366ff99"," "," ","1","+10","[1471]","1","0","1","","","","","","","",""
"pit-trial","26","376310","0.0-2.0-8.1-0.1","battery-v0.2","","""event"",""trial"",""time""
""fullscreenenter"",""1"",""2803""
","
","
","""event"",""trial"",""time""
""fullscreenenter"",""1"",""2803""
","
","","","-1","","","13","19827","7137","&#9776;","elianto","#3366ff99"," ","-1","0","0","[]","0","0","1","","","","","","","",""
"pit-trial","27","379753","0.0-2.0-8.1-1.1","battery-v0.2","","""event"",""trial"",""time""
""fullscreenenter"",""1"",""2803""
","
","
","""event"",""trial"",""time""
""fullscreenenter"",""1"",""2803""
","
","","","574.3000000715256","","","13","19827","7137","&#9776;","elianto","#3366ff99"," "," ","1","+10","[1431.3999999761581]","1","0","1","","","","","","","",""
"pit-trial","28","383279","0.0-2.0-8.1-2.1","battery-v0.2","","""event"",""trial"",""time""
""fullscreenenter"",""1"",""2803""
","
","
","""event"",""trial"",""time""
""fullscreenenter"",""1"",""2803""
","
","","","661.7000000476837","","","13","19827","7137","&#9776;","elianto","#3366ff99"," "," ","1","+10","[1517.2000000476837]","1","0","1","","","","","","","",""
"pit-trial","29","386341","0.0-2.0-8.1-3.1","battery-v0.2","","""event"",""trial"",""time""
""fullscreenenter"",""1"",""2803""
","
","
","""event"",""trial"",""time""
""fullscreenenter"",""1"",""2803""
","
","","","197.79999995231628","","","13","19827","7137","&#9776;","elianto","#3366ff99"," "," ","1","0","[1054.6000000238419]","1","0","1","","","","","","","",""
"pit-trial","30","389705","0.0-2.0-8.1-4.1","battery-v0.2","","""event"",""trial"",""time""
""fullscreenenter"",""1"",""2803""
","
","
","""event"",""trial"",""time""
""fullscreenenter"",""1"",""2803""
","
","","","505.7999999523163","","","13","19827","7137","&#9776;","elianto","#3366ff99"," "," ","1","+10","[1355.8999999761581]","1","0","1","","","","","","","",""
"pit-trial","31","393003","0.0-2.0-8.2-0.2","battery-v0.2","","""event"",""trial"",""time""
""fullscreenenter"",""1"",""2803""
","
","
","""event"",""trial"",""time""
""fullscreenenter"",""1"",""2803""
","
","","","441.2000000476837","","","13","19827","7137","&#9776;","elianto","#3366ff99"," "," ","1","+10","[1291.2999999523163]","1","0","1","","","","","","","",""
"pit-trial","32","396982","0.0-2.0-8.2-1.2","battery-v0.2","","""event"",""trial"",""time""
""fullscreenenter"",""1"",""2803""
","
","
","""event"",""trial"",""time""
""fullscreenenter"",""1"",""2803""
","
","","","1113.0999999046326","","","13","19827","7137","&#9776;","elianto","#3366ff99"," "," ","1","+10","[1965.6000000238419]","1","0","1","","","","","","","",""
"pit-trial","33","401855","0.0-2.0-8.2-2.2","battery-v0.2","","""event"",""trial"",""time""
""fullscreenenter"",""1"",""2803""
","
","
","""event"",""trial"",""time""
""fullscreenenter"",""1"",""2803""
","
","","","-1","","","13","19827","7137","&#9776;","elianto","#3366ff99"," ","-1","0","0","[]","0","0","1","","","","","","","",""
"pit-trial","34","405262","0.0-2.0-8.2-3.2","battery-v0.2","","""event"",""trial"",""time""
""fullscreenenter"",""1"",""2803""
","
","
","""event"",""trial"",""time""
""fullscreenenter"",""1"",""2803""
","
","","","542.6999999284744","","","13","19827","7137","&#9776;","elianto","#3366ff99"," "," ","1","0","[1397.2999999523163,1596.1000000238419]","2","0","1","","","","","","","",""
"pit-trial","35","408402","0.0-2.0-8.2-4.2","battery-v0.2","","""event"",""trial"",""time""
""fullscreenenter"",""1"",""2803""
","
","
","""event"",""trial"",""time""
""fullscreenenter"",""1"",""2803""
","
","","","272.1999999284744","","","13","19827","7137","&#9776;","elianto","#3366ff99"," "," ","1","+10","[1126.6000000238419]","1","0","1","","","","","","","",""
"call-function","36","408405","0.0-2.0-9.0","battery-v0.2","","""event"",""trial"",""time""
""fullscreenenter"",""1"",""2803""
","
","
","""event"",""trial"",""time""
""fullscreenenter"",""1"",""2803""
","
","","","","","","","","","","","","","","","","","","","","","","","","","","",""
"pit-instructions","37","447940","0.0-2.0-10.0","battery-v0.2","","""event"",""trial"",""time""
""fullscreenenter"",""1"",""2803""
","
","
","""event"",""trial"",""time""
""fullscreenenter"",""1"",""2803""
","
","","[{""page_index"":0,""viewing_time"":5641.299999952316},{""page_index"":1,""viewing_time"":7841.600000023842},{""page_index"":2,""viewing_time"":10012.899999976158},{""page_index"":3,""viewing_time"":8058},{""page_index"":4,""viewing_time"":7980.700000047684}]","39534.799999952316","","","","","","","","","","","","","","","","","","","","","","","",""
"pit-trial","38","452809","0.0-2.0-11.0-0.0","battery-v0.2","","""event"",""trial"",""time""
""fullscreenenter"",""1"",""2803""
","
","
","""event"",""trial"",""time""
""fullscreenenter"",""1"",""2803""
","
","","","-1","","","13","19827","7137","&#9761;","elianto","#3366ff99","-1","-1","1","+10","[]","0","0","2","","","","","","","",""
"pit-trial","39","457674","0.0-2.0-11.0-1.0","battery-v0.2","","""event"",""trial"",""time""
""fullscreenenter"",""1"",""2803""
","
","
","""event"",""trial"",""time""
""fullscreenenter"",""1"",""2803""
","
","","","-1","","","13","19827","7137","&#9761;","elianto","#3366ff99","-1","-1","1","+10","[]","0","0","2","","","","","","","",""
"pit-trial","40","462548","0.0-2.0-11.0-2.0","battery-v0.2","","""event"",""trial"",""time""
""fullscreenenter"",""1"",""2803""
","
","
","""event"",""trial"",""time""
""fullscreenenter"",""1"",""2803""
","
","","","-1","","","13","19827","7137","&#9761;","elianto","#3366ff99","-1","-1","1","+10","[]","0","0","2","","","","","","","",""
"pit-trial","41","467410","0.0-2.0-11.0-3.0","battery-v0.2","","""event"",""trial"",""time""
""fullscreenenter"",""1"",""2803""
","
","
","""event"",""trial"",""time""
""fullscreenenter"",""1"",""2803""
","
","","","-1","","","13","19827","7137","&#9761;","elianto","#3366ff99","-1","-1","1","0","[]","0","0","2","","","","","","","",""
"pit-trial","42","472275","0.0-2.0-11.0-4.0","battery-v0.2","","""event"",""trial"",""time""
""fullscreenenter"",""1"",""2803""
","
","
","""event"",""trial"",""time""
""fullscreenenter"",""1"",""2803""
","
","","","-1","","","13","19827","7137","&#9761;","elianto","#3366ff99","-1","-1","1","+10","[]","0","0","2","","","","","","","",""
"pit-trial","43","477160","0.0-2.0-11.1-0.1","battery-v0.2","","""event"",""trial"",""time""
""fullscreenenter"",""1"",""2803""
","
","
","""event"",""trial"",""time""
""fullscreenenter"",""1"",""2803""
","
","","","-1","","","13","19827","7137","&#9761;","elianto","#3366ff99","-1","-1","1","+10","[]","0","0","2","","","","","","","",""
"pit-trial","44","482028","0.0-2.0-11.1-1.1","battery-v0.2","","""event"",""trial"",""time""
""fullscreenenter"",""1"",""2803""
","
","
","""event"",""trial"",""time""
""fullscreenenter"",""1"",""2803""
","
","","","-1","","","13","19827","7137","&#9761;","elianto","#3366ff99","-1","-1","1","+10","[]","0","0","2","","","","","","","",""
"pit-trial","45","486899","0.0-2.0-11.1-2.1","battery-v0.2","","""event"",""trial"",""time""
""fullscreenenter"",""1"",""2803""
","
","
","""event"",""trial"",""time""
""fullscreenenter"",""1"",""2803""
","
","","","-1","","","13","19827","7137","&#9761;","elianto","#3366ff99","-1","-1","1","+10","[]","0","0","2","","","","","","","",""
"pit-trial","46","491777","0.0-2.0-11.1-3.1","battery-v0.2","","""event"",""trial"",""time""
""fullscreenenter"",""1"",""2803""
","
","
","""event"",""trial"",""time""
""fullscreenenter"",""1"",""2803""
","
","","","-1","","","13","19827","7137","&#9761;","elianto","#3366ff99","-1","-1","1","0","[]","0","0","2","","","","","","","",""
"pit-trial","47","496645","0.0-2.0-11.1-4.1","battery-v0.2","","""event"",""trial"",""time""
""fullscreenenter"",""1"",""2803""
","
","
","""event"",""trial"",""time""
""fullscreenenter"",""1"",""2803""
","
","","","-1","","","13","19827","7137","&#9761;","elianto","#3366ff99","-1","-1","1","+10","[]","0","0","2","","","","","","","",""
"pit-trial","48","501510","0.0-2.0-11.2-0.2","battery-v0.2","","""event"",""trial"",""time""
""fullscreenenter"",""1"",""2803""
","
","
","""event"",""trial"",""time""
""fullscreenenter"",""1"",""2803""
","
","","","-1","","","13","19827","7137","&#9761;","elianto","#3366ff99","-1","-1","1","+10","[]","0","0","2","","","","","","","",""
"pit-trial","49","506379","0.0-2.0-11.2-1.2","battery-v0.2","","""event"",""trial"",""time""
""fullscreenenter"",""1"",""2803""
","
","
","""event"",""trial"",""time""
""fullscreenenter"",""1"",""2803""
","
","","","-1","","","13","19827","7137","&#9761;","elianto","#3366ff99","-1","-1","1","+10","[]","0","0","2","","","","","","","",""
"pit-trial","50","511242","0.0-2.0-11.2-2.2","battery-v0.2","","""event"",""trial"",""time""
""fullscreenenter"",""1"",""2803""
","
","
","""event"",""trial"",""time""
""fullscreenenter"",""1"",""2803""
","
","","","-1","","","13","19827","7137","&#9761;","elianto","#3366ff99","-1","-1","1","+10","[]","0","0","2","","","","","","","",""
"pit-trial","51","516113","0.0-2.0-11.2-3.2","battery-v0.2","","""event"",""trial"",""time""
""fullscreenenter"",""1"",""2803""
","
","
","""event"",""trial"",""time""
""fullscreenenter"",""1"",""2803""
","
","","","-1","","","13","19827","7137","&#9761;","elianto","#3366ff99","-1","-1","1","0","[]","0","0","2","","","","","","","",""
"pit-trial","52","520978","0.0-2.0-11.2-4.2","battery-v0.2","","""event"",""trial"",""time""
""fullscreenenter"",""1"",""2803""
","
","
","""event"",""trial"",""time""
""fullscreenenter"",""1"",""2803""
","
","","","-1","","","13","19827","7137","&#9761;","elianto","#3366ff99","-1","-1","1","+10","[]","0","0","2","","","","","","","",""
"pit-trial","53","525841","0.0-2.0-11.3-0.3","battery-v0.2","","""event"",""trial"",""time""
""fullscreenenter"",""1"",""2803""
","
","
","""event"",""trial"",""time""
""fullscreenenter"",""1"",""2803""
","
","","","-1","","","13","19827","7137","&#9761;","elianto","#3366ff99","-1","-1","1","+10","[]","0","0","2","","","","","","","",""
"pit-trial","54","530735","0.0-2.0-11.3-1.3","battery-v0.2","","""event"",""trial"",""time""
""fullscreenenter"",""1"",""2803""
","
","
","""event"",""trial"",""time""
""fullscreenenter"",""1"",""2803""
","
","","","-1","","","13","19827","7137","&#9761;","elianto","#3366ff99","-1","-1","1","+10","[]","0","0","2","","","","","","","",""
"pit-trial","55","535613","0.0-2.0-11.3-2.3","battery-v0.2","","""event"",""trial"",""time""
""fullscreenenter"",""1"",""2803""
","
","
","""event"",""trial"",""time""
""fullscreenenter"",""1"",""2803""
","
","","","-1","","","13","19827","7137","&#9761;","elianto","#3366ff99","-1","-1","1","+10","[]","0","0","2","","","","","","","",""
"pit-trial","56","540494","0.0-2.0-11.3-3.3","battery-v0.2","","""event"",""trial"",""time""
""fullscreenenter"",""1"",""2803""
","
","
","""event"",""trial"",""time""
""fullscreenenter"",""1"",""2803""
","
","","","-1","","","13","19827","7137","&#9761;","elianto","#3366ff99","-1","-1","1","0","[]","0","0","2","","","","","","","",""
"pit-trial","57","545355","0.0-2.0-11.3-4.3","battery-v0.2","","""event"",""trial"",""time""
""fullscreenenter"",""1"",""2803""
","
","
","""event"",""trial"",""time""
""fullscreenenter"",""1"",""2803""
","
","","","-1","","","13","19827","7137","&#9761;","elianto","#3366ff99","-1","-1","1","+10","[]","0","0","2","","","","","","","",""
"call-function","58","545357","0.0-2.0-12.0","battery-v0.2","","""event"",""trial"",""time""
""fullscreenenter"",""1"",""2803""
","
","
","""event"",""trial"",""time""
""fullscreenenter"",""1"",""2803""
","
","","","","","","","","","","","","","","","","","","","","","","","","","","",""
"pit-instructions","59","615785","0.0-2.0-13.0","battery-v0.2","","""event"",""trial"",""time""
""fullscreenenter"",""1"",""2803""
","
","
","""event"",""trial"",""time""
""fullscreenenter"",""1"",""2803""
","
","","[{""page_index"":0,""viewing_time"":27239.5},{""page_index"":1,""viewing_time"":12698.200000047684},{""page_index"":2,""viewing_time"":3955.7999999523163},{""page_index"":3,""viewing_time"":14969.200000047684},{""page_index"":4,""viewing_time"":11566.100000023842}]","70430.30000007153","","","","","","","","","","","","","","","","","","","","","","","",""
"pit-trial","60","620655","0.0-2.0-14.0-0.0","battery-v0.2","","""event"",""trial"",""time""
""fullscreenenter"",""1"",""2803""
","
","
","""event"",""trial"",""time""
""fullscreenenter"",""1"",""2803""
","
","","","-1","","","13","19827","7137","&#9826;","elianto","#f73b6a7A","-1","-1","1","0","[]","0","0","3","","","","","","","",""
"pit-trial","61","625522","0.0-2.0-14.0-1.0","battery-v0.2","","""event"",""trial"",""time""
""fullscreenenter"",""1"",""2803""
","
","
","""event"",""trial"",""time""
""fullscreenenter"",""1"",""2803""
","
","","","-1","","","13","19827","7137","&#9826;","elianto","#f73b6a7A","-1","-1","1","0","[]","0","0","3","","","","","","","",""
"pit-trial","62","630382","0.0-2.0-14.0-2.0","battery-v0.2","","""event"",""trial"",""time""
""fullscreenenter"",""1"",""2803""
","
","
","""event"",""trial"",""time""
""fullscreenenter"",""1"",""2803""
","
","","","-1","","","13","19827","7137","&#9826;","elianto","#f73b6a7A","-1","-1","1","0","[]","0","0","3","","","","","","","",""
"pit-trial","63","635244","0.0-2.0-14.0-3.0","battery-v0.2","","""event"",""trial"",""time""
""fullscreenenter"",""1"",""2803""
","
","
","""event"",""trial"",""time""
""fullscreenenter"",""1"",""2803""
","
","","","-1","","","13","19827","7137","&#9826;","elianto","#f73b6a7A","-1","-1","1","-10","[]","0","0","3","","","","","","","",""
"pit-trial","64","638377","0.0-2.0-14.0-4.0","battery-v0.2","","""event"",""trial"",""time""
""fullscreenenter"",""1"",""2803""
","
","
","""event"",""trial"",""time""
""fullscreenenter"",""1"",""2803""
","
","","","266.6999999284744","","","13","19827","7137","&#9826;","elianto","#f73b6a7A","-1"," ","0","-10","[1122.0999999046326,2644.5999999046326]","2","0","3","","","","","","","",""
"pit-trial","65","641489","0.0-2.0-14.1-0.1","battery-v0.2","","""event"",""trial"",""time""
""fullscreenenter"",""1"",""2803""
","
","
","""event"",""trial"",""time""
""fullscreenenter"",""1"",""2803""
","
","","","236.70000004768372","","","13","19827","7137","&#9826;","elianto","#f73b6a7A","-1"," ","0","-10","[1098.7000000476837]","1","0","3","","","","","","","",""
"pit-trial","66","646360","0.0-2.0-14.1-1.1","battery-v0.2","","""event"",""trial"",""time""
""fullscreenenter"",""1"",""2803""
","
","
","""event"",""trial"",""time""
""fullscreenenter"",""1"",""2803""
","
","","","-1","","","13","19827","7137","&#9826;","elianto","#f73b6a7A","-1","-1","1","0","[]","0","0","3","","","","","","","",""
"pit-trial","67","651221","0.0-2.0-14.1-2.1","battery-v0.2","","""event"",""trial"",""time""
""fullscreenenter"",""1"",""2803""
","
","
","""event"",""trial"",""time""
""fullscreenenter"",""1"",""2803""
","
","","","-1","","","13","19827","7137","&#9826;","elianto","#f73b6a7A","-1","-1","1","0","[]","0","0","3","","","","","","","",""
"pit-trial","68","656082","0.0-2.0-14.1-3.1","battery-v0.2","","""event"",""trial"",""time""
""fullscreenenter"",""1"",""2803""
","
","
","""event"",""trial"",""time""
""fullscreenenter"",""1"",""2803""
","
","","","-1","","","13","19827","7137","&#9826;","elianto","#f73b6a7A","-1","-1","1","-10","[]","0","0","3","","","","","","","",""
"pit-trial","69","660943","0.0-2.0-14.1-4.1","battery-v0.2","","""event"",""trial"",""time""
""fullscreenenter"",""1"",""2803""
","
","
","""event"",""trial"",""time""
""fullscreenenter"",""1"",""2803""
","
","","","-1","","","13","19827","7137","&#9826;","elianto","#f73b6a7A","-1","-1","1","0","[]","0","0","3","","","","","","","",""
"pit-trial","70","665815","0.0-2.0-14.2-0.2","battery-v0.2","","""event"",""trial"",""time""
""fullscreenenter"",""1"",""2803""
","
","
","""event"",""trial"",""time""
""fullscreenenter"",""1"",""2803""
","
","","","-1","","","13","19827","7137","&#9826;","elianto","#f73b6a7A","-1","-1","1","0","[]","0","0","3","","","","","","","",""
"pit-trial","71","670674","0.0-2.0-14.2-1.2","battery-v0.2","","""event"",""trial"",""time""
""fullscreenenter"",""1"",""2803""
","
","
","""event"",""trial"",""time""
""fullscreenenter"",""1"",""2803""
","
","","","-1","","","13","19827","7137","&#9826;","elianto","#f73b6a7A","-1","-1","1","0","[]","0","0","3","","","","","","","",""
"pit-trial","72","675543","0.0-2.0-14.2-2.2","battery-v0.2","","""event"",""trial"",""time""
""fullscreenenter"",""1"",""2803""
","
","
","""event"",""trial"",""time""
""fullscreenenter"",""1"",""2803""
","
","","","-1","","","13","19827","7137","&#9826;","elianto","#f73b6a7A","-1","-1","1","0","[]","0","0","3","","","","","","","",""
"pit-trial","73","680411","0.0-2.0-14.2-3.2","battery-v0.2","","""event"",""trial"",""time""
""fullscreenenter"",""1"",""2803""
","
","
","""event"",""trial"",""time""
""fullscreenenter"",""1"",""2803""
","
","","","-1","","","13","19827","7137","&#9826;","elianto","#f73b6a7A","-1","-1","1","-10","[]","0","0","3","","","","","","","",""
"pit-trial","74","685283","0.0-2.0-14.2-4.2","battery-v0.2","","""event"",""trial"",""time""
""fullscreenenter"",""1"",""2803""
","
","
","""event"",""trial"",""time""
""fullscreenenter"",""1"",""2803""
","
","","","-1","","","13","19827","7137","&#9826;","elianto","#f73b6a7A","-1","-1","1","0","[]","0","0","3","","","","","","","",""
"pit-trial","75","690150","0.0-2.0-14.3-0.3","battery-v0.2","","""event"",""trial"",""time""
""fullscreenenter"",""1"",""2803""
","
","
","""event"",""trial"",""time""
""fullscreenenter"",""1"",""2803""
","
","","","-1","","","13","19827","7137","&#9826;","elianto","#f73b6a7A","-1","-1","1","0","[]","0","0","3","","","","","","","",""
"pit-trial","76","695011","0.0-2.0-14.3-1.3","battery-v0.2","","""event"",""trial"",""time""
""fullscreenenter"",""1"",""2803""
","
","
","""event"",""trial"",""time""
""fullscreenenter"",""1"",""2803""
","
","","","-1","","","13","19827","7137","&#9826;","elianto","#f73b6a7A","-1","-1","1","0","[]","0","0","3","","","","","","","",""
"pit-trial","77","699875","0.0-2.0-14.3-2.3","battery-v0.2","","""event"",""trial"",""time""
""fullscreenenter"",""1"",""2803""
","
","
","""event"",""trial"",""time""
""fullscreenenter"",""1"",""2803""
","
","","","-1","","","13","19827","7137","&#9826;","elianto","#f73b6a7A","-1","-1","1","0","[]","0","0","3","","","","","","","",""
"pit-trial","78","704740","0.0-2.0-14.3-3.3","battery-v0.2","","""event"",""trial"",""time""
""fullscreenenter"",""1"",""2803""
","
","
","""event"",""trial"",""time""
""fullscreenenter"",""1"",""2803""
","
","","","-1","","","13","19827","7137","&#9826;","elianto","#f73b6a7A","-1","-1","1","-10","[]","0","0","3","","","","","","","",""
"pit-trial","79","709598","0.0-2.0-14.3-4.3","battery-v0.2","","""event"",""trial"",""time""
""fullscreenenter"",""1"",""2803""
","
","
","""event"",""trial"",""time""
""fullscreenenter"",""1"",""2803""
","
","","","-1","","","13","19827","7137","&#9826;","elianto","#f73b6a7A","-1","-1","1","0","[]","0","0","3","","","","","","","",""
"call-function","80","709602","0.0-2.0-15.0","battery-v0.2","","""event"",""trial"",""time""
""fullscreenenter"",""1"",""2803""
","
","
","""event"",""trial"",""time""
""fullscreenenter"",""1"",""2803""
","
","","","","","","","","","","","","","","","","","","","","","","","","","","",""
"pit-instructions","81","767567","0.0-2.0-16.0","battery-v0.2","","""event"",""trial"",""time""
""fullscreenenter"",""1"",""2803""
","
","
","""event"",""trial"",""time""
""fullscreenenter"",""1"",""2803""
","
","","[{""page_index"":0,""viewing_time"":8172.100000023842},{""page_index"":1,""viewing_time"":20961.5},{""page_index"":2,""viewing_time"":14779},{""page_index"":3,""viewing_time"":14050.100000023842}]","57964.10000002384","","","","","","","","","","","","","","","","","","","","","","","",""
"pit-trial","82","772427","0.0-2.0-17.0-0.0","battery-v0.2","","""event"",""trial"",""time""
""fullscreenenter"",""1"",""2803""
","
","
","""event"",""trial"",""time""
""fullscreenenter"",""1"",""2803""
","
","","","-1","","","13","19827","7137","&#9789;","elianto","#f73b6a7A"," ","-1","0","-10","[]","0","0","4","","","","","","","",""
"pit-trial","83","777306","0.0-2.0-17.0-1.0","battery-v0.2","","""event"",""trial"",""time""
""fullscreenenter"",""1"",""2803""
","
","
","""event"",""trial"",""time""
""fullscreenenter"",""1"",""2803""
","
","","","-1","","","13","19827","7137","&#9789;","elianto","#f73b6a7A"," ","-1","0","-10","[]","0","0","4","","","","","","","",""
"pit-trial","84","782172","0.0-2.0-17.0-2.0","battery-v0.2","","""event"",""trial"",""time""
""fullscreenenter"",""1"",""2803""
","
","
","""event"",""trial"",""time""
""fullscreenenter"",""1"",""2803""
","
","","","-1","","","13","19827","7137","&#9789;","elianto","#f73b6a7A"," ","-1","0","-10","[]","0","0","4","","","","","","","",""
"pit-trial","85","786576","0.0-2.0-17.0-3.0","battery-v0.2","","""event"",""trial"",""time""
""fullscreenenter"",""1"",""2803""
","
","
","""event"",""trial"",""time""
""fullscreenenter"",""1"",""2803""
","
","","","1543.6000000238419","","","13","19827","7137","&#9789;","elianto","#f73b6a7A"," "," ","1","-10","[2397.600000023842]","1","0","4","","","","","","","",""
"pit-trial","86","791448","0.0-2.0-17.0-4.0","battery-v0.2","","""event"",""trial"",""time""
""fullscreenenter"",""1"",""2803""
","
","
","""event"",""trial"",""time""
""fullscreenenter"",""1"",""2803""
","
","","","-1","","","13","19827","7137","&#9789;","elianto","#f73b6a7A"," ","-1","0","-10","[]","0","0","4","","","","","","","",""
"pit-trial","87","796322","0.0-2.0-17.1-0.1","battery-v0.2","","""event"",""trial"",""time""
""fullscreenenter"",""1"",""2803""
","
","
","""event"",""trial"",""time""
""fullscreenenter"",""1"",""2803""
","
","","","-1","","","13","19827","7137","&#9789;","elianto","#f73b6a7A"," ","-1","0","-10","[3203.899999976158]","1","0","4","","","","","","","",""
"pit-trial","88","799539","0.0-2.0-17.1-1.1","battery-v0.2","","""event"",""trial"",""time""
""fullscreenenter"",""1"",""2803""
","
","
","""event"",""trial"",""time""
""fullscreenenter"",""1"",""2803""
","
","","","355","","","13","19827","7137","&#9789;","elianto","#f73b6a7A"," "," ","1","0","[615.5,1206.8000000715256]","2","0","4","","","","","","","",""
"pit-trial","89","802617","0.0-2.0-17.1-2.1","battery-v0.2","","""event"",""trial"",""time""
""fullscreenenter"",""1"",""2803""
","
","
","""event"",""trial"",""time""
""fullscreenenter"",""1"",""2803""
","
","","","217.5","","","13","19827","7137","&#9789;","elianto","#f73b6a7A"," "," ","1","0","[1067.8999999761581]","1","0","4","","","","","","","",""
"pit-trial","90","805636","0.0-2.0-17.1-3.1","battery-v0.2","","""event"",""trial"",""time""
""fullscreenenter"",""1"",""2803""
","
","
","""event"",""trial"",""time""
""fullscreenenter"",""1"",""2803""
","
","","","152.90000009536743","","","13","19827","7137","&#9789;","elianto","#f73b6a7A"," "," ","1","-10","[1006.5]","1","0","4","","","","","","","",""
"pit-trial","91","808636","0.0-2.0-17.1-4.1","battery-v0.2","","""event"",""trial"",""time""
""fullscreenenter"",""1"",""2803""
","
","
","""event"",""trial"",""time""
""fullscreenenter"",""1"",""2803""
","
","","","140.60000002384186","","","13","19827","7137","&#9789;","elianto","#f73b6a7A"," "," ","1","0","[991.5]","1","0","4","","","","","","","",""
"pit-trial","92","811718","0.0-2.0-17.2-0.2","battery-v0.2","","""event"",""trial"",""time""
""fullscreenenter"",""1"",""2803""
","
","
","""event"",""trial"",""time""
""fullscreenenter"",""1"",""2803""
","
","","","222.5","","","13","19827","7137","&#9789;","elianto","#f73b6a7A"," "," ","1","0","[1073.3999999761581]","1","0","4","","","","","","","",""
"pit-trial","93","815080","0.0-2.0-17.2-1.2","battery-v0.2","","""event"",""trial"",""time""
""fullscreenenter"",""1"",""2803""
","
","
","""event"",""trial"",""time""
""fullscreenenter"",""1"",""2803""
","
","","","505.3000000715256","","","13","19827","7137","&#9789;","elianto","#f73b6a7A"," "," ","1","0","[1355.3999999761581]","1","0","4","","","","","","","",""
"pit-trial","94","818248","0.0-2.0-17.2-2.2","battery-v0.2","","""event"",""trial"",""time""
""fullscreenenter"",""1"",""2803""
","
","
","""event"",""trial"",""time""
""fullscreenenter"",""1"",""2803""
","
","","","309.8000000715256","","","13","19827","7137","&#9789;","elianto","#f73b6a7A"," "," ","1","0","[1161.2000000476837]","1","0","4","","","","","","","",""
"pit-trial","95","821327","0.0-2.0-17.2-3.2","battery-v0.2","","""event"",""trial"",""time""
""fullscreenenter"",""1"",""2803""
","
","
","""event"",""trial"",""time""
""fullscreenenter"",""1"",""2803""
","
","","","212.29999995231628","","","13","19827","7137","&#9789;","elianto","#f73b6a7A"," "," ","1","-10","[1064.5999999046326]","1","0","4","","","","","","","",""
"pit-trial","96","825439","0.0-2.0-17.2-4.2","battery-v0.2","","""event"",""trial"",""time""
""fullscreenenter"",""1"",""2803""
","
","
","""event"",""trial"",""time""
""fullscreenenter"",""1"",""2803""
","
","","","1248.3999999761581","","","13","19827","7137","&#9789;","elianto","#f73b6a7A"," "," ","1","0","[2103.100000023842]","1","0","4","","","","","","","",""
"pit-trial","97","830298","0.0-2.0-17.3-0.3","battery-v0.2","","""event"",""trial"",""time""
""fullscreenenter"",""1"",""2803""
","
","
","""event"",""trial"",""time""
""fullscreenenter"",""1"",""2803""
","
","","","-1","","","13","19827","7137","&#9789;","elianto","#f73b6a7A"," ","-1","0","-10","[]","0","0","4","","","","","","","",""
"pit-trial","98","835168","0.0-2.0-17.3-1.3","battery-v0.2","","""event"",""trial"",""time""
""fullscreenenter"",""1"",""2803""
","
","
","""event"",""trial"",""time""
""fullscreenenter"",""1"",""2803""
","
","","","-1","","","13","19827","7137","&#9789;","elianto","#f73b6a7A"," ","-1","0","-10","[4234.199999928474]","1","0","4","","","","","","","",""
"pit-trial","99","838187","0.0-2.0-17.3-2.3","battery-v0.2","","""event"",""trial"",""time""
""fullscreenenter"",""1"",""2803""
","
","
","""event"",""trial"",""time""
""fullscreenenter"",""1"",""2803""
","
","","","155.20000004768372","","","13","19827","7137","&#9789;","elianto","#f73b6a7A"," "," ","1","0","[1007.3000000715256]","1","0","4","","","","","","","",""
"pit-trial","100","841093","0.0-2.0-17.3-3.3","battery-v0.2","","""event"",""trial"",""time""
""fullscreenenter"",""1"",""2803""
","
","
","""event"",""trial"",""time""
""fullscreenenter"",""1"",""2803""
","
","","","42.5","","","13","19827","7137","&#9789;","elianto","#f73b6a7A"," "," ","1","-10","[893.8999999761581]","1","0","4","","","","","","","",""
"pit-trial","101","845951","0.0-2.0-17.3-4.3","battery-v0.2","","""event"",""trial"",""time""
""fullscreenenter"",""1"",""2803""
","
","
","""event"",""trial"",""time""
""fullscreenenter"",""1"",""2803""
","
","","","-1","","","13","19827","7137","&#9789;","elianto","#f73b6a7A"," ","-1","0","-10","[3206.6999999284744]","1","0","4","","","","","","","",""
"call-function","102","845953","0.0-2.0-18.0","battery-v0.2","","""event"",""trial"",""time""
""fullscreenenter"",""1"",""2803""
","
","
","""event"",""trial"",""time""
""fullscreenenter"",""1"",""2803""
","
","","","","","","","","","","","","","","","","","","","","","","","","","","",""
"pit-instructions","103","912208","0.0-2.0-19.0","battery-v0.2","","""event"",""trial"",""time""
""fullscreenenter"",""1"",""2803""
","
","
","""event"",""trial"",""time""
""fullscreenenter"",""1"",""2803""
","
","","[{""page_index"":0,""viewing_time"":7173.700000047684},{""page_index"":1,""viewing_time"":6844.5},{""page_index"":2,""viewing_time"":12690.399999976158},{""page_index"":3,""viewing_time"":10356.700000047684},{""page_index"":4,""viewing_time"":7216.5},{""page_index"":5,""viewing_time"":9080.399999976158},{""page_index"":6,""viewing_time"":5151.600000023842},{""page_index"":7,""viewing_time"":4263.600000023842},{""page_index"":8,""viewing_time"":3471.5999999046326}]","66250","","","","","","","","","","","","","","","","","","","","","","","",""
"pit-comprehension","104","919511","0.0-2.0-20.0-0.0","battery-v0.2","","""event"",""trial"",""time""
""fullscreenenter"",""1"",""2803""
","
","
","""event"",""trial"",""time""
""fullscreenenter"",""1"",""2803""
","
","","","7293.800000071526","[""SPACE""]","0","13","19827","7137","","","","","","","","","","","","","","","","","","",""
"pit-instructions","105","923570","0.0-2.0-20.0-1.0","battery-v0.2","","""event"",""trial"",""time""
""fullscreenenter"",""1"",""2803""
","
","
","""event"",""trial"",""time""
""fullscreenenter"",""1"",""2803""
","
","","[{""page_index"":0,""viewing_time"":3967}]","3968.5","","","","","","","","","","","","","","","","","","","","","","","",""
"pit-comprehension","106","935888","0.0-2.0-21.0-0.0","battery-v0.2","","""event"",""trial"",""time""
""fullscreenenter"",""1"",""2803""
","
","
","""event"",""trial"",""time""
""fullscreenenter"",""1"",""2803""
","
","","","12307.700000047684","[""10""]","0","13","19827","7137","","","","","","","","","","","","","","","","","","",""
"pit-instructions","107","939347","0.0-2.0-21.0-1.0","battery-v0.2","","""event"",""trial"",""time""
""fullscreenenter"",""1"",""2803""
","
","
","""event"",""trial"",""time""
""fullscreenenter"",""1"",""2803""
","
","","[{""page_index"":0,""viewing_time"":3407.1999999284744}]","3407.7999999523163","","","","","","","","","","","","","","","","","","","","","","","",""
"pit-comprehension","108","947001","0.0-2.0-22.0-0.0","battery-v0.2","","""event"",""trial"",""time""
""fullscreenenter"",""1"",""2803""
","
","
","""event"",""trial"",""time""
""fullscreenenter"",""1"",""2803""
","
","","","7640.5","[""-10""]","1","13","19827","7137","","","","","","","","","","","","","","","","","","",""
"pit-instructions","109","950053","0.0-2.0-22.0-1.0","battery-v0.2","","""event"",""trial"",""time""
""fullscreenenter"",""1"",""2803""
","
","
","""event"",""trial"",""time""
""fullscreenenter"",""1"",""2803""
","
","","[{""page_index"":0,""viewing_time"":3011.600000023842}]","3012.2000000476837","","","","","","","","","","","","","","","","","","","","","","","",""
"pit-instructions","110","951140","0.0-2.0-22.0-2.0-0.0","battery-v0.2","","""event"",""trial"",""time""
""fullscreenenter"",""1"",""2803""
","
","
","""event"",""trial"",""time""
""fullscreenenter"",""1"",""2803""
","
","","[{""page_index"":0,""viewing_time"":1079.8000000715256}]","1080.9000000953674","","","","","","","","","","","","","","","","","","","","","","","",""
"pit-comprehension","111","959371","0.0-2.0-22.1-0.1","battery-v0.2","","""event"",""trial"",""time""
""fullscreenenter"",""1"",""2803""
","
","
","""event"",""trial"",""time""
""fullscreenenter"",""1"",""2803""
","
","","","8224.099999904633","[""0""]","0","13","19827","7137","","","","","","","","","","","","","","","","","","",""
"pit-instructions","112","965359","0.0-2.0-22.1-1.1","battery-v0.2","","""event"",""trial"",""time""
""fullscreenenter"",""1"",""2803""
","
","
","""event"",""trial"",""time""
""fullscreenenter"",""1"",""2803""
","
","","[{""page_index"":0,""viewing_time"":5944.5}]","5945.200000047684","","","","","","","","","","","","","","","","","","","","","","","",""
"pit-comprehension","113","980917","0.0-2.0-23.0-0.0","battery-v0.2","","""event"",""trial"",""time""
""fullscreenenter"",""1"",""2803""
","
","
","""event"",""trial"",""time""
""fullscreenenter"",""1"",""2803""
","
","","","15544.800000071526","[""True""]","0","13","19827","7137","","","","","","","","","","","","","","","","","","",""
"pit-instructions","114","983184","0.0-2.0-23.0-1.0","battery-v0.2","","""event"",""trial"",""time""
""fullscreenenter"",""1"",""2803""
","
","
","""event"",""trial"",""time""
""fullscreenenter"",""1"",""2803""
","
","","[{""page_index"":0,""viewing_time"":2225.2999999523163}]","2225.600000023842","","","","","","","","","","","","","","","","","","","","","","","",""
"pit-comprehension","115","990748","0.0-2.0-24.0-0.0","battery-v0.2","","""event"",""trial"",""time""
""fullscreenenter"",""1"",""2803""
","
","
","""event"",""trial"",""time""
""fullscreenenter"",""1"",""2803""
","
","","","7558.899999976158","[""False""]","1","13","19827","7137","","","","","","","","","","","","","","","","","","",""
"pit-instructions","116","991862","0.0-2.0-24.0-1.0","battery-v0.2","","""event"",""trial"",""time""
""fullscreenenter"",""1"",""2803""
","
","
","""event"",""trial"",""time""
""fullscreenenter"",""1"",""2803""
","
","","[{""page_index"":0,""viewing_time"":1063.2999999523163}]","1064.1999999284744","","","","","","","","","","","","","","","","","","","","","","","",""
"pit-instructions","117","992582","0.0-2.0-24.0-2.0-0.0","battery-v0.2","","""event"",""trial"",""time""
""fullscreenenter"",""1"",""2803""
","
","
","""event"",""trial"",""time""
""fullscreenenter"",""1"",""2803""
","
","","[{""page_index"":0,""viewing_time"":714.8999999761581}]","715.1999999284744","","","","","","","","","","","","","","","","","","","","","","","",""
"pit-comprehension","118","999857","0.0-2.0-24.1-0.1","battery-v0.2","","""event"",""trial"",""time""
""fullscreenenter"",""1"",""2803""
","
","
","""event"",""trial"",""time""
""fullscreenenter"",""1"",""2803""
","
","","","7271.900000095367","[""True""]","0","13","19827","7137","","","","","","","","","","","","","","","","","","",""
"pit-instructions","119","1002325","0.0-2.0-24.1-1.1","battery-v0.2","","""event"",""trial"",""time""
""fullscreenenter"",""1"",""2803""
","
","
","""event"",""trial"",""time""
""fullscreenenter"",""1"",""2803""
","
","","[{""page_index"":0,""viewing_time"":2428}]","2428.7999999523163","","","","","","","","","","","","","","","","","","","","","","","",""
"pit-comprehension","120","1009158","0.0-2.0-25.0-0.0","battery-v0.2","","""event"",""trial"",""time""
""fullscreenenter"",""1"",""2803""
","
","
","""event"",""trial"",""time""
""fullscreenenter"",""1"",""2803""
","
","","","6831.100000023842","[""False""]","1","13","19827","7137","","","","","","","","","","","","","","","","","","",""
"pit-instructions","121","1011864","0.0-2.0-25.0-1.0","battery-v0.2","","""event"",""trial"",""time""
""fullscreenenter"",""1"",""2803""
","
","
","""event"",""trial"",""time""
""fullscreenenter"",""1"",""2803""
","
","","[{""page_index"":0,""viewing_time"":2639.8000000715256}]","2640.100000023842","","","","","","","","","","","","","","","","","","","","","","","",""
"pit-instructions","122","1012627","0.0-2.0-25.0-2.0-0.0","battery-v0.2","","""event"",""trial"",""time""
""fullscreenenter"",""1"",""2803""
","
","
","""event"",""trial"",""time""
""fullscreenenter"",""1"",""2803""
","
","","[{""page_index"":0,""viewing_time"":760.2999999523163}]","760.5","","","","","","","","","","","","","","","","","","","","","","","",""
"pit-comprehension","123","1019090","0.0-2.0-25.1-0.1","battery-v0.2","","""event"",""trial"",""time""
""fullscreenenter"",""1"",""2803""
","
","
","""event"",""trial"",""time""
""fullscreenenter"",""1"",""2803""
","
","","","6457.5","[""True""]","0","13","19827","7137","","","","","","","","","","","","","","","","","","",""
"pit-instructions","124","1020612","0.0-2.0-25.1-1.1","battery-v0.2","","""event"",""trial"",""time""
""fullscreenenter"",""1"",""2803""
","
","
","""event"",""trial"",""time""
""fullscreenenter"",""1"",""2803""
","
","","[{""page_index"":0,""viewing_time"":1483.3999999761581}]","1483.6000000238419","","","","","","","","","","","","","","","","","","","","","","","",""
"pit-comprehension","125","1026435","0.0-2.0-26.0-0.0","battery-v0.2","","""event"",""trial"",""time""
""fullscreenenter"",""1"",""2803""
","
","
","""event"",""trial"",""time""
""fullscreenenter"",""1"",""2803""
","
","","","5819.600000023842","[""True""]","1","13","19827","7137","","","","","","","","","","","","","","","","","","",""
"pit-instructions","126","1028256","0.0-2.0-26.0-1.0","battery-v0.2","","""event"",""trial"",""time""
""fullscreenenter"",""1"",""2803""
","
","
","""event"",""trial"",""time""
""fullscreenenter"",""1"",""2803""
","
","","[{""page_index"":0,""viewing_time"":1770.8999999761581}]","1771.3000000715256","","","","","","","","","","","","","","","","","","","","","","","",""
"pit-instructions","127","1029003","0.0-2.0-26.0-2.0-0.0","battery-v0.2","","""event"",""trial"",""time""
""fullscreenenter"",""1"",""2803""
","
","
","""event"",""trial"",""time""
""fullscreenenter"",""1"",""2803""
","
","","[{""page_index"":0,""viewing_time"":743.1999999284744}]","743.6000000238419","","","","","","","","","","","","","","","","","","","","","","","",""
"pit-comprehension","128","1033672","0.0-2.0-26.1-0.1","battery-v0.2","","""event"",""trial"",""time""
""fullscreenenter"",""1"",""2803""
","
","
","""event"",""trial"",""time""
""fullscreenenter"",""1"",""2803""
","
","","","4664.200000047684","[""False""]","0","13","19827","7137","","","","","","","","","","","","","","","","","","",""
"pit-instructions","129","1035006","0.0-2.0-26.1-1.1","battery-v0.2","","""event"",""trial"",""time""
""fullscreenenter"",""1"",""2803""
","
","
","""event"",""trial"",""time""
""fullscreenenter"",""1"",""2803""
","
","","[{""page_index"":0,""viewing_time"":1292.2999999523163}]","1292.5","","","","","","","","","","","","","","","","","","","","","","","",""
"pit-instructions","130","1050793","0.0-3.0","battery-v0.2","","""event"",""trial"",""time""
""fullscreenenter"",""1"",""2803""
","
","
","""event"",""trial"",""time""
""fullscreenenter"",""1"",""2803""
","
","","[{""page_index"":0,""viewing_time"":3928.5},{""page_index"":1,""viewing_time"":5356.799999952316},{""page_index"":2,""viewing_time"":6498.299999952316}]","15783.899999976158","","","","","","","","","","","","","","","","","","","","","","","",""
"pit-trial","131","1055130","0.0-4.0","battery-v0.2","","""event"",""trial"",""time""
""fullscreenenter"",""1"",""2803""
","
","
","""event"",""trial"",""time""
""fullscreenenter"",""1"",""2803""
","
","","","1474.3999999761581","","","13","19827","7137","&#9752;","elianto","#f73b6a7A"," "," ","1","0","[2326]","1","1","","","19827","1","3","3","lose","go","0"
"pit-trial","132","1060018","0.0-5.0","battery-v0.2","","""event"",""trial"",""time""
""fullscreenenter"",""1"",""2803""
","
","
","""event"",""trial"",""time""
""fullscreenenter"",""1"",""2803""
","
","","","-1","","","13","19827","7137","&#9728;","elianto","#f73b6a7A","-1","-1","1","0","[]","0","1","","","19827","2","0","4","lose","no-go","0"
"pit-trial","133","1063499","0.0-6.0","battery-v0.2","","""event"",""trial"",""time""
""fullscreenenter"",""1"",""2803""
","
","
","""event"",""trial"",""time""
""fullscreenenter"",""1"",""2803""
","
","","","621.2999999523163","","","13","19827","7137","&#9730;","elianto","#3366ff99"," "," ","1","0","[1472.5]","1","1","","","19827","3","1","1","win","go","1"
"pit-trial","134","1067116","0.0-7.0","battery-v0.2","","""event"",""trial"",""time""
""fullscreenenter"",""1"",""2803""
","
","
","""event"",""trial"",""time""
""fullscreenenter"",""1"",""2803""
","
","","","756.5","","","13","19827","7137","&#9733;","elianto","#3366ff99","-1"," ","0","0","[1607.6000000238419]","1","1","","","19827","4","2","2","win","no-go","0"
"pit-trial","135","1071987","0.0-8.0","battery-v0.2","","""event"",""trial"",""time""
""fullscreenenter"",""1"",""2803""
","
","
","""event"",""trial"",""time""
""fullscreenenter"",""1"",""2803""
","
","","","-1","","","13","19827","7137","&#9733;","elianto","#3366ff99","-1","-1","1","+10","[]","0","1","","","19827","5","2","2","win","no-go","0"
"pit-trial","136","1076854","0.0-9.0","battery-v0.2","","""event"",""trial"",""time""
""fullscreenenter"",""1"",""2803""
","
","
","""event"",""trial"",""time""
""fullscreenenter"",""1"",""2803""
","
","","","-1","","","13","19827","7137","&#9730;","elianto","#3366ff99"," ","-1","0","0","[]","0","1","","","19827","6","1","1","win","go","0"
"pit-trial","137","1080397","0.0-10.0","battery-v0.2","","""event"",""trial"",""time""
""fullscreenenter"",""1"",""2803""
","
","
","""event"",""trial"",""time""
""fullscreenenter"",""1"",""2803""
","
","","","678.3000000715256","","","13","19827","7137","&#9728;","elianto","#f73b6a7A","-1"," ","0","-10","[1532.8000000715256]","1","1","","","19827","7","0","4","lose","no-go","0"
"pit-trial","138","1085262","0.0-11.0","battery-v0.2","","""event"",""trial"",""time""
""fullscreenenter"",""1"",""2803""
","
","
","""event"",""trial"",""time""
""fullscreenenter"",""1"",""2803""
","
","","","-1","","","13","19827","7137","&#9752;","elianto","#f73b6a7A"," ","-1","0","-10","[]","0","1","","","19827","8","3","3","lose","go","0"
"pit-trial","139","1089095","0.0-12.0","battery-v0.2","","""event"",""trial"",""time""
""fullscreenenter"",""1"",""2803""
","
","
","""event"",""trial"",""time""
""fullscreenenter"",""1"",""2803""
","
","","","971.7999999523163","","","13","19827","7137","&#9752;","elianto","#f73b6a7A"," "," ","1","0","[1823.2999999523163]","1","1","","","19827","9","3","3","lose","go","0"
"pit-trial","140","1093077","0.0-13.0","battery-v0.2","","""event"",""trial"",""time""
""fullscreenenter"",""1"",""2803""
","
","
","""event"",""trial"",""time""
""fullscreenenter"",""1"",""2803""
","
","","","1121","","","13","19827","7137","&#9730;","elianto","#3366ff99"," "," ","1","+10","[1971.3999999761581]","1","1","","","19827","10","1","1","win","go","0"
"pit-trial","141","1097307","0.0-14.0","battery-v0.2","","""event"",""trial"",""time""
""fullscreenenter"",""1"",""2803""
","
","
","""event"",""trial"",""time""
""fullscreenenter"",""1"",""2803""
","
","","","1365","","","13","19827","7137","&#9733;","elianto","#3366ff99","-1"," ","0","+10","[2223.100000023842]","1","1","","","19827","11","2","2","win","no-go","1"
"pit-trial","142","1102184","0.0-15.0","battery-v0.2","","""event"",""trial"",""time""
""fullscreenenter"",""1"",""2803""
","
","
","""event"",""trial"",""time""
""fullscreenenter"",""1"",""2803""
","
","","","-1","","","13","19827","7137","&#9728;","elianto","#f73b6a7A","-1","-1","1","0","[]","0","1","","","19827","12","0","4","lose","no-go","0"
"pit-trial","143","1107052","0.0-16.0","battery-v0.2","","""event"",""trial"",""time""
""fullscreenenter"",""1"",""2803""
","
","
","""event"",""trial"",""time""
""fullscreenenter"",""1"",""2803""
","
","","","-1","","","13","19827","7137","&#9728;","elianto","#f73b6a7A","-1","-1","1","0","[]","0","1","","","19827","13","0","4","lose","no-go","0"
"pit-trial","144","1111916","0.0-17.0","battery-v0.2","","""event"",""trial"",""time""
""fullscreenenter"",""1"",""2803""
","
","
","""event"",""trial"",""time""
""fullscreenenter"",""1"",""2803""
","
","","","-1","","","13","19827","7137","&#9730;","elianto","#3366ff99"," ","-1","0","+10","[]","0","1","","","19827","14","1","1","win","go","1"
"pit-trial","145","1116788","0.0-18.0","battery-v0.2","","""event"",""trial"",""time""
""fullscreenenter"",""1"",""2803""
","
","
","""event"",""trial"",""time""
""fullscreenenter"",""1"",""2803""
","
","","","-1","","","13","19827","7137","&#9752;","elianto","#f73b6a7A"," ","-1","0","-10","[]","0","1","","","19827","15","3","3","lose","go","0"
"pit-trial","146","1121501","0.0-19.0","battery-v0.2","","""event"",""trial"",""time""
""fullscreenenter"",""1"",""2803""
","
","
","""event"",""trial"",""time""
""fullscreenenter"",""1"",""2803""
","
","","","1850.8000000715256","","","13","19827","7137","&#9733;","elianto","#3366ff99","-1"," ","0","0","[2708.100000023842]","1","1","","","19827","16","2","2","win","no-go","0"
"pit-trial","147","1126374","0.0-20.0","battery-v0.2","","""event"",""trial"",""time""
""fullscreenenter"",""1"",""2803""
","
","
","""event"",""trial"",""time""
""fullscreenenter"",""1"",""2803""
","
","","","-1","","","13","19827","7137","&#9728;","elianto","#f73b6a7A","-1","-1","1","-10","[]","0","1","","","19827","17","0","4","lose","no-go","1"
"pit-trial","148","1130764","0.0-21.0","battery-v0.2","","""event"",""trial"",""time""
""fullscreenenter"",""1"",""2803""
","
","
","""event"",""trial"",""time""
""fullscreenenter"",""1"",""2803""
","
","","","1534.2999999523163","","","13","19827","7137","&#9730;","elianto","#3366ff99"," "," ","1","0","[2389.100000023842]","1","1","","","19827","18","1","1","win","go","1"
"pit-trial","149","1135052","0.0-22.0","battery-v0.2","","""event"",""trial"",""time""
""fullscreenenter"",""1"",""2803""
","
","
","""event"",""trial"",""time""
""fullscreenenter"",""1"",""2803""
","
","","","1418.3999999761581","","","13","19827","7137","&#9733;","elianto","#3366ff99","-1"," ","0","0","[2273.0999999046326]","1","1","","","19827","19","2","2","win","no-go","0"
"pit-trial","150","1139012","0.0-23.0","battery-v0.2","","""event"",""trial"",""time""
""fullscreenenter"",""1"",""2803""
","
","
","""event"",""trial"",""time""
""fullscreenenter"",""1"",""2803""
","
","","","1096.5","","","13","19827","7137","&#9752;","elianto","#f73b6a7A"," "," ","1","-10","[1949.2000000476837,2996.399999976158,3262.100000023842,3515.7000000476837]","4","1","","","19827","20","3","3","lose","go","1"
"pit-instructions","151","1153487","0.0-24.0","battery-v0.2","","""event"",""trial"",""time""
""fullscreenenter"",""1"",""2803""
","
","
","""event"",""trial"",""time""
""fullscreenenter"",""1"",""2803""
","
","","[{""page_index"":0,""viewing_time"":6539.5},{""page_index"":1,""viewing_time"":7932.300000071526}]","14472.399999976158","","","","","","","","","","","","","","","","","","","","","","","",""
"pit-trial","152","1158363","0.0-25.0","battery-v0.2","","""event"",""trial"",""time""
""fullscreenenter"",""1"",""2803""
","
","
","""event"",""trial"",""time""
""fullscreenenter"",""1"",""2803""
","
","","","-1","","","13","19827","7137","n","elianto","#f73b6a7A"," ","-1","0","-10","[3908.6999999284744]","1","2","","","19827","21","0","3","lose","go","0"
"pit-trial","153","1162178","0.0-26.0","battery-v0.2","","""event"",""trial"",""time""
""fullscreenenter"",""1"",""2803""
","
","
","""event"",""trial"",""time""
""fullscreenenter"",""1"",""2803""
","
","","","948.6000000238419","","","13","19827","7137","b","elianto","#f73b6a7A","-1"," ","0","-10","[1801.0999999046326]","1","2","","","19827","22","3","4","lose","no-go","0"
"pit-trial","154","1167049","0.0-27.0","battery-v0.2","","""event"",""trial"",""time""
""fullscreenenter"",""1"",""2803""
","
","
","""event"",""trial"",""time""
""fullscreenenter"",""1"",""2803""
","
","","","-1","","","13","19827","7137","t","elianto","#f73b6a7A"," ","-1","0","-10","[]","0","2","","","19827","23","2","3","lose","go","0"
"pit-trial","155","1171916","0.0-28.0","battery-v0.2","","""event"",""trial"",""time""
""fullscreenenter"",""1"",""2803""
","
","
","""event"",""trial"",""time""
""fullscreenenter"",""1"",""2803""
","
","","","-1","","","13","19827","7137","f","elianto","#3366ff99","-1","-1","1","+10","[]","0","2","","","19827","24","1","2","win","no-go","0"
"pit-trial","156","1175430","0.0-29.0","battery-v0.2","","""event"",""trial"",""time""
""fullscreenenter"",""1"",""2803""
","
","
","""event"",""trial"",""time""
""fullscreenenter"",""1"",""2803""
","
","","","655.0999999046326","","","13","19827","7137","t","elianto","#f73b6a7A"," "," ","1","0","[1506.5999999046326]","1","2","","","19827","25","2","3","lose","go","0"
"pit-trial","157","1179276","0.0-30.0","battery-v0.2","","""event"",""trial"",""time""
""fullscreenenter"",""1"",""2803""
","
","
","""event"",""trial"",""time""
""fullscreenenter"",""1"",""2803""
","
","","","977","","","13","19827","7137","b","elianto","#f73b6a7A","-1"," ","0","-10","[1835.5]","1","2","","","19827","26","3","4","lose","no-go","0"
"pit-trial","158","1183000","0.0-31.0","battery-v0.2","","""event"",""trial"",""time""
""fullscreenenter"",""1"",""2803""
","
","
","""event"",""trial"",""time""
""fullscreenenter"",""1"",""2803""
","
","","","854.5","","","13","19827","7137","n","elianto","#f73b6a7A"," "," ","1","0","[1705.5]","1","2","","","19827","27","0","3","lose","go","0"
"pit-trial","159","1187862","0.0-32.0","battery-v0.2","","""event"",""trial"",""time""
""fullscreenenter"",""1"",""2803""
","
","
","""event"",""trial"",""time""
""fullscreenenter"",""1"",""2803""
","
","","","-1","","","13","19827","7137","f","elianto","#3366ff99","-1","-1","1","+10","[]","0","2","","","19827","28","1","2","win","no-go","0"
"pit-trial","160","1192736","0.0-33.0","battery-v0.2","","""event"",""trial"",""time""
""fullscreenenter"",""1"",""2803""
","
","
","""event"",""trial"",""time""
""fullscreenenter"",""1"",""2803""
","
","","","-1","","","13","19827","7137","f","elianto","#3366ff99","-1","-1","1","+10","[]","0","2","","","19827","29","1","2","win","no-go","0"
"pit-trial","161","1196507","0.0-34.0","battery-v0.2","","""event"",""trial"",""time""
""fullscreenenter"",""1"",""2803""
","
","
","""event"",""trial"",""time""
""fullscreenenter"",""1"",""2803""
","
","","","896.5","","","13","19827","7137","t","elianto","#f73b6a7A"," "," ","1","0","[1753.3999999761581]","1","2","","","19827","30","2","3","lose","go","0"
"pit-trial","162","1199962","0.0-35.0","battery-v0.2","","""event"",""trial"",""time""
""fullscreenenter"",""1"",""2803""
","
","
","""event"",""trial"",""time""
""fullscreenenter"",""1"",""2803""
","
","","","595.5","","","13","19827","7137","b","elianto","#f73b6a7A","-1"," ","0","-10","[1447]","1","2","","","19827","31","3","4","lose","no-go","0"
"pit-trial","163","1203472","0.0-36.0","battery-v0.2","","""event"",""trial"",""time""
""fullscreenenter"",""1"",""2803""
","
","
","""event"",""trial"",""time""
""fullscreenenter"",""1"",""2803""
","
","","","640.5999999046326","","","13","19827","7137","n","elianto","#f73b6a7A"," "," ","1","0","[1501.1000000238419]","1","2","","","19827","32","0","3","lose","go","0"
"pit-trial","164","1207209","0.0-37.0","battery-v0.2","","""event"",""trial"",""time""
""fullscreenenter"",""1"",""2803""
","
","
","""event"",""trial"",""time""
""fullscreenenter"",""1"",""2803""
","
","","","874.7999999523163","","","13","19827","7137","n","elianto","#f73b6a7A"," "," ","1","-10","[1732.6000000238419]","1","2","","","19827","33","0","3","lose","go","1"
"pit-trial","165","1211155","0.0-38.0","battery-v0.2","","""event"",""trial"",""time""
""fullscreenenter"",""1"",""2803""
","
","
","""event"",""trial"",""time""
""fullscreenenter"",""1"",""2803""
","
","","","1080.2999999523163","","","13","19827","7137","b","elianto","#f73b6a7A","-1"," ","0","-10","[1935.7000000476837]","1","2","","","19827","34","3","4","lose","no-go","0"
"pit-trial","166","1215319","0.0-39.0","battery-v0.2","","""event"",""trial"",""time""
""fullscreenenter"",""1"",""2803""
","
","
","""event"",""trial"",""time""
""fullscreenenter"",""1"",""2803""
","
","","","1298.8999999761581","","","13","19827","7137","t","elianto","#f73b6a7A"," "," ","1","-10","[2153.3000000715256,2422]","2","2","","","19827","35","2","3","lose","go","1"
"pit-trial","167","1220185","0.0-40.0","battery-v0.2","","""event"",""trial"",""time""
""fullscreenenter"",""1"",""2803""
","
","
","""event"",""trial"",""time""
""fullscreenenter"",""1"",""2803""
","
","","","-1","","","13","19827","7137","f","elianto","#3366ff99","-1","-1","1","+10","[]","0","2","","","19827","36","1","2","win","no-go","0"
"pit-trial","168","1225065","0.0-41.0","battery-v0.2","","""event"",""trial"",""time""
""fullscreenenter"",""1"",""2803""
","
","
","""event"",""trial"",""time""
""fullscreenenter"",""1"",""2803""
","
","","","-1","","","13","19827","7137","f","elianto","#3366ff99","-1","-1","1","+10","[]","0","2","","","19827","37","1","2","win","no-go","0"
"pit-trial","169","1228820","0.0-42.0","battery-v0.2","","""event"",""trial"",""time""
""fullscreenenter"",""1"",""2803""
","
","
","""event"",""trial"",""time""
""fullscreenenter"",""1"",""2803""
","
","","","900.2000000476837","","","13","19827","7137","t","elianto","#f73b6a7A"," "," ","1","0","[1750.3999999761581]","1","2","","","19827","38","2","3","lose","go","0"
"pit-trial","170","1233691","0.0-43.0","battery-v0.2","","""event"",""trial"",""time""
""fullscreenenter"",""1"",""2803""
","
","
","""event"",""trial"",""time""
""fullscreenenter"",""1"",""2803""
","
","","","-1","","","13","19827","7137","b","elianto","#f73b6a7A","-1","-1","1","0","[]","0","2","","","19827","39","3","4","lose","no-go","0"
"pit-trial","171","1238561","0.0-44.0","battery-v0.2","","""event"",""trial"",""time""
""fullscreenenter"",""1"",""2803""
","
","
","""event"",""trial"",""time""
""fullscreenenter"",""1"",""2803""
","
","","","-1","","","13","19827","7137","n","elianto","#f73b6a7A"," ","-1","0","-10","[]","0","2","","","19827","40","0","3","lose","go","0"
"pit-trial","172","1242478","0.0-45.0","battery-v0.2","","""event"",""trial"",""time""
""fullscreenenter"",""1"",""2803""
","
","
","""event"",""trial"",""time""
""fullscreenenter"",""1"",""2803""
","
","","","1050.0999999046326","","","13","19827","7137","n","elianto","#f73b6a7A"," "," ","1","-10","[1900.2999999523163]","1","2","","","19827","41","0","3","lose","go","1"
"pit-trial","173","1246619","0.0-46.0","battery-v0.2","","""event"",""trial"",""time""
""fullscreenenter"",""1"",""2803""
","
","
","""event"",""trial"",""time""
""fullscreenenter"",""1"",""2803""
","
","","","1283.5999999046326","","","13","19827","7137","t","elianto","#f73b6a7A"," "," ","1","0","[2136.1999999284744]","1","2","","","19827","42","2","3","lose","go","0"
"pit-trial","174","1251409","0.0-47.0","battery-v0.2","","""event"",""trial"",""time""
""fullscreenenter"",""1"",""2803""
","
","
","""event"",""trial"",""time""
""fullscreenenter"",""1"",""2803""
","
","","","1928","","","13","19827","7137","b","elianto","#f73b6a7A","-1"," ","0","-10","[2785.600000023842]","1","2","","","19827","43","3","4","lose","no-go","0"
"pit-trial","175","1256222","0.0-48.0","battery-v0.2","","""event"",""trial"",""time""
""fullscreenenter"",""1"",""2803""
","
","
","""event"",""trial"",""time""
""fullscreenenter"",""1"",""2803""
","
","","","1950.1000000238419","","","13","19827","7137","f","elianto","#3366ff99","-1"," ","0","0","[2809.5]","1","2","","","19827","44","1","2","win","no-go","0"
"pit-trial","176","1261091","0.0-49.0","battery-v0.2","","""event"",""trial"",""time""
""fullscreenenter"",""1"",""2803""
","
","
","""event"",""trial"",""time""
""fullscreenenter"",""1"",""2803""
","
","","","-1","","","13","19827","7137","f","elianto","#3366ff99","-1","-1","1","+10","[4343.600000023842]","1","2","","","19827","45","1","2","win","no-go","0"
"pit-trial","177","1265666","0.0-50.0","battery-v0.2","","""event"",""trial"",""time""
""fullscreenenter"",""1"",""2803""
","
","
","""event"",""trial"",""time""
""fullscreenenter"",""1"",""2803""
","
","","","1708.5","","","13","19827","7137","n","elianto","#f73b6a7A"," "," ","1","0","[2564.7000000476837]","1","2","","","19827","46","0","3","lose","go","0"
"pit-trial","178","1270010","0.0-51.0","battery-v0.2","","""event"",""trial"",""time""
""fullscreenenter"",""1"",""2803""
","
","
","""event"",""trial"",""time""
""fullscreenenter"",""1"",""2803""
","
","","","1485.3999999761581","","","13","19827","7137","b","elianto","#f73b6a7A","-1"," ","0","-10","[2338.2999999523163]","1","2","","","19827","47","3","4","lose","no-go","0"
"pit-trial","179","1273917","0.0-52.0","battery-v0.2","","""event"",""trial"",""time""
""fullscreenenter"",""1"",""2803""
","
","
","""event"",""trial"",""time""
""fullscreenenter"",""1"",""2803""
","
","","","1036","","","13","19827","7137","t","elianto","#f73b6a7A"," "," ","1","0","[1889.9000000953674]","1","2","","","19827","48","2","3","lose","go","0"
"pit-trial","180","1277476","0.0-53.0","battery-v0.2","","""event"",""trial"",""time""
""fullscreenenter"",""1"",""2803""
","
","
","""event"",""trial"",""time""
""fullscreenenter"",""1"",""2803""
","
","","","694.8000000715256","","","13","19827","7137","n","elianto","#f73b6a7A"," "," ","1","0","[1550.2000000476837]","1","2","","","19827","49","0","3","lose","go","0"
"pit-trial","181","1280951","0.0-54.0","battery-v0.2","","""event"",""trial"",""time""
""fullscreenenter"",""1"",""2803""
","
","
","""event"",""trial"",""time""
""fullscreenenter"",""1"",""2803""
","
","","","614.8000000715256","","","13","19827","7137","b","elianto","#f73b6a7A","-1"," ","0","0","[1465.7000000476837]","1","2","","","19827","50","3","4","lose","no-go","1"
"pit-trial","182","1285811","0.0-55.0","battery-v0.2","","""event"",""trial"",""time""
""fullscreenenter"",""1"",""2803""
","
","
","""event"",""trial"",""time""
""fullscreenenter"",""1"",""2803""
","
","","","-1","","","13","19827","7137","t","elianto","#f73b6a7A"," ","-1","0","-10","[4773]","1","2","","","19827","51","2","3","lose","go","0"
"pit-trial","183","1289333","0.0-56.0","battery-v0.2","","""event"",""trial"",""time""
""fullscreenenter"",""1"",""2803""
","
","
","""event"",""trial"",""time""
""fullscreenenter"",""1"",""2803""
","
","","","654.5","","","13","19827","7137","f","elianto","#3366ff99","-1"," ","0","0","[1504.8999999761581]","1","2","","","19827","52","1","2","win","no-go","0"
"pit-trial","184","1293468","0.0-57.0","battery-v0.2","","""event"",""trial"",""time""
""fullscreenenter"",""1"",""2803""
","
","
","""event"",""trial"",""time""
""fullscreenenter"",""1"",""2803""
","
","","","1274.7999999523163","","","13","19827","7137","b","elianto","#f73b6a7A","-1"," ","0","-10","[2125.5999999046326]","1","2","","","19827","53","3","4","lose","no-go","0"
"pit-trial","185","1298335","0.0-58.0","battery-v0.2","","""event"",""trial"",""time""
""fullscreenenter"",""1"",""2803""
","
","
","""event"",""trial"",""time""
""fullscreenenter"",""1"",""2803""
","
","","","-1","","","13","19827","7137","f","elianto","#3366ff99","-1","-1","1","+10","[3158.5]","1","2","","","19827","54","1","2","win","no-go","0"
"pit-trial","186","1301896","0.0-59.0","battery-v0.2","","""event"",""trial"",""time""
""fullscreenenter"",""1"",""2803""
","
","
","""event"",""trial"",""time""
""fullscreenenter"",""1"",""2803""
","
","","","700.3999999761581","","","13","19827","7137","t","elianto","#f73b6a7A"," "," ","1","0","[1551.6999999284744]","1","2","","","19827","55","2","3","lose","go","0"
"pit-trial","187","1305540","0.0-60.0","battery-v0.2","","""event"",""trial"",""time""
""fullscreenenter"",""1"",""2803""
","
","
","""event"",""trial"",""time""
""fullscreenenter"",""1"",""2803""
","
","","","774.4000000953674","","","13","19827","7137","n","elianto","#f73b6a7A"," "," ","1","0","[1632.7000000476837]","1","2","","","19827","56","0","3","lose","go","0"
"pit-trial","188","1308992","0.0-61.0","battery-v0.2","","""event"",""trial"",""time""
""fullscreenenter"",""1"",""2803""
","
","
","""event"",""trial"",""time""
""fullscreenenter"",""1"",""2803""
","
","","","588.2999999523163","","","13","19827","7137","n","elianto","#f73b6a7A"," "," ","1","-10","[1445.1000000238419]","1","2","","","19827","57","0","3","lose","go","1"
"pit-trial","189","1312543","0.0-62.0","battery-v0.2","","""event"",""trial"",""time""
""fullscreenenter"",""1"",""2803""
","
","
","""event"",""trial"",""time""
""fullscreenenter"",""1"",""2803""
","
","","","676.2999999523163","","","13","19827","7137","c","elianto","#3366ff99"," "," ","1","+10","[1529.1000000238419]","1","2","","","19827","58","4","1","win","go","0"
"pit-trial","190","1315592","0.0-63.0","battery-v0.2","","""event"",""trial"",""time""
""fullscreenenter"",""1"",""2803""
","
","
","""event"",""trial"",""time""
""fullscreenenter"",""1"",""2803""
","
","","","186.70000004768372","","","13","19827","7137","t","elianto","#f73b6a7A"," "," ","1","0","[1040.5]","1","2","","","19827","59","2","3","lose","go","0"
"pit-trial","191","1318888","0.0-64.0","battery-v0.2","","""event"",""trial"",""time""
""fullscreenenter"",""1"",""2803""
","
","
","""event"",""trial"",""time""
""fullscreenenter"",""1"",""2803""
","
","","","427.1999999284744","","","13","19827","7137","b","elianto","#f73b6a7A","-1"," ","0","-10","[1284.7999999523163]","1","2","","","19827","60","3","4","lose","no-go","0"
"pit-trial","192","1323752","0.0-65.0","battery-v0.2","","""event"",""trial"",""time""
""fullscreenenter"",""1"",""2803""
","
","
","""event"",""trial"",""time""
""fullscreenenter"",""1"",""2803""
","
","","","-1","","","13","19827","7137","b","elianto","#f73b6a7A","-1","-1","1","0","[]","0","2","","","19827","61","3","4","lose","no-go","0"
"pit-trial","193","1327299","0.0-66.0","battery-v0.2","","""event"",""trial"",""time""
""fullscreenenter"",""1"",""2803""
","
","
","""event"",""trial"",""time""
""fullscreenenter"",""1"",""2803""
","
","","","679.5999999046326","","","13","19827","7137","c","elianto","#3366ff99"," "," ","1","+10","[1535.3999999761581]","1","2","","","19827","62","4","1","win","go","0"
"pit-trial","194","1331815","0.0-67.0","battery-v0.2","","""event"",""trial"",""time""
""fullscreenenter"",""1"",""2803""
","
","
","""event"",""trial"",""time""
""fullscreenenter"",""1"",""2803""
","
","","","1653.5999999046326","","","13","19827","7137","f","elianto","#3366ff99","-1"," ","0","0","[2505.0999999046326]","1","2","","","19827","63","1","2","win","no-go","0"
"pit-trial","195","1335595","0.0-68.0","battery-v0.2","","""event"",""trial"",""time""
""fullscreenenter"",""1"",""2803""
","
","
","""event"",""trial"",""time""
""fullscreenenter"",""1"",""2803""
","
","","","919.7000000476837","","","13","19827","7137","t","elianto","#f73b6a7A"," "," ","1","0","[1771.6000000238419]","1","2","","","19827","64","2","3","lose","go","0"
"pit-trial","196","1339002","0.0-69.0","battery-v0.2","","""event"",""trial"",""time""
""fullscreenenter"",""1"",""2803""
","
","
","""event"",""trial"",""time""
""fullscreenenter"",""1"",""2803""
","
","","","551.2999999523163","","","13","19827","7137","b","elianto","#f73b6a7A","-1"," ","0","-10","[1403.9000000953674]","1","2","","","19827","65","3","4","lose","no-go","0"
"pit-trial","197","1343866","0.0-70.0","battery-v0.2","","""event"",""trial"",""time""
""fullscreenenter"",""1"",""2803""
","
","
","""event"",""trial"",""time""
""fullscreenenter"",""1"",""2803""
","
","","","-1","","","13","19827","7137","z","elianto","#3366ff99","-1","-1","1","+10","[3045.5]","1","2","","","19827","66","5","2","win","no-go","0"
"pit-trial","198","1347024","0.0-71.0","battery-v0.2","","""event"",""trial"",""time""
""fullscreenenter"",""1"",""2803""
","
","
","""event"",""trial"",""time""
""fullscreenenter"",""1"",""2803""
","
","","","283.6999999284744","","","13","19827","7137","c","elianto","#3366ff99"," "," ","1","+10","[1145.1999999284744]","1","2","","","19827","67","4","1","win","go","0"
"pit-trial","199","1350226","0.0-72.0","battery-v0.2","","""event"",""trial"",""time""
""fullscreenenter"",""1"",""2803""
","
","
","""event"",""trial"",""time""
""fullscreenenter"",""1"",""2803""
","
","","","340.2000000476837","","","13","19827","7137","f","elianto","#3366ff99","-1"," ","0","+10","[1191.8999999761581]","1","2","","","19827","68","1","2","win","no-go","1"
"pit-trial","200","1355093","0.0-73.0","battery-v0.2","","""event"",""trial"",""time""
""fullscreenenter"",""1"",""2803""
","
","
","""event"",""trial"",""time""
""fullscreenenter"",""1"",""2803""
","
","","","-1","","","13","19827","7137","z","elianto","#3366ff99","-1","-1","1","+10","[]","0","2","","","19827","69","5","2","win","no-go","0"
"pit-trial","201","1358520","0.0-74.0","battery-v0.2","","""event"",""trial"",""time""
""fullscreenenter"",""1"",""2803""
","
","
","""event"",""trial"",""time""
""fullscreenenter"",""1"",""2803""
","
","","","562.8000000715256","","","13","19827","7137","c","elianto","#3366ff99"," "," ","1","0","[1418.2999999523163]","1","2","","","19827","70","4","1","win","go","1"
"pit-trial","202","1362240","0.0-75.0","battery-v0.2","","""event"",""trial"",""time""
""fullscreenenter"",""1"",""2803""
","
","
","""event"",""trial"",""time""
""fullscreenenter"",""1"",""2803""
","
","","","848.6000000238419","","","13","19827","7137","f","elianto","#3366ff99","-1"," ","0","+10","[1704.7999999523163]","1","2","","","19827","71","1","2","win","no-go","1"
"pit-trial","203","1367111","0.0-76.0","battery-v0.2","","""event"",""trial"",""time""
""fullscreenenter"",""1"",""2803""
","
","
","""event"",""trial"",""time""
""fullscreenenter"",""1"",""2803""
","
","","","-1","","","13","19827","7137","t","elianto","#f73b6a7A"," ","-1","0","-10","[3522]","1","2","","","19827","72","2","3","lose","go","0"
"pit-trial","204","1370618","0.0-77.0","battery-v0.2","","""event"",""trial"",""time""
""fullscreenenter"",""1"",""2803""
","
","
","""event"",""trial"",""time""
""fullscreenenter"",""1"",""2803""
","
","","","645","","","13","19827","7137","c","elianto","#3366ff99"," "," ","1","+10","[1498.3999999761581]","1","2","","","19827","73","4","1","win","go","0"
"pit-trial","205","1374302","0.0-78.0","battery-v0.2","","""event"",""trial"",""time""
""fullscreenenter"",""1"",""2803""
","
","
","""event"",""trial"",""time""
""fullscreenenter"",""1"",""2803""
","
","","","826","","","13","19827","7137","f","elianto","#3366ff99","-1"," ","0","0","[1676.6000000238419]","1","2","","","19827","74","1","2","win","no-go","0"
"pit-trial","206","1378499","0.0-79.0","battery-v0.2","","""event"",""trial"",""time""
""fullscreenenter"",""1"",""2803""
","
","
","""event"",""trial"",""time""
""fullscreenenter"",""1"",""2803""
","
","","","1332.1999999284744","","","13","19827","7137","b","elianto","#f73b6a7A","-1"," ","0","-10","[555.2000000476837,2188.399999976158]","2","2","","","19827","75","3","4","lose","no-go","0"
"pit-trial","207","1381742","0.0-80.0","battery-v0.2","","""event"",""trial"",""time""
""fullscreenenter"",""1"",""2803""
","
","
","""event"",""trial"",""time""
""fullscreenenter"",""1"",""2803""
","
","","","380.7999999523163","","","13","19827","7137","z","elianto","#3366ff99","-1"," ","0","+10","[1231.2999999523163,1530.3999999761581,1861.1999999284744]","3","2","","","19827","76","5","2","win","no-go","1"
"pit-trial","208","1386605","0.0-81.0","battery-v0.2","","""event"",""trial"",""time""
""fullscreenenter"",""1"",""2803""
","
","
","""event"",""trial"",""time""
""fullscreenenter"",""1"",""2803""
","
","","","-1","","","13","19827","7137","z","elianto","#3366ff99","-1","-1","1","+10","[2918.8000000715256,3583.5]","2","2","","","19827","77","5","2","win","no-go","0"
"pit-trial","209","1390272","0.0-82.0","battery-v0.2","","""event"",""trial"",""time""
""fullscreenenter"",""1"",""2803""
","
","
","""event"",""trial"",""time""
""fullscreenenter"",""1"",""2803""
","
","","","811.2999999523163","","","13","19827","7137","b","elianto","#f73b6a7A","-1"," ","0","-10","[570,1661.5999999046326]","2","2","","","19827","78","3","4","lose","no-go","0"
"pit-trial","210","1393902","0.0-83.0","battery-v0.2","","""event"",""trial"",""time""
""fullscreenenter"",""1"",""2803""
","
","
","""event"",""trial"",""time""
""fullscreenenter"",""1"",""2803""
","
","","","764","","","13","19827","7137","c","elianto","#3366ff99"," "," ","1","+10","[559.2999999523163,1617.8999999761581]","2","2","","","19827","79","4","1","win","go","0"
"pit-trial","211","1398779","0.0-84.0","battery-v0.2","","""event"",""trial"",""time""
""fullscreenenter"",""1"",""2803""
","
","
","""event"",""trial"",""time""
""fullscreenenter"",""1"",""2803""
","
","","","-1","","","13","19827","7137","c","elianto","#3366ff99"," ","-1","0","0","[]","0","2","","","19827","80","4","1","win","go","0"
"pit-trial","212","1403338","0.0-85.0","battery-v0.2","","""event"",""trial"",""time""
""fullscreenenter"",""1"",""2803""
","
","
","""event"",""trial"",""time""
""fullscreenenter"",""1"",""2803""
","
","","","1687.5","","","13","19827","7137","z","elianto","#3366ff99","-1"," ","0","0","[2551.5999999046326]","1","2","","","19827","81","5","2","win","no-go","0"
"pit-trial","213","1407873","0.0-86.0","battery-v0.2","","""event"",""trial"",""time""
""fullscreenenter"",""1"",""2803""
","
","
","""event"",""trial"",""time""
""fullscreenenter"",""1"",""2803""
","
","","","1662.6999999284744","","","13","19827","7137","b","elianto","#f73b6a7A","-1"," ","0","-10","[2516.899999976158]","1","2","","","19827","82","3","4","lose","no-go","0"
"pit-trial","214","1412723","0.0-87.0","battery-v0.2","","""event"",""trial"",""time""
""fullscreenenter"",""1"",""2803""
","
","
","""event"",""trial"",""time""
""fullscreenenter"",""1"",""2803""
","
","","","1992.6999999284744","","","13","19827","7137","c","elianto","#3366ff99"," "," ","1","+10","[2843.5999999046326]","1","2","","","19827","83","4","1","win","go","0"
"pit-trial","215","1416478","0.0-88.0","battery-v0.2","","""event"",""trial"",""time""
""fullscreenenter"",""1"",""2803""
","
","
","""event"",""trial"",""time""
""fullscreenenter"",""1"",""2803""
","
","","","890.7999999523163","","","13","19827","7137","y","elianto","#f73b6a7A","-1"," ","0","0","[1746.1999999284744]","1","2","","","19827","84","7","4","lose","no-go","1"
"pit-trial","216","1420129","0.0-89.0","battery-v0.2","","""event"",""trial"",""time""
""fullscreenenter"",""1"",""2803""
","
","
","""event"",""trial"",""time""
""fullscreenenter"",""1"",""2803""
","
","","","790.6999999284744","","","13","19827","7137","z","elianto","#3366ff99","-1"," ","0","0","[1644]","1","2","","","19827","85","5","2","win","no-go","0"
"pit-trial","217","1423771","0.0-90.0","battery-v0.2","","""event"",""trial"",""time""
""fullscreenenter"",""1"",""2803""
","
","
","""event"",""trial"",""time""
""fullscreenenter"",""1"",""2803""
","
","","","782.2999999523163","","","13","19827","7137","c","elianto","#3366ff99"," "," ","1","+10","[1634.8999999761581]","1","2","","","19827","86","4","1","win","go","0"
"pit-trial","218","1426944","0.0-91.0","battery-v0.2","","""event"",""trial"",""time""
""fullscreenenter"",""1"",""2803""
","
","
","""event"",""trial"",""time""
""fullscreenenter"",""1"",""2803""
","
","","","316.2000000476837","","","13","19827","7137","y","elianto","#f73b6a7A","-1"," ","0","-10","[1166.3999999761581]","1","2","","","19827","87","7","4","lose","no-go","0"
"pit-trial","219","1431821","0.0-92.0","battery-v0.2","","""event"",""trial"",""time""
""fullscreenenter"",""1"",""2803""
","
","
","""event"",""trial"",""time""
""fullscreenenter"",""1"",""2803""
","
","","","-1","","","13","19827","7137","h","elianto","#f73b6a7A"," ","-1","0","-10","[]","0","2","","","19827","88","6","3","lose","go","0"
"pit-trial","220","1435567","0.0-93.0","battery-v0.2","","""event"",""trial"",""time""
""fullscreenenter"",""1"",""2803""
","
","
","""event"",""trial"",""time""
""fullscreenenter"",""1"",""2803""
","
","","","876.6999999284744","","","13","19827","7137","c","elianto","#3366ff99"," "," ","1","+10","[215.89999997615814,1728.2999999523163]","2","2","","","19827","89","4","1","win","go","0"
"pit-trial","221","1438902","0.0-94.0","battery-v0.2","","""event"",""trial"",""time""
""fullscreenenter"",""1"",""2803""
","
","
","""event"",""trial"",""time""
""fullscreenenter"",""1"",""2803""
","
","","","463.59999990463257","","","13","19827","7137","z","elianto","#3366ff99","-1"," ","0","0","[1317.3000000715256]","1","2","","","19827","90","5","2","win","no-go","0"
"pit-trial","222","1442205","0.0-95.0","battery-v0.2","","""event"",""trial"",""time""
""fullscreenenter"",""1"",""2803""
","
","
","""event"",""trial"",""time""
""fullscreenenter"",""1"",""2803""
","
","","","430.2000000476837","","","13","19827","7137","h","elianto","#f73b6a7A"," "," ","1","-10","[1286]","1","2","","","19827","91","6","3","lose","go","1"
"pit-trial","223","1447073","0.0-96.0","battery-v0.2","","""event"",""trial"",""time""
""fullscreenenter"",""1"",""2803""
","
","
","""event"",""trial"",""time""
""fullscreenenter"",""1"",""2803""
","
","","","-1","","","13","19827","7137","y","elianto","#f73b6a7A","-1","-1","1","-10","[]","0","2","","","19827","92","7","4","lose","no-go","1"
"pit-trial","224","1450285","0.0-97.0","battery-v0.2","","""event"",""trial"",""time""
""fullscreenenter"",""1"",""2803""
","
","
","""event"",""trial"",""time""
""fullscreenenter"",""1"",""2803""
","
","","","349.2000000476837","","","13","19827","7137","y","elianto","#f73b6a7A","-1"," ","0","-10","[307.7999999523163,1200.1000000238419,1864.6000000238419,3068.100000023842]","4","2","","","19827","93","7","4","lose","no-go","0"
"pit-trial","225","1453348","0.0-98.0","battery-v0.2","","""event"",""trial"",""time""
""fullscreenenter"",""1"",""2803""
","
","
","""event"",""trial"",""time""
""fullscreenenter"",""1"",""2803""
","
","","","201.59999990463257","","","13","19827","7137","r","elianto","#3366ff99"," "," ","1","+10","[1056.6000000238419]","1","2","","","19827","94","8","1","win","go","0"
"pit-trial","226","1458220","0.0-99.0","battery-v0.2","","""event"",""trial"",""time""
""fullscreenenter"",""1"",""2803""
","
","
","""event"",""trial"",""time""
""fullscreenenter"",""1"",""2803""
","
","","","-1","","","13","19827","7137","h","elianto","#f73b6a7A"," ","-1","0","-10","[]","0","2","","","19827","95","6","3","lose","go","0"
"pit-trial","227","1463079","0.0-100.0","battery-v0.2","","""event"",""trial"",""time""
""fullscreenenter"",""1"",""2803""
","
","
","""event"",""trial"",""time""
""fullscreenenter"",""1"",""2803""
","
","","","-1","","","13","19827","7137","z","elianto","#3366ff99","-1","-1","1","+10","[4067.899999976158]","1","2","","","19827","96","5","2","win","no-go","0"
"pit-trial","228","1466258","0.0-101.0","battery-v0.2","","""event"",""trial"",""time""
""fullscreenenter"",""1"",""2803""
","
","
","""event"",""trial"",""time""
""fullscreenenter"",""1"",""2803""
","
","","","309.3000000715256","","","13","19827","7137","z","elianto","#3366ff99","-1"," ","0","0","[621.7000000476837,1170.3000000715256]","2","2","","","19827","97","5","2","win","no-go","0"
"pit-trial","229","1469550","0.0-102.0","battery-v0.2","","""event"",""trial"",""time""
""fullscreenenter"",""1"",""2803""
","
","
","""event"",""trial"",""time""
""fullscreenenter"",""1"",""2803""
","
","","","433.89999997615814","","","13","19827","7137","y","elianto","#f73b6a7A","-1"," ","0","-10","[1285.8000000715256]","1","2","","","19827","98","7","4","lose","no-go","0"
"pit-trial","230","1474411","0.0-103.0","battery-v0.2","","""event"",""trial"",""time""
""fullscreenenter"",""1"",""2803""
","
","
","""event"",""trial"",""time""
""fullscreenenter"",""1"",""2803""
","
","","","-1","","","13","19827","7137","r","elianto","#3366ff99"," ","-1","0","0","[]","0","2","","","19827","99","8","1","win","go","0"
"pit-trial","231","1479281","0.0-104.0","battery-v0.2","","""event"",""trial"",""time""
""fullscreenenter"",""1"",""2803""
","
","
","""event"",""trial"",""time""
""fullscreenenter"",""1"",""2803""
","
","","","-1","","","13","19827","7137","h","elianto","#f73b6a7A"," ","-1","0","-10","[]","0","2","","","19827","100","6","3","lose","go","0"
"pit-trial","232","1483055","0.0-105.0","battery-v0.2","","""event"",""trial"",""time""
""fullscreenenter"",""1"",""2803""
","
","
","""event"",""trial"",""time""
""fullscreenenter"",""1"",""2803""
","
","","","911.8999999761581","","","13","19827","7137","r","elianto","#3366ff99"," "," ","1","+10","[1762.7000000476837]","1","2","","","19827","101","8","1","win","go","0"
"pit-trial","233","1486385","0.0-106.0","battery-v0.2","","""event"",""trial"",""time""
""fullscreenenter"",""1"",""2803""
","
","
","""event"",""trial"",""time""
""fullscreenenter"",""1"",""2803""
","
","","","464.60000002384186","","","13","19827","7137","z","elianto","#3366ff99","-1"," ","0","0","[1323.1000000238419]","1","2","","","19827","102","5","2","win","no-go","0"
"pit-trial","234","1489999","0.0-107.0","battery-v0.2","","""event"",""trial"",""time""
""fullscreenenter"",""1"",""2803""
","
","
","""event"",""trial"",""time""
""fullscreenenter"",""1"",""2803""
","
","","","755.7999999523163","","","13","19827","7137","y","elianto","#f73b6a7A","-1"," ","0","-10","[1610.5]","1","2","","","19827","103","7","4","lose","no-go","0"
"pit-trial","235","1492896","0.0-108.0","battery-v0.2","","""event"",""trial"",""time""
""fullscreenenter"",""1"",""2803""
","
","
","""event"",""trial"",""time""
""fullscreenenter"",""1"",""2803""
","
","","","24.799999952316284","","","13","19827","7137","m","elianto","#3366ff99"," "," ","1","+10","[883.1000000238419]","1","2","","","19827","104","9","1","win","go","0"
"pit-trial","236","1496620","0.0-109.0","battery-v0.2","","""event"",""trial"",""time""
""fullscreenenter"",""1"",""2803""
","
","
","""event"",""trial"",""time""
""fullscreenenter"",""1"",""2803""
","
","","","863.3999999761581","","","13","19827","7137","c","elianto","#3366ff99"," "," ","1","0","[1714.5]","1","2","","","19827","105","4","1","win","go","1"
"pit-trial","237","1499652","0.0-110.0","battery-v0.2","","""event"",""trial"",""time""
""fullscreenenter"",""1"",""2803""
","
","
","""event"",""trial"",""time""
""fullscreenenter"",""1"",""2803""
","
","","","164.70000004768372","","","13","19827","7137","r","elianto","#3366ff99"," "," ","1","+10","[1021.7000000476837]","1","2","","","19827","106","8","1","win","go","0"
"pit-trial","238","1502775","0.0-111.0","battery-v0.2","","""event"",""trial"",""time""
""fullscreenenter"",""1"",""2803""
","
","
","""event"",""trial"",""time""
""fullscreenenter"",""1"",""2803""
","
","","","253.29999995231628","","","13","19827","7137","h","elianto","#f73b6a7A"," "," ","1","0","[1107.9000000953674]","1","2","","","19827","107","6","3","lose","go","0"
"pit-trial","239","1506060","0.0-112.0","battery-v0.2","","""event"",""trial"",""time""
""fullscreenenter"",""1"",""2803""
","
","
","""event"",""trial"",""time""
""fullscreenenter"",""1"",""2803""
","
","","","426.5","","","13","19827","7137","m","elianto","#3366ff99"," "," ","1","+10","[1277.2000000476837]","1","2","","","19827","108","9","1","win","go","0"
"pit-trial","240","1510721","0.0-113.0","battery-v0.2","","""event"",""trial"",""time""
""fullscreenenter"",""1"",""2803""
","
","
","""event"",""trial"",""time""
""fullscreenenter"",""1"",""2803""
","
","","","1800","","","13","19827","7137","m","elianto","#3366ff99"," "," ","1","0","[2650.2000000476837]","1","2","","","19827","109","9","1","win","go","1"
"pit-trial","241","1515593","0.0-114.0","battery-v0.2","","""event"",""trial"",""time""
""fullscreenenter"",""1"",""2803""
","
","
","""event"",""trial"",""time""
""fullscreenenter"",""1"",""2803""
","
","","","-1","","","13","19827","7137","z","elianto","#3366ff99","-1","-1","1","+10","[]","0","2","","","19827","110","5","2","win","no-go","0"
"pit-trial","242","1519824","0.0-115.0","battery-v0.2","","""event"",""trial"",""time""
""fullscreenenter"",""1"",""2803""
","
","
","""event"",""trial"",""time""
""fullscreenenter"",""1"",""2803""
","
","","","1356.2000000476837","","","13","19827","7137","r","elianto","#3366ff99"," "," ","1","+10","[2208.899999976158]","1","2","","","19827","111","8","1","win","go","0"
"pit-trial","243","1523772","0.0-116.0","battery-v0.2","","""event"",""trial"",""time""
""fullscreenenter"",""1"",""2803""
","
","
","""event"",""trial"",""time""
""fullscreenenter"",""1"",""2803""
","
","","","1076.2000000476837","","","13","19827","7137","h","elianto","#f73b6a7A"," "," ","1","0","[1931.3999999761581]","1","2","","","19827","112","6","3","lose","go","0"
"pit-trial","244","1528086","0.0-117.0","battery-v0.2","","""event"",""trial"",""time""
""fullscreenenter"",""1"",""2803""
","
","
","""event"",""trial"",""time""
""fullscreenenter"",""1"",""2803""
","
","","","1446.5999999046326","","","13","19827","7137","r","elianto","#3366ff99"," "," ","1","+10","[2301.899999976158]","1","2","","","19827","113","8","1","win","go","0"
"pit-trial","245","1531825","0.0-118.0","battery-v0.2","","""event"",""trial"",""time""
""fullscreenenter"",""1"",""2803""
","
","
","""event"",""trial"",""time""
""fullscreenenter"",""1"",""2803""
","
","","","877.3999999761581","","","13","19827","7137","h","elianto","#f73b6a7A"," "," ","1","0","[1734]","1","2","","","19827","114","6","3","lose","go","0"
"pit-trial","246","1534976","0.0-119.0","battery-v0.2","","""event"",""trial"",""time""
""fullscreenenter"",""1"",""2803""
","
","
","""event"",""trial"",""time""
""fullscreenenter"",""1"",""2803""
","
","","","292.59999990463257","","","13","19827","7137","m","elianto","#3366ff99"," "," ","1","+10","[1146.3999999761581]","1","2","","","19827","115","9","1","win","go","0"
"pit-trial","247","1538502","0.0-120.0","battery-v0.2","","""event"",""trial"",""time""
""fullscreenenter"",""1"",""2803""
","
","
","""event"",""trial"",""time""
""fullscreenenter"",""1"",""2803""
","
","","","663.2000000476837","","","13","19827","7137","z","elianto","#3366ff99","-1"," ","0","0","[1518.8999999761581]","1","2","","","19827","116","5","2","win","no-go","0"
"pit-trial","248","1541628","0.0-121.0","battery-v0.2","","""event"",""trial"",""time""
""fullscreenenter"",""1"",""2803""
","
","
","""event"",""trial"",""time""
""fullscreenenter"",""1"",""2803""
","
","","","260.39999997615814","","","13","19827","7137","h","elianto","#f73b6a7A"," "," ","1","0","[1114.8999999761581]","1","2","","","19827","117","6","3","lose","go","0"
"pit-trial","249","1544973","0.0-122.0","battery-v0.2","","""event"",""trial"",""time""
""fullscreenenter"",""1"",""2803""
","
","
","""event"",""trial"",""time""
""fullscreenenter"",""1"",""2803""
","
","","","475.89999997615814","","","13","19827","7137","r","elianto","#3366ff99"," "," ","1","0","[1333.3999999761581]","1","2","","","19827","118","8","1","win","go","1"
"pit-trial","250","1548164","0.0-123.0","battery-v0.2","","""event"",""trial"",""time""
""fullscreenenter"",""1"",""2803""
","
","
","""event"",""trial"",""time""
""fullscreenenter"",""1"",""2803""
","
","","","322.60000002384186","","","13","19827","7137","m","elianto","#3366ff99"," "," ","1","+10","[1178.7000000476837]","1","2","","","19827","119","9","1","win","go","0"
"pit-trial","251","1551575","0.0-124.0","battery-v0.2","","""event"",""trial"",""time""
""fullscreenenter"",""1"",""2803""
","
","
","""event"",""trial"",""time""
""fullscreenenter"",""1"",""2803""
","
","","","546.2000000476837","","","13","19827","7137","z","elianto","#3366ff99","-1"," ","0","0","[1401.7000000476837]","1","2","","","19827","120","5","2","win","no-go","0"
"pit-trial","252","1554946","0.0-125.0","battery-v0.2","","""event"",""trial"",""time""
""fullscreenenter"",""1"",""2803""
","
","
","""event"",""trial"",""time""
""fullscreenenter"",""1"",""2803""
","
","","","516.6000000238419","","","13","19827","7137","h","elianto","#f73b6a7A"," "," ","1","-10","[1367]","1","2","","","19827","121","6","3","lose","go","1"
"pit-trial","253","1558280","0.0-126.0","battery-v0.2","","""event"",""trial"",""time""
""fullscreenenter"",""1"",""2803""
","
","
","""event"",""trial"",""time""
""fullscreenenter"",""1"",""2803""
","
","","","472.89999997615814","","","13","19827","7137","r","elianto","#3366ff99"," "," ","1","+10","[1327.6000000238419]","1","2","","","19827","122","8","1","win","go","0"
"pit-trial","254","1563159","0.0-127.0","battery-v0.2","","""event"",""trial"",""time""
""fullscreenenter"",""1"",""2803""
","
","
","""event"",""trial"",""time""
""fullscreenenter"",""1"",""2803""
","
","","","-1","","","13","19827","7137","y","elianto","#f73b6a7A","-1","-1","1","0","[]","0","2","","","19827","123","7","4","lose","no-go","0"
"pit-trial","255","1568032","0.0-128.0","battery-v0.2","","""event"",""trial"",""time""
""fullscreenenter"",""1"",""2803""
","
","
","""event"",""trial"",""time""
""fullscreenenter"",""1"",""2803""
","
","","","-1","","","13","19827","7137","m","elianto","#3366ff99"," ","-1","0","0","[]","0","2","","","19827","124","9","1","win","go","0"
"pit-trial","256","1572897","0.0-129.0","battery-v0.2","","""event"",""trial"",""time""
""fullscreenenter"",""1"",""2803""
","
","
","""event"",""trial"",""time""
""fullscreenenter"",""1"",""2803""
","
","","","-1","","","13","19827","7137","m","elianto","#3366ff99"," ","-1","0","0","[]","0","2","","","19827","125","9","1","win","go","0"
"pit-trial","257","1577781","0.0-130.0","battery-v0.2","","""event"",""trial"",""time""
""fullscreenenter"",""1"",""2803""
","
","
","""event"",""trial"",""time""
""fullscreenenter"",""1"",""2803""
","
","","","-1","","","13","19827","7137","y","elianto","#f73b6a7A","-1","-1","1","0","[]","0","2","","","19827","126","7","4","lose","no-go","0"
"pit-trial","258","1581829","0.0-131.0","battery-v0.2","","""event"",""trial"",""time""
""fullscreenenter"",""1"",""2803""
","
","
","""event"",""trial"",""time""
""fullscreenenter"",""1"",""2803""
","
","","","1191.2000000476837","","","13","19827","7137","r","elianto","#3366ff99"," "," ","1","+10","[2041.4000000953674]","1","2","","","19827","127","8","1","win","go","0"
"pit-trial","259","1586045","0.0-132.0","battery-v0.2","","""event"",""trial"",""time""
""fullscreenenter"",""1"",""2803""
","
","
","""event"",""trial"",""time""
""fullscreenenter"",""1"",""2803""
","
","","","1354.6999999284744","","","13","19827","7137","h","elianto","#f73b6a7A"," "," ","1","0","[2204.899999976158]","1","2","","","19827","128","6","3","lose","go","0"
"pit-trial","260","1588941","0.0-133.0","battery-v0.2","","""event"",""trial"",""time""
""fullscreenenter"",""1"",""2803""
","
","
","""event"",""trial"",""time""
""fullscreenenter"",""1"",""2803""
","
","","","40.200000047683716","","","13","19827","7137","y","elianto","#f73b6a7A","-1"," ","0","-10","[890.5]","1","2","","","19827","129","7","4","lose","no-go","0"
"pit-trial","261","1591984","0.0-134.0","battery-v0.2","","""event"",""trial"",""time""
""fullscreenenter"",""1"",""2803""
","
","
","""event"",""trial"",""time""
""fullscreenenter"",""1"",""2803""
","
","","","189.19999992847443","","","13","19827","7137","h","elianto","#f73b6a7A"," "," ","1","0","[1040.1000000238419]","1","2","","","19827","130","6","3","lose","go","0"
"pit-trial","262","1594971","0.0-135.0","battery-v0.2","","""event"",""trial"",""time""
""fullscreenenter"",""1"",""2803""
","
","
","""event"",""trial"",""time""
""fullscreenenter"",""1"",""2803""
","
","","","127","","","13","19827","7137","r","elianto","#3366ff99"," "," ","1","+10","[977.3999999761581]","1","2","","","19827","131","8","1","win","go","0"
"pit-trial","263","1598013","0.0-136.0","battery-v0.2","","""event"",""trial"",""time""
""fullscreenenter"",""1"",""2803""
","
","
","""event"",""trial"",""time""
""fullscreenenter"",""1"",""2803""
","
","","","171.70000004768372","","","13","19827","7137","m","elianto","#3366ff99"," "," ","1","+10","[1024]","1","2","","","19827","132","9","1","win","go","0"
"pit-trial","264","1601086","0.0-137.0","battery-v0.2","","""event"",""trial"",""time""
""fullscreenenter"",""1"",""2803""
","
","
","""event"",""trial"",""time""
""fullscreenenter"",""1"",""2803""
","
","","","204.10000002384186","","","13","19827","7137","r","elianto","#3366ff99"," "," ","1","+10","[1064.5]","1","2","","","19827","133","8","1","win","go","0"
"pit-trial","265","1605957","0.0-138.0","battery-v0.2","","""event"",""trial"",""time""
""fullscreenenter"",""1"",""2803""
","
","
","""event"",""trial"",""time""
