"trial_type","trial_index","time_elapsed","internal_node_id","task_version","subject_id","interactions","blur_events","focus_events","fullscreenenter_events","fullscreenexit_events","success","view_history","rt","responses","num_errors","age","subject","participantId","rune","rune_set","hex","correct","choice","accuracy","outcome","keys","total_keys","block","practice","value","sub","trial","stimulus","robot","valence","action","sham"
"pavlovia","0","8","0.0-0.0","battery-v0.2","","""event"",""trial"",""time""
""fullscreenenter"",""1"",""2907""
","
","
","""event"",""trial"",""time""
""fullscreenenter"",""1"",""2907""
","
","","","","","","","","","","","","","","","","","","","","","","","","","","",""
"fullscreen","1","3874","0.0-1.0","battery-v0.2","","""event"",""trial"",""time""
""fullscreenenter"",""1"",""2907""
","
","
","""event"",""trial"",""time""
""fullscreenenter"",""1"",""2907""
","
","true","","","","","","","","","","","","","","","","","","","","","","","","","",""
"pit-instructions","2","9770","0.0-2.0-0.0","battery-v0.2","","""event"",""trial"",""time""
""fullscreenenter"",""1"",""2907""
","
","
","""event"",""trial"",""time""
""fullscreenenter"",""1"",""2907""
","
","","[{""page_index"":0,""viewing_time"":5892.39999961853}]","5892.799999237061","","","","","","","","","","","","","","","","","","","","","","","",""
"pit-comprehension","3","13310","0.0-2.0-1.0-0.0","battery-v0.2","","""event"",""trial"",""time""
""fullscreenenter"",""1"",""2907""
","
","
","""event"",""trial"",""time""
""fullscreenenter"",""1"",""2907""
","
","","","3536.099998474121","[""shark""]","0","13","14215","5905","","","","","","","","","","","","","","","","","","",""
"pit-instructions","4","14720","0.0-2.0-1.0-1.0","battery-v0.2","","""event"",""trial"",""time""
""fullscreenenter"",""1"",""2907""
","
","
","""event"",""trial"",""time""
""fullscreenenter"",""1"",""2907""
","
","","[{""page_index"":0,""viewing_time"":1391.3999996185303}]","1391.7000007629395","","","","","","","","","","","","","","","","","","","","","","","",""
"pit-comprehension","5","18107","0.0-2.0-2.0-0.0","battery-v0.2","","""event"",""trial"",""time""
""fullscreenenter"",""1"",""2907""
","
","
","""event"",""trial"",""time""
""fullscreenenter"",""1"",""2907""
","
","","","3383.5","[""tiger""]","0","13","14215","5905","","","","","","","","","","","","","","","","","","",""
"pit-instructions","6","19591","0.0-2.0-2.0-1.0","battery-v0.2","","""event"",""trial"",""time""
""fullscreenenter"",""1"",""2907""
","
","
","""event"",""trial"",""time""
""fullscreenenter"",""1"",""2907""
","
","","[{""page_index"":0,""viewing_time"":1479.3999996185303}]","1479.7000007629395","","","","","","","","","","","","","","","","","","","","","","","",""
"pit-instructions","7","120895","0.0-2.0-3.0","battery-v0.2","","""event"",""trial"",""time""
""fullscreenenter"",""1"",""2907""
","
","
","""event"",""trial"",""time""
""fullscreenenter"",""1"",""2907""
","
","","[{""page_index"":0,""viewing_time"":9248.10000038147},{""page_index"":1,""viewing_time"":6557},{""page_index"":2,""viewing_time"":6104.299999237061},{""page_index"":3,""viewing_time"":5736.5},{""page_index"":4,""viewing_time"":6531.799999237061},{""page_index"":5,""viewing_time"":6279.300001144409},{""page_index"":6,""viewing_time"":7596.39999961853},{""page_index"":7,""viewing_time"":6763.200000762939},{""page_index"":8,""viewing_time"":6103.5},{""page_index"":9,""viewing_time"":8644.39999961853},{""page_index"":10,""viewing_time"":10376.79999923706},{""page_index"":11,""viewing_time"":7390.39999961853},{""page_index"":12,""viewing_time"":8338.20000076294},{""page_index"":13,""viewing_time"":5630}]","101300.39999961853","","","","","","","","","","","","","","","","","","","","","","","",""
"pit-trial","8","124598","0.0-2.0-4.0-0.0","battery-v0.2","","""event"",""trial"",""time""
""fullscreenenter"",""1"",""2907""
","
","
","""event"",""trial"",""time""
""fullscreenenter"",""1"",""2907""
","
","","","836","","","13","14215","5905","&#9784;","elianto","#FFFFF080"," "," ","1","&#10004","[1693.8999996185303]","1","0","0","","","","","","","",""
"pit-trial","9","128089","0.0-2.0-4.1-0.1","battery-v0.2","","""event"",""trial"",""time""
""fullscreenenter"",""1"",""2907""
","
","
","""event"",""trial"",""time""
""fullscreenenter"",""1"",""2907""
","
","","","631.2999992370605","","","13","14215","5905","&#9784;","elianto","#FFFFF080"," "," ","1","&#10004","[1482.5]","1","0","0","","","","","","","",""
"pit-trial","10","131835","0.0-2.0-4.2-0.2","battery-v0.2","","""event"",""trial"",""time""
""fullscreenenter"",""1"",""2907""
","
","
","""event"",""trial"",""time""
""fullscreenenter"",""1"",""2907""
","
","","","883.8000011444092","","","13","14215","5905","&#9784;","elianto","#FFFFF080"," "," ","1","&#10004","[1734.8999996185303]","1","0","0","","","","","","","",""
"pit-trial","11","135601","0.0-2.0-4.3-0.3","battery-v0.2","","""event"",""trial"",""time""
""fullscreenenter"",""1"",""2907""
","
","
","""event"",""trial"",""time""
""fullscreenenter"",""1"",""2907""
","
","","","895.8999996185303","","","13","14215","5905","&#9784;","elianto","#FFFFF080"," "," ","1","&#10004","[1746.6999988555908]","1","0","0","","","","","","","",""
"pit-trial","12","139293","0.0-2.0-4.4-0.4","battery-v0.2","","""event"",""trial"",""time""
""fullscreenenter"",""1"",""2907""
","
","
","""event"",""trial"",""time""
""fullscreenenter"",""1"",""2907""
","
","","","828.6000003814697","","","13","14215","5905","&#9784;","elianto","#FFFFF080"," "," ","1","&#10004","[1683.6000003814697]","1","0","0","","","","","","","",""
"pit-instructions","13","164045","0.0-2.0-5.0","battery-v0.2","","""event"",""trial"",""time""
""fullscreenenter"",""1"",""2907""
","
","
","""event"",""trial"",""time""
""fullscreenenter"",""1"",""2907""
","
","","[{""page_index"":0,""viewing_time"":5504},{""page_index"":1,""viewing_time"":8324.79999923706},{""page_index"":2,""viewing_time"":5524.800001144409},{""page_index"":3,""viewing_time"":5393.799999237061}]","24747.89999961853","","","","","","","","","","","","","","","","","","","","","","","",""
"pit-trial","14","168909","0.0-2.0-6.0-0.0","battery-v0.2","","""event"",""trial"",""time""
""fullscreenenter"",""1"",""2907""
","
","
","""event"",""trial"",""time""
""fullscreenenter"",""1"",""2907""
","
","","","-1","","","13","14215","5905","&#9854;","elianto","#FFFFF080","-1","-1","1","&#10004","[]","0","0","1","","","","","","","",""
"pit-trial","15","173801","0.0-2.0-6.1-0.1","battery-v0.2","","""event"",""trial"",""time""
""fullscreenenter"",""1"",""2907""
","
","
","""event"",""trial"",""time""
""fullscreenenter"",""1"",""2907""
","
","","","-1","","","13","14215","5905","&#9854;","elianto","#FFFFF080","-1","-1","1","&#10004","[]","0","0","1","","","","","","","",""
"pit-trial","16","178676","0.0-2.0-6.2-0.2","battery-v0.2","","""event"",""trial"",""time""
""fullscreenenter"",""1"",""2907""
","
","
","""event"",""trial"",""time""
""fullscreenenter"",""1"",""2907""
","
","","","-1","","","13","14215","5905","&#9854;","elianto","#FFFFF080","-1","-1","1","&#10004","[]","0","0","1","","","","","","","",""
"pit-trial","17","183561","0.0-2.0-6.3-0.3","battery-v0.2","","""event"",""trial"",""time""
""fullscreenenter"",""1"",""2907""
","
","
","""event"",""trial"",""time""
""fullscreenenter"",""1"",""2907""
","
","","","-1","","","13","14215","5905","&#9854;","elianto","#FFFFF080","-1","-1","1","&#10004","[]","0","0","1","","","","","","","",""
"pit-trial","18","188430","0.0-2.0-6.4-0.4","battery-v0.2","","""event"",""trial"",""time""
""fullscreenenter"",""1"",""2907""
","
","
","""event"",""trial"",""time""
""fullscreenenter"",""1"",""2907""
","
","","","-1","","","13","14215","5905","&#9854;","elianto","#FFFFF080","-1","-1","1","&#10004","[]","0","0","1","","","","","","","",""
"pit-instructions","19","310995","0.0-2.0-7.0","battery-v0.2","","""event"",""trial"",""time""
""fullscreenenter"",""1"",""2907""
","
","
","""event"",""trial"",""time""
""fullscreenenter"",""1"",""2907""
","
","","[{""page_index"":0,""viewing_time"":5774.5},{""page_index"":1,""viewing_time"":7083.300001144409},{""page_index"":2,""viewing_time"":5792.89999961853},{""page_index"":3,""viewing_time"":6506.89999961853},{""page_index"":4,""viewing_time"":5897.799999237061},{""page_index"":5,""viewing_time"":6485.5},{""page_index"":6,""viewing_time"":5226.400001525879},{""page_index"":7,""viewing_time"":8791.39999961853},{""page_index"":8,""viewing_time"":7388.799999237061},{""page_index"":9,""viewing_time"":6490.700000762939},{""page_index"":10,""viewing_time"":8083.10000038147},{""page_index"":11,""viewing_time"":4608.299999237061},{""page_index"":12,""viewing_time"":7101.799999237061},{""page_index"":13,""viewing_time"":7378.700000762939},{""page_index"":14,""viewing_time"":7651.299999237061},{""page_index"":15,""viewing_time"":7514.700000762939},{""page_index"":16,""viewing_time"":6713.299999237061},{""page_index"":17,""viewing_time"":8069.300001144409}]","122559.5","","","","","","","","","","","","","","","","","","","","","","","",""
"pit-trial","20","314695","0.0-2.0-8.0-0.0","battery-v0.2","","""event"",""trial"",""time""
""fullscreenenter"",""1"",""2907""
","
","
","""event"",""trial"",""time""
""fullscreenenter"",""1"",""2907""
","
","","","828.5999984741211","","","13","14215","5905","&#9776;","elianto","#3366ff99"," "," ","1","+10","[1684]","1","0","1","","","","","","","",""
"pit-trial","21","318072","0.0-2.0-8.0-1.0","battery-v0.2","","""event"",""trial"",""time""
""fullscreenenter"",""1"",""2907""
","
","
","""event"",""trial"",""time""
""fullscreenenter"",""1"",""2907""
","
","","","505.1999988555908","","","13","14215","5905","&#9776;","elianto","#3366ff99"," "," ","1","+10","[1360.5]","1","0","1","","","","","","","",""
"pit-trial","22","321366","0.0-2.0-8.0-2.0","battery-v0.2","","""event"",""trial"",""time""
""fullscreenenter"",""1"",""2907""
","
","
","""event"",""trial"",""time""
""fullscreenenter"",""1"",""2907""
","
","","","425.8000011444092","","","13","14215","5905","&#9776;","elianto","#3366ff99"," "," ","1","+10","[1279.1000003814697]","1","0","1","","","","","","","",""
"pit-trial","23","324679","0.0-2.0-8.0-3.0","battery-v0.2","","""event"",""trial"",""time""
""fullscreenenter"",""1"",""2907""
","
","
","""event"",""trial"",""time""
""fullscreenenter"",""1"",""2907""
","
","","","442.8000011444092","","","13","14215","5905","&#9776;","elianto","#3366ff99"," "," ","1","0","[1295.5]","1","0","1","","","","","","","",""
"pit-trial","24","327906","0.0-2.0-8.0-4.0","battery-v0.2","","""event"",""trial"",""time""
""fullscreenenter"",""1"",""2907""
","
","
","""event"",""trial"",""time""
""fullscreenenter"",""1"",""2907""
","
","","","365.8000011444092","","","13","14215","5905","&#9776;","elianto","#3366ff99"," "," ","1","+10","[1217.5]","1","0","1","","","","","","","",""
"pit-trial","25","331301","0.0-2.0-8.1-0.1","battery-v0.2","","""event"",""trial"",""time""
""fullscreenenter"",""1"",""2907""
","
","
","""event"",""trial"",""time""
""fullscreenenter"",""1"",""2907""
","
","","","526.8999996185303","","","13","14215","5905","&#9776;","elianto","#3366ff99"," "," ","1","+10","[1387.8999996185303]","1","0","1","","","","","","","",""
"pit-trial","26","334434","0.0-2.0-8.1-1.1","battery-v0.2","","""event"",""trial"",""time""
""fullscreenenter"",""1"",""2907""
","
","
","""event"",""trial"",""time""
""fullscreenenter"",""1"",""2907""
","
","","","262.79999923706055","","","13","14215","5905","&#9776;","elianto","#3366ff99"," "," ","1","+10","[1115]","1","0","1","","","","","","","",""
"pit-trial","27","337490","0.0-2.0-8.1-2.1","battery-v0.2","","""event"",""trial"",""time""
""fullscreenenter"",""1"",""2907""
","
","
","""event"",""trial"",""time""
""fullscreenenter"",""1"",""2907""
","
","","","189.9000015258789","","","13","14215","5905","&#9776;","elianto","#3366ff99"," "," ","1","+10","[1042.8000011444092]","1","0","1","","","","","","","",""
"pit-trial","28","340691","0.0-2.0-8.1-3.1","battery-v0.2","","""event"",""trial"",""time""
""fullscreenenter"",""1"",""2907""
","
","
","""event"",""trial"",""time""
""fullscreenenter"",""1"",""2907""
","
","","","347.1999988555908","","","13","14215","5905","&#9776;","elianto","#3366ff99"," "," ","1","0","[1197.2999992370605]","1","0","1","","","","","","","",""
"pit-trial","29","343909","0.0-2.0-8.1-4.1","battery-v0.2","","""event"",""trial"",""time""
""fullscreenenter"",""1"",""2907""
","
","
","""event"",""trial"",""time""
""fullscreenenter"",""1"",""2907""
","
","","","362.5","","","13","14215","5905","&#9776;","elianto","#3366ff99"," "," ","1","+10","[1214.6000003814697]","1","0","1","","","","","","","",""
"pit-trial","30","347178","0.0-2.0-8.2-0.2","battery-v0.2","","""event"",""trial"",""time""
""fullscreenenter"",""1"",""2907""
","
","
","""event"",""trial"",""time""
""fullscreenenter"",""1"",""2907""
","
","","","412.6999988555908","","","13","14215","5905","&#9776;","elianto","#3366ff99"," "," ","1","+10","[1263.8000011444092]","1","0","1","","","","","","","",""
"pit-trial","31","350374","0.0-2.0-8.2-1.2","battery-v0.2","","""event"",""trial"",""time""
""fullscreenenter"",""1"",""2907""
","
","
","""event"",""trial"",""time""
""fullscreenenter"",""1"",""2907""
","
","","","339.6000003814697","","","13","14215","5905","&#9776;","elianto","#3366ff99"," "," ","1","+10","[1191.1999988555908]","1","0","1","","","","","","","",""
"pit-trial","32","353566","0.0-2.0-8.2-2.2","battery-v0.2","","""event"",""trial"",""time""
""fullscreenenter"",""1"",""2907""
","
","
","""event"",""trial"",""time""
""fullscreenenter"",""1"",""2907""
","
","","","338.6000003814697","","","13","14215","5905","&#9776;","elianto","#3366ff99"," "," ","1","+10","[1189.099998474121]","1","0","1","","","","","","","",""
"pit-trial","33","356781","0.0-2.0-8.2-3.2","battery-v0.2","","""event"",""trial"",""time""
""fullscreenenter"",""1"",""2907""
","
","
","""event"",""trial"",""time""
""fullscreenenter"",""1"",""2907""
","
","","","359.3999996185303","","","13","14215","5905","&#9776;","elianto","#3366ff99"," "," ","1","0","[1211.3999996185303]","1","0","1","","","","","","","",""
"pit-trial","34","359869","0.0-2.0-8.2-4.2","battery-v0.2","","""event"",""trial"",""time""
""fullscreenenter"",""1"",""2907""
","
","
","""event"",""trial"",""time""
""fullscreenenter"",""1"",""2907""
","
","","","234.39999961853027","","","13","14215","5905","&#9776;","elianto","#3366ff99"," "," ","1","+10","[1084.5]","1","0","1","","","","","","","",""
"call-function","35","359872","0.0-2.0-9.0","battery-v0.2","","""event"",""trial"",""time""
""fullscreenenter"",""1"",""2907""
","
","
","""event"",""trial"",""time""
""fullscreenenter"",""1"",""2907""
","
","","","","","","","","","","","","","","","","","","","","","","","","","","",""
"pit-instructions","36","400259","0.0-2.0-10.0","battery-v0.2","","""event"",""trial"",""time""
""fullscreenenter"",""1"",""2907""
","
","
","""event"",""trial"",""time""
""fullscreenenter"",""1"",""2907""
","
","","[{""page_index"":0,""viewing_time"":6374.89999961853},{""page_index"":1,""viewing_time"":7125.200000762939},{""page_index"":2,""viewing_time"":10025.29999923706},{""page_index"":3,""viewing_time"":9248.60000038147},{""page_index"":4,""viewing_time"":7611.10000038147}]","40385.89999961853","","","","","","","","","","","","","","","","","","","","","","","",""
"pit-trial","37","405124","0.0-2.0-11.0-0.0","battery-v0.2","","""event"",""trial"",""time""
""fullscreenenter"",""1"",""2907""
","
","
","""event"",""trial"",""time""
""fullscreenenter"",""1"",""2907""
","
","","","-1","","","13","14215","5905","&#9761;","elianto","#3366ff99","-1","-1","1","+10","[]","0","0","2","","","","","","","",""
"pit-trial","38","409984","0.0-2.0-11.0-1.0","battery-v0.2","","""event"",""trial"",""time""
""fullscreenenter"",""1"",""2907""
","
","
","""event"",""trial"",""time""
""fullscreenenter"",""1"",""2907""
","
","","","-1","","","13","14215","5905","&#9761;","elianto","#3366ff99","-1","-1","1","+10","[]","0","0","2","","","","","","","",""
"pit-trial","39","414852","0.0-2.0-11.0-2.0","battery-v0.2","","""event"",""trial"",""time""
""fullscreenenter"",""1"",""2907""
","
","
","""event"",""trial"",""time""
""fullscreenenter"",""1"",""2907""
","
","","","-1","","","13","14215","5905","&#9761;","elianto","#3366ff99","-1","-1","1","+10","[]","0","0","2","","","","","","","",""
"pit-trial","40","419721","0.0-2.0-11.0-3.0","battery-v0.2","","""event"",""trial"",""time""
""fullscreenenter"",""1"",""2907""
","
","
","""event"",""trial"",""time""
""fullscreenenter"",""1"",""2907""
","
","","","-1","","","13","14215","5905","&#9761;","elianto","#3366ff99","-1","-1","1","0","[]","0","0","2","","","","","","","",""
"pit-trial","41","424587","0.0-2.0-11.0-4.0","battery-v0.2","","""event"",""trial"",""time""
""fullscreenenter"",""1"",""2907""
","
","
","""event"",""trial"",""time""
""fullscreenenter"",""1"",""2907""
","
","","","-1","","","13","14215","5905","&#9761;","elianto","#3366ff99","-1","-1","1","+10","[]","0","0","2","","","","","","","",""
"pit-trial","42","429455","0.0-2.0-11.1-0.1","battery-v0.2","","""event"",""trial"",""time""
""fullscreenenter"",""1"",""2907""
","
","
","""event"",""trial"",""time""
""fullscreenenter"",""1"",""2907""
","
","","","-1","","","13","14215","5905","&#9761;","elianto","#3366ff99","-1","-1","1","+10","[]","0","0","2","","","","","","","",""
"pit-trial","43","434312","0.0-2.0-11.1-1.1","battery-v0.2","","""event"",""trial"",""time""
""fullscreenenter"",""1"",""2907""
","
","
","""event"",""trial"",""time""
""fullscreenenter"",""1"",""2907""
","
","","","-1","","","13","14215","5905","&#9761;","elianto","#3366ff99","-1","-1","1","+10","[]","0","0","2","","","","","","","",""
"pit-trial","44","439169","0.0-2.0-11.1-2.1","battery-v0.2","","""event"",""trial"",""time""
""fullscreenenter"",""1"",""2907""
","
","
","""event"",""trial"",""time""
""fullscreenenter"",""1"",""2907""
","
","","","-1","","","13","14215","5905","&#9761;","elianto","#3366ff99","-1","-1","1","+10","[]","0","0","2","","","","","","","",""
"pit-trial","45","444023","0.0-2.0-11.1-3.1","battery-v0.2","","""event"",""trial"",""time""
""fullscreenenter"",""1"",""2907""
","
","
","""event"",""trial"",""time""
""fullscreenenter"",""1"",""2907""
","
","","","-1","","","13","14215","5905","&#9761;","elianto","#3366ff99","-1","-1","1","0","[]","0","0","2","","","","","","","",""
"pit-trial","46","448877","0.0-2.0-11.1-4.1","battery-v0.2","","""event"",""trial"",""time""
""fullscreenenter"",""1"",""2907""
","
","
","""event"",""trial"",""time""
""fullscreenenter"",""1"",""2907""
","
","","","-1","","","13","14215","5905","&#9761;","elianto","#3366ff99","-1","-1","1","+10","[]","0","0","2","","","","","","","",""
"pit-trial","47","453736","0.0-2.0-11.2-0.2","battery-v0.2","","""event"",""trial"",""time""
""fullscreenenter"",""1"",""2907""
","
","
","""event"",""trial"",""time""
""fullscreenenter"",""1"",""2907""
","
","","","-1","","","13","14215","5905","&#9761;","elianto","#3366ff99","-1","-1","1","+10","[]","0","0","2","","","","","","","",""
"pit-trial","48","458591","0.0-2.0-11.2-1.2","battery-v0.2","","""event"",""trial"",""time""
""fullscreenenter"",""1"",""2907""
","
","
","""event"",""trial"",""time""
""fullscreenenter"",""1"",""2907""
","
","","","-1","","","13","14215","5905","&#9761;","elianto","#3366ff99","-1","-1","1","+10","[]","0","0","2","","","","","","","",""
"pit-trial","49","463445","0.0-2.0-11.2-2.2","battery-v0.2","","""event"",""trial"",""time""
""fullscreenenter"",""1"",""2907""
","
","
","""event"",""trial"",""time""
""fullscreenenter"",""1"",""2907""
","
","","","-1","","","13","14215","5905","&#9761;","elianto","#3366ff99","-1","-1","1","+10","[]","0","0","2","","","","","","","",""
"pit-trial","50","468300","0.0-2.0-11.2-3.2","battery-v0.2","","""event"",""trial"",""time""
""fullscreenenter"",""1"",""2907""
","
","
","""event"",""trial"",""time""
""fullscreenenter"",""1"",""2907""
","
","","","-1","","","13","14215","5905","&#9761;","elianto","#3366ff99","-1","-1","1","0","[]","0","0","2","","","","","","","",""
"pit-trial","51","473154","0.0-2.0-11.2-4.2","battery-v0.2","","""event"",""trial"",""time""
""fullscreenenter"",""1"",""2907""
","
","
","""event"",""trial"",""time""
""fullscreenenter"",""1"",""2907""
","
","","","-1","","","13","14215","5905","&#9761;","elianto","#3366ff99","-1","-1","1","+10","[]","0","0","2","","","","","","","",""
"pit-trial","52","478010","0.0-2.0-11.3-0.3","battery-v0.2","","""event"",""trial"",""time""
""fullscreenenter"",""1"",""2907""
","
","
","""event"",""trial"",""time""
""fullscreenenter"",""1"",""2907""
","
","","","-1","","","13","14215","5905","&#9761;","elianto","#3366ff99","-1","-1","1","+10","[]","0","0","2","","","","","","","",""
"pit-trial","53","482865","0.0-2.0-11.3-1.3","battery-v0.2","","""event"",""trial"",""time""
""fullscreenenter"",""1"",""2907""
","
","
","""event"",""trial"",""time""
""fullscreenenter"",""1"",""2907""
","
","","","-1","","","13","14215","5905","&#9761;","elianto","#3366ff99","-1","-1","1","+10","[]","0","0","2","","","","","","","",""
"pit-trial","54","487720","0.0-2.0-11.3-2.3","battery-v0.2","","""event"",""trial"",""time""
""fullscreenenter"",""1"",""2907""
","
","
","""event"",""trial"",""time""
""fullscreenenter"",""1"",""2907""
","
","","","-1","","","13","14215","5905","&#9761;","elianto","#3366ff99","-1","-1","1","+10","[]","0","0","2","","","","","","","",""
"pit-trial","55","492576","0.0-2.0-11.3-3.3","battery-v0.2","","""event"",""trial"",""time""
""fullscreenenter"",""1"",""2907""
","
","
","""event"",""trial"",""time""
""fullscreenenter"",""1"",""2907""
","
","","","-1","","","13","14215","5905","&#9761;","elianto","#3366ff99","-1","-1","1","0","[]","0","0","2","","","","","","","",""
"pit-trial","56","497432","0.0-2.0-11.3-4.3","battery-v0.2","","""event"",""trial"",""time""
""fullscreenenter"",""1"",""2907""
","
","
","""event"",""trial"",""time""
""fullscreenenter"",""1"",""2907""
","
","","","-1","","","13","14215","5905","&#9761;","elianto","#3366ff99","-1","-1","1","+10","[]","0","0","2","","","","","","","",""
"call-function","57","497436","0.0-2.0-12.0","battery-v0.2","","""event"",""trial"",""time""
""fullscreenenter"",""1"",""2907""
","
","
","""event"",""trial"",""time""
""fullscreenenter"",""1"",""2907""
","
","","","","","","","","","","","","","","","","","","","","","","","","","","",""
"pit-instructions","58","528952","0.0-2.0-13.0","battery-v0.2","","""event"",""trial"",""time""
""fullscreenenter"",""1"",""2907""
","
","
","""event"",""trial"",""time""
""fullscreenenter"",""1"",""2907""
","
","","[{""page_index"":0,""viewing_time"":5757.800001144409},{""page_index"":1,""viewing_time"":7025.799999237061},{""page_index"":2,""viewing_time"":3253},{""page_index"":3,""viewing_time"":10558.80000114441},{""page_index"":4,""viewing_time"":4919.799999237061}]","31515.5","","","","","","","","","","","","","","","","","","","","","","","",""
"pit-trial","59","533819","0.0-2.0-14.0-0.0","battery-v0.2","","""event"",""trial"",""time""
""fullscreenenter"",""1"",""2907""
","
","
","""event"",""trial"",""time""
""fullscreenenter"",""1"",""2907""
","
","","","-1","","","13","14215","5905","&#9826;","elianto","#f73b6a7A","-1","-1","1","0","[]","0","0","3","","","","","","","",""
"pit-trial","60","538689","0.0-2.0-14.0-1.0","battery-v0.2","","""event"",""trial"",""time""
""fullscreenenter"",""1"",""2907""
","
","
","""event"",""trial"",""time""
""fullscreenenter"",""1"",""2907""
","
","","","-1","","","13","14215","5905","&#9826;","elianto","#f73b6a7A","-1","-1","1","0","[]","0","0","3","","","","","","","",""
"pit-trial","61","543555","0.0-2.0-14.0-2.0","battery-v0.2","","""event"",""trial"",""time""
""fullscreenenter"",""1"",""2907""
","
","
","""event"",""trial"",""time""
""fullscreenenter"",""1"",""2907""
","
","","","-1","","","13","14215","5905","&#9826;","elianto","#f73b6a7A","-1","-1","1","0","[]","0","0","3","","","","","","","",""
"pit-trial","62","548422","0.0-2.0-14.0-3.0","battery-v0.2","","""event"",""trial"",""time""
""fullscreenenter"",""1"",""2907""
","
","
","""event"",""trial"",""time""
""fullscreenenter"",""1"",""2907""
","
","","","-1","","","13","14215","5905","&#9826;","elianto","#f73b6a7A","-1","-1","1","-10","[]","0","0","3","","","","","","","",""
"pit-trial","63","553303","0.0-2.0-14.0-4.0","battery-v0.2","","""event"",""trial"",""time""
""fullscreenenter"",""1"",""2907""
","
","
","""event"",""trial"",""time""
""fullscreenenter"",""1"",""2907""
","
","","","-1","","","13","14215","5905","&#9826;","elianto","#f73b6a7A","-1","-1","1","0","[]","0","0","3","","","","","","","",""
"pit-trial","64","558175","0.0-2.0-14.1-0.1","battery-v0.2","","""event"",""trial"",""time""
""fullscreenenter"",""1"",""2907""
","
","
","""event"",""trial"",""time""
""fullscreenenter"",""1"",""2907""
","
","","","-1","","","13","14215","5905","&#9826;","elianto","#f73b6a7A","-1","-1","1","0","[]","0","0","3","","","","","","","",""
"pit-trial","65","563028","0.0-2.0-14.1-1.1","battery-v0.2","","""event"",""trial"",""time""
""fullscreenenter"",""1"",""2907""
","
","
","""event"",""trial"",""time""
""fullscreenenter"",""1"",""2907""
","
","","","-1","","","13","14215","5905","&#9826;","elianto","#f73b6a7A","-1","-1","1","0","[]","0","0","3","","","","","","","",""
"pit-trial","66","567884","0.0-2.0-14.1-2.1","battery-v0.2","","""event"",""trial"",""time""
""fullscreenenter"",""1"",""2907""
","
","
","""event"",""trial"",""time""
""fullscreenenter"",""1"",""2907""
","
","","","-1","","","13","14215","5905","&#9826;","elianto","#f73b6a7A","-1","-1","1","0","[]","0","0","3","","","","","","","",""
"pit-trial","67","572740","0.0-2.0-14.1-3.1","battery-v0.2","","""event"",""trial"",""time""
""fullscreenenter"",""1"",""2907""
","
","
","""event"",""trial"",""time""
""fullscreenenter"",""1"",""2907""
","
","","","-1","","","13","14215","5905","&#9826;","elianto","#f73b6a7A","-1","-1","1","-10","[]","0","0","3","","","","","","","",""
"pit-trial","68","577596","0.0-2.0-14.1-4.1","battery-v0.2","","""event"",""trial"",""time""
""fullscreenenter"",""1"",""2907""
","
","
","""event"",""trial"",""time""
""fullscreenenter"",""1"",""2907""
","
","","","-1","","","13","14215","5905","&#9826;","elianto","#f73b6a7A","-1","-1","1","0","[]","0","0","3","","","","","","","",""
"pit-trial","69","582453","0.0-2.0-14.2-0.2","battery-v0.2","","""event"",""trial"",""time""
""fullscreenenter"",""1"",""2907""
","
","
","""event"",""trial"",""time""
""fullscreenenter"",""1"",""2907""
","
","","","-1","","","13","14215","5905","&#9826;","elianto","#f73b6a7A","-1","-1","1","0","[]","0","0","3","","","","","","","",""
"pit-trial","70","587307","0.0-2.0-14.2-1.2","battery-v0.2","","""event"",""trial"",""time""
""fullscreenenter"",""1"",""2907""
","
","
","""event"",""trial"",""time""
""fullscreenenter"",""1"",""2907""
","
","","","-1","","","13","14215","5905","&#9826;","elianto","#f73b6a7A","-1","-1","1","0","[]","0","0","3","","","","","","","",""
"pit-trial","71","592162","0.0-2.0-14.2-2.2","battery-v0.2","","""event"",""trial"",""time""
""fullscreenenter"",""1"",""2907""
","
","
","""event"",""trial"",""time""
""fullscreenenter"",""1"",""2907""
","
","","","-1","","","13","14215","5905","&#9826;","elianto","#f73b6a7A","-1","-1","1","0","[]","0","0","3","","","","","","","",""
"pit-trial","72","597016","0.0-2.0-14.2-3.2","battery-v0.2","","""event"",""trial"",""time""
""fullscreenenter"",""1"",""2907""
","
","
","""event"",""trial"",""time""
""fullscreenenter"",""1"",""2907""
","
","","","-1","","","13","14215","5905","&#9826;","elianto","#f73b6a7A","-1","-1","1","-10","[]","0","0","3","","","","","","","",""
"pit-trial","73","601873","0.0-2.0-14.2-4.2","battery-v0.2","","""event"",""trial"",""time""
""fullscreenenter"",""1"",""2907""
","
","
","""event"",""trial"",""time""
""fullscreenenter"",""1"",""2907""
","
","","","-1","","","13","14215","5905","&#9826;","elianto","#f73b6a7A","-1","-1","1","0","[]","0","0","3","","","","","","","",""
"pit-trial","74","606728","0.0-2.0-14.3-0.3","battery-v0.2","","""event"",""trial"",""time""
""fullscreenenter"",""1"",""2907""
","
","
","""event"",""trial"",""time""
""fullscreenenter"",""1"",""2907""
","
","","","-1","","","13","14215","5905","&#9826;","elianto","#f73b6a7A","-1","-1","1","0","[]","0","0","3","","","","","","","",""
"pit-trial","75","611585","0.0-2.0-14.3-1.3","battery-v0.2","","""event"",""trial"",""time""
""fullscreenenter"",""1"",""2907""
","
","
","""event"",""trial"",""time""
""fullscreenenter"",""1"",""2907""
","
","","","-1","","","13","14215","5905","&#9826;","elianto","#f73b6a7A","-1","-1","1","0","[]","0","0","3","","","","","","","",""
"pit-trial","76","616438","0.0-2.0-14.3-2.3","battery-v0.2","","""event"",""trial"",""time""
""fullscreenenter"",""1"",""2907""
","
","
","""event"",""trial"",""time""
""fullscreenenter"",""1"",""2907""
","
","","","-1","","","13","14215","5905","&#9826;","elianto","#f73b6a7A","-1","-1","1","0","[]","0","0","3","","","","","","","",""
"pit-trial","77","621293","0.0-2.0-14.3-3.3","battery-v0.2","","""event"",""trial"",""time""
""fullscreenenter"",""1"",""2907""
","
","
","""event"",""trial"",""time""
""fullscreenenter"",""1"",""2907""
","
","","","-1","","","13","14215","5905","&#9826;","elianto","#f73b6a7A","-1","-1","1","-10","[]","0","0","3","","","","","","","",""
"pit-trial","78","626148","0.0-2.0-14.3-4.3","battery-v0.2","","""event"",""trial"",""time""
""fullscreenenter"",""1"",""2907""
","
","
","""event"",""trial"",""time""
""fullscreenenter"",""1"",""2907""
","
","","","-1","","","13","14215","5905","&#9826;","elianto","#f73b6a7A","-1","-1","1","0","[]","0","0","3","","","","","","","",""
"call-function","79","626152","0.0-2.0-15.0","battery-v0.2","","""event"",""trial"",""time""
""fullscreenenter"",""1"",""2907""
","
","
","""event"",""trial"",""time""
""fullscreenenter"",""1"",""2907""
","
","","","","","","","","","","","","","","","","","","","","","","","","","","",""
"pit-instructions","80","654878","0.0-2.0-16.0","battery-v0.2","","""event"",""trial"",""time""
""fullscreenenter"",""1"",""2907""
","
","
","""event"",""trial"",""time""
""fullscreenenter"",""1"",""2907""
","
","","[{""page_index"":0,""viewing_time"":7292.799999237061},{""page_index"":1,""viewing_time"":10796.89999961853},{""page_index"":2,""viewing_time"":5175.900001525879},{""page_index"":3,""viewing_time"":5458.199998855591}]","28724.39999961853","","","","","","","","","","","","","","","","","","","","","","","",""
"pit-trial","81","659055","0.0-2.0-17.0-0.0","battery-v0.2","","""event"",""trial"",""time""
""fullscreenenter"",""1"",""2907""
","
","
","""event"",""trial"",""time""
""fullscreenenter"",""1"",""2907""
","
","","","1309","","","13","14215","5905","&#9789;","elianto","#f73b6a7A"," "," ","1","0","[2160.5]","1","0","4","","","","","","","",""
"pit-trial","82","662355","0.0-2.0-17.0-1.0","battery-v0.2","","""event"",""trial"",""time""
""fullscreenenter"",""1"",""2907""
","
","
","""event"",""trial"",""time""
""fullscreenenter"",""1"",""2907""
","
","","","440","","","13","14215","5905","&#9789;","elianto","#f73b6a7A"," "," ","1","0","[1293]","1","0","4","","","","","","","",""
"pit-trial","83","665689","0.0-2.0-17.0-2.0","battery-v0.2","","""event"",""trial"",""time""
""fullscreenenter"",""1"",""2907""
","
","
","""event"",""trial"",""time""
""fullscreenenter"",""1"",""2907""
","
","","","474.6999988555908","","","13","14215","5905","&#9789;","elianto","#f73b6a7A"," "," ","1","0","[1326.8999996185303]","1","0","4","","","","","","","",""
"pit-trial","84","669087","0.0-2.0-17.0-3.0","battery-v0.2","","""event"",""trial"",""time""
""fullscreenenter"",""1"",""2907""
","
","
","""event"",""trial"",""time""
""fullscreenenter"",""1"",""2907""
","
","","","531.7000007629395","","","13","14215","5905","&#9789;","elianto","#f73b6a7A"," "," ","1","-10","[1383.8999996185303]","1","0","4","","","","","","","",""
"pit-trial","85","672274","0.0-2.0-17.0-4.0","battery-v0.2","","""event"",""trial"",""time""
""fullscreenenter"",""1"",""2907""
","
","
","""event"",""trial"",""time""
""fullscreenenter"",""1"",""2907""
","
","","","321.3999996185303","","","13","14215","5905","&#9789;","elianto","#f73b6a7A"," "," ","1","0","[1172.3000011444092]","1","0","4","","","","","","","",""
"pit-trial","86","675402","0.0-2.0-17.1-0.1","battery-v0.2","","""event"",""trial"",""time""
""fullscreenenter"",""1"",""2907""
","
","
","""event"",""trial"",""time""
""fullscreenenter"",""1"",""2907""
","
","","","253.30000114440918","","","13","14215","5905","&#9789;","elianto","#f73b6a7A"," "," ","1","0","[1108.8000011444092]","1","0","4","","","","","","","",""
"pit-trial","87","678670","0.0-2.0-17.1-1.1","battery-v0.2","","""event"",""trial"",""time""
""fullscreenenter"",""1"",""2907""
","
","
","""event"",""trial"",""time""
""fullscreenenter"",""1"",""2907""
","
","","","407.1999988555908","","","13","14215","5905","&#9789;","elianto","#f73b6a7A"," "," ","1","0","[1258.900001525879]","1","0","4","","","","","","","",""
"pit-trial","88","681715","0.0-2.0-17.1-2.1","battery-v0.2","","""event"",""trial"",""time""
""fullscreenenter"",""1"",""2907""
","
","
","""event"",""trial"",""time""
""fullscreenenter"",""1"",""2907""
","
","","","188","","","13","14215","5905","&#9789;","elianto","#f73b6a7A"," "," ","1","0","[1040.1000003814697]","1","0","4","","","","","","","",""
"pit-trial","89","685016","0.0-2.0-17.1-3.1","battery-v0.2","","""event"",""trial"",""time""
""fullscreenenter"",""1"",""2907""
","
","
","""event"",""trial"",""time""
""fullscreenenter"",""1"",""2907""
","
","","","446.8000011444092","","","13","14215","5905","&#9789;","elianto","#f73b6a7A"," "," ","1","-10","[1297.8999996185303]","1","0","4","","","","","","","",""
"pit-trial","90","687953","0.0-2.0-17.1-4.1","battery-v0.2","","""event"",""trial"",""time""
""fullscreenenter"",""1"",""2907""
","
","
","""event"",""trial"",""time""
""fullscreenenter"",""1"",""2907""
","
","","","83.89999961853027","","","13","14215","5905","&#9789;","elianto","#f73b6a7A"," "," ","1","0","[934.1999988555908]","1","0","4","","","","","","","",""
"pit-trial","91","690959","0.0-2.0-17.2-0.2","battery-v0.2","","""event"",""trial"",""time""
""fullscreenenter"",""1"",""2907""
","
","
","""event"",""trial"",""time""
""fullscreenenter"",""1"",""2907""
","
","","","149.19999885559082","","","13","14215","5905","&#9789;","elianto","#f73b6a7A"," "," ","1","0","[1000.1999988555908]","1","0","4","","","","","","","",""
"pit-trial","92","694131","0.0-2.0-17.2-1.2","battery-v0.2","","""event"",""trial"",""time""
""fullscreenenter"",""1"",""2907""
","
","
","""event"",""trial"",""time""
""fullscreenenter"",""1"",""2907""
","
","","","316.6000003814697","","","13","14215","5905","&#9789;","elianto","#f73b6a7A"," "," ","1","0","[1167.7999992370605]","1","0","4","","","","","","","",""
"pit-trial","93","697127","0.0-2.0-17.2-2.2","battery-v0.2","","""event"",""trial"",""time""
""fullscreenenter"",""1"",""2907""
","
","
","""event"",""trial"",""time""
""fullscreenenter"",""1"",""2907""
","
","","","139.5","","","13","14215","5905","&#9789;","elianto","#f73b6a7A"," "," ","1","0","[990.3999996185303]","1","0","4","","","","","","","",""
"pit-trial","94","700148","0.0-2.0-17.2-3.2","battery-v0.2","","""event"",""trial"",""time""
""fullscreenenter"",""1"",""2907""
","
","
","""event"",""trial"",""time""
""fullscreenenter"",""1"",""2907""
","
","","","169.20000076293945","","","13","14215","5905","&#9789;","elianto","#f73b6a7A"," "," ","1","-10","[1019.2000007629395]","1","0","4","","","","","","","",""
"pit-trial","95","703176","0.0-2.0-17.2-4.2","battery-v0.2","","""event"",""trial"",""time""
""fullscreenenter"",""1"",""2907""
","
","
","""event"",""trial"",""time""
""fullscreenenter"",""1"",""2907""
","
","","","174.80000114440918","","","13","14215","5905","&#9789;","elianto","#f73b6a7A"," "," ","1","0","[1024.8999996185303]","1","0","4","","","","","","","",""
"pit-trial","96","706204","0.0-2.0-17.3-0.3","battery-v0.2","","""event"",""trial"",""time""
""fullscreenenter"",""1"",""2907""
","
","
","""event"",""trial"",""time""
""fullscreenenter"",""1"",""2907""
","
","","","173.20000076293945","","","13","14215","5905","&#9789;","elianto","#f73b6a7A"," "," ","1","0","[1023.5]","1","0","4","","","","","","","",""
"pit-trial","97","709209","0.0-2.0-17.3-1.3","battery-v0.2","","""event"",""trial"",""time""
""fullscreenenter"",""1"",""2907""
","
","
","""event"",""trial"",""time""
""fullscreenenter"",""1"",""2907""
","
","","","151.19999885559082","","","13","14215","5905","&#9789;","elianto","#f73b6a7A"," "," ","1","0","[1001.5999984741211]","1","0","4","","","","","","","",""
"pit-trial","98","712323","0.0-2.0-17.3-2.3","battery-v0.2","","""event"",""trial"",""time""
""fullscreenenter"",""1"",""2907""
","
","
","""event"",""trial"",""time""
""fullscreenenter"",""1"",""2907""
","
","","","259.5","","","13","14215","5905","&#9789;","elianto","#f73b6a7A"," "," ","1","0","[1110.5]","1","0","4","","","","","","","",""
"pit-trial","99","715583","0.0-2.0-17.3-3.3","battery-v0.2","","""event"",""trial"",""time""
""fullscreenenter"",""1"",""2907""
","
","
","""event"",""trial"",""time""
""fullscreenenter"",""1"",""2907""
","
","","","406.79999923706055","","","13","14215","5905","&#9789;","elianto","#f73b6a7A"," "," ","1","-10","[1257]","1","0","4","","","","","","","",""
"pit-trial","100","718799","0.0-2.0-17.3-4.3","battery-v0.2","","""event"",""trial"",""time""
""fullscreenenter"",""1"",""2907""
","
","
","""event"",""trial"",""time""
""fullscreenenter"",""1"",""2907""
","
","","","359.6000003814697","","","13","14215","5905","&#9789;","elianto","#f73b6a7A"," "," ","1","0","[1210.8999996185303]","1","0","4","","","","","","","",""
"call-function","101","718802","0.0-2.0-18.0","battery-v0.2","","""event"",""trial"",""time""
""fullscreenenter"",""1"",""2907""
","
","
","""event"",""trial"",""time""
""fullscreenenter"",""1"",""2907""
","
","","","","","","","","","","","","","","","","","","","","","","","","","","",""
"pit-instructions","102","793998","0.0-2.0-19.0","battery-v0.2","","""event"",""trial"",""time""
""fullscreenenter"",""1"",""2907""
","
","
","""event"",""trial"",""time""
""fullscreenenter"",""1"",""2907""
","
","","[{""page_index"":0,""viewing_time"":7547.300001144409},{""page_index"":1,""viewing_time"":5820.299999237061},{""page_index"":2,""viewing_time"":13730.39999961853},{""page_index"":3,""viewing_time"":7293.5},{""page_index"":4,""viewing_time"":8170.800001144409},{""page_index"":5,""viewing_time"":8768.29999923706},{""page_index"":6,""viewing_time"":9511.39999961853},{""page_index"":7,""viewing_time"":8710},{""page_index"":8,""viewing_time"":5642.700000762939}]","75195.30000114441","","","","","","","","","","","","","","","","","","","","","","","",""
"pit-comprehension","103","801631","0.0-2.0-20.0-0.0","battery-v0.2","","""event"",""trial"",""time""
""fullscreenenter"",""1"",""2907""
","
","
","""event"",""trial"",""time""
""fullscreenenter"",""1"",""2907""
","
","","","7628.200000762939","[""SPACE""]","0","13","14215","5905","","","","","","","","","","","","","","","","","","",""
"pit-instructions","104","804448","0.0-2.0-20.0-1.0","battery-v0.2","","""event"",""trial"",""time""
""fullscreenenter"",""1"",""2907""
","
","
","""event"",""trial"",""time""
""fullscreenenter"",""1"",""2907""
","
","","[{""page_index"":0,""viewing_time"":2773.5}]","2774","","","","","","","","","","","","","","","","","","","","","","","",""
"pit-comprehension","105","812600","0.0-2.0-21.0-0.0","battery-v0.2","","""event"",""trial"",""time""
""fullscreenenter"",""1"",""2907""
","
","
","""event"",""trial"",""time""
""fullscreenenter"",""1"",""2907""
","
","","","8147.39999961853","[""10""]","0","13","14215","5905","","","","","","","","","","","","","","","","","","",""
"pit-instructions","106","815388","0.0-2.0-21.0-1.0","battery-v0.2","","""event"",""trial"",""time""
""fullscreenenter"",""1"",""2907""
","
","
","""event"",""trial"",""time""
""fullscreenenter"",""1"",""2907""
","
","","[{""page_index"":0,""viewing_time"":2736.3999996185303}]","2736.7999992370605","","","","","","","","","","","","","","","","","","","","","","","",""
"pit-comprehension","107","826247","0.0-2.0-22.0-0.0","battery-v0.2","","""event"",""trial"",""time""
""fullscreenenter"",""1"",""2907""
","
","
","""event"",""trial"",""time""
""fullscreenenter"",""1"",""2907""
","
","","","10855.69999885559","[""0""]","0","13","14215","5905","","","","","","","","","","","","","","","","","","",""
"pit-instructions","108","830291","0.0-2.0-22.0-1.0","battery-v0.2","","""event"",""trial"",""time""
""fullscreenenter"",""1"",""2907""
","
","
","""event"",""trial"",""time""
""fullscreenenter"",""1"",""2907""
","
","","[{""page_index"":0,""viewing_time"":4018.8999996185303}]","4019.3999996185303","","","","","","","","","","","","","","","","","","","","","","","",""
"pit-comprehension","109","841638","0.0-2.0-23.0-0.0","battery-v0.2","","""event"",""trial"",""time""
""fullscreenenter"",""1"",""2907""
","
","
","""event"",""trial"",""time""
""fullscreenenter"",""1"",""2907""
","
","","","11342.80000114441","[""True""]","0","13","14215","5905","","","","","","","","","","","","","","","","","","",""
"pit-instructions","110","846863","0.0-2.0-23.0-1.0","battery-v0.2","","""event"",""trial"",""time""
""fullscreenenter"",""1"",""2907""
","
","
","""event"",""trial"",""time""
""fullscreenenter"",""1"",""2907""
","
","","[{""page_index"":0,""viewing_time"":5180.5}]","5181","","","","","","","","","","","","","","","","","","","","","","","",""
"pit-comprehension","111","855624","0.0-2.0-24.0-0.0","battery-v0.2","","""event"",""trial"",""time""
""fullscreenenter"",""1"",""2907""
","
","
","""event"",""trial"",""time""
""fullscreenenter"",""1"",""2907""
","
","","","8756.79999923706","[""True""]","0","13","14215","5905","","","","","","","","","","","","","","","","","","",""
"pit-instructions","112","857764","0.0-2.0-24.0-1.0","battery-v0.2","","""event"",""trial"",""time""
""fullscreenenter"",""1"",""2907""
","
","
","""event"",""trial"",""time""
""fullscreenenter"",""1"",""2907""
","
","","[{""page_index"":0,""viewing_time"":2094.5}]","2094.7999992370605","","","","","","","","","","","","","","","","","","","","","","","",""
"pit-comprehension","113","864691","0.0-2.0-25.0-0.0","battery-v0.2","","""event"",""trial"",""time""
""fullscreenenter"",""1"",""2907""
","
","
","""event"",""trial"",""time""
""fullscreenenter"",""1"",""2907""
","
","","","6923.200000762939","[""True""]","0","13","14215","5905","","","","","","","","","","","","","","","","","","",""
"pit-instructions","114","866308","0.0-2.0-25.0-1.0","battery-v0.2","","""event"",""trial"",""time""
""fullscreenenter"",""1"",""2907""
","
","
","""event"",""trial"",""time""
""fullscreenenter"",""1"",""2907""
","
","","[{""page_index"":0,""viewing_time"":1568.2000007629395}]","1568.6000003814697","","","","","","","","","","","","","","","","","","","","","","","",""
"pit-comprehension","115","872155","0.0-2.0-26.0-0.0","battery-v0.2","","""event"",""trial"",""time""
""fullscreenenter"",""1"",""2907""
","
","
","""event"",""trial"",""time""
""fullscreenenter"",""1"",""2907""
","
","","","5843.5","[""False""]","0","13","14215","5905","","","","","","","","","","","","","","","","","","",""
"pit-instructions","116","873722","0.0-2.0-26.0-1.0","battery-v0.2","","""event"",""trial"",""time""
""fullscreenenter"",""1"",""2907""
","
","
","""event"",""trial"",""time""
""fullscreenenter"",""1"",""2907""
","
","","[{""page_index"":0,""viewing_time"":1522.3999996185303}]","1522.7999992370605","","","","","","","","","","","","","","","","","","","","","","","",""
"pit-instructions","117","898778","0.0-3.0","battery-v0.2","","""event"",""trial"",""time""
""fullscreenenter"",""1"",""2907""
","
","
","""event"",""trial"",""time""
""fullscreenenter"",""1"",""2907""
","
","","[{""page_index"":0,""viewing_time"":9235.89999961853},{""page_index"":1,""viewing_time"":7399.10000038147},{""page_index"":2,""viewing_time"":8417.29999923706}]","25052.89999961853","","","","","","","","","","","","","","","","","","","","","","","",""
"pit-trial","118","902685","0.0-4.0","battery-v0.2","","""event"",""trial"",""time""
""fullscreenenter"",""1"",""2907""
","
","
","""event"",""trial"",""time""
""fullscreenenter"",""1"",""2907""
","
","","","1041.599998474121","","","13","14215","5905","&#9752;","elianto","#f73b6a7A"," "," ","1","-10","[1892.1000003814697]","1","1","","","14215","1","3","3","lose","go","1"
"pit-trial","119","907559","0.0-5.0","battery-v0.2","","""event"",""trial"",""time""
""fullscreenenter"",""1"",""2907""
","
","
","""event"",""trial"",""time""
""fullscreenenter"",""1"",""2907""
","
","","","-1","","","13","14215","5905","&#9728;","elianto","#f73b6a7A","-1","-1","1","0","[]","0","1","","","14215","2","0","4","lose","no-go","0"
"pit-trial","120","912428","0.0-6.0","battery-v0.2","","""event"",""trial"",""time""
""fullscreenenter"",""1"",""2907""
","
","
","""event"",""trial"",""time""
""fullscreenenter"",""1"",""2907""
","
","","","-1","","","13","14215","5905","&#9730;","elianto","#3366ff99"," ","-1","0","0","[]","0","1","","","14215","3","1","1","win","go","0"
"pit-trial","121","916144","0.0-7.0","battery-v0.2","","""event"",""trial"",""time""
""fullscreenenter"",""1"",""2907""
","
","
","""event"",""trial"",""time""
""fullscreenenter"",""1"",""2907""
","
","","","857","","","13","14215","5905","&#9733;","elianto","#3366ff99","-1"," ","0","0","[1708.6999988555908]","1","1","","","14215","4","2","2","win","no-go","0"
"pit-trial","122","920528","0.0-8.0","battery-v0.2","","""event"",""trial"",""time""
""fullscreenenter"",""1"",""2907""
","
","
","""event"",""trial"",""time""
""fullscreenenter"",""1"",""2907""
","
","","","1522.8999996185303","","","13","14215","5905","&#9752;","elianto","#f73b6a7A"," "," ","1","0","[2374.400001525879]","1","1","","","14215","5","3","3","lose","go","0"
"pit-trial","123","925390","0.0-9.0","battery-v0.2","","""event"",""trial"",""time""
""fullscreenenter"",""1"",""2907""
","
","
","""event"",""trial"",""time""
""fullscreenenter"",""1"",""2907""
","
","","","-1","","","13","14215","5905","&#9728;","elianto","#f73b6a7A","-1","-1","1","0","[]","0","1","","","14215","6","0","4","lose","no-go","0"
"pit-trial","124","929936","0.0-10.0","battery-v0.2","","""event"",""trial"",""time""
""fullscreenenter"",""1"",""2907""
","
","
","""event"",""trial"",""time""
""fullscreenenter"",""1"",""2907""
","
","","","1678.8999996185303","","","13","14215","5905","&#9733;","elianto","#3366ff99","-1"," ","0","0","[2532.1000003814697]","1","1","","","14215","7","2","2","win","no-go","0"
"pit-trial","125","934007","0.0-11.0","battery-v0.2","","""event"",""trial"",""time""
""fullscreenenter"",""1"",""2907""
","
","
","""event"",""trial"",""time""
""fullscreenenter"",""1"",""2907""
","
","","","1206.3000011444092","","","13","14215","5905","&#9730;","elianto","#3366ff99"," "," ","1","+10","[2068.5]","1","1","","","14215","8","1","1","win","go","0"
"pit-trial","126","938862","0.0-12.0","battery-v0.2","","""event"",""trial"",""time""
""fullscreenenter"",""1"",""2907""
","
","
","""event"",""trial"",""time""
""fullscreenenter"",""1"",""2907""
","
","","","-1","","","13","14215","5905","&#9733;","elianto","#3366ff99","-1","-1","1","+10","[]","0","1","","","14215","9","2","2","win","no-go","0"
"pit-trial","127","942909","0.0-13.0","battery-v0.2","","""event"",""trial"",""time""
""fullscreenenter"",""1"",""2907""
","
","
","""event"",""trial"",""time""
""fullscreenenter"",""1"",""2907""
","
","","","1192.7999992370605","","","13","14215","5905","&#9730;","elianto","#3366ff99"," "," ","1","0","[2043.2999992370605]","1","1","","","14215","10","1","1","win","go","1"
"pit-trial","128","947764","0.0-14.0","battery-v0.2","","""event"",""trial"",""time""
""fullscreenenter"",""1"",""2907""
","
","
","""event"",""trial"",""time""
""fullscreenenter"",""1"",""2907""
","
","","","-1","","","13","14215","5905","&#9728;","elianto","#f73b6a7A","-1","-1","1","0","[]","0","1","","","14215","11","0","4","lose","no-go","0"
"pit-trial","129","951429","0.0-15.0","battery-v0.2","","""event"",""trial"",""time""
""fullscreenenter"",""1"",""2907""
","
","
","""event"",""trial"",""time""
""fullscreenenter"",""1"",""2907""
","
","","","809.1000003814697","","","13","14215","5905","&#9752;","elianto","#f73b6a7A"," "," ","1","0","[1660.7000007629395]","1","1","","","14215","12","3","3","lose","go","0"
"pit-trial","130","956284","0.0-16.0","battery-v0.2","","""event"",""trial"",""time""
""fullscreenenter"",""1"",""2907""
","
","
","""event"",""trial"",""time""
""fullscreenenter"",""1"",""2907""
","
","","","-1","","","13","14215","5905","&#9733;","elianto","#3366ff99","-1","-1","1","+10","[]","0","1","","","14215","13","2","2","win","no-go","0"
"pit-trial","131","960280","0.0-17.0","battery-v0.2","","""event"",""trial"",""time""
""fullscreenenter"",""1"",""2907""
","
","
","""event"",""trial"",""time""
""fullscreenenter"",""1"",""2907""
","
","","","1141.8000011444092","","","13","14215","5905","&#9730;","elianto","#3366ff99"," "," ","1","0","[1992.900001525879]","1","1","","","14215","14","1","1","win","go","1"
"pit-trial","132","964950","0.0-18.0","battery-v0.2","","""event"",""trial"",""time""
""fullscreenenter"",""1"",""2907""
","
","
","""event"",""trial"",""time""
""fullscreenenter"",""1"",""2907""
","
","","","1812.6999988555908","","","13","14215","5905","&#9728;","elianto","#f73b6a7A","-1"," ","0","-10","[2664.8999996185303]","1","1","","","14215","15","0","4","lose","no-go","0"
"pit-trial","133","969804","0.0-19.0","battery-v0.2","","""event"",""trial"",""time""
""fullscreenenter"",""1"",""2907""
","
","
","""event"",""trial"",""time""
""fullscreenenter"",""1"",""2907""
","
","","","-1","","","13","14215","5905","&#9752;","elianto","#f73b6a7A"," ","-1","0","-10","[]","0","1","","","14215","16","3","3","lose","go","0"
"pit-trial","134","973677","0.0-20.0","battery-v0.2","","""event"",""trial"",""time""
""fullscreenenter"",""1"",""2907""
","
","
","""event"",""trial"",""time""
""fullscreenenter"",""1"",""2907""
","
","","","1016.5","","","13","14215","5905","&#9752;","elianto","#f73b6a7A"," "," ","1","0","[1869.1999988555908]","1","1","","","14215","17","3","3","lose","go","0"
"pit-trial","135","978534","0.0-21.0","battery-v0.2","","""event"",""trial"",""time""
""fullscreenenter"",""1"",""2907""
","
","
","""event"",""trial"",""time""
""fullscreenenter"",""1"",""2907""
","
","","","-1","","","13","14215","5905","&#9728;","elianto","#f73b6a7A","-1","-1","1","-10","[]","0","1","","","14215","18","0","4","lose","no-go","1"
"pit-trial","136","983392","0.0-22.0","battery-v0.2","","""event"",""trial"",""time""
""fullscreenenter"",""1"",""2907""
","
","
","""event"",""trial"",""time""
""fullscreenenter"",""1"",""2907""
","
","","","-1","","","13","14215","5905","&#9733;","elianto","#3366ff99","-1","-1","1","+10","[]","0","1","","","14215","19","2","2","win","no-go","0"
"pit-trial","137","986829","0.0-23.0","battery-v0.2","","""event"",""trial"",""time""
""fullscreenenter"",""1"",""2907""
","
","
","""event"",""trial"",""time""
""fullscreenenter"",""1"",""2907""
","
","","","582.8999996185303","","","13","14215","5905","&#9730;","elianto","#3366ff99"," "," ","1","+10","[1433.900001525879]","1","1","","","14215","20","1","1","win","go","0"
"pit-instructions","138","1000495","0.0-24.0","battery-v0.2","","""event"",""trial"",""time""
""fullscreenenter"",""1"",""2907""
","
","
","""event"",""trial"",""time""
""fullscreenenter"",""1"",""2907""
","
","","[{""page_index"":0,""viewing_time"":6499.60000038147},{""page_index"":1,""viewing_time"":7163.299999237061}]","13663.29999923706","","","","","","","","","","","","","","","","","","","","","","","",""
"pit-trial","139","1005366","0.0-25.0","battery-v0.2","","""event"",""trial"",""time""
""fullscreenenter"",""1"",""2907""
","
","
","""event"",""trial"",""time""
""fullscreenenter"",""1"",""2907""
","
","","","-1","","","13","14215","5905","h","elianto","#f73b6a7A","-1","-1","1","0","[]","0","2","","","14215","21","3","4","lose","no-go","0"
"pit-trial","140","1009668","0.0-26.0","battery-v0.2","","""event"",""trial"",""time""
""fullscreenenter"",""1"",""2907""
","
","
","""event"",""trial"",""time""
""fullscreenenter"",""1"",""2907""
","
","","","1440.3999996185303","","","13","14215","5905","m","elianto","#f73b6a7A"," "," ","1","0","[2291.300001144409]","1","2","","","14215","22","0","3","lose","go","0"
"pit-trial","141","1014537","0.0-27.0","battery-v0.2","","""event"",""trial"",""time""
""fullscreenenter"",""1"",""2907""
","
","
","""event"",""trial"",""time""
""fullscreenenter"",""1"",""2907""
","
","","","-1","","","13","14215","5905","r","elianto","#3366ff99","-1","-1","1","+10","[]","0","2","","","14215","23","1","2","win","no-go","0"
"pit-trial","142","1019411","0.0-28.0","battery-v0.2","","""event"",""trial"",""time""
""fullscreenenter"",""1"",""2907""
","
","
","""event"",""trial"",""time""
""fullscreenenter"",""1"",""2907""
","
","","","-1","","","13","14215","5905","y","elianto","#f73b6a7A"," ","-1","0","-10","[]","0","2","","","14215","24","2","3","lose","go","0"
"pit-trial","143","1024254","0.0-29.0","battery-v0.2","","""event"",""trial"",""time""
""fullscreenenter"",""1"",""2907""
","
","
","""event"",""trial"",""time""
""fullscreenenter"",""1"",""2907""
","
","","","1985.6000003814697","","","13","14215","5905","m","elianto","#f73b6a7A"," "," ","1","0","[2837.7999992370605]","1","2","","","14215","25","0","3","lose","go","0"
"pit-trial","144","1029132","0.0-30.0","battery-v0.2","","""event"",""trial"",""time""
""fullscreenenter"",""1"",""2907""
","
","
","""event"",""trial"",""time""
""fullscreenenter"",""1"",""2907""
","
","","","-1","","","13","14215","5905","h","elianto","#f73b6a7A","-1","-1","1","0","[]","0","2","","","14215","26","3","4","lose","no-go","0"
"pit-trial","145","1033990","0.0-31.0","battery-v0.2","","""event"",""trial"",""time""
""fullscreenenter"",""1"",""2907""
","
","
","""event"",""trial"",""time""
""fullscreenenter"",""1"",""2907""
","
","","","-1","","","13","14215","5905","r","elianto","#3366ff99","-1","-1","1","+10","[3028.7000007629395]","1","2","","","14215","27","1","2","win","no-go","0"
"pit-trial","146","1038278","0.0-32.0","battery-v0.2","","""event"",""trial"",""time""
""fullscreenenter"",""1"",""2907""
","
","
","""event"",""trial"",""time""
""fullscreenenter"",""1"",""2907""
","
","","","1433.1000003814697","","","13","14215","5905","y","elianto","#f73b6a7A"," "," ","1","0","[2283.5]","1","2","","","14215","28","2","3","lose","go","0"
"pit-trial","147","1043134","0.0-33.0","battery-v0.2","","""event"",""trial"",""time""
""fullscreenenter"",""1"",""2907""
","
","
","""event"",""trial"",""time""
""fullscreenenter"",""1"",""2907""
","
","","","-1","","","13","14215","5905","m","elianto","#f73b6a7A"," ","-1","0","-10","[]","0","2","","","14215","29","0","3","lose","go","0"
"pit-trial","148","1047683","0.0-34.0","battery-v0.2","","""event"",""trial"",""time""
""fullscreenenter"",""1"",""2907""
","
","
","""event"",""trial"",""time""
""fullscreenenter"",""1"",""2907""
","
","","","1693.099998474121","","","13","14215","5905","y","elianto","#f73b6a7A"," "," ","1","0","[2543.900001525879]","1","2","","","14215","30","2","3","lose","go","0"
"pit-trial","149","1052538","0.0-35.0","battery-v0.2","","""event"",""trial"",""time""
""fullscreenenter"",""1"",""2907""
","
","
","""event"",""trial"",""time""
""fullscreenenter"",""1"",""2907""
","
","","","-1","","","13","14215","5905","r","elianto","#3366ff99","-1","-1","1","+10","[]","0","2","","","14215","31","1","2","win","no-go","0"
"pit-trial","150","1056618","0.0-36.0","battery-v0.2","","""event"",""trial"",""time""
""fullscreenenter"",""1"",""2907""
","
","
","""event"",""trial"",""time""
""fullscreenenter"",""1"",""2907""
","
","","","1226.1999988555908","","","13","14215","5905","h","elianto","#f73b6a7A","-1"," ","0","-10","[2076.400001525879]","1","2","","","14215","32","3","4","lose","no-go","0"
"pit-trial","151","1061487","0.0-37.0","battery-v0.2","","""event"",""trial"",""time""
""fullscreenenter"",""1"",""2907""
","
","
","""event"",""trial"",""time""
""fullscreenenter"",""1"",""2907""
","
","","","-1","","","13","14215","5905","r","elianto","#3366ff99","-1","-1","1","+10","[]","0","2","","","14215","33","1","2","win","no-go","0"
"pit-trial","152","1065855","0.0-38.0","battery-v0.2","","""event"",""trial"",""time""
""fullscreenenter"",""1"",""2907""
","
","
","""event"",""trial"",""time""
""fullscreenenter"",""1"",""2907""
","
","","","1514.1000003814697","","","13","14215","5905","m","elianto","#f73b6a7A"," "," ","1","0","[2364.8999996185303]","1","2","","","14215","34","0","3","lose","go","0"
"pit-trial","153","1070708","0.0-39.0","battery-v0.2","","""event"",""trial"",""time""
""fullscreenenter"",""1"",""2907""
","
","
","""event"",""trial"",""time""
""fullscreenenter"",""1"",""2907""
","
","","","-1","","","13","14215","5905","y","elianto","#f73b6a7A"," ","-1","0","-10","[]","0","2","","","14215","35","2","3","lose","go","0"
"pit-trial","154","1075562","0.0-40.0","battery-v0.2","","""event"",""trial"",""time""
""fullscreenenter"",""1"",""2907""
","
","
","""event"",""trial"",""time""
""fullscreenenter"",""1"",""2907""
","
","","","-1","","","13","14215","5905","h","elianto","#f73b6a7A","-1","-1","1","0","[]","0","2","","","14215","36","3","4","lose","no-go","0"
"pit-trial","155","1079704","0.0-41.0","battery-v0.2","","""event"",""trial"",""time""
""fullscreenenter"",""1"",""2907""
","
","
","""event"",""trial"",""time""
""fullscreenenter"",""1"",""2907""
","
","","","1286.7000007629395","","","13","14215","5905","r","elianto","#3366ff99","-1"," ","0","0","[2138.2999992370605]","1","2","","","14215","37","1","2","win","no-go","0"
"pit-trial","156","1083924","0.0-42.0","battery-v0.2","","""event"",""trial"",""time""
""fullscreenenter"",""1"",""2907""
","
","
","""event"",""trial"",""time""
""fullscreenenter"",""1"",""2907""
","
","","","1364.5","","","13","14215","5905","y","elianto","#f73b6a7A"," "," ","1","-10","[2215.699998855591]","1","2","","","14215","38","2","3","lose","go","1"
"pit-trial","157","1088778","0.0-43.0","battery-v0.2","","""event"",""trial"",""time""
""fullscreenenter"",""1"",""2907""
","
","
","""event"",""trial"",""time""
""fullscreenenter"",""1"",""2907""
","
","","","-1","","","13","14215","5905","h","elianto","#f73b6a7A","-1","-1","1","0","[]","0","2","","","14215","39","3","4","lose","no-go","0"
"pit-trial","158","1093607","0.0-44.0","battery-v0.2","","""event"",""trial"",""time""
""fullscreenenter"",""1"",""2907""
","
","
","""event"",""trial"",""time""
""fullscreenenter"",""1"",""2907""
","
","","","1972.5","","","13","14215","5905","m","elianto","#f73b6a7A"," "," ","1","0","[2823.400001525879]","1","2","","","14215","40","0","3","lose","go","0"
"pit-trial","159","1097444","0.0-45.0","battery-v0.2","","""event"",""trial"",""time""
""fullscreenenter"",""1"",""2907""
","
","
","""event"",""trial"",""time""
""fullscreenenter"",""1"",""2907""
","
","","","979.6000003814697","","","13","14215","5905","m","elianto","#f73b6a7A"," "," ","1","0","[1831.7000007629395]","1","2","","","14215","41","0","3","lose","go","0"
"pit-trial","160","1102300","0.0-46.0","battery-v0.2","","""event"",""trial"",""time""
""fullscreenenter"",""1"",""2907""
","
","
","""event"",""trial"",""time""
""fullscreenenter"",""1"",""2907""
","
","","","-1","","","13","14215","5905","r","elianto","#3366ff99","-1","-1","1","+10","[]","0","2","","","14215","42","1","2","win","no-go","0"
"pit-trial","161","1106373","0.0-47.0","battery-v0.2","","""event"",""trial"",""time""
""fullscreenenter"",""1"",""2907""
","
","
","""event"",""trial"",""time""
""fullscreenenter"",""1"",""2907""
","
","","","1216.400001525879","","","13","14215","5905","y","elianto","#f73b6a7A"," "," ","1","0","[2068.1000003814697]","1","2","","","14215","43","2","3","lose","go","0"
"pit-trial","162","1111227","0.0-48.0","battery-v0.2","","""event"",""trial"",""time""
""fullscreenenter"",""1"",""2907""
","
","
","""event"",""trial"",""time""
""fullscreenenter"",""1"",""2907""
","
","","","-1","","","13","14215","5905","h","elianto","#f73b6a7A","-1","-1","1","0","[]","0","2","","","14215","44","3","4","lose","no-go","0"
"pit-trial","163","1115511","0.0-49.0","battery-v0.2","","""event"",""trial"",""time""
""fullscreenenter"",""1"",""2907""
","
","
","""event"",""trial"",""time""
""fullscreenenter"",""1"",""2907""
","
","","","1429.400001525879","","","13","14215","5905","y","elianto","#f73b6a7A"," "," ","1","0","[2280.3999996185303]","1","2","","","14215","45","2","3","lose","go","0"
"pit-trial","164","1120244","0.0-50.0","battery-v0.2","","""event"",""trial"",""time""
""fullscreenenter"",""1"",""2907""
","
","
","""event"",""trial"",""time""
""fullscreenenter"",""1"",""2907""
","
","","","1877.1000003814697","","","13","14215","5905","m","elianto","#f73b6a7A"," "," ","1","0","[2727.8999996185303]","1","2","","","14215","46","0","3","lose","go","0"
"pit-trial","165","1125102","0.0-51.0","battery-v0.2","","""event"",""trial"",""time""
""fullscreenenter"",""1"",""2907""
","
","
","""event"",""trial"",""time""
""fullscreenenter"",""1"",""2907""
","
","","","-1","","","13","14215","5905","h","elianto","#f73b6a7A","-1","-1","1","0","[]","0","2","","","14215","47","3","4","lose","no-go","0"
"pit-trial","166","1129217","0.0-52.0","battery-v0.2","","""event"",""trial"",""time""
""fullscreenenter"",""1"",""2907""
","
","
","""event"",""trial"",""time""
""fullscreenenter"",""1"",""2907""
","
","","","1258","","","13","14215","5905","r","elianto","#3366ff99","-1"," ","0","0","[2109.5]","1","2","","","14215","48","1","2","win","no-go","0"
"pit-trial","167","1134072","0.0-53.0","battery-v0.2","","""event"",""trial"",""time""
""fullscreenenter"",""1"",""2907""
","
","
","""event"",""trial"",""time""
""fullscreenenter"",""1"",""2907""
","
","","","-1","","","13","14215","5905","h","elianto","#f73b6a7A","-1","-1","1","-10","[]","0","2","","","14215","49","3","4","lose","no-go","1"
"pit-trial","168","1138927","0.0-54.0","battery-v0.2","","""event"",""trial"",""time""
""fullscreenenter"",""1"",""2907""
","
","
","""event"",""trial"",""time""
""fullscreenenter"",""1"",""2907""
","
","","","-1","","","13","14215","5905","m","elianto","#f73b6a7A"," ","-1","0","-10","[3376.400001525879]","1","2","","","14215","50","0","3","lose","go","0"
"pit-trial","169","1142427","0.0-55.0","battery-v0.2","","""event"",""trial"",""time""
""fullscreenenter"",""1"",""2907""
","
","
","""event"",""trial"",""time""
""fullscreenenter"",""1"",""2907""
","
","","","645.2999992370605","","","13","14215","5905","y","elianto","#f73b6a7A"," "," ","1","0","[1496.7000007629395]","1","2","","","14215","51","2","3","lose","go","0"
"pit-trial","170","1146138","0.0-56.0","battery-v0.2","","""event"",""trial"",""time""
""fullscreenenter"",""1"",""2907""
","
","
","""event"",""trial"",""time""
""fullscreenenter"",""1"",""2907""
","
","","","856.6000003814697","","","13","14215","5905","r","elianto","#3366ff99","-1"," ","0","0","[1707.8999996185303]","1","2","","","14215","52","1","2","win","no-go","0"
"pit-trial","171","1150999","0.0-57.0","battery-v0.2","","""event"",""trial"",""time""
""fullscreenenter"",""1"",""2907""
","
","
","""event"",""trial"",""time""
""fullscreenenter"",""1"",""2907""
","
","","","-1","","","13","14215","5905","r","elianto","#3366ff99","-1","-1","1","+10","[]","0","2","","","14215","53","1","2","win","no-go","0"
"pit-trial","172","1155040","0.0-58.0","battery-v0.2","","""event"",""trial"",""time""
""fullscreenenter"",""1"",""2907""
","
","
","""event"",""trial"",""time""
""fullscreenenter"",""1"",""2907""
","
","","","1187.7000007629395","","","13","14215","5905","y","elianto","#f73b6a7A"," "," ","1","0","[2037.8000011444092]","1","2","","","14215","54","2","3","lose","go","0"
"pit-trial","173","1158902","0.0-59.0","battery-v0.2","","""event"",""trial"",""time""
""fullscreenenter"",""1"",""2907""
","
","
","""event"",""trial"",""time""
""fullscreenenter"",""1"",""2907""
","
","","","1006.6000003814697","","","13","14215","5905","m","elianto","#f73b6a7A"," "," ","1","0","[1858.1000003814697]","1","2","","","14215","55","0","3","lose","go","0"
"pit-trial","174","1163757","0.0-60.0","battery-v0.2","","""event"",""trial"",""time""
""fullscreenenter"",""1"",""2907""
","
","
","""event"",""trial"",""time""
""fullscreenenter"",""1"",""2907""
","
","","","-1","","","13","14215","5905","h","elianto","#f73b6a7A","-1","-1","1","0","[]","0","2","","","14215","56","3","4","lose","no-go","0"
"pit-trial","175","1168120","0.0-61.0","battery-v0.2","","""event"",""trial"",""time""
""fullscreenenter"",""1"",""2907""
","
","
","""event"",""trial"",""time""
""fullscreenenter"",""1"",""2907""
","
","","","1506.8999996185303","","","13","14215","5905","z","elianto","#3366ff99"," "," ","1","+10","[2358.800001144409]","1","2","","","14215","57","4","1","win","go","0"
"pit-trial","176","1172974","0.0-62.0","battery-v0.2","","""event"",""trial"",""time""
""fullscreenenter"",""1"",""2907""
","
","
","""event"",""trial"",""time""
""fullscreenenter"",""1"",""2907""
","
","","","-1","","","13","14215","5905","h","elianto","#f73b6a7A","-1","-1","1","0","[]","0","2","","","14215","58","3","4","lose","no-go","0"
"pit-trial","177","1177035","0.0-63.0","battery-v0.2","","""event"",""trial"",""time""
""fullscreenenter"",""1"",""2907""
","
","
","""event"",""trial"",""time""
""fullscreenenter"",""1"",""2907""
","
","","","1206.2000007629395","","","13","14215","5905","m","elianto","#f73b6a7A"," "," ","1","0","[2058.8999996185303]","1","2","","","14215","59","0","3","lose","go","0"
"pit-trial","178","1180927","0.0-64.0","battery-v0.2","","""event"",""trial"",""time""
""fullscreenenter"",""1"",""2907""
","
","
","""event"",""trial"",""time""
""fullscreenenter"",""1"",""2907""
","
","","","1035.7000007629395","","","13","14215","5905","y","elianto","#f73b6a7A"," "," ","1","0","[1888.2000007629395]","1","2","","","14215","60","2","3","lose","go","0"
"pit-trial","179","1185791","0.0-65.0","battery-v0.2","","""event"",""trial"",""time""
""fullscreenenter"",""1"",""2907""
","
","
","""event"",""trial"",""time""
""fullscreenenter"",""1"",""2907""
","
","","","-1","","","13","14215","5905","h","elianto","#f73b6a7A","-1","-1","1","0","[]","0","2","","","14215","61","3","4","lose","no-go","0"
"pit-trial","180","1189674","0.0-66.0","battery-v0.2","","""event"",""trial"",""time""
""fullscreenenter"",""1"",""2907""
","
","
","""event"",""trial"",""time""
""fullscreenenter"",""1"",""2907""
","
","","","1029.5","","","13","14215","5905","y","elianto","#f73b6a7A"," "," ","1","-10","[1879.8999996185303]","1","2","","","14215","62","2","3","lose","go","1"
"pit-trial","181","1193610","0.0-67.0","battery-v0.2","","""event"",""trial"",""time""
""fullscreenenter"",""1"",""2907""
","
","
","""event"",""trial"",""time""
""fullscreenenter"",""1"",""2907""
","
","","","1080.599998474121","","","13","14215","5905","z","elianto","#3366ff99"," "," ","1","+10","[1932.5]","1","2","","","14215","63","4","1","win","go","0"
"pit-trial","182","1198464","0.0-68.0","battery-v0.2","","""event"",""trial"",""time""
""fullscreenenter"",""1"",""2907""
","
","
","""event"",""trial"",""time""
""fullscreenenter"",""1"",""2907""
","
","","","-1","","","13","14215","5905","r","elianto","#3366ff99","-1","-1","1","+10","[]","0","2","","","14215","64","1","2","win","no-go","0"
"pit-trial","183","1202550","0.0-69.0","battery-v0.2","","""event"",""trial"",""time""
""fullscreenenter"",""1"",""2907""
","
","
","""event"",""trial"",""time""
""fullscreenenter"",""1"",""2907""
","
","","","1231.7999992370605","","","13","14215","5905","c","elianto","#3366ff99","-1"," ","0","0","[2083]","1","2","","","14215","65","5","2","win","no-go","0"
"pit-trial","184","1206564","0.0-70.0","battery-v0.2","","""event"",""trial"",""time""
""fullscreenenter"",""1"",""2907""
","
","
","""event"",""trial"",""time""
""fullscreenenter"",""1"",""2907""
","
","","","1157","","","13","14215","5905","z","elianto","#3366ff99"," "," ","1","+10","[2009]","1","2","","","14215","66","4","1","win","go","0"
"pit-trial","185","1211433","0.0-71.0","battery-v0.2","","""event"",""trial"",""time""
""fullscreenenter"",""1"",""2907""
","
","
","""event"",""trial"",""time""
""fullscreenenter"",""1"",""2907""
","
","","","-1","","","13","14215","5905","h","elianto","#f73b6a7A","-1","-1","1","0","[]","0","2","","","14215","67","3","4","lose","no-go","0"
"pit-trial","186","1216290","0.0-72.0","battery-v0.2","","""event"",""trial"",""time""
""fullscreenenter"",""1"",""2907""
","
","
","""event"",""trial"",""time""
""fullscreenenter"",""1"",""2907""
","
","","","-1","","","13","14215","5905","r","elianto","#3366ff99","-1","-1","1","+10","[]","0","2","","","14215","68","1","2","win","no-go","0"
"pit-trial","187","1221147","0.0-73.0","battery-v0.2","","""event"",""trial"",""time""
""fullscreenenter"",""1"",""2907""
","
","
","""event"",""trial"",""time""
""fullscreenenter"",""1"",""2907""
","
","","","-1","","","13","14215","5905","r","elianto","#3366ff99","-1","-1","1","+10","[]","0","2","","","14215","69","1","2","win","no-go","0"
"pit-trial","188","1225105","0.0-74.0","battery-v0.2","","""event"",""trial"",""time""
""fullscreenenter"",""1"",""2907""
","
","
","""event"",""trial"",""time""
""fullscreenenter"",""1"",""2907""
","
","","","1102.099998474121","","","13","14215","5905","y","elianto","#f73b6a7A"," "," ","1","0","[1953.3999996185303]","1","2","","","14215","70","2","3","lose","go","0"
"pit-trial","189","1229959","0.0-75.0","battery-v0.2","","""event"",""trial"",""time""
""fullscreenenter"",""1"",""2907""
","
","
","""event"",""trial"",""time""
""fullscreenenter"",""1"",""2907""
","
","","","-1","","","13","14215","5905","c","elianto","#3366ff99","-1","-1","1","+10","[]","0","2","","","14215","71","5","2","win","no-go","0"
"pit-trial","190","1233952","0.0-76.0","battery-v0.2","","""event"",""trial"",""time""
""fullscreenenter"",""1"",""2907""
","
","
","""event"",""trial"",""time""
""fullscreenenter"",""1"",""2907""
","
","","","1137.8999996185303","","","13","14215","5905","z","elianto","#3366ff99"," "," ","1","+10","[1988.7999992370605]","1","2","","","14215","72","4","1","win","go","0"
"pit-trial","191","1237912","0.0-77.0","battery-v0.2","","""event"",""trial"",""time""
""fullscreenenter"",""1"",""2907""
","
","
","""event"",""trial"",""time""
""fullscreenenter"",""1"",""2907""
","
","","","1104.6000003814697","","","13","14215","5905","z","elianto","#3366ff99"," "," ","1","+10","[1956.2000007629395]","1","2","","","14215","73","4","1","win","go","0"
"pit-trial","192","1242768","0.0-78.0","battery-v0.2","","""event"",""trial"",""time""
""fullscreenenter"",""1"",""2907""
","
","
","""event"",""trial"",""time""
""fullscreenenter"",""1"",""2907""
","
","","","-1","","","13","14215","5905","h","elianto","#f73b6a7A","-1","-1","1","0","[]","0","2","","","14215","74","3","4","lose","no-go","0"
"pit-trial","193","1247624","0.0-79.0","battery-v0.2","","""event"",""trial"",""time""
""fullscreenenter"",""1"",""2907""
","
","
","""event"",""trial"",""time""
""fullscreenenter"",""1"",""2907""
","
","","","-1","","","13","14215","5905","r","elianto","#3366ff99","-1","-1","1","+10","[]","0","2","","","14215","75","1","2","win","no-go","0"
"pit-trial","194","1251836","0.0-80.0","battery-v0.2","","""event"",""trial"",""time""
""fullscreenenter"",""1"",""2907""
","
","
","""event"",""trial"",""time""
""fullscreenenter"",""1"",""2907""
","
","","","1355","","","13","14215","5905","c","elianto","#3366ff99","-1"," ","0","0","[2207.1000003814697]","1","2","","","14215","76","5","2","win","no-go","0"
"pit-trial","195","1255671","0.0-81.0","battery-v0.2","","""event"",""trial"",""time""
""fullscreenenter"",""1"",""2907""
","
","
","""event"",""trial"",""time""
""fullscreenenter"",""1"",""2907""
","
","","","979.5","","","13","14215","5905","z","elianto","#3366ff99"," "," ","1","+10","[1830.400001525879]","1","2","","","14215","77","4","1","win","go","0"
"pit-trial","196","1260524","0.0-82.0","battery-v0.2","","""event"",""trial"",""time""
""fullscreenenter"",""1"",""2907""
","
","
","""event"",""trial"",""time""
""fullscreenenter"",""1"",""2907""
","
","","","-1","","","13","14215","5905","h","elianto","#f73b6a7A","-1","-1","1","0","[]","0","2","","","14215","78","3","4","lose","no-go","0"
"pit-trial","197","1265382","0.0-83.0","battery-v0.2","","""event"",""trial"",""time""
""fullscreenenter"",""1"",""2907""
","
","
","""event"",""trial"",""time""
""fullscreenenter"",""1"",""2907""
","
","","","-1","","","13","14215","5905","c","elianto","#3366ff99","-1","-1","1","+10","[]","0","2","","","14215","79","5","2","win","no-go","0"
"pit-trial","198","1269240","0.0-84.0","battery-v0.2","","""event"",""trial"",""time""
""fullscreenenter"",""1"",""2907""
","
","
","""event"",""trial"",""time""
""fullscreenenter"",""1"",""2907""
","
","","","1003.2999992370605","","","13","14215","5905","z","elianto","#3366ff99"," "," ","1","+10","[1853.3999996185303]","1","2","","","14215","80","4","1","win","go","0"
"pit-trial","199","1273752","0.0-85.0","battery-v0.2","","""event"",""trial"",""time""
""fullscreenenter"",""1"",""2907""
","
","
","""event"",""trial"",""time""
""fullscreenenter"",""1"",""2907""
","
","","","1656.2000007629395","","","13","14215","5905","t","elianto","#f73b6a7A","-1"," ","0","-10","[2508.6000003814697]","1","2","","","14215","81","7","4","lose","no-go","0"
"pit-trial","200","1278608","0.0-86.0","battery-v0.2","","""event"",""trial"",""time""
""fullscreenenter"",""1"",""2907""
","
","
","""event"",""trial"",""time""
""fullscreenenter"",""1"",""2907""
","
","","","-1","","","13","14215","5905","h","elianto","#f73b6a7A","-1","-1","1","0","[]","0","2","","","14215","82","3","4","lose","no-go","0"
"pit-trial","201","1283463","0.0-87.0","battery-v0.2","","""event"",""trial"",""time""
""fullscreenenter"",""1"",""2907""
","
","
","""event"",""trial"",""time""
""fullscreenenter"",""1"",""2907""
","
","","","-1","","","13","14215","5905","c","elianto","#3366ff99","-1","-1","1","+10","[]","0","2","","","14215","83","5","2","win","no-go","0"
"pit-trial","202","1287289","0.0-88.0","battery-v0.2","","""event"",""trial"",""time""
""fullscreenenter"",""1"",""2907""
","
","
","""event"",""trial"",""time""
""fullscreenenter"",""1"",""2907""
","
","","","972.2999992370605","","","13","14215","5905","z","elianto","#3366ff99"," "," ","1","+10","[1824.5]","1","2","","","14215","84","4","1","win","go","0"
"pit-trial","203","1292144","0.0-89.0","battery-v0.2","","""event"",""trial"",""time""
""fullscreenenter"",""1"",""2907""
","
","
","""event"",""trial"",""time""
""fullscreenenter"",""1"",""2907""
","
","","","-1","","","13","14215","5905","t","elianto","#f73b6a7A","-1","-1","1","0","[]","0","2","","","14215","85","7","4","lose","no-go","0"
"pit-trial","204","1296998","0.0-90.0","battery-v0.2","","""event"",""trial"",""time""
""fullscreenenter"",""1"",""2907""
","
","
","""event"",""trial"",""time""
""fullscreenenter"",""1"",""2907""
","
","","","-1","","","13","14215","5905","c","elianto","#3366ff99","-1","-1","1","+10","[]","0","2","","","14215","86","5","2","win","no-go","0"
"pit-trial","205","1301025","0.0-91.0","battery-v0.2","","""event"",""trial"",""time""
""fullscreenenter"",""1"",""2907""
","
","
","""event"",""trial"",""time""
""fullscreenenter"",""1"",""2907""
","
","","","1167.7999992370605","","","13","14215","5905","z","elianto","#3366ff99"," "," ","1","+10","[2018.7999992370605]","1","2","","","14215","87","4","1","win","go","0"
"pit-trial","206","1305894","0.0-92.0","battery-v0.2","","""event"",""trial"",""time""
""fullscreenenter"",""1"",""2907""
","
","
","""event"",""trial"",""time""
""fullscreenenter"",""1"",""2907""
","
","","","-1","","","13","14215","5905","b","elianto","#f73b6a7A"," ","-1","0","-10","[]","0","2","","","14215","88","6","3","lose","go","0"
"pit-trial","207","1309846","0.0-93.0","battery-v0.2","","""event"",""trial"",""time""
""fullscreenenter"",""1"",""2907""
","
","
","""event"",""trial"",""time""
""fullscreenenter"",""1"",""2907""
","
","","","1097.1999988555908","","","13","14215","5905","b","elianto","#f73b6a7A"," "," ","1","0","[1948.5]","1","2","","","14215","89","6","3","lose","go","0"
"pit-trial","208","1314700","0.0-94.0","battery-v0.2","","""event"",""trial"",""time""
""fullscreenenter"",""1"",""2907""
","
","
","""event"",""trial"",""time""
""fullscreenenter"",""1"",""2907""
","
","","","-1","","","13","14215","5905","t","elianto","#f73b6a7A","-1","-1","1","0","[]","0","2","","","14215","90","7","4","lose","no-go","0"
"pit-trial","209","1318871","0.0-95.0","battery-v0.2","","""event"",""trial"",""time""
""fullscreenenter"",""1"",""2907""
","
","
","""event"",""trial"",""time""
""fullscreenenter"",""1"",""2907""
","
","","","1316.7999992370605","","","13","14215","5905","z","elianto","#3366ff99"," "," ","1","+10","[2168.400001525879]","1","2","","","14215","91","4","1","win","go","0"
"pit-trial","210","1323726","0.0-96.0","battery-v0.2","","""event"",""trial"",""time""
""fullscreenenter"",""1"",""2907""
","
","
","""event"",""trial"",""time""
""fullscreenenter"",""1"",""2907""
","
","","","-1","","","13","14215","5905","c","elianto","#3366ff99","-1","-1","1","+10","[]","0","2","","","14215","92","5","2","win","no-go","0"
"pit-trial","211","1328581","0.0-97.0","battery-v0.2","","""event"",""trial"",""time""
""fullscreenenter"",""1"",""2907""
","
","
","""event"",""trial"",""time""
""fullscreenenter"",""1"",""2907""
","
","","","-1","","","13","14215","5905","b","elianto","#f73b6a7A"," ","-1","0","-10","[]","0","2","","","14215","93","6","3","lose","go","0"
"pit-trial","212","1333438","0.0-98.0","battery-v0.2","","""event"",""trial"",""time""
""fullscreenenter"",""1"",""2907""
","
","
","""event"",""trial"",""time""
""fullscreenenter"",""1"",""2907""
","
","","","-1","","","13","14215","5905","c","elianto","#3366ff99","-1","-1","1","+10","[]","0","2","","","14215","94","5","2","win","no-go","0"
"pit-trial","213","1338303","0.0-99.0","battery-v0.2","","""event"",""trial"",""time""
""fullscreenenter"",""1"",""2907""
","
","
","""event"",""trial"",""time""
""fullscreenenter"",""1"",""2907""
","
","","","-1","","","13","14215","5905","f","elianto","#3366ff99"," ","-1","0","0","[]","0","2","","","14215","95","8","1","win","go","0"
"pit-trial","214","1342932","0.0-100.0","battery-v0.2","","""event"",""trial"",""time""
""fullscreenenter"",""1"",""2907""
","
","
","""event"",""trial"",""time""
""fullscreenenter"",""1"",""2907""
","
","","","1772.099998474121","","","13","14215","5905","t","elianto","#f73b6a7A","-1"," ","0","-10","[2624.8999996185303]","1","2","","","14215","96","7","4","lose","no-go","0"
"pit-trial","215","1347286","0.0-101.0","battery-v0.2","","""event"",""trial"",""time""
""fullscreenenter"",""1"",""2907""
","
","
","""event"",""trial"",""time""
""fullscreenenter"",""1"",""2907""
","
","","","1492.3000011444092","","","13","14215","5905","b","elianto","#f73b6a7A"," "," ","1","-10","[2351.3999996185303]","1","2","","","14215","97","6","3","lose","go","1"
"pit-trial","216","1352140","0.0-102.0","battery-v0.2","","""event"",""trial"",""time""
""fullscreenenter"",""1"",""2907""
","
","
","""event"",""trial"",""time""
""fullscreenenter"",""1"",""2907""
","
","","","-1","","","13","14215","5905","c","elianto","#3366ff99","-1","-1","1","+10","[]","0","2","","","14215","98","5","2","win","no-go","0"
"pit-trial","217","1356996","0.0-103.0","battery-v0.2","","""event"",""trial"",""time""
""fullscreenenter"",""1"",""2907""
","
","
","""event"",""trial"",""time""
""fullscreenenter"",""1"",""2907""
","
","","","-1","","","13","14215","5905","t","elianto","#f73b6a7A","-1","-1","1","0","[]","0","2","","","14215","99","7","4","lose","no-go","0"
"pit-trial","218","1361852","0.0-104.0","battery-v0.2","","""event"",""trial"",""time""
""fullscreenenter"",""1"",""2907""
","
","
","""event"",""trial"",""time""
""fullscreenenter"",""1"",""2907""
","
","","","-1","","","13","14215","5905","f","elianto","#3366ff99"," ","-1","0","0","[]","0","2","","","14215","100","8","1","win","go","0"
"pit-trial","219","1366707","0.0-105.0","battery-v0.2","","""event"",""trial"",""time""
""fullscreenenter"",""1"",""2907""
","
","
","""event"",""trial"",""time""
""fullscreenenter"",""1"",""2907""
","
","","","-1","","","13","14215","5905","t","elianto","#f73b6a7A","-1","-1","1","0","[]","0","2","","","14215","101","7","4","lose","no-go","0"
"pit-trial","220","1371561","0.0-106.0","battery-v0.2","","""event"",""trial"",""time""
""fullscreenenter"",""1"",""2907""
","
","
","""event"",""trial"",""time""
""fullscreenenter"",""1"",""2907""
","
","","","-1","","","13","14215","5905","f","elianto","#3366ff99"," ","-1","0","0","[]","0","2","","","14215","102","8","1","win","go","0"
"pit-trial","221","1376417","0.0-107.0","battery-v0.2","","""event"",""trial"",""time""
""fullscreenenter"",""1"",""2907""
","
","
","""event"",""trial"",""time""
""fullscreenenter"",""1"",""2907""
","
","","","-1","","","13","14215","5905","c","elianto","#3366ff99","-1","-1","1","0","[]","0","2","","","14215","103","5","2","win","no-go","1"
"pit-trial","222","1380715","0.0-108.0","battery-v0.2","","""event"",""trial"",""time""
""fullscreenenter"",""1"",""2907""
","
","
","""event"",""trial"",""time""
""fullscreenenter"",""1"",""2907""
","
","","","1441","","","13","14215","5905","n","elianto","#3366ff99"," "," ","1","+10","[2292.8999996185303]","1","2","","","14215","104","9","1","win","go","0"
"pit-trial","223","1384485","0.0-109.0","battery-v0.2","","""event"",""trial"",""time""
""fullscreenenter"",""1"",""2907""
","
","
","""event"",""trial"",""time""
""fullscreenenter"",""1"",""2907""
","
","","","915.2000007629395","","","13","14215","5905","n","elianto","#3366ff99"," "," ","1","0","[1765.400001525879]","1","2","","","14215","105","9","1","win","go","1"
"pit-trial","224","1389342","0.0-110.0","battery-v0.2","","""event"",""trial"",""time""
""fullscreenenter"",""1"",""2907""
","
","
","""event"",""trial"",""time""
""fullscreenenter"",""1"",""2907""
","
","","","-1","","","13","14215","5905","b","elianto","#f73b6a7A"," ","-1","0","0","[]","0","2","","","14215","106","6","3","lose","go","1"
"pit-trial","225","1394196","0.0-111.0","battery-v0.2","","""event"",""trial"",""time""
""fullscreenenter"",""1"",""2907""
","
","
","""event"",""trial"",""time""
""fullscreenenter"",""1"",""2907""
","
","","","-1","","","13","14215","5905","z","elianto","#3366ff99"," ","-1","0","0","[]","0","2","","","14215","107","4","1","win","go","0"
"pit-trial","226","1399051","0.0-112.0","battery-v0.2","","""event"",""trial"",""time""
""fullscreenenter"",""1"",""2907""
","
","
","""event"",""trial"",""time""
""fullscreenenter"",""1"",""2907""
","
","","","-1","","","13","14215","5905","f","elianto","#3366ff99"," ","-1","0","0","[]","0","2","","","14215","108","8","1","win","go","0"
"pit-trial","227","1403906","0.0-113.0","battery-v0.2","","""event"",""trial"",""time""
""fullscreenenter"",""1"",""2907""
","
","
","""event"",""trial"",""time""
""fullscreenenter"",""1"",""2907""
","
","","","-1","","","13","14215","5905","c","elianto","#3366ff99","-1","-1","1","+10","[]","0","2","","","14215","109","5","2","win","no-go","0"
"pit-trial","228","1408760","0.0-114.0","battery-v0.2","","""event"",""trial"",""time""
""fullscreenenter"",""1"",""2907""
","
","
","""event"",""trial"",""time""
""fullscreenenter"",""1"",""2907""
","
","","","-1","","","13","14215","5905","f","elianto","#3366ff99"," ","-1","0","0","[]","0","2","","","14215","110","8","1","win","go","0"
"pit-trial","229","1412810","0.0-115.0","battery-v0.2","","""event"",""trial"",""time""
""fullscreenenter"",""1"",""2907""
","
","
","""event"",""trial"",""time""
""fullscreenenter"",""1"",""2907""
","
","","","1196.1000003814697","","","13","14215","5905","n","elianto","#3366ff99"," "," ","1","0","[2046.3999996185303]","1","2","","","14215","111","9","1","win","go","1"
"pit-trial","230","1417666","0.0-116.0","battery-v0.2","","""event"",""trial"",""time""
""fullscreenenter"",""1"",""2907""
","
","
","""event"",""trial"",""time""
""fullscreenenter"",""1"",""2907""
","
","","","-1","","","13","14215","5905","b","elianto","#f73b6a7A"," ","-1","0","0","[]","0","2","","","14215","112","6","3","lose","go","1"
"pit-trial","231","1422524","0.0-117.0","battery-v0.2","","""event"",""trial"",""time""
""fullscreenenter"",""1"",""2907""
","
","
","""event"",""trial"",""time""
""fullscreenenter"",""1"",""2907""
","
","","","-1","","","13","14215","5905","c","elianto","#3366ff99","-1","-1","1","+10","[]","0","2","","","14215","113","5","2","win","no-go","0"
"pit-trial","232","1427377","0.0-118.0","battery-v0.2","","""event"",""trial"",""time""
""fullscreenenter"",""1"",""2907""
","
","
","""event"",""trial"",""time""
""fullscreenenter"",""1"",""2907""
","
","","","-1","","","13","14215","5905","b","elianto","#f73b6a7A"," ","-1","0","-10","[3091.6000003814697]","1","2","","","14215","114","6","3","lose","go","0"
"pit-trial","233","1432028","0.0-119.0","battery-v0.2","","""event"",""trial"",""time""
""fullscreenenter"",""1"",""2907""
","
","
","""event"",""trial"",""time""
""fullscreenenter"",""1"",""2907""
","
","","","1794.6999988555908","","","13","14215","5905","f","elianto","#3366ff99"," "," ","1","+10","[2646.800001144409]","1","2","","","14215","115","8","1","win","go","0"
"pit-trial","234","1435960","0.0-120.0","battery-v0.2","","""event"",""trial"",""time""
""fullscreenenter"",""1"",""2907""
","
","
","""event"",""trial"",""time""
""fullscreenenter"",""1"",""2907""
","
","","","1076.8999996185303","","","13","14215","5905","n","elianto","#3366ff99"," "," ","1","0","[1927.1000003814697]","1","2","","","14215","116","9","1","win","go","1"
"pit-trial","235","1439820","0.0-121.0","battery-v0.2","","""event"",""trial"",""time""
""fullscreenenter"",""1"",""2907""
","
","
","""event"",""trial"",""time""
""fullscreenenter"",""1"",""2907""
","
","","","1005.6000003814697","","","13","14215","5905","f","elianto","#3366ff99"," "," ","1","+10","[1855.8000011444092]","1","2","","","14215","117","8","1","win","go","0"
"pit-trial","236","1444675","0.0-122.0","battery-v0.2","","""event"",""trial"",""time""
""fullscreenenter"",""1"",""2907""
","
","
","""event"",""trial"",""time""
""fullscreenenter"",""1"",""2907""
","
","","","-1","","","13","14215","5905","n","elianto","#3366ff99"," ","-1","0","0","[]","0","2","","","14215","118","9","1","win","go","0"
"pit-trial","237","1449532","0.0-123.0","battery-v0.2","","""event"",""trial"",""time""
""fullscreenenter"",""1"",""2907""
","
","
","""event"",""trial"",""time""
""fullscreenenter"",""1"",""2907""
","
","","","-1","","","13","14215","5905","c","elianto","#3366ff99","-1","-1","1","+10","[]","0","2","","","14215","119","5","2","win","no-go","0"
"pit-trial","238","1454394","0.0-124.0","battery-v0.2","","""event"",""trial"",""time""
""fullscreenenter"",""1"",""2907""
","
","
","""event"",""trial"",""time""
""fullscreenenter"",""1"",""2907""
","
","","","2006.2000007629395","","","13","14215","5905","b","elianto","#f73b6a7A"," "," ","1","0","[2857.6000003814697]","1","2","","","14215","120","6","3","lose","go","0"
"pit-trial","239","1458774","0.0-125.0","battery-v0.2","","""event"",""trial"",""time""
""fullscreenenter"",""1"",""2907""
","
","
","""event"",""trial"",""time""
""fullscreenenter"",""1"",""2907""
","
","","","1522.1000003814697","","","13","14215","5905","n","elianto","#3366ff99"," "," ","1","+10","[2373.7999992370605]","1","2","","","14215","121","9","1","win","go","0"
"pit-trial","240","1463630","0.0-126.0","battery-v0.2","","""event"",""trial"",""time""
""fullscreenenter"",""1"",""2907""
","
","
","""event"",""trial"",""time""
""fullscreenenter"",""1"",""2907""
","
","","","-1","","","13","14215","5905","b","elianto","#f73b6a7A"," ","-1","0","-10","[]","0","2","","","14215","122","6","3","lose","go","0"
"pit-trial","241","1468487","0.0-127.0","battery-v0.2","","""event"",""trial"",""time""
""fullscreenenter"",""1"",""2907""
","
","
","""event"",""trial"",""time""
""fullscreenenter"",""1"",""2907""
","
","","","-1","","","13","14215","5905","t","elianto","#f73b6a7A","-1","-1","1","0","[2935.900001525879]","1","2","","","14215","123","7","4","lose","no-go","0"
"pit-trial","242","1472854","0.0-128.0","battery-v0.2","","""event"",""trial"",""time""
""fullscreenenter"",""1"",""2907""
","
","
","""event"",""trial"",""time""
""fullscreenenter"",""1"",""2907""
","
","","","1513","","","13","14215","5905","f","elianto","#3366ff99"," "," ","1","0","[2363.8999996185303]","1","2","","","14215","124","8","1","win","go","1"
"pit-trial","243","1477206","0.0-129.0","battery-v0.2","","""event"",""trial"",""time""
""fullscreenenter"",""1"",""2907""
","
","
","""event"",""trial"",""time""
""fullscreenenter"",""1"",""2907""
","
","","","1494.3999996185303","","","13","14215","5905","b","elianto","#f73b6a7A"," "," ","1","0","[2346.6000003814697]","1","2","","","14215","125","6","3","lose","go","0"
"pit-trial","244","1481293","0.0-130.0","battery-v0.2","","""event"",""trial"",""time""
""fullscreenenter"",""1"",""2907""
","
","
","""event"",""trial"",""time""
""fullscreenenter"",""1"",""2907""
","
","","","1234","","","13","14215","5905","n","elianto","#3366ff99"," "," ","1","0","[2084.199998855591]","1","2","","","14215","126","9","1","win","go","1"
"pit-trial","245","1486150","0.0-131.0","battery-v0.2","","""event"",""trial"",""time""
""fullscreenenter"",""1"",""2907""
","
","
","""event"",""trial"",""time""
""fullscreenenter"",""1"",""2907""
","
","","","-1","","","13","14215","5905","f","elianto","#3366ff99"," ","-1","0","0","[]","0","2","","","14215","127","8","1","win","go","0"
"pit-trial","246","1491011","0.0-132.0","battery-v0.2","","""event"",""trial"",""time""
""fullscreenenter"",""1"",""2907""
","
","
","""event"",""trial"",""time""
""fullscreenenter"",""1"",""2907""
","
","","","-1","","","13","14215","5905","t","elianto","#f73b6a7A","-1","-1","1","0","[]","0","2","","","14215","128","7","4","lose","no-go","0"
"pit-trial","247","1494784","0.0-133.0","battery-v0.2","","""event"",""trial"",""time""
""fullscreenenter"",""1"",""2907""
","
","
","""event"",""trial"",""time""
""fullscreenenter"",""1"",""2907""
","
","","","919.3000011444092","","","13","14215","5905","f","elianto","#3366ff99"," "," ","1","+10","[1769.2999992370605]","1","2","","","14215","129","8","1","win","go","0"
"pit-trial","248","1499625","0.0-134.0","battery-v0.2","","""event"",""trial"",""time""
""fullscreenenter"",""1"",""2907""
","
","
","""event"",""trial"",""time""
""fullscreenenter"",""1"",""2907""
","
","","","1983.3999996185303","","","13","14215","5905","b","elianto","#f73b6a7A"," "," ","1","0","[2835.6000003814697]","1","2","","","14215","130","6","3","lose","go","0"
"pit-trial","249","1503613","0.0-135.0","battery-v0.2","","""event"",""trial"",""time""
""fullscreenenter"",""1"",""2907""
","
","
","""event"",""trial"",""time""
""fullscreenenter"",""1"",""2907""
","
","","","1133.2999992370605","","","13","14215","5905","n","elianto","#3366ff99"," "," ","1","+10","[1984.3000011444092]","1","2","","","14215","131","9","1","win","go","0"
"pit-trial","250","1508469","0.0-136.0","battery-v0.2","","""event"",""trial"",""time""
""fullscreenenter"",""1"",""2907""
","
","
","""event"",""trial"",""time""
""fullscreenenter"",""1"",""2907""
","
","","","-1","","","13","14215","5905","t","elianto","#f73b6a7A","-1","-1","1","0","[]","0","2","","","14215","132","7","4","lose","no-go","0"
"pit-trial","251","1513326","0.0-137.0","battery-v0.2","","""event"",""trial"",""time""
""fullscreenenter"",""1"",""2907""
","
","
","""event"",""trial"",""time""
""fullscreenenter"",""1"",""2907""
","
","","","-1","","","13","14215","5905","t","elianto","#f73b6a7A","-1","-1","1","-10","[]","0","2","","","14215","133","7","4","lose","no-go","1"
"pit-trial","252","1517651","0.0-138.0","battery-v0.2","","""event"",""trial"",""time""
""fullscreenenter"",""1"",""2907""
","
","
","""event"",""trial"",""time""
""fullscreenenter"",""1"",""2907""
","
","","","1463.7000007629395","","","13","14215","5905","f","elianto","#3366ff99"," "," ","1","+10","[2322.1000003814697]","1","2","","","14215","134","8","1","win","go","0"
"pit-trial","253","1522017","0.0-139.0","battery-v0.2","","""event"",""trial"",""time""
""fullscreenenter"",""1"",""2907""
","
","
","""event"",""trial"",""time""
""fullscreenenter"",""1"",""2907""
","
","","","1508","","","13","14215","5905","n","elianto","#3366ff99"," "," ","1","+10","[2361.199998855591]","1","2","","","14215","135","9","1","win","go","0"
"pit-trial","254","1526449","0.0-140.0","battery-v0.2","","""event"",""trial"",""time""
""fullscreenenter"",""1"",""2907""
","
","
","""event"",""trial"",""time""
""fullscreenenter"",""1"",""2907""
","
","","","1576.599998474121","","","13","14215","5905","b","elianto","#f73b6a7A"," "," ","1","0","[2427.300001144409]","1","2","","","14215","136","6","3","lose","go","0"
"pit-trial","255","1530536","0.0-141.0","battery-v0.2","","""event"",""trial"",""time""
""fullscreenenter"",""1"",""2907""
","
","
","""event"",""trial"",""time""
""fullscreenenter"",""1"",""2907""
","
","","","1231.2000007629395","","","13","14215","5905","t","elianto","#f73b6a7A","-1"," ","0","0","[2083]","1","2","","","14215","137","7","4","lose","no-go","1"
"pit-trial","256","1534535","0.0-142.0","battery-v0.2","","""event"",""trial"",""time""
""fullscreenenter"",""1"",""2907""
","
","
","""event"",""trial"",""time""
""fullscreenenter"",""1"",""2907""
","
","","","1143","","","13","14215","5905","n","elianto","#3366ff99"," "," ","1","0","[1993.5]","1","2","","","14215","138","9","1","win","go","1"
"pit-trial","257","1539001","0.0-143.0","battery-v0.2","","""event"",""trial"",""time""
""fullscreenenter"",""1"",""2907""
","
","
","""event"",""trial"",""time""
""fullscreenenter"",""1"",""2907""
","
","","","1610.400001525879","","","13","14215","5905","f","elianto","#3366ff99"," "," ","1","0","[2461.6000003814697]","1","2","","","14215","139","8","1","win","go","1"
"pit-trial","258","1543480","0.0-144.0","battery-v0.2","","""event"",""trial"",""time""
""fullscreenenter"",""1"",""2907""
","
","
","""event"",""trial"",""time""
""fullscreenenter"",""1"",""2907""
","
","","","1625.7999992370605","","","13","14215","5905","b","elianto","#f73b6a7A"," "," ","1","0","[2476.5]","1","2","","","14215","140","6","3","lose","go","0"
"pit-instructions","259","1560171","0.0-145.0","battery-v0.2","","""event"",""trial"",""time""
""fullscreenenter"",""1"",""2907""
","
","
","""event"",""trial"",""time""
""fullscreenenter"",""1"",""2907""
","
","","[{""page_index"":0,""viewing_time"":8267.79999923706},{""page_index"":1,""viewing_time"":8420.30000114441}]","16688.70000076294","","","","","","","","","","","","","","","","","","","","","","","",""
"pit-trial","260","1564654","0.0-146.0","battery-v0.2","","""event"",""trial"",""time""
""fullscreenenter"",""1"",""2907""
","
","
","""event"",""trial"",""time""
""fullscreenenter"",""1"",""2907""
","
","","","1598.099998474121","","","13","14215","5905","e","elianto","#f73b6a7A","-1"," ","0","-10","[2461.099998474121]","1","3","","","14215","141","2","4","lose","no-go","0"
"pit-trial","261","1568554","0.0-147.0","battery-v0.2","","""event"",""trial"",""time""
""fullscreenenter"",""1"",""2907""
","
","
","""event"",""trial"",""time""
""fullscreenenter"",""1"",""2907""
","
","","","1033.400001525879","","","13","14215","5905","d","elianto","#3366ff99"," "," ","1","+10","[1884]","1","3","","","14215","142","1","1","win","go","0"
"pit-trial","262","1572733","0.0-148.0","battery-v0.2","","""event"",""trial"",""time""
""fullscreenenter"",""1"",""2907""
","
","
","""event"",""trial"",""time""
""fullscreenenter"",""1"",""2907""
","
","","","1315.3000011444092","","","13","14215","5905","w","elianto","#f73b6a7A"," "," ","1","0","[2167.2999992370605]","1","3","","","14215","143","3","3","lose","go","0"
"pit-trial","263","1577598","0.0-149.0","battery-v0.2","","""event"",""trial"",""time""
""fullscreenenter"",""1"",""2907""
","
","
","""event"",""trial"",""time""
""fullscreenenter"",""1"",""2907""
","
","","","-1","","","13","14215","5905","j","elianto","#f73b6a7A","-1","-1","1","0","[]","0","3","","","14215","144","0","4","lose","no-go","0"
"pit-trial","264","1582473","0.0-150.0","battery-v0.2","","""event"",""trial"",""time""
""fullscreenenter"",""1"",""2907""
","
","
","""event"",""trial"",""time""
""fullscreenenter"",""1"",""2907""
","
","","","-1","","","13","14215","5905","j","elianto","#f73b6a7A","-1","-1","1","0","[]","0","3","","","14215","145","0","4","lose","no-go","0"
"pit-trial","265","1586999","0.0-151.0","battery-v0.2","","""event"",""trial"",""time""
""fullscreenenter"",""1"",""2907""
","
","
","""event"",""trial"",""time""
""fullscreenenter"",""1"",""2907""
","
","","","1652.900001525879","","","13","14215","5905","w","elianto","#f73b6a7A"," "," ","1","0","[2508.1000003814697]","1","3","","","14215","146","3","3","lose","go","0"
"pit-trial","266","1591615","0.0-152.0","battery-v0.2","","""event"",""trial"",""time""
""fullscreenenter"",""1"",""2907""
","
","
","""event"",""trial"",""time""
""fullscreenenter"",""1"",""2907""
","
","","","1755.8000011444092","","","13","14215","5905","e","elianto","#f73b6a7A","-1"," ","0","-10","[2611.2000007629395]","1","3","","","14215","147","2","4","lose","no-go","0"
"pit-trial","267","1596187","0.0-153.0","battery-v0.2","","""event"",""trial"",""time""
""fullscreenenter"",""1"",""2907""
","
","
","""event"",""trial"",""time""
""fullscreenenter"",""1"",""2907""
","
