"trial_type","trial_index","time_elapsed","internal_node_id","task_version","subject_id","interactions","blur_events","focus_events","fullscreenenter_events","fullscreenexit_events","success","view_history","rt","responses","num_errors","age","subject","participantId","rune","rune_set","hex","correct","choice","accuracy","outcome","keys","total_keys","block","practice","value","sub","trial","stimulus","robot","valence","action","sham"
"pavlovia","0","19","0.0-0.0","battery-v0.2","","""event"",""trial"",""time""
""focus"",""0"",""1""
""fullscreenenter"",""1"",""6898""
","
","""event"",""trial"",""time""
""focus"",""0"",""1""
","""event"",""trial"",""time""
""fullscreenenter"",""1"",""6898""
","
","","","","","","","","","","","","","","","","","","","","","","","","","","",""
"fullscreen","1","7680","0.0-1.0","battery-v0.2","","""event"",""trial"",""time""
""focus"",""0"",""1""
""fullscreenenter"",""1"",""6898""
","
","""event"",""trial"",""time""
""focus"",""0"",""1""
","""event"",""trial"",""time""
""fullscreenenter"",""1"",""6898""
","
","true","","","","","","","","","","","","","","","","","","","","","","","","","",""
"pit-instructions","2","19139","0.0-2.0-0.0","battery-v0.2","","""event"",""trial"",""time""
""focus"",""0"",""1""
""fullscreenenter"",""1"",""6898""
","
","""event"",""trial"",""time""
""focus"",""0"",""1""
","""event"",""trial"",""time""
""fullscreenenter"",""1"",""6898""
","
","","[{""page_index"":0,""viewing_time"":11450}]","11450","","","","","","","","","","","","","","","","","","","","","","","",""
"pit-comprehension","3","27842","0.0-2.0-1.0-0.0","battery-v0.2","","""event"",""trial"",""time""
""focus"",""0"",""1""
""fullscreenenter"",""1"",""6898""
","
","""event"",""trial"",""time""
""focus"",""0"",""1""
","""event"",""trial"",""time""
""fullscreenenter"",""1"",""6898""
","
","","","8696","[""shark""]","0","10","12424","1175","","","","","","","","","","","","","","","","","","",""
"pit-instructions","4","30281","0.0-2.0-1.0-1.0","battery-v0.2","","""event"",""trial"",""time""
""focus"",""0"",""1""
""fullscreenenter"",""1"",""6898""
","
","""event"",""trial"",""time""
""focus"",""0"",""1""
","""event"",""trial"",""time""
""fullscreenenter"",""1"",""6898""
","
","","[{""page_index"":0,""viewing_time"":2426}]","2427","","","","","","","","","","","","","","","","","","","","","","","",""
"pit-comprehension","5","35003","0.0-2.0-2.0-0.0","battery-v0.2","","""event"",""trial"",""time""
""focus"",""0"",""1""
""fullscreenenter"",""1"",""6898""
","
","""event"",""trial"",""time""
""focus"",""0"",""1""
","""event"",""trial"",""time""
""fullscreenenter"",""1"",""6898""
","
","","","4717","[""tiger""]","0","10","12424","1175","","","","","","","","","","","","","","","","","","",""
"pit-instructions","6","36761","0.0-2.0-2.0-1.0","battery-v0.2","","""event"",""trial"",""time""
""focus"",""0"",""1""
""fullscreenenter"",""1"",""6898""
","
","""event"",""trial"",""time""
""focus"",""0"",""1""
","""event"",""trial"",""time""
""fullscreenenter"",""1"",""6898""
","
","","[{""page_index"":0,""viewing_time"":1752}]","1752","","","","","","","","","","","","","","","","","","","","","","","",""
"pit-instructions","7","135702","0.0-2.0-3.0","battery-v0.2","","""event"",""trial"",""time""
""focus"",""0"",""1""
""fullscreenenter"",""1"",""6898""
","
","""event"",""trial"",""time""
""focus"",""0"",""1""
","""event"",""trial"",""time""
""fullscreenenter"",""1"",""6898""
","
","","[{""page_index"":0,""viewing_time"":8616},{""page_index"":1,""viewing_time"":7018},{""page_index"":2,""viewing_time"":6367},{""page_index"":3,""viewing_time"":7847},{""page_index"":4,""viewing_time"":5289},{""page_index"":5,""viewing_time"":5920},{""page_index"":6,""viewing_time"":9024},{""page_index"":7,""viewing_time"":7016},{""page_index"":8,""viewing_time"":6895},{""page_index"":9,""viewing_time"":5052},{""page_index"":10,""viewing_time"":9696},{""page_index"":11,""viewing_time"":6896},{""page_index"":12,""viewing_time"":6112},{""page_index"":13,""viewing_time"":7189}]","98937","","","","","","","","","","","","","","","","","","","","","","","",""
"pit-trial","8","139309","0.0-2.0-4.0-0.0","battery-v0.2","","""event"",""trial"",""time""
""focus"",""0"",""1""
""fullscreenenter"",""1"",""6898""
","
","""event"",""trial"",""time""
""focus"",""0"",""1""
","""event"",""trial"",""time""
""fullscreenenter"",""1"",""6898""
","
","","","539","","","10","12424","1175","&#9784;","elianto","#FFFFF080"," "," ","1","&#10004","[1449]","1","0","0","","","","","","","",""
"pit-trial","9","142827","0.0-2.0-4.1-0.1","battery-v0.2","","""event"",""trial"",""time""
""focus"",""0"",""1""
""fullscreenenter"",""1"",""6898""
","
","""event"",""trial"",""time""
""focus"",""0"",""1""
","""event"",""trial"",""time""
""fullscreenenter"",""1"",""6898""
","
","","","664","","","10","12424","1175","&#9784;","elianto","#FFFFF080"," "," ","1","&#10004","[1514]","1","0","0","","","","","","","",""
"pit-trial","10","146595","0.0-2.0-4.2-0.2","battery-v0.2","","""event"",""trial"",""time""
""focus"",""0"",""1""
""fullscreenenter"",""1"",""6898""
","
","""event"",""trial"",""time""
""focus"",""0"",""1""
","""event"",""trial"",""time""
""fullscreenenter"",""1"",""6898""
","
","","","908","","","10","12424","1175","&#9784;","elianto","#FFFFF080"," "," ","1","&#10004","[1764]","1","0","0","","","","","","","",""
"pit-trial","11","150003","0.0-2.0-4.3-0.3","battery-v0.2","","""event"",""trial"",""time""
""focus"",""0"",""1""
""fullscreenenter"",""1"",""6898""
","
","""event"",""trial"",""time""
""focus"",""0"",""1""
","""event"",""trial"",""time""
""fullscreenenter"",""1"",""6898""
","
","","","553","","","10","12424","1175","&#9784;","elianto","#FFFFF080"," "," ","1","&#10004","[1405]","1","0","0","","","","","","","",""
"pit-trial","12","153636","0.0-2.0-4.4-0.4","battery-v0.2","","""event"",""trial"",""time""
""focus"",""0"",""1""
""fullscreenenter"",""1"",""6898""
","
","""event"",""trial"",""time""
""focus"",""0"",""1""
","""event"",""trial"",""time""
""fullscreenenter"",""1"",""6898""
","
","","","777","","","10","12424","1175","&#9784;","elianto","#FFFFF080"," "," ","1","&#10004","[1629]","1","0","0","","","","","","","",""
"pit-instructions","13","186829","0.0-2.0-5.0","battery-v0.2","","""event"",""trial"",""time""
""focus"",""0"",""1""
""fullscreenenter"",""1"",""6898""
","
","""event"",""trial"",""time""
""focus"",""0"",""1""
","""event"",""trial"",""time""
""fullscreenenter"",""1"",""6898""
","
","","[{""page_index"":0,""viewing_time"":15556},{""page_index"":1,""viewing_time"":6408},{""page_index"":2,""viewing_time"":5049},{""page_index"":3,""viewing_time"":6176}]","33190","","","","","","","","","","","","","","","","","","","","","","","",""
"pit-trial","14","191739","0.0-2.0-6.0-0.0","battery-v0.2","","""event"",""trial"",""time""
""focus"",""0"",""1""
""fullscreenenter"",""1"",""6898""
","
","""event"",""trial"",""time""
""focus"",""0"",""1""
","""event"",""trial"",""time""
""fullscreenenter"",""1"",""6898""
","
","","","-1","","","10","12424","1175","&#9854;","elianto","#FFFFF080","-1","-1","1","&#10004","[]","0","0","1","","","","","","","",""
"pit-trial","15","196755","0.0-2.0-6.1-0.1","battery-v0.2","","""event"",""trial"",""time""
""focus"",""0"",""1""
""fullscreenenter"",""1"",""6898""
","
","""event"",""trial"",""time""
""focus"",""0"",""1""
","""event"",""trial"",""time""
""fullscreenenter"",""1"",""6898""
","
","","","-1","","","10","12424","1175","&#9854;","elianto","#FFFFF080","-1","-1","1","&#10004","[]","0","0","1","","","","","","","",""
"pit-trial","16","201740","0.0-2.0-6.2-0.2","battery-v0.2","","""event"",""trial"",""time""
""focus"",""0"",""1""
""fullscreenenter"",""1"",""6898""
","
","""event"",""trial"",""time""
""focus"",""0"",""1""
","""event"",""trial"",""time""
""fullscreenenter"",""1"",""6898""
","
","","","-1","","","10","12424","1175","&#9854;","elianto","#FFFFF080","-1","-1","1","&#10004","[]","0","0","1","","","","","","","",""
"pit-trial","17","206600","0.0-2.0-6.3-0.3","battery-v0.2","","""event"",""trial"",""time""
""focus"",""0"",""1""
""fullscreenenter"",""1"",""6898""
","
","""event"",""trial"",""time""
""focus"",""0"",""1""
","""event"",""trial"",""time""
""fullscreenenter"",""1"",""6898""
","
","","","-1","","","10","12424","1175","&#9854;","elianto","#FFFFF080","-1","-1","1","&#10004","[]","0","0","1","","","","","","","",""
"pit-trial","18","211461","0.0-2.0-6.4-0.4","battery-v0.2","","""event"",""trial"",""time""
""focus"",""0"",""1""
""fullscreenenter"",""1"",""6898""
","
","""event"",""trial"",""time""
""focus"",""0"",""1""
","""event"",""trial"",""time""
""fullscreenenter"",""1"",""6898""
","
","","","-1","","","10","12424","1175","&#9854;","elianto","#FFFFF080","-1","-1","1","&#10004","[]","0","0","1","","","","","","","",""
"pit-instructions","19","333401","0.0-2.0-7.0","battery-v0.2","","""event"",""trial"",""time""
""focus"",""0"",""1""
""fullscreenenter"",""1"",""6898""
","
","""event"",""trial"",""time""
""focus"",""0"",""1""
","""event"",""trial"",""time""
""fullscreenenter"",""1"",""6898""
","
","","[{""page_index"":0,""viewing_time"":5602},{""page_index"":1,""viewing_time"":7313},{""page_index"":2,""viewing_time"":5832},{""page_index"":3,""viewing_time"":8903},{""page_index"":4,""viewing_time"":7572},{""page_index"":5,""viewing_time"":5989},{""page_index"":6,""viewing_time"":6648},{""page_index"":7,""viewing_time"":7791},{""page_index"":8,""viewing_time"":7706},{""page_index"":9,""viewing_time"":7575},{""page_index"":10,""viewing_time"":6632},{""page_index"":11,""viewing_time"":4792},{""page_index"":12,""viewing_time"":6615},{""page_index"":13,""viewing_time"":6128},{""page_index"":14,""viewing_time"":6913},{""page_index"":15,""viewing_time"":6528},{""page_index"":16,""viewing_time"":7296},{""page_index"":17,""viewing_time"":6105}]","121940","","","","","","","","","","","","","","","","","","","","","","","",""
"pit-trial","20","336999","0.0-2.0-8.0-0.0","battery-v0.2","","""event"",""trial"",""time""
""focus"",""0"",""1""
""fullscreenenter"",""1"",""6898""
","
","""event"",""trial"",""time""
""focus"",""0"",""1""
","""event"",""trial"",""time""
""fullscreenenter"",""1"",""6898""
","
","","","738","","","10","12424","1175","&#9776;","elianto","#3366ff99"," "," ","1","+10","[1592]","1","0","1","","","","","","","",""
"pit-trial","21","340595","0.0-2.0-8.0-1.0","battery-v0.2","","""event"",""trial"",""time""
""focus"",""0"",""1""
""fullscreenenter"",""1"",""6898""
","
","""event"",""trial"",""time""
""focus"",""0"",""1""
","""event"",""trial"",""time""
""fullscreenenter"",""1"",""6898""
","
","","","737","","","10","12424","1175","&#9776;","elianto","#3366ff99"," "," ","1","+10","[1587]","1","0","1","","","","","","","",""
"pit-trial","22","344723","0.0-2.0-8.0-2.0","battery-v0.2","","""event"",""trial"",""time""
""focus"",""0"",""1""
""fullscreenenter"",""1"",""6898""
","
","""event"",""trial"",""time""
""focus"",""0"",""1""
","""event"",""trial"",""time""
""fullscreenenter"",""1"",""6898""
","
","","","1126","","","10","12424","1175","&#9776;","elianto","#3366ff99"," "," ","1","+10","[1982]","1","0","1","","","","","","","",""
"pit-trial","23","348362","0.0-2.0-8.0-3.0","battery-v0.2","","""event"",""trial"",""time""
""focus"",""0"",""1""
""fullscreenenter"",""1"",""6898""
","
","""event"",""trial"",""time""
""focus"",""0"",""1""
","""event"",""trial"",""time""
""fullscreenenter"",""1"",""6898""
","
","","","779","","","10","12424","1175","&#9776;","elianto","#3366ff99"," "," ","1","0","[1630]","1","0","1","","","","","","","",""
"pit-trial","24","352170","0.0-2.0-8.0-4.0","battery-v0.2","","""event"",""trial"",""time""
""focus"",""0"",""1""
""fullscreenenter"",""1"",""6898""
","
","""event"",""trial"",""time""
""focus"",""0"",""1""
","""event"",""trial"",""time""
""fullscreenenter"",""1"",""6898""
","
","","","947","","","10","12424","1175","&#9776;","elianto","#3366ff99"," "," ","1","+10","[1799]","1","0","1","","","","","","","",""
"pit-trial","25","355422","0.0-2.0-8.1-0.1","battery-v0.2","","""event"",""trial"",""time""
""focus"",""0"",""1""
""fullscreenenter"",""1"",""6898""
","
","""event"",""trial"",""time""
""focus"",""0"",""1""
","""event"",""trial"",""time""
""fullscreenenter"",""1"",""6898""
","
","","","393","","","10","12424","1175","&#9776;","elianto","#3366ff99"," "," ","1","+10","[1247]","1","0","1","","","","","","","",""
"pit-trial","26","358571","0.0-2.0-8.1-1.1","battery-v0.2","","""event"",""trial"",""time""
""focus"",""0"",""1""
""fullscreenenter"",""1"",""6898""
","
","""event"",""trial"",""time""
""focus"",""0"",""1""
","""event"",""trial"",""time""
""fullscreenenter"",""1"",""6898""
","
","","","294","","","10","12424","1175","&#9776;","elianto","#3366ff99"," "," ","1","+10","[1145]","1","0","1","","","","","","","",""
"pit-trial","27","362063","0.0-2.0-8.1-2.1","battery-v0.2","","""event"",""trial"",""time""
""focus"",""0"",""1""
""fullscreenenter"",""1"",""6898""
","
","""event"",""trial"",""time""
""focus"",""0"",""1""
","""event"",""trial"",""time""
""fullscreenenter"",""1"",""6898""
","
","","","630","","","10","12424","1175","&#9776;","elianto","#3366ff99"," "," ","1","+10","[1485]","1","0","1","","","","","","","",""
"pit-trial","28","365425","0.0-2.0-8.1-3.1","battery-v0.2","","""event"",""trial"",""time""
""focus"",""0"",""1""
""fullscreenenter"",""1"",""6898""
","
","""event"",""trial"",""time""
""focus"",""0"",""1""
","""event"",""trial"",""time""
""fullscreenenter"",""1"",""6898""
","
","","","461","","","10","12424","1175","&#9776;","elianto","#3366ff99"," "," ","1","0","[1314]","1","0","1","","","","","","","",""
"pit-trial","29","368379","0.0-2.0-8.1-4.1","battery-v0.2","","""event"",""trial"",""time""
""focus"",""0"",""1""
""fullscreenenter"",""1"",""6898""
","
","""event"",""trial"",""time""
""focus"",""0"",""1""
","""event"",""trial"",""time""
""fullscreenenter"",""1"",""6898""
","
","","","96","","","10","12424","1175","&#9776;","elianto","#3366ff99"," "," ","1","+10","[948]","1","0","1","","","","","","","",""
"pit-trial","30","371630","0.0-2.0-8.2-0.2","battery-v0.2","","""event"",""trial"",""time""
""focus"",""0"",""1""
""fullscreenenter"",""1"",""6898""
","
","""event"",""trial"",""time""
""focus"",""0"",""1""
","""event"",""trial"",""time""
""fullscreenenter"",""1"",""6898""
","
","","","392","","","10","12424","1175","&#9776;","elianto","#3366ff99"," "," ","1","+10","[1244]","1","0","1","","","","","","","",""
"pit-trial","31","374610","0.0-2.0-8.2-1.2","battery-v0.2","","""event"",""trial"",""time""
""focus"",""0"",""1""
""fullscreenenter"",""1"",""6898""
","
","""event"",""trial"",""time""
""focus"",""0"",""1""
","""event"",""trial"",""time""
""fullscreenenter"",""1"",""6898""
","
","","","121","","","10","12424","1175","&#9776;","elianto","#3366ff99"," "," ","1","+10","[972,2234,2866]","3","0","1","","","","","","","",""
"pit-trial","32","377922","0.0-2.0-8.2-2.2","battery-v0.2","","""event"",""trial"",""time""
""focus"",""0"",""1""
""fullscreenenter"",""1"",""6898""
","
","""event"",""trial"",""time""
""focus"",""0"",""1""
","""event"",""trial"",""time""
""fullscreenenter"",""1"",""6898""
","
","","","456","","","10","12424","1175","&#9776;","elianto","#3366ff99"," "," ","1","+10","[488,1310]","2","0","1","","","","","","","",""
"pit-trial","33","381045","0.0-2.0-8.2-3.2","battery-v0.2","","""event"",""trial"",""time""
""focus"",""0"",""1""
""fullscreenenter"",""1"",""6898""
","
","""event"",""trial"",""time""
""focus"",""0"",""1""
","""event"",""trial"",""time""
""fullscreenenter"",""1"",""6898""
","
","","","265","","","10","12424","1175","&#9776;","elianto","#3366ff99"," "," ","1","0","[1119]","1","0","1","","","","","","","",""
"pit-trial","34","384073","0.0-2.0-8.2-4.2","battery-v0.2","","""event"",""trial"",""time""
""focus"",""0"",""1""
""fullscreenenter"",""1"",""6898""
","
","""event"",""trial"",""time""
""focus"",""0"",""1""
","""event"",""trial"",""time""
""fullscreenenter"",""1"",""6898""
","
","","","174","","","10","12424","1175","&#9776;","elianto","#3366ff99"," "," ","1","+10","[1025]","1","0","1","","","","","","","",""
"call-function","35","384075","0.0-2.0-9.0","battery-v0.2","","""event"",""trial"",""time""
""focus"",""0"",""1""
""fullscreenenter"",""1"",""6898""
","
","""event"",""trial"",""time""
""focus"",""0"",""1""
","""event"",""trial"",""time""
""fullscreenenter"",""1"",""6898""
","
","","","","","","","","","","","","","","","","","","","","","","","","","","",""
"pit-instructions","36","424436","0.0-2.0-10.0","battery-v0.2","","""event"",""trial"",""time""
""focus"",""0"",""1""
""fullscreenenter"",""1"",""6898""
","
","""event"",""trial"",""time""
""focus"",""0"",""1""
","""event"",""trial"",""time""
""fullscreenenter"",""1"",""6898""
","
","","[{""page_index"":0,""viewing_time"":7217},{""page_index"":1,""viewing_time"":6496},{""page_index"":2,""viewing_time"":9944},{""page_index"":3,""viewing_time"":8512},{""page_index"":4,""viewing_time"":8192}]","40362","","","","","","","","","","","","","","","","","","","","","","","",""
"pit-trial","37","428313","0.0-2.0-11.0-0.0","battery-v0.2","","""event"",""trial"",""time""
""focus"",""0"",""1""
""fullscreenenter"",""1"",""6898""
","
","""event"",""trial"",""time""
""focus"",""0"",""1""
","""event"",""trial"",""time""
""fullscreenenter"",""1"",""6898""
","
","","","903","","","10","12424","1175","&#9761;","elianto","#3366ff99","-1"," ","0","0","[1754]","1","0","2","","","","","","","",""
"pit-trial","38","433196","0.0-2.0-11.0-1.0","battery-v0.2","","""event"",""trial"",""time""
""focus"",""0"",""1""
""fullscreenenter"",""1"",""6898""
","
","""event"",""trial"",""time""
""focus"",""0"",""1""
","""event"",""trial"",""time""
""fullscreenenter"",""1"",""6898""
","
","","","-1","","","10","12424","1175","&#9761;","elianto","#3366ff99","-1","-1","1","+10","[3799]","1","0","2","","","","","","","",""
"pit-trial","39","436597","0.0-2.0-11.0-2.0","battery-v0.2","","""event"",""trial"",""time""
""focus"",""0"",""1""
""fullscreenenter"",""1"",""6898""
","
","""event"",""trial"",""time""
""focus"",""0"",""1""
","""event"",""trial"",""time""
""fullscreenenter"",""1"",""6898""
","
","","","543","","","10","12424","1175","&#9761;","elianto","#3366ff99","-1"," ","0","0","[1396,3171]","2","0","2","","","","","","","",""
"pit-trial","40","439926","0.0-2.0-11.0-3.0","battery-v0.2","","""event"",""trial"",""time""
""focus"",""0"",""1""
""fullscreenenter"",""1"",""6898""
","
","""event"",""trial"",""time""
""focus"",""0"",""1""
","""event"",""trial"",""time""
""fullscreenenter"",""1"",""6898""
","
","","","468","","","10","12424","1175","&#9761;","elianto","#3366ff99","-1"," ","0","+10","[50,1320]","2","0","2","","","","","","","",""
"pit-trial","41","444778","0.0-2.0-11.0-4.0","battery-v0.2","","""event"",""trial"",""time""
""focus"",""0"",""1""
""fullscreenenter"",""1"",""6898""
","
","""event"",""trial"",""time""
""focus"",""0"",""1""
","""event"",""trial"",""time""
""fullscreenenter"",""1"",""6898""
","
","","","-1","","","10","12424","1175","&#9761;","elianto","#3366ff99","-1","-1","1","+10","[3424]","1","0","2","","","","","","","",""
"pit-trial","42","449640","0.0-2.0-11.1-0.1","battery-v0.2","","""event"",""trial"",""time""
""focus"",""0"",""1""
""fullscreenenter"",""1"",""6898""
","
","""event"",""trial"",""time""
""focus"",""0"",""1""
","""event"",""trial"",""time""
""fullscreenenter"",""1"",""6898""
","
","","","-1","","","10","12424","1175","&#9761;","elianto","#3366ff99","-1","-1","1","+10","[3284,3997]","2","0","2","","","","","","","",""
"pit-trial","43","453824","0.0-2.0-11.1-1.1","battery-v0.2","","""event"",""trial"",""time""
""focus"",""0"",""1""
""fullscreenenter"",""1"",""6898""
","
","""event"",""trial"",""time""
""focus"",""0"",""1""
","""event"",""trial"",""time""
""fullscreenenter"",""1"",""6898""
","
","","","1324","","","10","12424","1175","&#9761;","elianto","#3366ff99","-1"," ","0","0","[2176,2696,3086]","3","0","2","","","","","","","",""
"pit-trial","44","458029","0.0-2.0-11.1-2.1","battery-v0.2","","""event"",""trial"",""time""
""focus"",""0"",""1""
""fullscreenenter"",""1"",""6898""
","
","""event"",""trial"",""time""
""focus"",""0"",""1""
","""event"",""trial"",""time""
""fullscreenenter"",""1"",""6898""
","
","","","1343","","","10","12424","1175","&#9761;","elianto","#3366ff99","-1"," ","0","0","[2198,2709]","2","0","2","","","","","","","",""
"pit-trial","45","462890","0.0-2.0-11.1-3.1","battery-v0.2","","""event"",""trial"",""time""
""focus"",""0"",""1""
""fullscreenenter"",""1"",""6898""
","
","""event"",""trial"",""time""
""focus"",""0"",""1""
","""event"",""trial"",""time""
""fullscreenenter"",""1"",""6898""
","
","","","-1","","","10","12424","1175","&#9761;","elianto","#3366ff99","-1","-1","1","0","[3714,4264]","2","0","2","","","","","","","",""
"pit-trial","46","466353","0.0-2.0-11.1-4.1","battery-v0.2","","""event"",""trial"",""time""
""focus"",""0"",""1""
""fullscreenenter"",""1"",""6898""
","
","""event"",""trial"",""time""
""focus"",""0"",""1""
","""event"",""trial"",""time""
""fullscreenenter"",""1"",""6898""
","
","","","604","","","10","12424","1175","&#9761;","elianto","#3366ff99","-1"," ","0","0","[1459]","1","0","2","","","","","","","",""
"pit-trial","47","471211","0.0-2.0-11.2-0.2","battery-v0.2","","""event"",""trial"",""time""
""focus"",""0"",""1""
""fullscreenenter"",""1"",""6898""
","
","""event"",""trial"",""time""
""focus"",""0"",""1""
","""event"",""trial"",""time""
""fullscreenenter"",""1"",""6898""
","
","","","-1","","","10","12424","1175","&#9761;","elianto","#3366ff99","-1","-1","1","+10","[]","0","0","2","","","","","","","",""
"pit-trial","48","476358","0.0-2.0-11.2-1.2","battery-v0.2","","""event"",""trial"",""time""
""focus"",""0"",""1""
""fullscreenenter"",""1"",""6898""
","
","""event"",""trial"",""time""
""focus"",""0"",""1""
","""event"",""trial"",""time""
""fullscreenenter"",""1"",""6898""
","
","","","-1","","","10","12424","1175","&#9761;","elianto","#3366ff99","-1","-1","1","+10","[]","0","0","2","","","","","","","",""
"pit-trial","49","481220","0.0-2.0-11.2-2.2","battery-v0.2","","""event"",""trial"",""time""
""focus"",""0"",""1""
""fullscreenenter"",""1"",""6898""
","
","""event"",""trial"",""time""
""focus"",""0"",""1""
","""event"",""trial"",""time""
""fullscreenenter"",""1"",""6898""
","
","","","-1","","","10","12424","1175","&#9761;","elianto","#3366ff99","-1","-1","1","+10","[]","0","0","2","","","","","","","",""
"pit-trial","50","486083","0.0-2.0-11.2-3.2","battery-v0.2","","""event"",""trial"",""time""
""focus"",""0"",""1""
""fullscreenenter"",""1"",""6898""
","
","""event"",""trial"",""time""
""focus"",""0"",""1""
","""event"",""trial"",""time""
""fullscreenenter"",""1"",""6898""
","
","","","-1","","","10","12424","1175","&#9761;","elianto","#3366ff99","-1","-1","1","0","[3370]","1","0","2","","","","","","","",""
"pit-trial","51","490941","0.0-2.0-11.2-4.2","battery-v0.2","","""event"",""trial"",""time""
""focus"",""0"",""1""
""fullscreenenter"",""1"",""6898""
","
","""event"",""trial"",""time""
""focus"",""0"",""1""
","""event"",""trial"",""time""
""fullscreenenter"",""1"",""6898""
","
","","","-1","","","10","12424","1175","&#9761;","elianto","#3366ff99","-1","-1","1","+10","[]","0","0","2","","","","","","","",""
"pit-trial","52","495799","0.0-2.0-11.3-0.3","battery-v0.2","","""event"",""trial"",""time""
""focus"",""0"",""1""
""fullscreenenter"",""1"",""6898""
","
","""event"",""trial"",""time""
""focus"",""0"",""1""
","""event"",""trial"",""time""
""fullscreenenter"",""1"",""6898""
","
","","","-1","","","10","12424","1175","&#9761;","elianto","#3366ff99","-1","-1","1","+10","[]","0","0","2","","","","","","","",""
"pit-trial","53","500655","0.0-2.0-11.3-1.3","battery-v0.2","","""event"",""trial"",""time""
""focus"",""0"",""1""
""fullscreenenter"",""1"",""6898""
","
","""event"",""trial"",""time""
""focus"",""0"",""1""
","""event"",""trial"",""time""
""fullscreenenter"",""1"",""6898""
","
","","","-1","","","10","12424","1175","&#9761;","elianto","#3366ff99","-1","-1","1","+10","[]","0","0","2","","","","","","","",""
"pit-trial","54","505512","0.0-2.0-11.3-2.3","battery-v0.2","","""event"",""trial"",""time""
""focus"",""0"",""1""
""fullscreenenter"",""1"",""6898""
","
","""event"",""trial"",""time""
""focus"",""0"",""1""
","""event"",""trial"",""time""
""fullscreenenter"",""1"",""6898""
","
","","","-1","","","10","12424","1175","&#9761;","elianto","#3366ff99","-1","-1","1","+10","[]","0","0","2","","","","","","","",""
"pit-trial","55","510373","0.0-2.0-11.3-3.3","battery-v0.2","","""event"",""trial"",""time""
""focus"",""0"",""1""
""fullscreenenter"",""1"",""6898""
","
","""event"",""trial"",""time""
""focus"",""0"",""1""
","""event"",""trial"",""time""
""fullscreenenter"",""1"",""6898""
","
","","","-1","","","10","12424","1175","&#9761;","elianto","#3366ff99","-1","-1","1","0","[]","0","0","2","","","","","","","",""
"pit-trial","56","515235","0.0-2.0-11.3-4.3","battery-v0.2","","""event"",""trial"",""time""
""focus"",""0"",""1""
""fullscreenenter"",""1"",""6898""
","
","""event"",""trial"",""time""
""focus"",""0"",""1""
","""event"",""trial"",""time""
""fullscreenenter"",""1"",""6898""
","
","","","-1","","","10","12424","1175","&#9761;","elianto","#3366ff99","-1","-1","1","+10","[]","0","0","2","","","","","","","",""
"call-function","57","515236","0.0-2.0-12.0","battery-v0.2","","""event"",""trial"",""time""
""focus"",""0"",""1""
""fullscreenenter"",""1"",""6898""
","
","""event"",""trial"",""time""
""focus"",""0"",""1""
","""event"",""trial"",""time""
""fullscreenenter"",""1"",""6898""
","
","","","","","","","","","","","","","","","","","","","","","","","","","","",""
"pit-instructions","58","545888","0.0-2.0-13.0","battery-v0.2","","""event"",""trial"",""time""
""focus"",""0"",""1""
""fullscreenenter"",""1"",""6898""
","
","""event"",""trial"",""time""
""focus"",""0"",""1""
","""event"",""trial"",""time""
""fullscreenenter"",""1"",""6898""
","
","","[{""page_index"":0,""viewing_time"":5652},{""page_index"":1,""viewing_time"":6464},{""page_index"":2,""viewing_time"":3424},{""page_index"":3,""viewing_time"":10776},{""page_index"":4,""viewing_time"":4335}]","30651","","","","","","","","","","","","","","","","","","","","","","","",""
"pit-trial","59","550806","0.0-2.0-14.0-0.0","battery-v0.2","","""event"",""trial"",""time""
""focus"",""0"",""1""
""fullscreenenter"",""1"",""6898""
","
","""event"",""trial"",""time""
""focus"",""0"",""1""
","""event"",""trial"",""time""
""fullscreenenter"",""1"",""6898""
","
","","","-1","","","10","12424","1175","&#9826;","elianto","#f73b6a7A","-1","-1","1","0","[3467,4633]","2","0","3","","","","","","","",""
"pit-trial","60","553901","0.0-2.0-14.0-1.0","battery-v0.2","","""event"",""trial"",""time""
""focus"",""0"",""1""
""fullscreenenter"",""1"",""6898""
","
","""event"",""trial"",""time""
""focus"",""0"",""1""
","""event"",""trial"",""time""
""fullscreenenter"",""1"",""6898""
","
","","","239","","","10","12424","1175","&#9826;","elianto","#f73b6a7A","-1"," ","0","-10","[1093]","1","0","3","","","","","","","",""
"pit-trial","61","558757","0.0-2.0-14.0-2.0","battery-v0.2","","""event"",""trial"",""time""
""focus"",""0"",""1""
""fullscreenenter"",""1"",""6898""
","
","""event"",""trial"",""time""
""focus"",""0"",""1""
","""event"",""trial"",""time""
""fullscreenenter"",""1"",""6898""
","
","","","-1","","","10","12424","1175","&#9826;","elianto","#f73b6a7A","-1","-1","1","0","[]","0","0","3","","","","","","","",""
"pit-trial","62","563613","0.0-2.0-14.0-3.0","battery-v0.2","","""event"",""trial"",""time""
""focus"",""0"",""1""
""fullscreenenter"",""1"",""6898""
","
","""event"",""trial"",""time""
""focus"",""0"",""1""
","""event"",""trial"",""time""
""fullscreenenter"",""1"",""6898""
","
","","","-1","","","10","12424","1175","&#9826;","elianto","#f73b6a7A","-1","-1","1","-10","[]","0","0","3","","","","","","","",""
"pit-trial","63","568470","0.0-2.0-14.0-4.0","battery-v0.2","","""event"",""trial"",""time""
""focus"",""0"",""1""
""fullscreenenter"",""1"",""6898""
","
","""event"",""trial"",""time""
""focus"",""0"",""1""
","""event"",""trial"",""time""
""fullscreenenter"",""1"",""6898""
","
","","","-1","","","10","12424","1175","&#9826;","elianto","#f73b6a7A","-1","-1","1","0","[]","0","0","3","","","","","","","",""
"pit-trial","64","573330","0.0-2.0-14.1-0.1","battery-v0.2","","""event"",""trial"",""time""
""focus"",""0"",""1""
""fullscreenenter"",""1"",""6898""
","
","""event"",""trial"",""time""
""focus"",""0"",""1""
","""event"",""trial"",""time""
""fullscreenenter"",""1"",""6898""
","
","","","-1","","","10","12424","1175","&#9826;","elianto","#f73b6a7A","-1","-1","1","0","[]","0","0","3","","","","","","","",""
"pit-trial","65","578187","0.0-2.0-14.1-1.1","battery-v0.2","","""event"",""trial"",""time""
""focus"",""0"",""1""
""fullscreenenter"",""1"",""6898""
","
","""event"",""trial"",""time""
""focus"",""0"",""1""
","""event"",""trial"",""time""
""fullscreenenter"",""1"",""6898""
","
","","","-1","","","10","12424","1175","&#9826;","elianto","#f73b6a7A","-1","-1","1","0","[]","0","0","3","","","","","","","",""
"pit-trial","66","583049","0.0-2.0-14.1-2.1","battery-v0.2","","""event"",""trial"",""time""
""focus"",""0"",""1""
""fullscreenenter"",""1"",""6898""
","
","""event"",""trial"",""time""
""focus"",""0"",""1""
","""event"",""trial"",""time""
""fullscreenenter"",""1"",""6898""
","
","","","-1","","","10","12424","1175","&#9826;","elianto","#f73b6a7A","-1","-1","1","0","[]","0","0","3","","","","","","","",""
"pit-trial","67","587908","0.0-2.0-14.1-3.1","battery-v0.2","","""event"",""trial"",""time""
""focus"",""0"",""1""
""fullscreenenter"",""1"",""6898""
","
","""event"",""trial"",""time""
""focus"",""0"",""1""
","""event"",""trial"",""time""
""fullscreenenter"",""1"",""6898""
","
","","","-1","","","10","12424","1175","&#9826;","elianto","#f73b6a7A","-1","-1","1","-10","[]","0","0","3","","","","","","","",""
"pit-trial","68","592764","0.0-2.0-14.1-4.1","battery-v0.2","","""event"",""trial"",""time""
""focus"",""0"",""1""
""fullscreenenter"",""1"",""6898""
","
","""event"",""trial"",""time""
""focus"",""0"",""1""
","""event"",""trial"",""time""
""fullscreenenter"",""1"",""6898""
","
","","","-1","","","10","12424","1175","&#9826;","elianto","#f73b6a7A","-1","-1","1","0","[]","0","0","3","","","","","","","",""
"pit-trial","69","597622","0.0-2.0-14.2-0.2","battery-v0.2","","""event"",""trial"",""time""
""focus"",""0"",""1""
""fullscreenenter"",""1"",""6898""
","
","""event"",""trial"",""time""
""focus"",""0"",""1""
","""event"",""trial"",""time""
""fullscreenenter"",""1"",""6898""
","
","","","-1","","","10","12424","1175","&#9826;","elianto","#f73b6a7A","-1","-1","1","0","[]","0","0","3","","","","","","","",""
"pit-trial","70","602480","0.0-2.0-14.2-1.2","battery-v0.2","","""event"",""trial"",""time""
""focus"",""0"",""1""
""fullscreenenter"",""1"",""6898""
","
","""event"",""trial"",""time""
""focus"",""0"",""1""
","""event"",""trial"",""time""
""fullscreenenter"",""1"",""6898""
","
","","","-1","","","10","12424","1175","&#9826;","elianto","#f73b6a7A","-1","-1","1","0","[]","0","0","3","","","","","","","",""
"pit-trial","71","607339","0.0-2.0-14.2-2.2","battery-v0.2","","""event"",""trial"",""time""
""focus"",""0"",""1""
""fullscreenenter"",""1"",""6898""
","
","""event"",""trial"",""time""
""focus"",""0"",""1""
","""event"",""trial"",""time""
""fullscreenenter"",""1"",""6898""
","
","","","-1","","","10","12424","1175","&#9826;","elianto","#f73b6a7A","-1","-1","1","0","[]","0","0","3","","","","","","","",""
"pit-trial","72","612201","0.0-2.0-14.2-3.2","battery-v0.2","","""event"",""trial"",""time""
""focus"",""0"",""1""
""fullscreenenter"",""1"",""6898""
","
","""event"",""trial"",""time""
""focus"",""0"",""1""
","""event"",""trial"",""time""
""fullscreenenter"",""1"",""6898""
","
","","","-1","","","10","12424","1175","&#9826;","elianto","#f73b6a7A","-1","-1","1","-10","[]","0","0","3","","","","","","","",""
"pit-trial","73","617059","0.0-2.0-14.2-4.2","battery-v0.2","","""event"",""trial"",""time""
""focus"",""0"",""1""
""fullscreenenter"",""1"",""6898""
","
","""event"",""trial"",""time""
""focus"",""0"",""1""
","""event"",""trial"",""time""
""fullscreenenter"",""1"",""6898""
","
","","","-1","","","10","12424","1175","&#9826;","elianto","#f73b6a7A","-1","-1","1","0","[]","0","0","3","","","","","","","",""
"pit-trial","74","621915","0.0-2.0-14.3-0.3","battery-v0.2","","""event"",""trial"",""time""
""focus"",""0"",""1""
""fullscreenenter"",""1"",""6898""
","
","""event"",""trial"",""time""
""focus"",""0"",""1""
","""event"",""trial"",""time""
""fullscreenenter"",""1"",""6898""
","
","","","-1","","","10","12424","1175","&#9826;","elianto","#f73b6a7A","-1","-1","1","0","[]","0","0","3","","","","","","","",""
"pit-trial","75","626773","0.0-2.0-14.3-1.3","battery-v0.2","","""event"",""trial"",""time""
""focus"",""0"",""1""
""fullscreenenter"",""1"",""6898""
","
","""event"",""trial"",""time""
""focus"",""0"",""1""
","""event"",""trial"",""time""
""fullscreenenter"",""1"",""6898""
","
","","","-1","","","10","12424","1175","&#9826;","elianto","#f73b6a7A","-1","-1","1","0","[]","0","0","3","","","","","","","",""
"pit-trial","76","631635","0.0-2.0-14.3-2.3","battery-v0.2","","""event"",""trial"",""time""
""focus"",""0"",""1""
""fullscreenenter"",""1"",""6898""
","
","""event"",""trial"",""time""
""focus"",""0"",""1""
","""event"",""trial"",""time""
""fullscreenenter"",""1"",""6898""
","
","","","-1","","","10","12424","1175","&#9826;","elianto","#f73b6a7A","-1","-1","1","0","[]","0","0","3","","","","","","","",""
"pit-trial","77","636497","0.0-2.0-14.3-3.3","battery-v0.2","","""event"",""trial"",""time""
""focus"",""0"",""1""
""fullscreenenter"",""1"",""6898""
","
","""event"",""trial"",""time""
""focus"",""0"",""1""
","""event"",""trial"",""time""
""fullscreenenter"",""1"",""6898""
","
","","","-1","","","10","12424","1175","&#9826;","elianto","#f73b6a7A","-1","-1","1","-10","[]","0","0","3","","","","","","","",""
"pit-trial","78","641356","0.0-2.0-14.3-4.3","battery-v0.2","","""event"",""trial"",""time""
""focus"",""0"",""1""
""fullscreenenter"",""1"",""6898""
","
","""event"",""trial"",""time""
""focus"",""0"",""1""
","""event"",""trial"",""time""
""fullscreenenter"",""1"",""6898""
","
","","","-1","","","10","12424","1175","&#9826;","elianto","#f73b6a7A","-1","-1","1","0","[]","0","0","3","","","","","","","",""
"call-function","79","641357","0.0-2.0-15.0","battery-v0.2","","""event"",""trial"",""time""
""focus"",""0"",""1""
""fullscreenenter"",""1"",""6898""
","
","""event"",""trial"",""time""
""focus"",""0"",""1""
","""event"",""trial"",""time""
""fullscreenenter"",""1"",""6898""
","
","","","","","","","","","","","","","","","","","","","","","","","","","","",""
"pit-instructions","80","665437","0.0-2.0-16.0","battery-v0.2","","""event"",""trial"",""time""
""focus"",""0"",""1""
""fullscreenenter"",""1"",""6898""
","
","""event"",""trial"",""time""
""focus"",""0"",""1""
","""event"",""trial"",""time""
""fullscreenenter"",""1"",""6898""
","
","","[{""page_index"":0,""viewing_time"":6448},{""page_index"":1,""viewing_time"":8391},{""page_index"":2,""viewing_time"":4136},{""page_index"":3,""viewing_time"":5104}]","24080","","","","","","","","","","","","","","","","","","","","","","","",""
"pit-trial","81","670444","0.0-2.0-17.0-0.0","battery-v0.2","","""event"",""trial"",""time""
""focus"",""0"",""1""
""fullscreenenter"",""1"",""6898""
","
","""event"",""trial"",""time""
""focus"",""0"",""1""
","""event"",""trial"",""time""
""fullscreenenter"",""1"",""6898""
","
","","","-1","","","10","12424","1175","&#9789;","elianto","#f73b6a7A"," ","-1","0","-10","[4587]","1","0","4","","","","","","","",""
"pit-trial","82","674026","0.0-2.0-17.0-1.0","battery-v0.2","","""event"",""trial"",""time""
""focus"",""0"",""1""
""fullscreenenter"",""1"",""6898""
","
","""event"",""trial"",""time""
""focus"",""0"",""1""
","""event"",""trial"",""time""
""fullscreenenter"",""1"",""6898""
","
","","","727","","","10","12424","1175","&#9789;","elianto","#f73b6a7A"," "," ","1","0","[1579]","1","0","4","","","","","","","",""
"pit-trial","83","677089","0.0-2.0-17.0-2.0","battery-v0.2","","""event"",""trial"",""time""
""focus"",""0"",""1""
""fullscreenenter"",""1"",""6898""
","
","""event"",""trial"",""time""
""focus"",""0"",""1""
","""event"",""trial"",""time""
""fullscreenenter"",""1"",""6898""
","
","","","204","","","10","12424","1175","&#9789;","elianto","#f73b6a7A"," "," ","1","0","[1060]","1","0","4","","","","","","","",""
"pit-trial","84","680043","0.0-2.0-17.0-3.0","battery-v0.2","","""event"",""trial"",""time""
""focus"",""0"",""1""
""fullscreenenter"",""1"",""6898""
","
","""event"",""trial"",""time""
""focus"",""0"",""1""
","""event"",""trial"",""time""
""fullscreenenter"",""1"",""6898""
","
","","","96","","","10","12424","1175","&#9789;","elianto","#f73b6a7A"," "," ","1","-10","[948]","1","0","4","","","","","","","",""
"pit-trial","85","683102","0.0-2.0-17.0-4.0","battery-v0.2","","""event"",""trial"",""time""
""focus"",""0"",""1""
""fullscreenenter"",""1"",""6898""
","
","""event"",""trial"",""time""
""focus"",""0"",""1""
","""event"",""trial"",""time""
""fullscreenenter"",""1"",""6898""
","
","","","200","","","10","12424","1175","&#9789;","elianto","#f73b6a7A"," "," ","1","0","[1053]","1","0","4","","","","","","","",""
"pit-trial","86","686304","0.0-2.0-17.1-0.1","battery-v0.2","","""event"",""trial"",""time""
""focus"",""0"",""1""
""fullscreenenter"",""1"",""6898""
","
","""event"",""trial"",""time""
""focus"",""0"",""1""
","""event"",""trial"",""time""
""fullscreenenter"",""1"",""6898""
","
","","","164","","","10","12424","1175","&#9789;","elianto","#f73b6a7A"," "," ","1","0","[1015]","1","0","4","","","","","","","",""
"pit-trial","87","691312","0.0-2.0-17.1-1.1","battery-v0.2","","""event"",""trial"",""time""
""focus"",""0"",""1""
""fullscreenenter"",""1"",""6898""
","
","""event"",""trial"",""time""
""focus"",""0"",""1""
","""event"",""trial"",""time""
""fullscreenenter"",""1"",""6898""
","
","","","-1","","","10","12424","1175","&#9789;","elianto","#f73b6a7A"," ","-1","0","-10","[3927]","1","0","4","","","","","","","",""
"pit-trial","88","694320","0.0-2.0-17.1-2.1","battery-v0.2","","""event"",""trial"",""time""
""focus"",""0"",""1""
""fullscreenenter"",""1"",""6898""
","
","""event"",""trial"",""time""
""focus"",""0"",""1""
","""event"",""trial"",""time""
""fullscreenenter"",""1"",""6898""
","
","","","154","","","10","12424","1175","&#9789;","elianto","#f73b6a7A"," "," ","1","0","[1005]","1","0","4","","","","","","","",""
"pit-trial","89","697353","0.0-2.0-17.1-3.1","battery-v0.2","","""event"",""trial"",""time""
""focus"",""0"",""1""
""fullscreenenter"",""1"",""6898""
","
","""event"",""trial"",""time""
""focus"",""0"",""1""
","""event"",""trial"",""time""
""fullscreenenter"",""1"",""6898""
","
","","","174","","","10","12424","1175","&#9789;","elianto","#f73b6a7A"," "," ","1","-10","[1030]","1","0","4","","","","","","","",""
"pit-trial","90","701331","0.0-2.0-17.1-4.1","battery-v0.2","","""event"",""trial"",""time""
""focus"",""0"",""1""
""fullscreenenter"",""1"",""6898""
","
","""event"",""trial"",""time""
""focus"",""0"",""1""
","""event"",""trial"",""time""
""fullscreenenter"",""1"",""6898""
","
","","","981","","","10","12424","1175","&#9789;","elianto","#f73b6a7A"," "," ","1","0","[1836]","1","0","4","","","","","","","",""
"pit-trial","91","704484","0.0-2.0-17.2-0.2","battery-v0.2","","""event"",""trial"",""time""
""focus"",""0"",""1""
""fullscreenenter"",""1"",""6898""
","
","""event"",""trial"",""time""
""focus"",""0"",""1""
","""event"",""trial"",""time""
""fullscreenenter"",""1"",""6898""
","
","","","293","","","10","12424","1175","&#9789;","elianto","#f73b6a7A"," "," ","1","0","[1146,1650]","2","0","4","","","","","","","",""
"pit-trial","92","709344","0.0-2.0-17.2-1.2","battery-v0.2","","""event"",""trial"",""time""
""focus"",""0"",""1""
""fullscreenenter"",""1"",""6898""
","
","""event"",""trial"",""time""
""focus"",""0"",""1""
","""event"",""trial"",""time""
""fullscreenenter"",""1"",""6898""
","
","","","-1","","","10","12424","1175","&#9789;","elianto","#f73b6a7A"," ","-1","0","-10","[4010]","1","0","4","","","","","","","",""
"pit-trial","93","712752","0.0-2.0-17.2-2.2","battery-v0.2","","""event"",""trial"",""time""
""focus"",""0"",""1""
""fullscreenenter"",""1"",""6898""
","
","""event"",""trial"",""time""
""focus"",""0"",""1""
","""event"",""trial"",""time""
""fullscreenenter"",""1"",""6898""
","
","","","551","","","10","12424","1175","&#9789;","elianto","#f73b6a7A"," "," ","1","0","[1406,2293,2541,2742,3006,3238]","6","0","4","","","","","","","",""
"pit-trial","94","715701","0.0-2.0-17.2-3.2","battery-v0.2","","""event"",""trial"",""time""
""focus"",""0"",""1""
""fullscreenenter"",""1"",""6898""
","
","""event"",""trial"",""time""
""focus"",""0"",""1""
","""event"",""trial"",""time""
""fullscreenenter"",""1"",""6898""
","
","","","96","","","10","12424","1175","&#9789;","elianto","#f73b6a7A"," "," ","1","-10","[215,480,716,947,1188,1429,1685,1908,2132,2364,2588,2844]","12","0","4","","","","","","","",""
"pit-trial","95","719046","0.0-2.0-17.2-4.2","battery-v0.2","","""event"",""trial"",""time""
""focus"",""0"",""1""
""fullscreenenter"",""1"",""6898""
","
","""event"",""trial"",""time""
""focus"",""0"",""1""
","""event"",""trial"",""time""
""fullscreenenter"",""1"",""6898""
","
","","","473","","","10","12424","1175","&#9789;","elianto","#f73b6a7A"," "," ","1","0","[1343]","1","0","4","","","","","","","",""
"pit-trial","96","722797","0.0-2.0-17.3-0.3","battery-v0.2","","""event"",""trial"",""time""
""focus"",""0"",""1""
""fullscreenenter"",""1"",""6898""
","
","""event"",""trial"",""time""
""focus"",""0"",""1""
","""event"",""trial"",""time""
""fullscreenenter"",""1"",""6898""
","
","","","890","","","10","12424","1175","&#9789;","elianto","#f73b6a7A"," "," ","1","0","[1741]","1","0","4","","","","","","","",""
"pit-trial","97","727707","0.0-2.0-17.3-1.3","battery-v0.2","","""event"",""trial"",""time""
""focus"",""0"",""1""
""fullscreenenter"",""1"",""6898""
","
","""event"",""trial"",""time""
""focus"",""0"",""1""
","""event"",""trial"",""time""
""fullscreenenter"",""1"",""6898""
","
","","","-1","","","10","12424","1175","&#9789;","elianto","#f73b6a7A"," ","-1","0","-10","[3553]","1","0","4","","","","","","","",""
"pit-trial","98","731624","0.0-2.0-17.3-2.3","battery-v0.2","","""event"",""trial"",""time""
""focus"",""0"",""1""
""fullscreenenter"",""1"",""6898""
","
","""event"",""trial"",""time""
""focus"",""0"",""1""
","""event"",""trial"",""time""
""fullscreenenter"",""1"",""6898""
","
","","","1060","","","10","12424","1175","&#9789;","elianto","#f73b6a7A"," "," ","1","0","[478,1913,2481,3057,3313]","5","0","4","","","","","","","",""
"pit-trial","99","735179","0.0-2.0-17.3-3.3","battery-v0.2","","""event"",""trial"",""time""
""focus"",""0"",""1""
""fullscreenenter"",""1"",""6898""
","
","""event"",""trial"",""time""
""focus"",""0"",""1""
","""event"",""trial"",""time""
""fullscreenenter"",""1"",""6898""
","
","","","696","","","10","12424","1175","&#9789;","elianto","#f73b6a7A"," "," ","1","-10","[1549]","1","0","4","","","","","","","",""
"pit-trial","100","738619","0.0-2.0-17.3-4.3","battery-v0.2","","""event"",""trial"",""time""
""focus"",""0"",""1""
""fullscreenenter"",""1"",""6898""
","
","""event"",""trial"",""time""
""focus"",""0"",""1""
","""event"",""trial"",""time""
""fullscreenenter"",""1"",""6898""
","
","","","581","","","10","12424","1175","&#9789;","elianto","#f73b6a7A"," "," ","1","0","[250,1432]","2","0","4","","","","","","","",""
"call-function","101","738620","0.0-2.0-18.0","battery-v0.2","","""event"",""trial"",""time""
""focus"",""0"",""1""
""fullscreenenter"",""1"",""6898""
","
","""event"",""trial"",""time""
""focus"",""0"",""1""
","""event"",""trial"",""time""
""fullscreenenter"",""1"",""6898""
","
","","","","","","","","","","","","","","","","","","","","","","","","","","",""
"pit-instructions","102","812144","0.0-2.0-19.0","battery-v0.2","","""event"",""trial"",""time""
""focus"",""0"",""1""
""fullscreenenter"",""1"",""6898""
","
","""event"",""trial"",""time""
""focus"",""0"",""1""
","""event"",""trial"",""time""
""fullscreenenter"",""1"",""6898""
","
","","[{""page_index"":0,""viewing_time"":8468},{""page_index"":1,""viewing_time"":6240},{""page_index"":2,""viewing_time"":9552},{""page_index"":3,""viewing_time"":8176},{""page_index"":4,""viewing_time"":9577},{""page_index"":5,""viewing_time"":8240},{""page_index"":6,""viewing_time"":9376},{""page_index"":7,""viewing_time"":7815},{""page_index"":8,""viewing_time"":6080}]","73525","","","","","","","","","","","","","","","","","","","","","","","",""
"pit-comprehension","103","817449","0.0-2.0-20.0-0.0","battery-v0.2","","""event"",""trial"",""time""
""focus"",""0"",""1""
""fullscreenenter"",""1"",""6898""
","
","""event"",""trial"",""time""
""focus"",""0"",""1""
","""event"",""trial"",""time""
""fullscreenenter"",""1"",""6898""
","
","","","5301","[""SPACE""]","0","10","12424","1175","","","","","","","","","","","","","","","","","","",""
"pit-instructions","104","819992","0.0-2.0-20.0-1.0","battery-v0.2","","""event"",""trial"",""time""
""focus"",""0"",""1""
""fullscreenenter"",""1"",""6898""
","
","""event"",""trial"",""time""
""focus"",""0"",""1""
","""event"",""trial"",""time""
""fullscreenenter"",""1"",""6898""
","
","","[{""page_index"":0,""viewing_time"":2502}]","2503","","","","","","","","","","","","","","","","","","","","","","","",""
"pit-comprehension","105","826713","0.0-2.0-21.0-0.0","battery-v0.2","","""event"",""trial"",""time""
""focus"",""0"",""1""
""fullscreenenter"",""1"",""6898""
","
","""event"",""trial"",""time""
""focus"",""0"",""1""
","""event"",""trial"",""time""
""fullscreenenter"",""1"",""6898""
","
","","","6718","[""10""]","0","10","12424","1175","","","","","","","","","","","","","","","","","","",""
"pit-instructions","106","828567","0.0-2.0-21.0-1.0","battery-v0.2","","""event"",""trial"",""time""
""focus"",""0"",""1""
""fullscreenenter"",""1"",""6898""
","
","""event"",""trial"",""time""
""focus"",""0"",""1""
","""event"",""trial"",""time""
""fullscreenenter"",""1"",""6898""
","
","","[{""page_index"":0,""viewing_time"":1815}]","1815","","","","","","","","","","","","","","","","","","","","","","","",""
"pit-comprehension","107","839233","0.0-2.0-22.0-0.0","battery-v0.2","","""event"",""trial"",""time""
""focus"",""0"",""1""
""fullscreenenter"",""1"",""6898""
","
","""event"",""trial"",""time""
""focus"",""0"",""1""
","""event"",""trial"",""time""
""fullscreenenter"",""1"",""6898""
","
","","","10662","[""0""]","0","10","12424","1175","","","","","","","","","","","","","","","","","","",""
"pit-instructions","108","840935","0.0-2.0-22.0-1.0","battery-v0.2","","""event"",""trial"",""time""
""focus"",""0"",""1""
""fullscreenenter"",""1"",""6898""
","
","""event"",""trial"",""time""
""focus"",""0"",""1""
","""event"",""trial"",""time""
""fullscreenenter"",""1"",""6898""
","
","","[{""page_index"":0,""viewing_time"":1663}]","1663","","","","","","","","","","","","","","","","","","","","","","","",""
"pit-comprehension","109","853800","0.0-2.0-23.0-0.0","battery-v0.2","","""event"",""trial"",""time""
""focus"",""0"",""1""
""fullscreenenter"",""1"",""6898""
","
","""event"",""trial"",""time""
""focus"",""0"",""1""
","""event"",""trial"",""time""
""fullscreenenter"",""1"",""6898""
","
","","","12860","[""True""]","0","10","12424","1175","","","","","","","","","","","","","","","","","","",""
"pit-instructions","110","855478","0.0-2.0-23.0-1.0","battery-v0.2","","""event"",""trial"",""time""
""focus"",""0"",""1""
""fullscreenenter"",""1"",""6898""
","
","""event"",""trial"",""time""
""focus"",""0"",""1""
","""event"",""trial"",""time""
""fullscreenenter"",""1"",""6898""
","
","","[{""page_index"":0,""viewing_time"":1643}]","1644","","","","","","","","","","","","","","","","","","","","","","","",""
"pit-comprehension","111","862952","0.0-2.0-24.0-0.0","battery-v0.2","","""event"",""trial"",""time""
""focus"",""0"",""1""
""fullscreenenter"",""1"",""6898""
","
","""event"",""trial"",""time""
""focus"",""0"",""1""
","""event"",""trial"",""time""
""fullscreenenter"",""1"",""6898""
","
","","","7470","[""True""]","0","10","12424","1175","","","","","","","","","","","","","","","","","","",""
"pit-instructions","112","864294","0.0-2.0-24.0-1.0","battery-v0.2","","""event"",""trial"",""time""
""focus"",""0"",""1""
""fullscreenenter"",""1"",""6898""
","
","""event"",""trial"",""time""
""focus"",""0"",""1""
","""event"",""trial"",""time""
""fullscreenenter"",""1"",""6898""
","
","","[{""page_index"":0,""viewing_time"":1305}]","1305","","","","","","","","","","","","","","","","","","","","","","","",""
"pit-comprehension","113","870375","0.0-2.0-25.0-0.0","battery-v0.2","","""event"",""trial"",""time""
""focus"",""0"",""1""
""fullscreenenter"",""1"",""6898""
","
","""event"",""trial"",""time""
""focus"",""0"",""1""
","""event"",""trial"",""time""
""fullscreenenter"",""1"",""6898""
","
","","","6078","[""True""]","0","10","12424","1175","","","","","","","","","","","","","","","","","","",""
"pit-instructions","114","871526","0.0-2.0-25.0-1.0","battery-v0.2","","""event"",""trial"",""time""
""focus"",""0"",""1""
""fullscreenenter"",""1"",""6898""
","
","""event"",""trial"",""time""
""focus"",""0"",""1""
","""event"",""trial"",""time""
""fullscreenenter"",""1"",""6898""
","
","","[{""page_index"":0,""viewing_time"":1146}]","1147","","","","","","","","","","","","","","","","","","","","","","","",""
"pit-comprehension","115","877727","0.0-2.0-26.0-0.0","battery-v0.2","","""event"",""trial"",""time""
""focus"",""0"",""1""
""fullscreenenter"",""1"",""6898""
","
","""event"",""trial"",""time""
""focus"",""0"",""1""
","""event"",""trial"",""time""
""fullscreenenter"",""1"",""6898""
","
","","","6196","[""False""]","0","10","12424","1175","","","","","","","","","","","","","","","","","","",""
"pit-instructions","116","878942","0.0-2.0-26.0-1.0","battery-v0.2","","""event"",""trial"",""time""
""focus"",""0"",""1""
""fullscreenenter"",""1"",""6898""
","
","""event"",""trial"",""time""
""focus"",""0"",""1""
","""event"",""trial"",""time""
""fullscreenenter"",""1"",""6898""
","
","","[{""page_index"":0,""viewing_time"":1177}]","1177","","","","","","","","","","","","","","","","","","","","","","","",""
"pit-instructions","117","898108","0.0-3.0","battery-v0.2","","""event"",""trial"",""time""
""focus"",""0"",""1""
""fullscreenenter"",""1"",""6898""
","
","""event"",""trial"",""time""
""focus"",""0"",""1""
","""event"",""trial"",""time""
""fullscreenenter"",""1"",""6898""
","
","","[{""page_index"":0,""viewing_time"":5550},{""page_index"":1,""viewing_time"":6023},{""page_index"":2,""viewing_time"":7592}]","19166","","","","","","","","","","","","","","","","","","","","","","","",""
"pit-trial","118","901991","0.0-4.0","battery-v0.2","","""event"",""trial"",""time""
""focus"",""0"",""1""
""fullscreenenter"",""1"",""6898""
","
","""event"",""trial"",""time""
""focus"",""0"",""1""
","""event"",""trial"",""time""
""fullscreenenter"",""1"",""6898""
","
","","","1019","","","10","12424","1175","&#9730;","elianto","#3366ff99"," "," ","1","+10","[1872]","1","1","","","12424","1","1","1","win","go","0"
"pit-trial","119","905832","0.0-5.0","battery-v0.2","","""event"",""trial"",""time""
""focus"",""0"",""1""
""fullscreenenter"",""1"",""6898""
","
","""event"",""trial"",""time""
""focus"",""0"",""1""
","""event"",""trial"",""time""
""fullscreenenter"",""1"",""6898""
","
","","","980","","","10","12424","1175","&#9733;","elianto","#3366ff99","-1"," ","0","0","[1833]","1","1","","","12424","2","2","2","win","no-go","0"
"pit-trial","120","910776","0.0-6.0","battery-v0.2","","""event"",""trial"",""time""
""focus"",""0"",""1""
""fullscreenenter"",""1"",""6898""
","
","""event"",""trial"",""time""
""focus"",""0"",""1""
","""event"",""trial"",""time""
""fullscreenenter"",""1"",""6898""
","
","","","-1","","","10","12424","1175","&#9728;","elianto","#f73b6a7A","-1","-1","1","0","[3759]","1","1","","","12424","3","0","4","lose","no-go","0"
"pit-trial","121","914401","0.0-7.0","battery-v0.2","","""event"",""trial"",""time""
""focus"",""0"",""1""
""fullscreenenter"",""1"",""6898""
","
","""event"",""trial"",""time""
""focus"",""0"",""1""
","""event"",""trial"",""time""
""fullscreenenter"",""1"",""6898""
","
","","","770","","","10","12424","1175","&#9752;","elianto","#f73b6a7A"," "," ","1","-10","[1621]","1","1","","","12424","4","3","3","lose","go","1"
"pit-trial","122","919263","0.0-8.0","battery-v0.2","","""event"",""trial"",""time""
""focus"",""0"",""1""
""fullscreenenter"",""1"",""6898""
","
","""event"",""trial"",""time""
""focus"",""0"",""1""
","""event"",""trial"",""time""
""fullscreenenter"",""1"",""6898""
","
","","","-1","","","10","12424","1175","&#9733;","elianto","#3366ff99","-1","-1","1","+10","[]","0","1","","","12424","5","2","2","win","no-go","0"
"pit-trial","123","924125","0.0-9.0","battery-v0.2","","""event"",""trial"",""time""
""focus"",""0"",""1""
""fullscreenenter"",""1"",""6898""
","
","""event"",""trial"",""time""
""focus"",""0"",""1""
","""event"",""trial"",""time""
""fullscreenenter"",""1"",""6898""
","
","","","-1","","","10","12424","1175","&#9752;","elianto","#f73b6a7A"," ","-1","0","0","[]","0","1","","","12424","6","3","3","lose","go","1"
"pit-trial","124","927822","0.0-10.0","battery-v0.2","","""event"",""trial"",""time""
""focus"",""0"",""1""
""fullscreenenter"",""1"",""6898""
","
","""event"",""trial"",""time""
""focus"",""0"",""1""
","""event"",""trial"",""time""
""fullscreenenter"",""1"",""6898""
","
","","","839","","","10","12424","1175","&#9730;","elianto","#3366ff99"," "," ","1","+10","[1690]","1","1","","","12424","7","1","1","win","go","0"
"pit-trial","125","932681","0.0-11.0","battery-v0.2","","""event"",""trial"",""time""
""focus"",""0"",""1""
""fullscreenenter"",""1"",""6898""
","
","""event"",""trial"",""time""
""focus"",""0"",""1""
","""event"",""trial"",""time""
""fullscreenenter"",""1"",""6898""
","
","","","-1","","","10","12424","1175","&#9728;","elianto","#f73b6a7A","-1","-1","1","0","[]","0","1","","","12424","8","0","4","lose","no-go","0"
"pit-trial","126","937540","0.0-12.0","battery-v0.2","","""event"",""trial"",""time""
""focus"",""0"",""1""
""fullscreenenter"",""1"",""6898""
","
","""event"",""trial"",""time""
""focus"",""0"",""1""
","""event"",""trial"",""time""
""fullscreenenter"",""1"",""6898""
","
","","","-1","","","10","12424","1175","&#9752;","elianto","#f73b6a7A"," ","-1","0","0","[]","0","1","","","12424","9","3","3","lose","go","1"
"pit-trial","127","942398","0.0-13.0","battery-v0.2","","""event"",""trial"",""time""
""focus"",""0"",""1""
""fullscreenenter"",""1"",""6898""
","
","""event"",""trial"",""time""
""focus"",""0"",""1""
","""event"",""trial"",""time""
""fullscreenenter"",""1"",""6898""
","
","","","-1","","","10","12424","1175","&#9728;","elianto","#f73b6a7A","-1","-1","1","0","[]","0","1","","","12424","10","0","4","lose","no-go","0"
"pit-trial","128","947257","0.0-14.0","battery-v0.2","","""event"",""trial"",""time""
""focus"",""0"",""1""
""fullscreenenter"",""1"",""6898""
","
","""event"",""trial"",""time""
""focus"",""0"",""1""
","""event"",""trial"",""time""
""fullscreenenter"",""1"",""6898""
","
","","","-1","","","10","12424","1175","&#9733;","elianto","#3366ff99","-1","-1","1","+10","[]","0","1","","","12424","11","2","2","win","no-go","0"
"pit-trial","129","950928","0.0-15.0","battery-v0.2","","""event"",""trial"",""time""
""focus"",""0"",""1""
""fullscreenenter"",""1"",""6898""
","
","""event"",""trial"",""time""
""focus"",""0"",""1""
","""event"",""trial"",""time""
""fullscreenenter"",""1"",""6898""
","
","","","818","","","10","12424","1175","&#9730;","elianto","#3366ff99"," "," ","1","+10","[1670]","1","1","","","12424","12","1","1","win","go","0"
"pit-trial","130","955938","0.0-16.0","battery-v0.2","","""event"",""trial"",""time""
""focus"",""0"",""1""
""fullscreenenter"",""1"",""6898""
","
","""event"",""trial"",""time""
""focus"",""0"",""1""
","""event"",""trial"",""time""
""fullscreenenter"",""1"",""6898""
","
","","","-1","","","10","12424","1175","&#9752;","elianto","#f73b6a7A"," ","-1","0","-10","[]","0","1","","","12424","13","3","3","lose","go","0"
"pit-trial","131","960979","0.0-17.0","battery-v0.2","","""event"",""trial"",""time""
""focus"",""0"",""1""
""fullscreenenter"",""1"",""6898""
","
","""event"",""trial"",""time""
""focus"",""0"",""1""
","""event"",""trial"",""time""
""fullscreenenter"",""1"",""6898""
","
","","","-1","","","10","12424","1175","&#9728;","elianto","#f73b6a7A","-1","-1","1","0","[]","0","1","","","12424","14","0","4","lose","no-go","0"
"pit-trial","132","964589","0.0-18.0","battery-v0.2","","""event"",""trial"",""time""
""focus"",""0"",""1""
""fullscreenenter"",""1"",""6898""
","
","""event"",""trial"",""time""
""focus"",""0"",""1""
","""event"",""trial"",""time""
""fullscreenenter"",""1"",""6898""
","
","","","747","","","10","12424","1175","&#9730;","elianto","#3366ff99"," "," ","1","+10","[1602]","1","1","","","12424","15","1","1","win","go","0"
"pit-trial","133","969591","0.0-19.0","battery-v0.2","","""event"",""trial"",""time""
""focus"",""0"",""1""
""fullscreenenter"",""1"",""6898""
","
","""event"",""trial"",""time""
""focus"",""0"",""1""
","""event"",""trial"",""time""
""fullscreenenter"",""1"",""6898""
","
","","","-1","","","10","12424","1175","&#9733;","elianto","#3366ff99","-1","-1","1","+10","[]","0","1","","","12424","16","2","2","win","no-go","0"
"pit-trial","134","974591","0.0-20.0","battery-v0.2","","""event"",""trial"",""time""
""focus"",""0"",""1""
""fullscreenenter"",""1"",""6898""
","
","""event"",""trial"",""time""
""focus"",""0"",""1""
","""event"",""trial"",""time""
""fullscreenenter"",""1"",""6898""
","
","","","-1","","","10","12424","1175","&#9752;","elianto","#f73b6a7A"," ","-1","0","-10","[3644,3899,4275,4475]","4","1","","","12424","17","3","3","lose","go","0"
"pit-trial","135","978272","0.0-21.0","battery-v0.2","","""event"",""trial"",""time""
""focus"",""0"",""1""
""fullscreenenter"",""1"",""6898""
","
","""event"",""trial"",""time""
""focus"",""0"",""1""
","""event"",""trial"",""time""
""fullscreenenter"",""1"",""6898""
","
","","","823","","","10","12424","1175","&#9730;","elianto","#3366ff99"," "," ","1","+10","[1677]","1","1","","","12424","18","1","1","win","go","0"
"pit-trial","136","983273","0.0-22.0","battery-v0.2","","""event"",""trial"",""time""
""focus"",""0"",""1""
""fullscreenenter"",""1"",""6898""
","
","""event"",""trial"",""time""
""focus"",""0"",""1""
","""event"",""trial"",""time""
""fullscreenenter"",""1"",""6898""
","
","","","-1","","","10","12424","1175","&#9728;","elianto","#f73b6a7A","-1","-1","1","0","[]","0","1","","","12424","19","0","4","lose","no-go","0"
"pit-trial","137","988127","0.0-23.0","battery-v0.2","","""event"",""trial"",""time""
""focus"",""0"",""1""
""fullscreenenter"",""1"",""6898""
","
","""event"",""trial"",""time""
""focus"",""0"",""1""
","""event"",""trial"",""time""
""fullscreenenter"",""1"",""6898""
","
","","","-1","","","10","12424","1175","&#9733;","elianto","#3366ff99","-1","-1","1","+10","[]","0","1","","","12424","20","2","2","win","no-go","0"
"pit-instructions","138","1000441","0.0-24.0","battery-v0.2","","""event"",""trial"",""time""
""focus"",""0"",""1""
""fullscreenenter"",""1"",""6898""
","
","""event"",""trial"",""time""
""focus"",""0"",""1""
","""event"",""trial"",""time""
""fullscreenenter"",""1"",""6898""
","
","","[{""page_index"":0,""viewing_time"":5889},{""page_index"":1,""viewing_time"":6424}]","12313","","","","","","","","","","","","","","","","","","","","","","","",""
"pit-trial","139","1004481","0.0-25.0","battery-v0.2","","""event"",""trial"",""time""
""focus"",""0"",""1""
""fullscreenenter"",""1"",""6898""
","
","""event"",""trial"",""time""
""focus"",""0"",""1""
","""event"",""trial"",""time""
""fullscreenenter"",""1"",""6898""
","
","","","1181","","","10","12424","1175","d","elianto","#3366ff99"," "," ","1","0","[2034]","1","2","","","12424","21","1","1","win","go","1"
"pit-trial","140","1009342","0.0-26.0","battery-v0.2","","""event"",""trial"",""time""
""focus"",""0"",""1""
""fullscreenenter"",""1"",""6898""
","
","""event"",""trial"",""time""
""focus"",""0"",""1""
","""event"",""trial"",""time""
""fullscreenenter"",""1"",""6898""
","
","","","-1","","","10","12424","1175","w","elianto","#f73b6a7A"," ","-1","0","-10","[3523]","1","2","","","12424","22","3","3","lose","go","0"
"pit-trial","141","1012863","0.0-27.0","battery-v0.2","","""event"",""trial"",""time""
""focus"",""0"",""1""
""fullscreenenter"",""1"",""6898""
","
","""event"",""trial"",""time""
""focus"",""0"",""1""
","""event"",""trial"",""time""
""fullscreenenter"",""1"",""6898""
","
","","","664","","","10","12424","1175","e","elianto","#f73b6a7A","-1"," ","0","-10","[96,1517,2205]","3","2","","","12424","23","2","4","lose","no-go","0"
"pit-trial","142","1017570","0.0-28.0","battery-v0.2","","""event"",""trial"",""time""
""focus"",""0"",""1""
""fullscreenenter"",""1"",""6898""
","
","""event"",""trial"",""time""
""focus"",""0"",""1""
","""event"",""trial"",""time""
""fullscreenenter"",""1"",""6898""
","
","","","1849","","","10","12424","1175","j","elianto","#f73b6a7A","-1"," ","0","0","[2700]","1","2","","","12424","24","0","4","lose","no-go","1"
"pit-trial","143","1021667","0.0-29.0","battery-v0.2","","""event"",""trial"",""time""
""focus"",""0"",""1""
""fullscreenenter"",""1"",""6898""
","
","""event"",""trial"",""time""
""focus"",""0"",""1""
","""event"",""trial"",""time""
""fullscreenenter"",""1"",""6898""
","
","","","993","","","10","12424","1175","d","elianto","#3366ff99"," "," ","1","+10","[1844]","1","2","","","12424","25","1","1","win","go","0"
"pit-trial","144","1026521","0.0-30.0","battery-v0.2","","""event"",""trial"",""time""
""focus"",""0"",""1""
""fullscreenenter"",""1"",""6898""
","
","""event"",""trial"",""time""
""focus"",""0"",""1""
","""event"",""trial"",""time""
""fullscreenenter"",""1"",""6898""
","
","","","-1","","","10","12424","1175","e","elianto","#f73b6a7A","-1","-1","1","0","[]","0","2","","","12424","26","2","4","lose","no-go","0"
"pit-trial","145","1031430","0.0-31.0","battery-v0.2","","""event"",""trial"",""time""
""focus"",""0"",""1""
""fullscreenenter"",""1"",""6898""
","
","""event"",""trial"",""time""
""focus"",""0"",""1""
","""event"",""trial"",""time""
""fullscreenenter"",""1"",""6898""
","
","","","-1","","","10","12424","1175","w","elianto","#f73b6a7A"," ","-1","0","0","[]","0","2","","","12424","27","3","3","lose","go","1"
"pit-trial","146","1035073","0.0-32.0","battery-v0.2","","""event"",""trial"",""time""
""focus"",""0"",""1""
""fullscreenenter"",""1"",""6898""
","
","""event"",""trial"",""time""
""focus"",""0"",""1""
","""event"",""trial"",""time""
""fullscreenenter"",""1"",""6898""
","
","","","785","","","10","12424","1175","j","elianto","#f73b6a7A","-1"," ","0","-10","[1640,2285]","2","2","","","12424","28","0","4","lose","no-go","0"
"pit-trial","147","1040077","0.0-33.0","battery-v0.2","","""event"",""trial"",""time""
""focus"",""0"",""1""
""fullscreenenter"",""1"",""6898""
","
","""event"",""trial"",""time""
""focus"",""0"",""1""
","""event"",""trial"",""time""
""fullscreenenter"",""1"",""6898""
","
","","","-1","","","10","12424","1175","j","elianto","#f73b6a7A","-1","-1","1","0","[]","0","2","","","12424","29","0","4","lose","no-go","0"
"pit-trial","148","1043597","0.0-34.0","battery-v0.2","","""event"",""trial"",""time""
""focus"",""0"",""1""
""fullscreenenter"",""1"",""6898""
","
","""event"",""trial"",""time""
""focus"",""0"",""1""
","""event"",""trial"",""time""
""fullscreenenter"",""1"",""6898""
","
","","","660","","","10","12424","1175","d","elianto","#3366ff99"," "," ","1","+10","[1511]","1","2","","","12424","30","1","1","win","go","0"
"pit-trial","149","1048601","0.0-35.0","battery-v0.2","","""event"",""trial"",""time""
""focus"",""0"",""1""
""fullscreenenter"",""1"",""6898""
","
","""event"",""trial"",""time""
""focus"",""0"",""1""
","""event"",""trial"",""time""
""fullscreenenter"",""1"",""6898""
","
","","","-1","","","10","12424","1175","w","elianto","#f73b6a7A"," ","-1","0","-10","[3792]","1","2","","","12424","31","3","3","lose","go","0"
"pit-trial","150","1051989","0.0-36.0","battery-v0.2","","""event"",""trial"",""time""
""focus"",""0"",""1""
""fullscreenenter"",""1"",""6898""
","
","""event"",""trial"",""time""
""focus"",""0"",""1""
","""event"",""trial"",""time""
""fullscreenenter"",""1"",""6898""
","
","","","525","","","10","12424","1175","e","elianto","#f73b6a7A","-1"," ","0","-10","[1379,2027,2611]","3","2","","","12424","32","2","4","lose","no-go","0"
"pit-trial","151","1056848","0.0-37.0","battery-v0.2","","""event"",""trial"",""time""
""focus"",""0"",""1""
""fullscreenenter"",""1"",""6898""
","
","""event"",""trial"",""time""
""focus"",""0"",""1""
","""event"",""trial"",""time""
""fullscreenenter"",""1"",""6898""
","
","","","-1","","","10","12424","1175","e","elianto","#f73b6a7A","-1","-1","1","0","[]","0","2","","","12424","33","2","4","lose","no-go","0"
"pit-trial","152","1061706","0.0-38.0","battery-v0.2","","""event"",""trial"",""time""
""focus"",""0"",""1""
""fullscreenenter"",""1"",""6898""
","
","""event"",""trial"",""time""
""focus"",""0"",""1""
","""event"",""trial"",""time""
""fullscreenenter"",""1"",""6898""
","
","","","-1","","","10","12424","1175","j","elianto","#f73b6a7A","-1","-1","1","-10","[3461,4484]","2","2","","","12424","34","0","4","lose","no-go","1"
"pit-trial","153","1065317","0.0-39.0","battery-v0.2","","""event"",""trial"",""time""
""focus"",""0"",""1""
""fullscreenenter"",""1"",""6898""
","
","""event"",""trial"",""time""
""focus"",""0"",""1""
","""event"",""trial"",""time""
""fullscreenenter"",""1"",""6898""
","
","","","605","","","10","12424","1175","d","elianto","#3366ff99"," "," ","1","0","[1459]","1","2","","","12424","35","1","1","win","go","1"
"pit-trial","154","1070324","0.0-40.0","battery-v0.2","","""event"",""trial"",""time""
""focus"",""0"",""1""
""fullscreenenter"",""1"",""6898""
","
","""event"",""trial"",""time""
""focus"",""0"",""1""
","""event"",""trial"",""time""
""fullscreenenter"",""1"",""6898""
","
","","","-1","","","10","12424","1175","w","elianto","#f73b6a7A"," ","-1","0","-10","[3409,4481]","2","2","","","12424","36","3","3","lose","go","0"
"pit-trial","155","1074776","0.0-41.0","battery-v0.2","","""event"",""trial"",""time""
""focus"",""0"",""1""
""fullscreenenter"",""1"",""6898""
","
","""event"",""trial"",""time""
""focus"",""0"",""1""
","""event"",""trial"",""time""
""fullscreenenter"",""1"",""6898""
","
","","","1599","","","10","12424","1175","w","elianto","#f73b6a7A"," "," ","1","0","[2449]","1","2","","","12424","37","3","3","lose","go","0"
"pit-trial","156","1078104","0.0-42.0","battery-v0.2","","""event"",""trial"",""time""
""focus"",""0"",""1""
""fullscreenenter"",""1"",""6898""
","
","""event"",""trial"",""time""
""focus"",""0"",""1""
","""event"",""trial"",""time""
""fullscreenenter"",""1"",""6898""
","
","","","473","","","10","12424","1175","d","elianto","#3366ff99"," "," ","1","+10","[1324]","1","2","","","12424","38","1","1","win","go","0"
"pit-trial","157","1082880","0.0-43.0","battery-v0.2","","""event"",""trial"",""time""
""focus"",""0"",""1""
""fullscreenenter"",""1"",""6898""
","
","""event"",""trial"",""time""
""focus"",""0"",""1""
","""event"",""trial"",""time""
""fullscreenenter"",""1"",""6898""
","
","","","1923","","","10","12424","1175","j","elianto","#f73b6a7A","-1"," ","0","0","[2774]","1","2","","","12424","39","0","4","lose","no-go","1"
"pit-trial","158","1087965","0.0-44.0","battery-v0.2","","""event"",""trial"",""time""
""focus"",""0"",""1""
""fullscreenenter"",""1"",""6898""
","
","""event"",""trial"",""time""
""focus"",""0"",""1""
","""event"",""trial"",""time""
""fullscreenenter"",""1"",""6898""
","
","","","-1","","","10","12424","1175","e","elianto","#f73b6a7A","-1","-1","1","0","[3213]","1","2","","","12424","40","2","4","lose","no-go","0"
"pit-trial","159","1091680","0.0-45.0","battery-v0.2","","""event"",""trial"",""time""
""focus"",""0"",""1""
""fullscreenenter"",""1"",""6898""
","
","""event"",""trial"",""time""
""focus"",""0"",""1""
","""event"",""trial"",""time""
""fullscreenenter"",""1"",""6898""
","
","","","858","","","10","12424","1175","d","elianto","#3366ff99"," "," ","1","+10","[1713]","1","2","","","12424","41","1","1","win","go","0"
"pit-trial","160","1096037","0.0-46.0","battery-v0.2","","""event"",""trial"",""time""
""focus"",""0"",""1""
""fullscreenenter"",""1"",""6898""
","
","""event"",""trial"",""time""
""focus"",""0"",""1""
","""event"",""trial"",""time""
""fullscreenenter"",""1"",""6898""
","
","","","1318","","","10","12424","1175","e","elianto","#f73b6a7A","-1"," ","0","-10","[2172]","1","2","","","12424","42","2","4","lose","no-go","0"
"pit-trial","161","1101044","0.0-47.0","battery-v0.2","","""event"",""trial"",""time""
""focus"",""0"",""1""
""fullscreenenter"",""1"",""6898""
","
","""event"",""trial"",""time""
""focus"",""0"",""1""
","""event"",""trial"",""time""
""fullscreenenter"",""1"",""6898""
","
","","","-1","","","10","12424","1175","j","elianto","#f73b6a7A","-1","-1","1","0","[]","0","2","","","12424","43","0","4","lose","no-go","0"
"pit-trial","162","1105906","0.0-48.0","battery-v0.2","","""event"",""trial"",""time""
""focus"",""0"",""1""
""fullscreenenter"",""1"",""6898""
","
","""event"",""trial"",""time""
""focus"",""0"",""1""
","""event"",""trial"",""time""
""fullscreenenter"",""1"",""6898""
","
","","","-1","","","10","12424","1175","w","elianto","#f73b6a7A"," ","-1","0","-10","[3993]","1","2","","","12424","44","3","3","lose","go","0"
"pit-trial","163","1109958","0.0-49.0","battery-v0.2","","""event"",""trial"",""time""
""focus"",""0"",""1""
""fullscreenenter"",""1"",""6898""
","
","""event"",""trial"",""time""
""focus"",""0"",""1""
","""event"",""trial"",""time""
""fullscreenenter"",""1"",""6898""
","
","","","941","","","10","12424","1175","w","elianto","#f73b6a7A"," "," ","1","0","[1796,2284]","2","2","","","12424","45","3","3","lose","go","0"
"pit-trial","164","1114105","0.0-50.0","battery-v0.2","","""event"",""trial"",""time""
""focus"",""0"",""1""
""fullscreenenter"",""1"",""6898""
","
","""event"",""trial"",""time""
""focus"",""0"",""1""
","""event"",""trial"",""time""
""fullscreenenter"",""1"",""6898""
","
","","","1292","","","10","12424","1175","e","elianto","#f73b6a7A","-1"," ","0","0","[2143]","1","2","","","12424","46","2","4","lose","no-go","1"
"pit-trial","165","1118050","0.0-51.0","battery-v0.2","","""event"",""trial"",""time""
""focus"",""0"",""1""
""fullscreenenter"",""1"",""6898""
","
","""event"",""trial"",""time""
""focus"",""0"",""1""
","""event"",""trial"",""time""
""fullscreenenter"",""1"",""6898""
","
","","","887","","","10","12424","1175","s","elianto","#3366ff99","-1"," ","0","0","[1757]","1","2","","","12424","47","4","2","win","no-go","0"
"pit-trial","166","1122309","0.0-52.0","battery-v0.2","","""event"",""trial"",""time""
""focus"",""0"",""1""
""fullscreenenter"",""1"",""6898""
","
","""event"",""trial"",""time""
""focus"",""0"",""1""
","""event"",""trial"",""time""
""fullscreenenter"",""1"",""6898""
","
","","","1399","","","10","12424","1175","j","elianto","#f73b6a7A","-1"," ","0","-10","[2251]","1","2","","","12424","48","0","4","lose","no-go","0"
"pit-trial","167","1127162","0.0-53.0","battery-v0.2","","""event"",""trial"",""time""
""focus"",""0"",""1""
""fullscreenenter"",""1"",""6898""
","
","""event"",""trial"",""time""
""focus"",""0"",""1""
","""event"",""trial"",""time""
""fullscreenenter"",""1"",""6898""
","
","","","-1","","","10","12424","1175","j","elianto","#f73b6a7A","-1","-1","1","0","[]","0","2","","","12424","49","0","4","lose","no-go","0"
"pit-trial","168","1131204","0.0-54.0","battery-v0.2","","""event"",""trial"",""time""
""focus"",""0"",""1""
""fullscreenenter"",""1"",""6898""
","
","""event"",""trial"",""time""
""focus"",""0"",""1""
","""event"",""trial"",""time""
""fullscreenenter"",""1"",""6898""
","
","","","945","","","10","12424","1175","d","elianto","#3366ff99"," "," ","1","0","[1796]","1","2","","","12424","50","1","1","win","go","1"
"pit-trial","169","1136064","0.0-55.0","battery-v0.2","","""event"",""trial"",""time""
""focus"",""0"",""1""
""fullscreenenter"",""1"",""6898""
","
","""event"",""trial"",""time""
""focus"",""0"",""1""
","""event"",""trial"",""time""
""fullscreenenter"",""1"",""6898""
","
","","","-1","","","10","12424","1175","s","elianto","#3366ff99","-1","-1","1","+10","[]","0","2","","","12424","51","4","2","win","no-go","0"
"pit-trial","170","1140379","0.0-56.0","battery-v0.2","","""event"",""trial"",""time""
""focus"",""0"",""1""
""fullscreenenter"",""1"",""6898""
","
","""event"",""trial"",""time""
""focus"",""0"",""1""
","""event"",""trial"",""time""
""fullscreenenter"",""1"",""6898""
","
","","","1457","","","10","12424","1175","w","elianto","#f73b6a7A"," "," ","1","0","[2309]","1","2","","","12424","52","3","3","lose","go","0"
"pit-trial","171","1144291","0.0-57.0","battery-v0.2","","""event"",""trial"",""time""
""focus"",""0"",""1""
""fullscreenenter"",""1"",""6898""
","
","""event"",""trial"",""time""
""focus"",""0"",""1""
","""event"",""trial"",""time""
""fullscreenenter"",""1"",""6898""
","
","","","1057","","","10","12424","1175","s","elianto","#3366ff99","-1"," ","0","0","[1906]","1","2","","","12424","53","4","2","win","no-go","0"
"pit-trial","172","1148122","0.0-58.0","battery-v0.2","","""event"",""trial"",""time""
""focus"",""0"",""1""
""fullscreenenter"",""1"",""6898""
","
","""event"",""trial"",""time""
""focus"",""0"",""1""
","""event"",""trial"",""time""
""fullscreenenter"",""1"",""6898""
","
","","","971","","","10","12424","1175","d","elianto","#3366ff99"," "," ","1","+10","[1826]","1","2","","","12424","54","1","1","win","go","0"
"pit-trial","173","1152248","0.0-59.0","battery-v0.2","","""event"",""trial"",""time""
""focus"",""0"",""1""
""fullscreenenter"",""1"",""6898""
","
","""event"",""trial"",""time""
""focus"",""0"",""1""
","""event"",""trial"",""time""
""fullscreenenter"",""1"",""6898""
","
","","","1272","","","10","12424","1175","e","elianto","#f73b6a7A","-1"," ","0","-10","[2123]","1","2","","","12424","55","2","4","lose","no-go","0"
"pit-trial","174","1157108","0.0-60.0","battery-v0.2","","""event"",""trial"",""time""
""focus"",""0"",""1""
""fullscreenenter"",""1"",""6898""
","
","""event"",""trial"",""time""
""focus"",""0"",""1""
","""event"",""trial"",""time""
""fullscreenenter"",""1"",""6898""
","
","","","-1","","","10","12424","1175","j","elianto","#f73b6a7A","-1","-1","1","0","[]","0","2","","","12424","56","0","4","lose","no-go","0"
"pit-trial","175","1161970","0.0-61.0","battery-v0.2","","""event"",""trial"",""time""
""focus"",""0"",""1""
""fullscreenenter"",""1"",""6898""
","
","""event"",""trial"",""time""
""focus"",""0"",""1""
","""event"",""trial"",""time""
""fullscreenenter"",""1"",""6898""
","
","","","-1","","","10","12424","1175","j","elianto","#f73b6a7A","-1","-1","1","0","[]","0","2","","","12424","57","0","4","lose","no-go","0"
"pit-trial","176","1166833","0.0-62.0","battery-v0.2","","""event"",""trial"",""time""
""focus"",""0"",""1""
""fullscreenenter"",""1"",""6898""
","
","""event"",""trial"",""time""
""focus"",""0"",""1""
","""event"",""trial"",""time""
""fullscreenenter"",""1"",""6898""
","
","","","-1","","","10","12424","1175","s","elianto","#3366ff99","-1","-1","1","+10","[]","0","2","","","12424","58","4","2","win","no-go","0"
"pit-trial","177","1171691","0.0-63.0","battery-v0.2","","""event"",""trial"",""time""
""focus"",""0"",""1""
""fullscreenenter"",""1"",""6898""
","
","""event"",""trial"",""time""
""focus"",""0"",""1""
","""event"",""trial"",""time""
""fullscreenenter"",""1"",""6898""
","
","","","-1","","","10","12424","1175","w","elianto","#f73b6a7A"," ","-1","0","0","[3133]","1","2","","","12424","59","3","3","lose","go","1"
"pit-trial","178","1175412","0.0-64.0","battery-v0.2","","""event"",""trial"",""time""
""focus"",""0"",""1""
""fullscreenenter"",""1"",""6898""
","
","""event"",""trial"",""time""
""focus"",""0"",""1""
","""event"",""trial"",""time""
""fullscreenenter"",""1"",""6898""
","
","","","864","","","10","12424","1175","d","elianto","#3366ff99"," "," ","1","+10","[1715]","1","2","","","12424","60","1","1","win","go","0"
"pit-trial","179","1179992","0.0-65.0","battery-v0.2","","""event"",""trial"",""time""
""focus"",""0"",""1""
""fullscreenenter"",""1"",""6898""
","
","""event"",""trial"",""time""
""focus"",""0"",""1""
","""event"",""trial"",""time""
""fullscreenenter"",""1"",""6898""
","
","","","1726","","","10","12424","1175","e","elianto","#f73b6a7A","-1"," ","0","-10","[2578]","1","2","","","12424","61","2","4","lose","no-go","0"
"pit-trial","180","1184064","0.0-66.0","battery-v0.2","","""event"",""trial"",""time""
""focus"",""0"",""1""
""fullscreenenter"",""1"",""6898""
","
","""event"",""trial"",""time""
""focus"",""0"",""1""
","""event"",""trial"",""time""
""fullscreenenter"",""1"",""6898""
","
","","","1220","","","10","12424","1175","w","elianto","#f73b6a7A"," "," ","1","0","[2070]","1","2","","","12424","62","3","3","lose","go","0"
"pit-trial","181","1187895","0.0-67.0","battery-v0.2","","""event"",""trial"",""time""
""focus"",""0"",""1""
""fullscreenenter"",""1"",""6898""
","
","""event"",""trial"",""time""
""focus"",""0"",""1""
","""event"",""trial"",""time""
""fullscreenenter"",""1"",""6898""
","
","","","786","","","10","12424","1175","d","elianto","#3366ff99"," "," ","1","+10","[1637]","1","2","","","12424","63","1","1","win","go","0"
"pit-trial","182","1192758","0.0-68.0","battery-v0.2","","""event"",""trial"",""time""
""focus"",""0"",""1""
""fullscreenenter"",""1"",""6898""
","
","""event"",""trial"",""time""
""focus"",""0"",""1""
","""event"",""trial"",""time""
""fullscreenenter"",""1"",""6898""
","
","","","-1","","","10","12424","1175","s","elianto","#3366ff99","-1","-1","1","0","[]","0","2","","","12424","64","4","2","win","no-go","1"
"pit-trial","183","1196568","0.0-69.0","battery-v0.2","","""event"",""trial"",""time""
""focus"",""0"",""1""
""fullscreenenter"",""1"",""6898""
","
","""event"",""trial"",""time""
""focus"",""0"",""1""
","""event"",""trial"",""time""
""fullscreenenter"",""1"",""6898""
","
","","","956","","","10","12424","1175","d","elianto","#3366ff99"," "," ","1","+10","[1808]","1","2","","","12424","65","1","1","win","go","0"
"pit-trial","184","1200827","0.0-70.0","battery-v0.2","","""event"",""trial"",""time""
""focus"",""0"",""1""
""fullscreenenter"",""1"",""6898""
","
","""event"",""trial"",""time""
""focus"",""0"",""1""
","""event"",""trial"",""time""
""fullscreenenter"",""1"",""6898""
","
","","","1399","","","10","12424","1175","w","elianto","#f73b6a7A"," "," ","1","0","[2255]","1","2","","","12424","66","3","3","lose","go","0"
"pit-trial","185","1205833","0.0-71.0","battery-v0.2","","""event"",""trial"",""time""
""focus"",""0"",""1""
""fullscreenenter"",""1"",""6898""
","
","""event"",""trial"",""time""
""focus"",""0"",""1""
","""event"",""trial"",""time""
""fullscreenenter"",""1"",""6898""
","
","","","-1","","","10","12424","1175","s","elianto","#3366ff99","-1","-1","1","+10","[]","0","2","","","12424","67","4","2","win","no-go","0"
"pit-trial","186","1210952","0.0-72.0","battery-v0.2","","""event"",""trial"",""time""
""focus"",""0"",""1""
""fullscreenenter"",""1"",""6898""
","
","""event"",""trial"",""time""
""focus"",""0"",""1""
","""event"",""trial"",""time""
""fullscreenenter"",""1"",""6898""
","
","","","-1","","","10","12424","1175","e","elianto","#f73b6a7A","-1","-1","1","0","[]","0","2","","","12424","68","2","4","lose","no-go","0"
"pit-trial","187","1215356","0.0-73.0","battery-v0.2","","""event"",""trial"",""time""
""focus"",""0"",""1""
""fullscreenenter"",""1"",""6898""
","
","""event"",""trial"",""time""
""focus"",""0"",""1""
","""event"",""trial"",""time""
""fullscreenenter"",""1"",""6898""
","
","","","1547","","","10","12424","1175","d","elianto","#3366ff99"," "," ","1","+10","[2398]","1","2","","","12424","69","1","1","win","go","0"
"pit-trial","188","1220360","0.0-74.0","battery-v0.2","","""event"",""trial"",""time""
""focus"",""0"",""1""
""fullscreenenter"",""1"",""6898""
","
","""event"",""trial"",""time""
""focus"",""0"",""1""
","""event"",""trial"",""time""
""fullscreenenter"",""1"",""6898""
","
","","","-1","","","10","12424","1175","s","elianto","#3366ff99","-1","-1","1","0","[3770]","1","2","","","12424","70","4","2","win","no-go","1"
"pit-trial","189","1224405","0.0-75.0","battery-v0.2","","""event"",""trial"",""time""
""focus"",""0"",""1""
""fullscreenenter"",""1"",""6898""
","
","""event"",""trial"",""time""
""focus"",""0"",""1""
","""event"",""trial"",""time""
""fullscreenenter"",""1"",""6898""
","
","","","1002","","","10","12424","1175","p","elianto","#3366ff99"," "," ","1","+10","[1854]","1","2","","","12424","71","5","1","win","go","0"
"pit-trial","190","1229056","0.0-76.0","battery-v0.2","","""event"",""trial"",""time""
""focus"",""0"",""1""
""fullscreenenter"",""1"",""6898""
","
","""event"",""trial"",""time""
""focus"",""0"",""1""
","""event"",""trial"",""time""
""fullscreenenter"",""1"",""6898""
","
","","","1795","","","10","12424","1175","w","elianto","#f73b6a7A"," "," ","1","0","[2647]","1","2","","","12424","72","3","3","lose","go","0"
"pit-trial","191","1232893","0.0-77.0","battery-v0.2","","""event"",""trial"",""time""
""focus"",""0"",""1""
""fullscreenenter"",""1"",""6898""
","
","""event"",""trial"",""time""
""focus"",""0"",""1""
","""event"",""trial"",""time""
""fullscreenenter"",""1"",""6898""
","
","","","974","","","10","12424","1175","p","elianto","#3366ff99"," "," ","1","+10","[1829]","1","2","","","12424","73","5","1","win","go","0"
"pit-trial","192","1237067","0.0-78.0","battery-v0.2","","""event"",""trial"",""time""
""focus"",""0"",""1""
""fullscreenenter"",""1"",""6898""
","
","""event"",""trial"",""time""
""focus"",""0"",""1""
","""event"",""trial"",""time""
""fullscreenenter"",""1"",""6898""
","
","","","1314","","","10","12424","1175","w","elianto","#f73b6a7A"," "," ","1","0","[2169]","1","2","","","12424","74","3","3","lose","go","0"
"pit-trial","193","1241125","0.0-79.0","battery-v0.2","","""event"",""trial"",""time""
""focus"",""0"",""1""
""fullscreenenter"",""1"",""6898""
","
","""event"",""trial"",""time""
""focus"",""0"",""1""
","""event"",""trial"",""time""
""fullscreenenter"",""1"",""6898""
","
","","","1199","","","10","12424","1175","d","elianto","#3366ff99"," "," ","1","0","[2050]","1","2","","","12424","75","1","1","win","go","1"
"pit-trial","194","1245211","0.0-80.0","battery-v0.2","","""event"",""trial"",""time""
""focus"",""0"",""1""
""fullscreenenter"",""1"",""6898""
","
","""event"",""trial"",""time""
""focus"",""0"",""1""
","""event"",""trial"",""time""
""fullscreenenter"",""1"",""6898""
","
","","","1006","","","10","12424","1175","s","elianto","#3366ff99","-1"," ","0","0","[1858,2354]","2","2","","","12424","76","4","2","win","no-go","0"
"pit-trial","195","1249355","0.0-81.0","battery-v0.2","","""event"",""trial"",""time""
""focus"",""0"",""1""
""fullscreenenter"",""1"",""6898""
","
","""event"",""trial"",""time""
""focus"",""0"",""1""
","""event"",""trial"",""time""
""fullscreenenter"",""1"",""6898""
","
","","","1151","","","10","12424","1175","w","elianto","#f73b6a7A"," "," ","1","0","[2003]","1","2","","","12424","77","3","3","lose","go","0"
"pit-trial","196","1253397","0.0-82.0","battery-v0.2","","""event"",""trial"",""time""
""focus"",""0"",""1""
""fullscreenenter"",""1"",""6898""
","
","""event"",""trial"",""time""
""focus"",""0"",""1""
","""event"",""trial"",""time""
""fullscreenenter"",""1"",""6898""
","
","","","1005","","","10","12424","1175","g","elianto","#f73b6a7A","-1"," ","0","-10","[1858]","1","2","","","12424","78","6","4","lose","no-go","0"
"pit-trial","197","1257448","0.0-83.0","battery-v0.2","","""event"",""trial"",""time""
""focus"",""0"",""1""
""fullscreenenter"",""1"",""6898""
","
","""event"",""trial"",""time""
""focus"",""0"",""1""
","""event"",""trial"",""time""
""fullscreenenter"",""1"",""6898""
","
","","","1150","","","10","12424","1175","s","elianto","#3366ff99","-1"," ","0","0","[2001,2664,3032,3080]","4","2","","","12424","79","4","2","win","no-go","0"
"pit-trial","198","1261236","0.0-84.0","battery-v0.2","","""event"",""trial"",""time""
""focus"",""0"",""1""
""fullscreenenter"",""1"",""6898""
","
","""event"",""trial"",""time""
""focus"",""0"",""1""
","""event"",""trial"",""time""
""fullscreenenter"",""1"",""6898""
","
","","","929","","","10","12424","1175","p","elianto","#3366ff99"," "," ","1","+10","[1781]","1","2","","","12424","80","5","1","win","go","0"
"pit-trial","199","1265348","0.0-85.0","battery-v0.2","","""event"",""trial"",""time""
""focus"",""0"",""1""
""fullscreenenter"",""1"",""6898""
","
","""event"",""trial"",""time""
""focus"",""0"",""1""
","""event"",""trial"",""time""
""fullscreenenter"",""1"",""6898""
","
","","","1255","","","10","12424","1175","p","elianto","#3366ff99"," "," ","1","+10","[2106]","1","2","","","12424","81","5","1","win","go","0"
"pit-trial","200","1270205","0.0-86.0","battery-v0.2","","""event"",""trial"",""time""
""focus"",""0"",""1""
""fullscreenenter"",""1"",""6898""
","
","""event"",""trial"",""time""
""focus"",""0"",""1""
","""event"",""trial"",""time""
""fullscreenenter"",""1"",""6898""
","
","","","-1","","","10","12424","1175","g","elianto","#f73b6a7A","-1","-1","1","-10","[]","0","2","","","12424","82","6","4","lose","no-go","1"
"pit-trial","201","1274437","0.0-87.0","battery-v0.2","","""event"",""trial"",""time""
""focus"",""0"",""1""
""fullscreenenter"",""1"",""6898""
","
","""event"",""trial"",""time""
""focus"",""0"",""1""
","""event"",""trial"",""time""
""fullscreenenter"",""1"",""6898""
","
","","","1371","","","10","12424","1175","a","elianto","#f73b6a7A"," "," ","1","0","[2225]","1","2","","","12424","83","7","3","lose","go","0"
"pit-trial","202","1279440","0.0-88.0","battery-v0.2","","""event"",""trial"",""time""
""focus"",""0"",""1""
""fullscreenenter"",""1"",""6898""
","
","""event"",""trial"",""time""
""focus"",""0"",""1""
","""event"",""trial"",""time""
""fullscreenenter"",""1"",""6898""
","
","","","-1","","","10","12424","1175","s","elianto","#3366ff99","-1","-1","1","+10","[]","0","2","","","12424","84","4","2","win","no-go","0"
"pit-trial","203","1284440","0.0-89.0","battery-v0.2","","""event"",""trial"",""time""
""focus"",""0"",""1""
""fullscreenenter"",""1"",""6898""
","
","""event"",""trial"",""time""
""focus"",""0"",""1""
","""event"",""trial"",""time""
""fullscreenenter"",""1"",""6898""
","
","","","-1","","","10","12424","1175","s","elianto","#3366ff99","-1","-1","1","0","[]","0","2","","","12424","85","4","2","win","no-go","1"
"pit-trial","204","1288866","0.0-90.0","battery-v0.2","","""event"",""trial"",""time""
""focus"",""0"",""1""
""fullscreenenter"",""1"",""6898""
","
","""event"",""trial"",""time""
""focus"",""0"",""1""
","""event"",""trial"",""time""
""fullscreenenter"",""1"",""6898""
","
","","","1571","","","10","12424","1175","p","elianto","#3366ff99"," "," ","1","+10","[2421]","1","2","","","12424","86","5","1","win","go","0"
"pit-trial","205","1293832","0.0-91.0","battery-v0.2","","""event"",""trial"",""time""
""focus"",""0"",""1""
""fullscreenenter"",""1"",""6898""
","
","""event"",""trial"",""time""
""focus"",""0"",""1""
","""event"",""trial"",""time""
""fullscreenenter"",""1"",""6898""
","
","","","-1","","","10","12424","1175","g","elianto","#f73b6a7A","-1","-1","1","-10","[3556]","1","2","","","12424","87","6","4","lose","no-go","1"
"pit-trial","206","1297877","0.0-92.0","battery-v0.2","","""event"",""trial"",""time""
""focus"",""0"",""1""
""fullscreenenter"",""1"",""6898""
","
","""event"",""trial"",""time""
""focus"",""0"",""1""
","""event"",""trial"",""time""
""fullscreenenter"",""1"",""6898""
","
","","","968","","","10","12424","1175","a","elianto","#f73b6a7A"," "," ","1","0","[1822]","1","2","","","12424","88","7","3","lose","go","0"
"pit-trial","207","1301928","0.0-93.0","battery-v0.2","","""event"",""trial"",""time""
""focus"",""0"",""1""
""fullscreenenter"",""1"",""6898""
","
","""event"",""trial"",""time""
""focus"",""0"",""1""
","""event"",""trial"",""time""
""fullscreenenter"",""1"",""6898""
","
","","","951","","","10","12424","1175","g","elianto","#f73b6a7A","-1"," ","0","0","[1802]","1","2","","","12424","89","6","4","lose","no-go","1"
"pit-trial","208","1305504","0.0-94.0","battery-v0.2","","""event"",""trial"",""time""
""focus"",""0"",""1""
""fullscreenenter"",""1"",""6898""
","
","""event"",""trial"",""time""
""focus"",""0"",""1""
","""event"",""trial"",""time""
""fullscreenenter"",""1"",""6898""
","
","","","717","","","10","12424","1175","p","elianto","#3366ff99"," "," ","1","+10","[1572]","1","2","","","12424","90","5","1","win","go","0"
"pit-trial","209","1309571","0.0-95.0","battery-v0.2","","""event"",""trial"",""time""
""focus"",""0"",""1""
""fullscreenenter"",""1"",""6898""
","
","""event"",""trial"",""time""
""focus"",""0"",""1""
","""event"",""trial"",""time""
""fullscreenenter"",""1"",""6898""
","
","","","1209","","","10","12424","1175","a","elianto","#f73b6a7A"," "," ","1","0","[2061]","1","2","","","12424","91","7","3","lose","go","0"
"pit-trial","210","1314516","0.0-96.0","battery-v0.2","","""event"",""trial"",""time""
""focus"",""0"",""1""
""fullscreenenter"",""1"",""6898""
","
","""event"",""trial"",""time""
""focus"",""0"",""1""
","""event"",""trial"",""time""
""fullscreenenter"",""1"",""6898""
","
","","","-1","","","10","12424","1175","s","elianto","#3366ff99","-1","-1","1","+10","[]","0","2","","","12424","92","4","2","win","no-go","0"
"pit-trial","211","1319024","0.0-97.0","battery-v0.2","","""event"",""trial"",""time""
""focus"",""0"",""1""
""fullscreenenter"",""1"",""6898""
","
","""event"",""trial"",""time""
""focus"",""0"",""1""
","""event"",""trial"",""time""
""fullscreenenter"",""1"",""6898""
","
","","","1653","","","10","12424","1175","l","elianto","#3366ff99","-1"," ","0","0","[2505,4417]","2","2","","","12424","93","8","2","win","no-go","0"
"pit-trial","212","1322941","0.0-98.0","battery-v0.2","","""event"",""trial"",""time""
""focus"",""0"",""1""
""fullscreenenter"",""1"",""6898""
","
","""event"",""trial"",""time""
""focus"",""0"",""1""
","""event"",""trial"",""time""
""fullscreenenter"",""1"",""6898""
","
","","","1055","","","10","12424","1175","a","elianto","#f73b6a7A"," "," ","1","0","[206,1908]","2","2","","","12424","94","7","3","lose","go","0"
"pit-trial","213","1326881","0.0-99.0","battery-v0.2","","""event"",""trial"",""time""
""focus"",""0"",""1""
""fullscreenenter"",""1"",""6898""
","
","""event"",""trial"",""time""
""focus"",""0"",""1""
","""event"",""trial"",""time""
""fullscreenenter"",""1"",""6898""
","
","","","1087","","","10","12424","1175","p","elianto","#3366ff99"," "," ","1","+10","[1938]","1","2","","","12424","95","5","1","win","go","0"
"pit-trial","214","1331057","0.0-100.0","battery-v0.2","","""event"",""trial"",""time""
""focus"",""0"",""1""
""fullscreenenter"",""1"",""6898""
","
","""event"",""trial"",""time""
""focus"",""0"",""1""
","""event"",""trial"",""time""
""fullscreenenter"",""1"",""6898""
","
","","","1317","","","10","12424","1175","g","elianto","#f73b6a7A","-1"," ","0","-10","[2172,2788]","2","2","","","12424","96","6","4","lose","no-go","0"
"pit-trial","215","1335914","0.0-101.0","battery-v0.2","","""event"",""trial"",""time""
""focus"",""0"",""1""
""fullscreenenter"",""1"",""6898""
","
","""event"",""trial"",""time""
""focus"",""0"",""1""
","""event"",""trial"",""time""
""fullscreenenter"",""1"",""6898""
","
","","","-1","","","10","12424","1175","g","elianto","#f73b6a7A","-1","-1","1","0","[]","0","2","","","12424","97","6","4","lose","no-go","0"
"pit-trial","216","1339950","0.0-102.0","battery-v0.2","","""event"",""trial"",""time""
""focus"",""0"",""1""
""fullscreenenter"",""1"",""6898""
","
","""event"",""trial"",""time""
""focus"",""0"",""1""
","""event"",""trial"",""time""
""fullscreenenter"",""1"",""6898""
","
","","","1069","","","10","12424","1175","a","elianto","#f73b6a7A"," "," ","1","0","[1925]","1","2","","","12424","98","7","3","lose","go","0"
"pit-trial","217","1344932","0.0-103.0","battery-v0.2","","""event"",""trial"",""time""
""focus"",""0"",""1""
""fullscreenenter"",""1"",""6898""
","
","""event"",""trial"",""time""
""focus"",""0"",""1""
","""event"",""trial"",""time""
""fullscreenenter"",""1"",""6898""
","
","","","-1","","","10","12424","1175","l","elianto","#3366ff99","-1","-1","1","+10","[]","0","2","","","12424","99","8","2","win","no-go","0"
"pit-trial","218","1348952","0.0-104.0","battery-v0.2","","""event"",""trial"",""time""
""focus"",""0"",""1""
""fullscreenenter"",""1"",""6898""
","
","""event"",""trial"",""time""
""focus"",""0"",""1""
","""event"",""trial"",""time""
""fullscreenenter"",""1"",""6898""
","
","","","1165","","","10","12424","1175","p","elianto","#3366ff99"," "," ","1","+10","[2018]","1","2","","","12424","100","5","1","win","go","0"
"pit-trial","219","1353809","0.0-105.0","battery-v0.2","","""event"",""trial"",""time""
""focus"",""0"",""1""
""fullscreenenter"",""1"",""6898""
","
","""event"",""trial"",""time""
""focus"",""0"",""1""
","""event"",""trial"",""time""
""fullscreenenter"",""1"",""6898""
","
","","","-1","","","10","12424","1175","g","elianto","#f73b6a7A","-1","-1","1","-10","[]","0","2","","","12424","101","6","4","lose","no-go","1"
"pit-trial","220","1357445","0.0-106.0","battery-v0.2","","""event"",""trial"",""time""
""focus"",""0"",""1""
""fullscreenenter"",""1"",""6898""
","
","""event"",""trial"",""time""
""focus"",""0"",""1""
","""event"",""trial"",""time""
""fullscreenenter"",""1"",""6898""
","
","","","775","","","10","12424","1175","p","elianto","#3366ff99"," "," ","1","+10","[1629]","1","2","","","12424","102","5","1","win","go","0"
"pit-trial","221","1362442","0.0-107.0","battery-v0.2","","""event"",""trial"",""time""
""focus"",""0"",""1""
""fullscreenenter"",""1"",""6898""
","
","""event"",""trial"",""time""
""focus"",""0"",""1""
","""event"",""trial"",""time""
""fullscreenenter"",""1"",""6898""
","
","","","-1","","","10","12424","1175","l","elianto","#3366ff99","-1","-1","1","+10","[]","0","2","","","12424","103","8","2","win","no-go","0"
"pit-trial","222","1367052","0.0-108.0","battery-v0.2","","""event"",""trial"",""time""
""focus"",""0"",""1""
""fullscreenenter"",""1"",""6898""
","
","""event"",""trial"",""time""
""focus"",""0"",""1""
","""event"",""trial"",""time""
""fullscreenenter"",""1"",""6898""
","
","","","1752","","","10","12424","1175","u","elianto","#3366ff99","-1"," ","0","0","[2603]","1","2","","","12424","104","9","2","win","no-go","0"
"pit-trial","223","1371912","0.0-109.0","battery-v0.2","","""event"",""trial"",""time""
""focus"",""0"",""1""
""fullscreenenter"",""1"",""6898""
","
","""event"",""trial"",""time""
""focus"",""0"",""1""
","""event"",""trial"",""time""
""fullscreenenter"",""1"",""6898""
","
","","","-1","","","10","12424","1175","l","elianto","#3366ff99","-1","-1","1","0","[4722]","1","2","","","12424","105","8","2","win","no-go","1"
"pit-trial","224","1375953","0.0-110.0","battery-v0.2","","""event"",""trial"",""time""
""focus"",""0"",""1""
""fullscreenenter"",""1"",""6898""
","
","""event"",""trial"",""time""
""focus"",""0"",""1""
","""event"",""trial"",""time""
""fullscreenenter"",""1"",""6898""
","
","","","941","","","10","12424","1175","g","elianto","#f73b6a7A","-1"," ","0","-10","[1797]","1","2","","","12424","106","6","4","lose","no-go","0"
"pit-trial","225","1380812","0.0-111.0","battery-v0.2","","""event"",""trial"",""time""
""focus"",""0"",""1""
""fullscreenenter"",""1"",""6898""
","
","""event"",""trial"",""time""
""focus"",""0"",""1""
","""event"",""trial"",""time""
""fullscreenenter"",""1"",""6898""
","
","","","-1","","","10","12424","1175","u","elianto","#3366ff99","-1","-1","1","+10","[]","0","2","","","12424","107","9","2","win","no-go","0"
"pit-trial","226","1384919","0.0-112.0","battery-v0.2","","""event"",""trial"",""time""
""focus"",""0"",""1""
""fullscreenenter"",""1"",""6898""
","
","""event"",""trial"",""time""
""focus"",""0"",""1""
","""event"",""trial"",""time""
""fullscreenenter"",""1"",""6898""
","
","","","1066","","","10","12424","1175","p","elianto","#3366ff99"," "," ","1","+10","[1920]","1","2","","","12424","108","5","1","win","go","0"
"pit-trial","227","1388705","0.0-113.0","battery-v0.2","","""event"",""trial"",""time""
""focus"",""0"",""1""
""fullscreenenter"",""1"",""6898""
","
","""event"",""trial"",""time""
""focus"",""0"",""1""
","""event"",""trial"",""time""
""fullscreenenter"",""1"",""6898""
","
","","","930","","","10","12424","1175","l","elianto","#3366ff99","-1"," ","0","0","[1783]","1","2","","","12424","109","8","2","win","no-go","0"
"pit-trial","228","1393566","0.0-114.0","battery-v0.2","","""event"",""trial"",""time""
""focus"",""0"",""1""
""fullscreenenter"",""1"",""6898""
","
","""event"",""trial"",""time""
""focus"",""0"",""1""
","""event"",""trial"",""time""
""fullscreenenter"",""1"",""6898""
","
","","","-1","","","10","12424","1175","u","elianto","#3366ff99","-1","-1","1","0","[3910]","1","2","","","12424","110","9","2","win","no-go","1"
"pit-trial","229","1397280","0.0-115.0","battery-v0.2","","""event"",""trial"",""time""
""focus"",""0"",""1""
""fullscreenenter"",""1"",""6898""
","
","""event"",""trial"",""time""
