"trial_type","trial_index","time_elapsed","internal_node_id","task_version","subject_id","interactions","blur_events","focus_events","fullscreenenter_events","fullscreenexit_events","success","view_history","rt","responses","num_errors","age","subject","participantId","rune","rune_set","hex","correct","choice","accuracy","outcome","keys","total_keys","block","practice","value","sub","trial","stimulus","robot","valence","action","sham"
"pavlovia","0","7","0.0-0.0","battery-v0.2","","""event"",""trial"",""time""
""fullscreenenter"",""1"",""1824""
""fullscreenenter"",""1"",""1824""
","
","
","""event"",""trial"",""time""
""fullscreenenter"",""1"",""1824""
""fullscreenenter"",""1"",""1824""
","
","","","","","","","","","","","","","","","","","","","","","","","","","","",""
"fullscreen","1","2789","0.0-1.0","battery-v0.2","","""event"",""trial"",""time""
""fullscreenenter"",""1"",""1824""
""fullscreenenter"",""1"",""1824""
","
","
","""event"",""trial"",""time""
""fullscreenenter"",""1"",""1824""
""fullscreenenter"",""1"",""1824""
","
","true","","","","","","","","","","","","","","","","","","","","","","","","","",""
"pit-instructions","2","8622","0.0-2.0-0.0","battery-v0.2","","""event"",""trial"",""time""
""fullscreenenter"",""1"",""1824""
""fullscreenenter"",""1"",""1824""
","
","
","""event"",""trial"",""time""
""fullscreenenter"",""1"",""1824""
""fullscreenenter"",""1"",""1824""
","
","","[{""page_index"":0,""viewing_time"":5825}]","5826","","","","","","","","","","","","","","","","","","","","","","","",""
"pit-comprehension","3","12643","0.0-2.0-1.0-0.0","battery-v0.2","","""event"",""trial"",""time""
""fullscreenenter"",""1"",""1824""
""fullscreenenter"",""1"",""1824""
","
","
","""event"",""trial"",""time""
""fullscreenenter"",""1"",""1824""
""fullscreenenter"",""1"",""1824""
","
","","","3975","[""shark""]","0","12","8858","4196","","","","","","","","","","","","","","","","","","",""
"pit-instructions","4","15520","0.0-2.0-1.0-1.0","battery-v0.2","","""event"",""trial"",""time""
""fullscreenenter"",""1"",""1824""
""fullscreenenter"",""1"",""1824""
","
","
","""event"",""trial"",""time""
""fullscreenenter"",""1"",""1824""
""fullscreenenter"",""1"",""1824""
","
","","[{""page_index"":0,""viewing_time"":2866}]","2866","","","","","","","","","","","","","","","","","","","","","","","",""
"pit-comprehension","5","18890","0.0-2.0-2.0-0.0","battery-v0.2","","""event"",""trial"",""time""
""fullscreenenter"",""1"",""1824""
""fullscreenenter"",""1"",""1824""
","
","
","""event"",""trial"",""time""
""fullscreenenter"",""1"",""1824""
""fullscreenenter"",""1"",""1824""
","
","","","3364","[""tiger""]","0","12","8858","4196","","","","","","","","","","","","","","","","","","",""
"pit-instructions","6","20137","0.0-2.0-2.0-1.0","battery-v0.2","","""event"",""trial"",""time""
""fullscreenenter"",""1"",""1824""
""fullscreenenter"",""1"",""1824""
","
","
","""event"",""trial"",""time""
""fullscreenenter"",""1"",""1824""
""fullscreenenter"",""1"",""1824""
","
","","[{""page_index"":0,""viewing_time"":1240}]","1241","","","","","","","","","","","","","","","","","","","","","","","",""
"pit-instructions","7","134611","0.0-2.0-3.0","battery-v0.2","","""event"",""trial"",""time""
""fullscreenenter"",""1"",""1824""
""fullscreenenter"",""1"",""1824""
","
","
","""event"",""trial"",""time""
""fullscreenenter"",""1"",""1824""
""fullscreenenter"",""1"",""1824""
","
","","[{""page_index"":0,""viewing_time"":8793.000000000004},{""page_index"":1,""viewing_time"":6165.999999999996},{""page_index"":2,""viewing_time"":6769.000000000007},{""page_index"":3,""viewing_time"":11747.999999999993},{""page_index"":4,""viewing_time"":10145},{""page_index"":5,""viewing_time"":7155},{""page_index"":6,""viewing_time"":11283},{""page_index"":7,""viewing_time"":6084},{""page_index"":8,""viewing_time"":8350},{""page_index"":9,""viewing_time"":7799},{""page_index"":10,""viewing_time"":7583},{""page_index"":11,""viewing_time"":11126.000000000015},{""page_index"":12,""viewing_time"":6729.999999999985},{""page_index"":13,""viewing_time"":4737}]","114469","","","","","","","","","","","","","","","","","","","","","","","",""
"pit-trial","8","138137","0.0-2.0-4.0-0.0","battery-v0.2","","""event"",""trial"",""time""
""fullscreenenter"",""1"",""1824""
""fullscreenenter"",""1"",""1824""
","
","
","""event"",""trial"",""time""
""fullscreenenter"",""1"",""1824""
""fullscreenenter"",""1"",""1824""
","
","","","667","","","12","8858","4196","&#9784;","elianto","#FFFFF080"," "," ","1","&#10004","[1517]","1","0","0","","","","","","","",""
"pit-trial","9","141476","0.0-2.0-4.1-0.1","battery-v0.2","","""event"",""trial"",""time""
""fullscreenenter"",""1"",""1824""
""fullscreenenter"",""1"",""1824""
","
","
","""event"",""trial"",""time""
""fullscreenenter"",""1"",""1824""
""fullscreenenter"",""1"",""1824""
","
","","","479.9999999999709","","","12","8858","4196","&#9784;","elianto","#FFFFF080"," "," ","1","&#10004","[1330.999999999971]","1","0","0","","","","","","","",""
"pit-trial","10","144894","0.0-2.0-4.2-0.2","battery-v0.2","","""event"",""trial"",""time""
""fullscreenenter"",""1"",""1824""
""fullscreenenter"",""1"",""1824""
","
","
","""event"",""trial"",""time""
""fullscreenenter"",""1"",""1824""
""fullscreenenter"",""1"",""1824""
","
","","","559.0000000000291","","","12","8858","4196","&#9784;","elianto","#FFFFF080"," "," ","1","&#10004","[1409]","1","0","0","","","","","","","",""
"pit-trial","11","148258","0.0-2.0-4.3-0.3","battery-v0.2","","""event"",""trial"",""time""
""fullscreenenter"",""1"",""1824""
""fullscreenenter"",""1"",""1824""
","
","
","""event"",""trial"",""time""
""fullscreenenter"",""1"",""1824""
""fullscreenenter"",""1"",""1824""
","
","","","506","","","12","8858","4196","&#9784;","elianto","#FFFFF080"," "," ","1","&#10004","[1358]","1","0","0","","","","","","","",""
"pit-trial","12","151826","0.0-2.0-4.4-0.4","battery-v0.2","","""event"",""trial"",""time""
""fullscreenenter"",""1"",""1824""
""fullscreenenter"",""1"",""1824""
","
","
","""event"",""trial"",""time""
""fullscreenenter"",""1"",""1824""
""fullscreenenter"",""1"",""1824""
","
","","","710","","","12","8858","4196","&#9784;","elianto","#FFFFF080"," "," ","1","&#10004","[1561]","1","0","0","","","","","","","",""
"pit-instructions","13","175454","0.0-2.0-5.0","battery-v0.2","","""event"",""trial"",""time""
""fullscreenenter"",""1"",""1824""
""fullscreenenter"",""1"",""1824""
","
","
","""event"",""trial"",""time""
""fullscreenenter"",""1"",""1824""
""fullscreenenter"",""1"",""1824""
","
","","[{""page_index"":0,""viewing_time"":4793},{""page_index"":1,""viewing_time"":7298},{""page_index"":2,""viewing_time"":4757},{""page_index"":3,""viewing_time"":6772}]","23620","","","","","","","","","","","","","","","","","","","","","","","",""
"pit-trial","14","180310","0.0-2.0-6.0-0.0","battery-v0.2","","""event"",""trial"",""time""
""fullscreenenter"",""1"",""1824""
""fullscreenenter"",""1"",""1824""
","
","
","""event"",""trial"",""time""
""fullscreenenter"",""1"",""1824""
""fullscreenenter"",""1"",""1824""
","
","","","-1","","","12","8858","4196","&#9854;","elianto","#FFFFF080","-1","-1","1","&#10004","[]","0","0","1","","","","","","","",""
"pit-trial","15","185168","0.0-2.0-6.1-0.1","battery-v0.2","","""event"",""trial"",""time""
""fullscreenenter"",""1"",""1824""
""fullscreenenter"",""1"",""1824""
","
","
","""event"",""trial"",""time""
""fullscreenenter"",""1"",""1824""
""fullscreenenter"",""1"",""1824""
","
","","","-1","","","12","8858","4196","&#9854;","elianto","#FFFFF080","-1","-1","1","&#10004","[]","0","0","1","","","","","","","",""
"pit-trial","16","190026","0.0-2.0-6.2-0.2","battery-v0.2","","""event"",""trial"",""time""
""fullscreenenter"",""1"",""1824""
""fullscreenenter"",""1"",""1824""
","
","
","""event"",""trial"",""time""
""fullscreenenter"",""1"",""1824""
""fullscreenenter"",""1"",""1824""
","
","","","-1","","","12","8858","4196","&#9854;","elianto","#FFFFF080","-1","-1","1","&#10004","[]","0","0","1","","","","","","","",""
"pit-trial","17","194883","0.0-2.0-6.3-0.3","battery-v0.2","","""event"",""trial"",""time""
""fullscreenenter"",""1"",""1824""
""fullscreenenter"",""1"",""1824""
","
","
","""event"",""trial"",""time""
""fullscreenenter"",""1"",""1824""
""fullscreenenter"",""1"",""1824""
","
","","","-1","","","12","8858","4196","&#9854;","elianto","#FFFFF080","-1","-1","1","&#10004","[]","0","0","1","","","","","","","",""
"pit-trial","18","199742","0.0-2.0-6.4-0.4","battery-v0.2","","""event"",""trial"",""time""
""fullscreenenter"",""1"",""1824""
""fullscreenenter"",""1"",""1824""
","
","
","""event"",""trial"",""time""
""fullscreenenter"",""1"",""1824""
""fullscreenenter"",""1"",""1824""
","
","","","-1","","","12","8858","4196","&#9854;","elianto","#FFFFF080","-1","-1","1","&#10004","[]","0","0","1","","","","","","","",""
"pit-instructions","19","334127","0.0-2.0-7.0","battery-v0.2","","""event"",""trial"",""time""
""fullscreenenter"",""1"",""1824""
""fullscreenenter"",""1"",""1824""
","
","
","""event"",""trial"",""time""
""fullscreenenter"",""1"",""1824""
""fullscreenenter"",""1"",""1824""
","
","","[{""page_index"":0,""viewing_time"":6013.000000000029},{""page_index"":1,""viewing_time"":8024},{""page_index"":2,""viewing_time"":6091.999999999971},{""page_index"":3,""viewing_time"":6060},{""page_index"":4,""viewing_time"":5285},{""page_index"":5,""viewing_time"":5115},{""page_index"":6,""viewing_time"":5768},{""page_index"":7,""viewing_time"":10376.00000000003},{""page_index"":8,""viewing_time"":8732.99999999997},{""page_index"":9,""viewing_time"":9433},{""page_index"":10,""viewing_time"":6247},{""page_index"":11,""viewing_time"":5535},{""page_index"":12,""viewing_time"":9587},{""page_index"":13,""viewing_time"":7614},{""page_index"":14,""viewing_time"":10311},{""page_index"":15,""viewing_time"":9001},{""page_index"":16,""viewing_time"":6813},{""page_index"":17,""viewing_time"":8372}]","134380","","","","","","","","","","","","","","","","","","","","","","","",""
"pit-trial","20","337555","0.0-2.0-8.0-0.0","battery-v0.2","","""event"",""trial"",""time""
""fullscreenenter"",""1"",""1824""
""fullscreenenter"",""1"",""1824""
","
","
","""event"",""trial"",""time""
""fullscreenenter"",""1"",""1824""
""fullscreenenter"",""1"",""1824""
","
","","","568.9999999999418","","","12","8858","4196","&#9776;","elianto","#3366ff99"," "," ","1","+10","[1419]","1","0","1","","","","","","","",""
"pit-trial","21","341319","0.0-2.0-8.0-1.0","battery-v0.2","","""event"",""trial"",""time""
""fullscreenenter"",""1"",""1824""
""fullscreenenter"",""1"",""1824""
","
","
","""event"",""trial"",""time""
""fullscreenenter"",""1"",""1824""
""fullscreenenter"",""1"",""1824""
","
","","","906","","","12","8858","4196","&#9776;","elianto","#3366ff99"," "," ","1","+10","[1757]","1","0","1","","","","","","","",""
"pit-trial","22","344802","0.0-2.0-8.0-2.0","battery-v0.2","","""event"",""trial"",""time""
""fullscreenenter"",""1"",""1824""
""fullscreenenter"",""1"",""1824""
","
","
","""event"",""trial"",""time""
""fullscreenenter"",""1"",""1824""
""fullscreenenter"",""1"",""1824""
","
","","","626","","","12","8858","4196","&#9776;","elianto","#3366ff99"," "," ","1","+10","[1477]","1","0","1","","","","","","","",""
"pit-trial","23","348304","0.0-2.0-8.0-3.0","battery-v0.2","","""event"",""trial"",""time""
""fullscreenenter"",""1"",""1824""
""fullscreenenter"",""1"",""1824""
","
","
","""event"",""trial"",""time""
""fullscreenenter"",""1"",""1824""
""fullscreenenter"",""1"",""1824""
","
","","","644","","","12","8858","4196","&#9776;","elianto","#3366ff99"," "," ","1","0","[1495.9999999999418]","1","0","1","","","","","","","",""
"pit-trial","24","351673","0.0-2.0-8.0-4.0","battery-v0.2","","""event"",""trial"",""time""
""fullscreenenter"",""1"",""1824""
""fullscreenenter"",""1"",""1824""
","
","
","""event"",""trial"",""time""
""fullscreenenter"",""1"",""1824""
""fullscreenenter"",""1"",""1824""
","
","","","512","","","12","8858","4196","&#9776;","elianto","#3366ff99"," "," ","1","+10","[1363]","1","0","1","","","","","","","",""
"pit-trial","25","355223","0.0-2.0-8.1-0.1","battery-v0.2","","""event"",""trial"",""time""
""fullscreenenter"",""1"",""1824""
""fullscreenenter"",""1"",""1824""
","
","
","""event"",""trial"",""time""
""fullscreenenter"",""1"",""1824""
""fullscreenenter"",""1"",""1824""
","
","","","692.0000000000582","","","12","8858","4196","&#9776;","elianto","#3366ff99"," "," ","1","+10","[1543.0000000000582]","1","0","1","","","","","","","",""
"pit-trial","26","358504","0.0-2.0-8.1-1.1","battery-v0.2","","""event"",""trial"",""time""
""fullscreenenter"",""1"",""1824""
""fullscreenenter"",""1"",""1824""
","
","
","""event"",""trial"",""time""
""fullscreenenter"",""1"",""1824""
""fullscreenenter"",""1"",""1824""
","
","","","424","","","12","8858","4196","&#9776;","elianto","#3366ff99"," "," ","1","+10","[1274]","1","0","1","","","","","","","",""
"pit-trial","27","361845","0.0-2.0-8.1-2.1","battery-v0.2","","""event"",""trial"",""time""
""fullscreenenter"",""1"",""1824""
""fullscreenenter"",""1"",""1824""
","
","
","""event"",""trial"",""time""
""fullscreenenter"",""1"",""1824""
""fullscreenenter"",""1"",""1824""
","
","","","484.9999999999418","","","12","8858","4196","&#9776;","elianto","#3366ff99"," "," ","1","+10","[1335.9999999999418]","1","0","1","","","","","","","",""
"pit-trial","28","365277","0.0-2.0-8.1-3.1","battery-v0.2","","""event"",""trial"",""time""
""fullscreenenter"",""1"",""1824""
""fullscreenenter"",""1"",""1824""
","
","
","""event"",""trial"",""time""
""fullscreenenter"",""1"",""1824""
""fullscreenenter"",""1"",""1824""
","
","","","574","","","12","8858","4196","&#9776;","elianto","#3366ff99"," "," ","1","0","[1425]","1","0","1","","","","","","","",""
"pit-trial","29","368711","0.0-2.0-8.1-4.1","battery-v0.2","","""event"",""trial"",""time""
""fullscreenenter"",""1"",""1824""
""fullscreenenter"",""1"",""1824""
","
","
","""event"",""trial"",""time""
""fullscreenenter"",""1"",""1824""
""fullscreenenter"",""1"",""1824""
","
","","","576.9999999999418","","","12","8858","4196","&#9776;","elianto","#3366ff99"," "," ","1","+10","[1429]","1","0","1","","","","","","","",""
"pit-trial","30","372484","0.0-2.0-8.2-0.2","battery-v0.2","","""event"",""trial"",""time""
""fullscreenenter"",""1"",""1824""
""fullscreenenter"",""1"",""1824""
","
","
","""event"",""trial"",""time""
""fullscreenenter"",""1"",""1824""
""fullscreenenter"",""1"",""1824""
","
","","","916","","","12","8858","4196","&#9776;","elianto","#3366ff99"," "," ","1","+10","[1766]","1","0","1","","","","","","","",""
"pit-trial","31","375583","0.0-2.0-8.2-1.2","battery-v0.2","","""event"",""trial"",""time""
""fullscreenenter"",""1"",""1824""
""fullscreenenter"",""1"",""1824""
","
","
","""event"",""trial"",""time""
""fullscreenenter"",""1"",""1824""
""fullscreenenter"",""1"",""1824""
","
","","","242","","","12","8858","4196","&#9776;","elianto","#3366ff99"," "," ","1","+10","[1093]","1","0","1","","","","","","","",""
"pit-trial","32","378904","0.0-2.0-8.2-2.2","battery-v0.2","","""event"",""trial"",""time""
""fullscreenenter"",""1"",""1824""
""fullscreenenter"",""1"",""1824""
","
","
","""event"",""trial"",""time""
""fullscreenenter"",""1"",""1824""
""fullscreenenter"",""1"",""1824""
","
","","","464","","","12","8858","4196","&#9776;","elianto","#3366ff99"," "," ","1","+10","[1314]","1","0","1","","","","","","","",""
"pit-trial","33","383354","0.0-2.0-8.2-3.2","battery-v0.2","","""event"",""trial"",""time""
""fullscreenenter"",""1"",""1824""
""fullscreenenter"",""1"",""1824""
","
","
","""event"",""trial"",""time""
""fullscreenenter"",""1"",""1824""
""fullscreenenter"",""1"",""1824""
","
","","","1593","","","12","8858","4196","&#9776;","elianto","#3366ff99"," "," ","1","0","[700,2445]","2","0","1","","","","","","","",""
"pit-trial","34","386442","0.0-2.0-8.2-4.2","battery-v0.2","","""event"",""trial"",""time""
""fullscreenenter"",""1"",""1824""
""fullscreenenter"",""1"",""1824""
","
","
","""event"",""trial"",""time""
""fullscreenenter"",""1"",""1824""
""fullscreenenter"",""1"",""1824""
","
","","","231","","","12","8858","4196","&#9776;","elianto","#3366ff99"," "," ","1","+10","[1081.9999999999418]","1","0","1","","","","","","","",""
"call-function","35","386447","0.0-2.0-9.0","battery-v0.2","","""event"",""trial"",""time""
""fullscreenenter"",""1"",""1824""
""fullscreenenter"",""1"",""1824""
","
","
","""event"",""trial"",""time""
""fullscreenenter"",""1"",""1824""
""fullscreenenter"",""1"",""1824""
","
","","","","","","","","","","","","","","","","","","","","","","","","","","",""
"pit-instructions","36","448632","0.0-2.0-10.0","battery-v0.2","","""event"",""trial"",""time""
""fullscreenenter"",""1"",""1824""
""fullscreenenter"",""1"",""1824""
","
","
","""event"",""trial"",""time""
""fullscreenenter"",""1"",""1824""
""fullscreenenter"",""1"",""1824""
","
","","[{""page_index"":0,""viewing_time"":5849},{""page_index"":1,""viewing_time"":13666},{""page_index"":2,""viewing_time"":19664.00000000006},{""page_index"":3,""viewing_time"":12291.999999999942},{""page_index"":4,""viewing_time"":10713.000000000058}]","62184.00000000006","","","","","","","","","","","","","","","","","","","","","","","",""
"pit-trial","37","453490","0.0-2.0-11.0-0.0","battery-v0.2","","""event"",""trial"",""time""
""fullscreenenter"",""1"",""1824""
""fullscreenenter"",""1"",""1824""
","
","
","""event"",""trial"",""time""
""fullscreenenter"",""1"",""1824""
""fullscreenenter"",""1"",""1824""
","
","","","-1","","","12","8858","4196","&#9761;","elianto","#3366ff99","-1","-1","1","+10","[]","0","0","2","","","","","","","",""
"pit-trial","38","458347","0.0-2.0-11.0-1.0","battery-v0.2","","""event"",""trial"",""time""
""fullscreenenter"",""1"",""1824""
""fullscreenenter"",""1"",""1824""
","
","
","""event"",""trial"",""time""
""fullscreenenter"",""1"",""1824""
""fullscreenenter"",""1"",""1824""
","
","","","-1","","","12","8858","4196","&#9761;","elianto","#3366ff99","-1","-1","1","+10","[]","0","0","2","","","","","","","",""
"pit-trial","39","463205","0.0-2.0-11.0-2.0","battery-v0.2","","""event"",""trial"",""time""
""fullscreenenter"",""1"",""1824""
""fullscreenenter"",""1"",""1824""
","
","
","""event"",""trial"",""time""
""fullscreenenter"",""1"",""1824""
""fullscreenenter"",""1"",""1824""
","
","","","-1","","","12","8858","4196","&#9761;","elianto","#3366ff99","-1","-1","1","+10","[]","0","0","2","","","","","","","",""
"pit-trial","40","468062","0.0-2.0-11.0-3.0","battery-v0.2","","""event"",""trial"",""time""
""fullscreenenter"",""1"",""1824""
""fullscreenenter"",""1"",""1824""
","
","
","""event"",""trial"",""time""
""fullscreenenter"",""1"",""1824""
""fullscreenenter"",""1"",""1824""
","
","","","-1","","","12","8858","4196","&#9761;","elianto","#3366ff99","-1","-1","1","0","[]","0","0","2","","","","","","","",""
"pit-trial","41","472919","0.0-2.0-11.0-4.0","battery-v0.2","","""event"",""trial"",""time""
""fullscreenenter"",""1"",""1824""
""fullscreenenter"",""1"",""1824""
","
","
","""event"",""trial"",""time""
""fullscreenenter"",""1"",""1824""
""fullscreenenter"",""1"",""1824""
","
","","","-1","","","12","8858","4196","&#9761;","elianto","#3366ff99","-1","-1","1","+10","[]","0","0","2","","","","","","","",""
"pit-trial","42","477778","0.0-2.0-11.1-0.1","battery-v0.2","","""event"",""trial"",""time""
""fullscreenenter"",""1"",""1824""
""fullscreenenter"",""1"",""1824""
","
","
","""event"",""trial"",""time""
""fullscreenenter"",""1"",""1824""
""fullscreenenter"",""1"",""1824""
","
","","","-1","","","12","8858","4196","&#9761;","elianto","#3366ff99","-1","-1","1","+10","[]","0","0","2","","","","","","","",""
"pit-trial","43","482635","0.0-2.0-11.1-1.1","battery-v0.2","","""event"",""trial"",""time""
""fullscreenenter"",""1"",""1824""
""fullscreenenter"",""1"",""1824""
","
","
","""event"",""trial"",""time""
""fullscreenenter"",""1"",""1824""
""fullscreenenter"",""1"",""1824""
","
","","","-1","","","12","8858","4196","&#9761;","elianto","#3366ff99","-1","-1","1","+10","[]","0","0","2","","","","","","","",""
"pit-trial","44","487494","0.0-2.0-11.1-2.1","battery-v0.2","","""event"",""trial"",""time""
""fullscreenenter"",""1"",""1824""
""fullscreenenter"",""1"",""1824""
","
","
","""event"",""trial"",""time""
""fullscreenenter"",""1"",""1824""
""fullscreenenter"",""1"",""1824""
","
","","","-1","","","12","8858","4196","&#9761;","elianto","#3366ff99","-1","-1","1","+10","[]","0","0","2","","","","","","","",""
"pit-trial","45","492352","0.0-2.0-11.1-3.1","battery-v0.2","","""event"",""trial"",""time""
""fullscreenenter"",""1"",""1824""
""fullscreenenter"",""1"",""1824""
","
","
","""event"",""trial"",""time""
""fullscreenenter"",""1"",""1824""
""fullscreenenter"",""1"",""1824""
","
","","","-1","","","12","8858","4196","&#9761;","elianto","#3366ff99","-1","-1","1","0","[]","0","0","2","","","","","","","",""
"pit-trial","46","497210","0.0-2.0-11.1-4.1","battery-v0.2","","""event"",""trial"",""time""
""fullscreenenter"",""1"",""1824""
""fullscreenenter"",""1"",""1824""
","
","
","""event"",""trial"",""time""
""fullscreenenter"",""1"",""1824""
""fullscreenenter"",""1"",""1824""
","
","","","-1","","","12","8858","4196","&#9761;","elianto","#3366ff99","-1","-1","1","+10","[]","0","0","2","","","","","","","",""
"pit-trial","47","502068","0.0-2.0-11.2-0.2","battery-v0.2","","""event"",""trial"",""time""
""fullscreenenter"",""1"",""1824""
""fullscreenenter"",""1"",""1824""
","
","
","""event"",""trial"",""time""
""fullscreenenter"",""1"",""1824""
""fullscreenenter"",""1"",""1824""
","
","","","-1","","","12","8858","4196","&#9761;","elianto","#3366ff99","-1","-1","1","+10","[]","0","0","2","","","","","","","",""
"pit-trial","48","506925","0.0-2.0-11.2-1.2","battery-v0.2","","""event"",""trial"",""time""
""fullscreenenter"",""1"",""1824""
""fullscreenenter"",""1"",""1824""
","
","
","""event"",""trial"",""time""
""fullscreenenter"",""1"",""1824""
""fullscreenenter"",""1"",""1824""
","
","","","-1","","","12","8858","4196","&#9761;","elianto","#3366ff99","-1","-1","1","+10","[]","0","0","2","","","","","","","",""
"pit-trial","49","511781","0.0-2.0-11.2-2.2","battery-v0.2","","""event"",""trial"",""time""
""fullscreenenter"",""1"",""1824""
""fullscreenenter"",""1"",""1824""
","
","
","""event"",""trial"",""time""
""fullscreenenter"",""1"",""1824""
""fullscreenenter"",""1"",""1824""
","
","","","-1","","","12","8858","4196","&#9761;","elianto","#3366ff99","-1","-1","1","+10","[]","0","0","2","","","","","","","",""
"pit-trial","50","516640","0.0-2.0-11.2-3.2","battery-v0.2","","""event"",""trial"",""time""
""fullscreenenter"",""1"",""1824""
""fullscreenenter"",""1"",""1824""
","
","
","""event"",""trial"",""time""
""fullscreenenter"",""1"",""1824""
""fullscreenenter"",""1"",""1824""
","
","","","-1","","","12","8858","4196","&#9761;","elianto","#3366ff99","-1","-1","1","0","[]","0","0","2","","","","","","","",""
"pit-trial","51","521497","0.0-2.0-11.2-4.2","battery-v0.2","","""event"",""trial"",""time""
""fullscreenenter"",""1"",""1824""
""fullscreenenter"",""1"",""1824""
","
","
","""event"",""trial"",""time""
""fullscreenenter"",""1"",""1824""
""fullscreenenter"",""1"",""1824""
","
","","","-1","","","12","8858","4196","&#9761;","elianto","#3366ff99","-1","-1","1","+10","[]","0","0","2","","","","","","","",""
"pit-trial","52","526354","0.0-2.0-11.3-0.3","battery-v0.2","","""event"",""trial"",""time""
""fullscreenenter"",""1"",""1824""
""fullscreenenter"",""1"",""1824""
","
","
","""event"",""trial"",""time""
""fullscreenenter"",""1"",""1824""
""fullscreenenter"",""1"",""1824""
","
","","","-1","","","12","8858","4196","&#9761;","elianto","#3366ff99","-1","-1","1","+10","[]","0","0","2","","","","","","","",""
"pit-trial","53","531211","0.0-2.0-11.3-1.3","battery-v0.2","","""event"",""trial"",""time""
""fullscreenenter"",""1"",""1824""
""fullscreenenter"",""1"",""1824""
","
","
","""event"",""trial"",""time""
""fullscreenenter"",""1"",""1824""
""fullscreenenter"",""1"",""1824""
","
","","","-1","","","12","8858","4196","&#9761;","elianto","#3366ff99","-1","-1","1","+10","[]","0","0","2","","","","","","","",""
"pit-trial","54","536068","0.0-2.0-11.3-2.3","battery-v0.2","","""event"",""trial"",""time""
""fullscreenenter"",""1"",""1824""
""fullscreenenter"",""1"",""1824""
","
","
","""event"",""trial"",""time""
""fullscreenenter"",""1"",""1824""
""fullscreenenter"",""1"",""1824""
","
","","","-1","","","12","8858","4196","&#9761;","elianto","#3366ff99","-1","-1","1","+10","[]","0","0","2","","","","","","","",""
"pit-trial","55","540926","0.0-2.0-11.3-3.3","battery-v0.2","","""event"",""trial"",""time""
""fullscreenenter"",""1"",""1824""
""fullscreenenter"",""1"",""1824""
","
","
","""event"",""trial"",""time""
""fullscreenenter"",""1"",""1824""
""fullscreenenter"",""1"",""1824""
","
","","","-1","","","12","8858","4196","&#9761;","elianto","#3366ff99","-1","-1","1","0","[]","0","0","2","","","","","","","",""
"pit-trial","56","545782","0.0-2.0-11.3-4.3","battery-v0.2","","""event"",""trial"",""time""
""fullscreenenter"",""1"",""1824""
""fullscreenenter"",""1"",""1824""
","
","
","""event"",""trial"",""time""
""fullscreenenter"",""1"",""1824""
""fullscreenenter"",""1"",""1824""
","
","","","-1","","","12","8858","4196","&#9761;","elianto","#3366ff99","-1","-1","1","+10","[]","0","0","2","","","","","","","",""
"call-function","57","545786","0.0-2.0-12.0","battery-v0.2","","""event"",""trial"",""time""
""fullscreenenter"",""1"",""1824""
""fullscreenenter"",""1"",""1824""
","
","
","""event"",""trial"",""time""
""fullscreenenter"",""1"",""1824""
""fullscreenenter"",""1"",""1824""
","
","","","","","","","","","","","","","","","","","","","","","","","","","","",""
"pit-instructions","58","586219","0.0-2.0-13.0","battery-v0.2","","""event"",""trial"",""time""
""fullscreenenter"",""1"",""1824""
""fullscreenenter"",""1"",""1824""
","
","
","""event"",""trial"",""time""
""fullscreenenter"",""1"",""1824""
""fullscreenenter"",""1"",""1824""
","
","","[{""page_index"":0,""viewing_time"":8126},{""page_index"":1,""viewing_time"":10768},{""page_index"":2,""viewing_time"":4001},{""page_index"":3,""viewing_time"":12318.000000000116},{""page_index"":4,""viewing_time"":5218.999999999884}]","40432","","","","","","","","","","","","","","","","","","","","","","","",""
"pit-trial","59","591077","0.0-2.0-14.0-0.0","battery-v0.2","","""event"",""trial"",""time""
""fullscreenenter"",""1"",""1824""
""fullscreenenter"",""1"",""1824""
","
","
","""event"",""trial"",""time""
""fullscreenenter"",""1"",""1824""
""fullscreenenter"",""1"",""1824""
","
","","","-1","","","12","8858","4196","&#9826;","elianto","#f73b6a7A","-1","-1","1","0","[]","0","0","3","","","","","","","",""
"pit-trial","60","595935","0.0-2.0-14.0-1.0","battery-v0.2","","""event"",""trial"",""time""
""fullscreenenter"",""1"",""1824""
""fullscreenenter"",""1"",""1824""
","
","
","""event"",""trial"",""time""
""fullscreenenter"",""1"",""1824""
""fullscreenenter"",""1"",""1824""
","
","","","-1","","","12","8858","4196","&#9826;","elianto","#f73b6a7A","-1","-1","1","0","[]","0","0","3","","","","","","","",""
"pit-trial","61","600791","0.0-2.0-14.0-2.0","battery-v0.2","","""event"",""trial"",""time""
""fullscreenenter"",""1"",""1824""
""fullscreenenter"",""1"",""1824""
","
","
","""event"",""trial"",""time""
""fullscreenenter"",""1"",""1824""
""fullscreenenter"",""1"",""1824""
","
","","","-1","","","12","8858","4196","&#9826;","elianto","#f73b6a7A","-1","-1","1","0","[]","0","0","3","","","","","","","",""
"pit-trial","62","605649","0.0-2.0-14.0-3.0","battery-v0.2","","""event"",""trial"",""time""
""fullscreenenter"",""1"",""1824""
""fullscreenenter"",""1"",""1824""
","
","
","""event"",""trial"",""time""
""fullscreenenter"",""1"",""1824""
""fullscreenenter"",""1"",""1824""
","
","","","-1","","","12","8858","4196","&#9826;","elianto","#f73b6a7A","-1","-1","1","-10","[]","0","0","3","","","","","","","",""
"pit-trial","63","610506","0.0-2.0-14.0-4.0","battery-v0.2","","""event"",""trial"",""time""
""fullscreenenter"",""1"",""1824""
""fullscreenenter"",""1"",""1824""
","
","
","""event"",""trial"",""time""
""fullscreenenter"",""1"",""1824""
""fullscreenenter"",""1"",""1824""
","
","","","-1","","","12","8858","4196","&#9826;","elianto","#f73b6a7A","-1","-1","1","0","[]","0","0","3","","","","","","","",""
"pit-trial","64","615365","0.0-2.0-14.1-0.1","battery-v0.2","","""event"",""trial"",""time""
""fullscreenenter"",""1"",""1824""
""fullscreenenter"",""1"",""1824""
","
","
","""event"",""trial"",""time""
""fullscreenenter"",""1"",""1824""
""fullscreenenter"",""1"",""1824""
","
","","","-1","","","12","8858","4196","&#9826;","elianto","#f73b6a7A","-1","-1","1","0","[]","0","0","3","","","","","","","",""
"pit-trial","65","620232","0.0-2.0-14.1-1.1","battery-v0.2","","""event"",""trial"",""time""
""fullscreenenter"",""1"",""1824""
""fullscreenenter"",""1"",""1824""
","
","
","""event"",""trial"",""time""
""fullscreenenter"",""1"",""1824""
""fullscreenenter"",""1"",""1824""
","
","","","-1","","","12","8858","4196","&#9826;","elianto","#f73b6a7A","-1","-1","1","0","[]","0","0","3","","","","","","","",""
"pit-trial","66","625096","0.0-2.0-14.1-2.1","battery-v0.2","","""event"",""trial"",""time""
""fullscreenenter"",""1"",""1824""
""fullscreenenter"",""1"",""1824""
","
","
","""event"",""trial"",""time""
""fullscreenenter"",""1"",""1824""
""fullscreenenter"",""1"",""1824""
","
","","","-1","","","12","8858","4196","&#9826;","elianto","#f73b6a7A","-1","-1","1","0","[]","0","0","3","","","","","","","",""
"pit-trial","67","629961","0.0-2.0-14.1-3.1","battery-v0.2","","""event"",""trial"",""time""
""fullscreenenter"",""1"",""1824""
""fullscreenenter"",""1"",""1824""
","
","
","""event"",""trial"",""time""
""fullscreenenter"",""1"",""1824""
""fullscreenenter"",""1"",""1824""
","
","","","-1","","","12","8858","4196","&#9826;","elianto","#f73b6a7A","-1","-1","1","-10","[]","0","0","3","","","","","","","",""
"pit-trial","68","634823","0.0-2.0-14.1-4.1","battery-v0.2","","""event"",""trial"",""time""
""fullscreenenter"",""1"",""1824""
""fullscreenenter"",""1"",""1824""
","
","
","""event"",""trial"",""time""
""fullscreenenter"",""1"",""1824""
""fullscreenenter"",""1"",""1824""
","
","","","-1","","","12","8858","4196","&#9826;","elianto","#f73b6a7A","-1","-1","1","0","[]","0","0","3","","","","","","","",""
"pit-trial","69","639683","0.0-2.0-14.2-0.2","battery-v0.2","","""event"",""trial"",""time""
""fullscreenenter"",""1"",""1824""
""fullscreenenter"",""1"",""1824""
","
","
","""event"",""trial"",""time""
""fullscreenenter"",""1"",""1824""
""fullscreenenter"",""1"",""1824""
","
","","","-1","","","12","8858","4196","&#9826;","elianto","#f73b6a7A","-1","-1","1","0","[]","0","0","3","","","","","","","",""
"pit-trial","70","644541","0.0-2.0-14.2-1.2","battery-v0.2","","""event"",""trial"",""time""
""fullscreenenter"",""1"",""1824""
""fullscreenenter"",""1"",""1824""
","
","
","""event"",""trial"",""time""
""fullscreenenter"",""1"",""1824""
""fullscreenenter"",""1"",""1824""
","
","","","-1","","","12","8858","4196","&#9826;","elianto","#f73b6a7A","-1","-1","1","0","[]","0","0","3","","","","","","","",""
"pit-trial","71","649399","0.0-2.0-14.2-2.2","battery-v0.2","","""event"",""trial"",""time""
""fullscreenenter"",""1"",""1824""
""fullscreenenter"",""1"",""1824""
","
","
","""event"",""trial"",""time""
""fullscreenenter"",""1"",""1824""
""fullscreenenter"",""1"",""1824""
","
","","","-1","","","12","8858","4196","&#9826;","elianto","#f73b6a7A","-1","-1","1","0","[]","0","0","3","","","","","","","",""
"pit-trial","72","654257","0.0-2.0-14.2-3.2","battery-v0.2","","""event"",""trial"",""time""
""fullscreenenter"",""1"",""1824""
""fullscreenenter"",""1"",""1824""
","
","
","""event"",""trial"",""time""
""fullscreenenter"",""1"",""1824""
""fullscreenenter"",""1"",""1824""
","
","","","-1","","","12","8858","4196","&#9826;","elianto","#f73b6a7A","-1","-1","1","-10","[]","0","0","3","","","","","","","",""
"pit-trial","73","659114","0.0-2.0-14.2-4.2","battery-v0.2","","""event"",""trial"",""time""
""fullscreenenter"",""1"",""1824""
""fullscreenenter"",""1"",""1824""
","
","
","""event"",""trial"",""time""
""fullscreenenter"",""1"",""1824""
""fullscreenenter"",""1"",""1824""
","
","","","-1","","","12","8858","4196","&#9826;","elianto","#f73b6a7A","-1","-1","1","0","[]","0","0","3","","","","","","","",""
"pit-trial","74","663972","0.0-2.0-14.3-0.3","battery-v0.2","","""event"",""trial"",""time""
""fullscreenenter"",""1"",""1824""
""fullscreenenter"",""1"",""1824""
","
","
","""event"",""trial"",""time""
""fullscreenenter"",""1"",""1824""
""fullscreenenter"",""1"",""1824""
","
","","","-1","","","12","8858","4196","&#9826;","elianto","#f73b6a7A","-1","-1","1","0","[]","0","0","3","","","","","","","",""
"pit-trial","75","668831","0.0-2.0-14.3-1.3","battery-v0.2","","""event"",""trial"",""time""
""fullscreenenter"",""1"",""1824""
""fullscreenenter"",""1"",""1824""
","
","
","""event"",""trial"",""time""
""fullscreenenter"",""1"",""1824""
""fullscreenenter"",""1"",""1824""
","
","","","-1","","","12","8858","4196","&#9826;","elianto","#f73b6a7A","-1","-1","1","0","[]","0","0","3","","","","","","","",""
"pit-trial","76","673687","0.0-2.0-14.3-2.3","battery-v0.2","","""event"",""trial"",""time""
""fullscreenenter"",""1"",""1824""
""fullscreenenter"",""1"",""1824""
","
","
","""event"",""trial"",""time""
""fullscreenenter"",""1"",""1824""
""fullscreenenter"",""1"",""1824""
","
","","","-1","","","12","8858","4196","&#9826;","elianto","#f73b6a7A","-1","-1","1","0","[]","0","0","3","","","","","","","",""
"pit-trial","77","678545","0.0-2.0-14.3-3.3","battery-v0.2","","""event"",""trial"",""time""
""fullscreenenter"",""1"",""1824""
""fullscreenenter"",""1"",""1824""
","
","
","""event"",""trial"",""time""
""fullscreenenter"",""1"",""1824""
""fullscreenenter"",""1"",""1824""
","
","","","-1","","","12","8858","4196","&#9826;","elianto","#f73b6a7A","-1","-1","1","-10","[]","0","0","3","","","","","","","",""
"pit-trial","78","683403","0.0-2.0-14.3-4.3","battery-v0.2","","""event"",""trial"",""time""
""fullscreenenter"",""1"",""1824""
""fullscreenenter"",""1"",""1824""
","
","
","""event"",""trial"",""time""
""fullscreenenter"",""1"",""1824""
""fullscreenenter"",""1"",""1824""
","
","","","-1","","","12","8858","4196","&#9826;","elianto","#f73b6a7A","-1","-1","1","0","[]","0","0","3","","","","","","","",""
"call-function","79","683406","0.0-2.0-15.0","battery-v0.2","","""event"",""trial"",""time""
""fullscreenenter"",""1"",""1824""
""fullscreenenter"",""1"",""1824""
","
","
","""event"",""trial"",""time""
""fullscreenenter"",""1"",""1824""
""fullscreenenter"",""1"",""1824""
","
","","","","","","","","","","","","","","","","","","","","","","","","","","",""
"pit-instructions","80","720914","0.0-2.0-16.0","battery-v0.2","","""event"",""trial"",""time""
""fullscreenenter"",""1"",""1824""
""fullscreenenter"",""1"",""1824""
","
","
","""event"",""trial"",""time""
""fullscreenenter"",""1"",""1824""
""fullscreenenter"",""1"",""1824""
","
","","[{""page_index"":0,""viewing_time"":10433.999999999884},{""page_index"":1,""viewing_time"":10678},{""page_index"":2,""viewing_time"":5033},{""page_index"":3,""viewing_time"":11359}]","37505","","","","","","","","","","","","","","","","","","","","","","","",""
"pit-trial","81","724790","0.0-2.0-17.0-0.0","battery-v0.2","","""event"",""trial"",""time""
""fullscreenenter"",""1"",""1824""
""fullscreenenter"",""1"",""1824""
","
","
","""event"",""trial"",""time""
""fullscreenenter"",""1"",""1824""
""fullscreenenter"",""1"",""1824""
","
","","","1020","","","12","8858","4196","&#9789;","elianto","#f73b6a7A"," "," ","1","0","[1870]","1","0","4","","","","","","","",""
"pit-trial","82","727773","0.0-2.0-17.0-1.0","battery-v0.2","","""event"",""trial"",""time""
""fullscreenenter"",""1"",""1824""
""fullscreenenter"",""1"",""1824""
","
","
","""event"",""trial"",""time""
""fullscreenenter"",""1"",""1824""
""fullscreenenter"",""1"",""1824""
","
","","","127","","","12","8858","4196","&#9789;","elianto","#f73b6a7A"," "," ","1","0","[630,816,978]","3","0","4","","","","","","","",""
"pit-trial","83","730882","0.0-2.0-17.0-2.0","battery-v0.2","","""event"",""trial"",""time""
""fullscreenenter"",""1"",""1824""
""fullscreenenter"",""1"",""1824""
","
","
","""event"",""trial"",""time""
""fullscreenenter"",""1"",""1824""
""fullscreenenter"",""1"",""1824""
","
","","","254.00000000011642","","","12","8858","4196","&#9789;","elianto","#f73b6a7A"," "," ","1","0","[1104.0000000001164]","1","0","4","","","","","","","",""
"pit-trial","84","734472","0.0-2.0-17.0-3.0","battery-v0.2","","""event"",""trial"",""time""
""fullscreenenter"",""1"",""1824""
""fullscreenenter"",""1"",""1824""
","
","
","""event"",""trial"",""time""
""fullscreenenter"",""1"",""1824""
""fullscreenenter"",""1"",""1824""
","
","","","730","","","12","8858","4196","&#9789;","elianto","#f73b6a7A"," "," ","1","-10","[739,1581,3411]","3","0","4","","","","","","","",""
"pit-trial","85","738183","0.0-2.0-17.0-4.0","battery-v0.2","","""event"",""trial"",""time""
""fullscreenenter"",""1"",""1824""
""fullscreenenter"",""1"",""1824""
","
","
","""event"",""trial"",""time""
""fullscreenenter"",""1"",""1824""
""fullscreenenter"",""1"",""1824""
","
","","","853.9999999998836","","","12","8858","4196","&#9789;","elianto","#f73b6a7A"," "," ","1","0","[1704.9999999998836]","1","0","4","","","","","","","",""
"pit-trial","86","741964","0.0-2.0-17.1-0.1","battery-v0.2","","""event"",""trial"",""time""
""fullscreenenter"",""1"",""1824""
""fullscreenenter"",""1"",""1824""
","
","
","""event"",""trial"",""time""
""fullscreenenter"",""1"",""1824""
""fullscreenenter"",""1"",""1824""
","
","","","925.0000000001164","","","12","8858","4196","&#9789;","elianto","#f73b6a7A"," "," ","1","0","[151,1775.0000000001164]","2","0","4","","","","","","","",""
"pit-trial","87","746822","0.0-2.0-17.1-1.1","battery-v0.2","","""event"",""trial"",""time""
""fullscreenenter"",""1"",""1824""
""fullscreenenter"",""1"",""1824""
","
","
","""event"",""trial"",""time""
""fullscreenenter"",""1"",""1824""
""fullscreenenter"",""1"",""1824""
","
","","","-1","","","12","8858","4196","&#9789;","elianto","#f73b6a7A"," ","-1","0","-10","[]","0","0","4","","","","","","","",""
"pit-trial","88","750843","0.0-2.0-17.1-2.1","battery-v0.2","","""event"",""trial"",""time""
""fullscreenenter"",""1"",""1824""
""fullscreenenter"",""1"",""1824""
","
","
","""event"",""trial"",""time""
""fullscreenenter"",""1"",""1824""
""fullscreenenter"",""1"",""1824""
","
","","","1163","","","12","8858","4196","&#9789;","elianto","#f73b6a7A"," "," ","1","0","[2014,2192]","2","0","4","","","","","","","",""
"pit-trial","89","755064","0.0-2.0-17.1-3.1","battery-v0.2","","""event"",""trial"",""time""
""fullscreenenter"",""1"",""1824""
""fullscreenenter"",""1"",""1824""
","
","
","""event"",""trial"",""time""
""fullscreenenter"",""1"",""1824""
""fullscreenenter"",""1"",""1824""
","
","","","1363","","","12","8858","4196","&#9789;","elianto","#f73b6a7A"," "," ","1","-10","[2214]","1","0","4","","","","","","","",""
"pit-trial","90","759544","0.0-2.0-17.1-4.1","battery-v0.2","","""event"",""trial"",""time""
""fullscreenenter"",""1"",""1824""
""fullscreenenter"",""1"",""1824""
","
","
","""event"",""trial"",""time""
""fullscreenenter"",""1"",""1824""
""fullscreenenter"",""1"",""1824""
","
","","","1623","","","12","8858","4196","&#9789;","elianto","#f73b6a7A"," "," ","1","0","[2473,2641]","2","0","4","","","","","","","",""
"pit-trial","91","764216","0.0-2.0-17.2-0.2","battery-v0.2","","""event"",""trial"",""time""
""fullscreenenter"",""1"",""1824""
""fullscreenenter"",""1"",""1824""
","
","
","""event"",""trial"",""time""
""fullscreenenter"",""1"",""1824""
""fullscreenenter"",""1"",""1824""
","
","","","1814","","","12","8858","4196","&#9789;","elianto","#f73b6a7A"," "," ","1","0","[2665]","1","0","4","","","","","","","",""
"pit-trial","92","769073","0.0-2.0-17.2-1.2","battery-v0.2","","""event"",""trial"",""time""
""fullscreenenter"",""1"",""1824""
""fullscreenenter"",""1"",""1824""
","
","
","""event"",""trial"",""time""
""fullscreenenter"",""1"",""1824""
""fullscreenenter"",""1"",""1824""
","
","","","-1","","","12","8858","4196","&#9789;","elianto","#f73b6a7A"," ","-1","0","-10","[]","0","0","4","","","","","","","",""
"pit-trial","93","773931","0.0-2.0-17.2-2.2","battery-v0.2","","""event"",""trial"",""time""
""fullscreenenter"",""1"",""1824""
""fullscreenenter"",""1"",""1824""
","
","
","""event"",""trial"",""time""
""fullscreenenter"",""1"",""1824""
""fullscreenenter"",""1"",""1824""
","
","","","-1","","","12","8858","4196","&#9789;","elianto","#f73b6a7A"," ","-1","0","-10","[4432]","1","0","4","","","","","","","",""
"pit-trial","94","777724","0.0-2.0-17.2-3.2","battery-v0.2","","""event"",""trial"",""time""
""fullscreenenter"",""1"",""1824""
""fullscreenenter"",""1"",""1824""
","
","
","""event"",""trial"",""time""
""fullscreenenter"",""1"",""1824""
""fullscreenenter"",""1"",""1824""
","
","","","935.9999999998836","","","12","8858","4196","&#9789;","elianto","#f73b6a7A"," "," ","1","-10","[1786,2015]","2","0","4","","","","","","","",""
"pit-trial","95","780731","0.0-2.0-17.2-4.2","battery-v0.2","","""event"",""trial"",""time""
""fullscreenenter"",""1"",""1824""
""fullscreenenter"",""1"",""1824""
","
","
","""event"",""trial"",""time""
""fullscreenenter"",""1"",""1824""
""fullscreenenter"",""1"",""1824""
","
","","","149.99999999988358","","","12","8858","4196","&#9789;","elianto","#f73b6a7A"," "," ","1","0","[1000.9999999998836,1111,1309.9999999998836]","3","0","4","","","","","","","",""
"pit-trial","96","785588","0.0-2.0-17.3-0.3","battery-v0.2","","""event"",""trial"",""time""
""fullscreenenter"",""1"",""1824""
""fullscreenenter"",""1"",""1824""
","
","
","""event"",""trial"",""time""
""fullscreenenter"",""1"",""1824""
""fullscreenenter"",""1"",""1824""
","
","","","-1","","","12","8858","4196","&#9789;","elianto","#f73b6a7A"," ","-1","0","-10","[]","0","0","4","","","","","","","",""
"pit-trial","97","790445","0.0-2.0-17.3-1.3","battery-v0.2","","""event"",""trial"",""time""
""fullscreenenter"",""1"",""1824""
""fullscreenenter"",""1"",""1824""
","
","
","""event"",""trial"",""time""
""fullscreenenter"",""1"",""1824""
""fullscreenenter"",""1"",""1824""
","
","","","-1","","","12","8858","4196","&#9789;","elianto","#f73b6a7A"," ","-1","0","-10","[2939.0000000001164,3450,3610,3789,4115,4308,4517,4700]","8","0","4","","","","","","","",""
"pit-trial","98","793337","0.0-2.0-17.3-2.3","battery-v0.2","","""event"",""trial"",""time""
""fullscreenenter"",""1"",""1824""
""fullscreenenter"",""1"",""1824""
","
","
","""event"",""trial"",""time""
""fullscreenenter"",""1"",""1824""
""fullscreenenter"",""1"",""1824""
","
","","","35","","","12","8858","4196","&#9789;","elianto","#f73b6a7A"," "," ","1","0","[18,204,356.0000000001164,544,886,1083,1249,1436]","8","0","4","","","","","","","",""
"pit-trial","99","796273","0.0-2.0-17.3-3.3","battery-v0.2","","""event"",""trial"",""time""
""fullscreenenter"",""1"",""1824""
""fullscreenenter"",""1"",""1824""
","
","
","""event"",""trial"",""time""
""fullscreenenter"",""1"",""1824""
""fullscreenenter"",""1"",""1824""
","
","","","78","","","12","8858","4196","&#9789;","elianto","#f73b6a7A"," "," ","1","-10","[929]","1","0","4","","","","","","","",""
"pit-trial","100","799651","0.0-2.0-17.3-4.3","battery-v0.2","","""event"",""trial"",""time""
""fullscreenenter"",""1"",""1824""
""fullscreenenter"",""1"",""1824""
","
","
","""event"",""trial"",""time""
""fullscreenenter"",""1"",""1824""
""fullscreenenter"",""1"",""1824""
","
","","","521","","","12","8858","4196","&#9789;","elianto","#f73b6a7A"," "," ","1","0","[1372,1541]","2","0","4","","","","","","","",""
"call-function","101","799656","0.0-2.0-18.0","battery-v0.2","","""event"",""trial"",""time""
""fullscreenenter"",""1"",""1824""
""fullscreenenter"",""1"",""1824""
","
","
","""event"",""trial"",""time""
""fullscreenenter"",""1"",""1824""
""fullscreenenter"",""1"",""1824""
","
","","","","","","","","","","","","","","","","","","","","","","","","","","",""
"pit-instructions","102","912900","0.0-2.0-19.0","battery-v0.2","","""event"",""trial"",""time""
""fullscreenenter"",""1"",""1824""
""fullscreenenter"",""1"",""1824""
","
","
","""event"",""trial"",""time""
""fullscreenenter"",""1"",""1824""
""fullscreenenter"",""1"",""1824""
","
","","[{""page_index"":0,""viewing_time"":7457},{""page_index"":1,""viewing_time"":12144},{""page_index"":2,""viewing_time"":35415.99999999988},{""page_index"":3,""viewing_time"":9141},{""page_index"":4,""viewing_time"":10881},{""page_index"":5,""viewing_time"":9077},{""page_index"":6,""viewing_time"":17254.000000000116},{""page_index"":7,""viewing_time"":7490.999999999884},{""page_index"":8,""viewing_time"":4378}]","113239.99999999988","","","","","","","","","","","","","","","","","","","","","","","",""
"pit-comprehension","103","920615","0.0-2.0-20.0-0.0","battery-v0.2","","""event"",""trial"",""time""
""fullscreenenter"",""1"",""1824""
""fullscreenenter"",""1"",""1824""
","
","
","""event"",""trial"",""time""
""fullscreenenter"",""1"",""1824""
""fullscreenenter"",""1"",""1824""
","
","","","7708","[""SPACE""]","0","12","8858","4196","","","","","","","","","","","","","","","","","","",""
"pit-instructions","104","923591","0.0-2.0-20.0-1.0","battery-v0.2","","""event"",""trial"",""time""
""fullscreenenter"",""1"",""1824""
""fullscreenenter"",""1"",""1824""
","
","
","""event"",""trial"",""time""
""fullscreenenter"",""1"",""1824""
""fullscreenenter"",""1"",""1824""
","
","","[{""page_index"":0,""viewing_time"":2947}]","2947","","","","","","","","","","","","","","","","","","","","","","","",""
"pit-comprehension","105","929529","0.0-2.0-21.0-0.0","battery-v0.2","","""event"",""trial"",""time""
""fullscreenenter"",""1"",""1824""
""fullscreenenter"",""1"",""1824""
","
","
","""event"",""trial"",""time""
""fullscreenenter"",""1"",""1824""
""fullscreenenter"",""1"",""1824""
","
","","","5932","[""10""]","0","12","8858","4196","","","","","","","","","","","","","","","","","","",""
"pit-instructions","106","932006","0.0-2.0-21.0-1.0","battery-v0.2","","""event"",""trial"",""time""
""fullscreenenter"",""1"",""1824""
""fullscreenenter"",""1"",""1824""
","
","
","""event"",""trial"",""time""
""fullscreenenter"",""1"",""1824""
""fullscreenenter"",""1"",""1824""
","
","","[{""page_index"":0,""viewing_time"":2445}]","2446.0000000001164","","","","","","","","","","","","","","","","","","","","","","","",""
"pit-comprehension","107","938929","0.0-2.0-22.0-0.0","battery-v0.2","","""event"",""trial"",""time""
""fullscreenenter"",""1"",""1824""
""fullscreenenter"",""1"",""1824""
","
","
","""event"",""trial"",""time""
""fullscreenenter"",""1"",""1824""
""fullscreenenter"",""1"",""1824""
","
","","","6916.999999999884","[""0""]","0","12","8858","4196","","","","","","","","","","","","","","","","","","",""
"pit-instructions","108","943596","0.0-2.0-22.0-1.0","battery-v0.2","","""event"",""trial"",""time""
""fullscreenenter"",""1"",""1824""
""fullscreenenter"",""1"",""1824""
","
","
","""event"",""trial"",""time""
""fullscreenenter"",""1"",""1824""
""fullscreenenter"",""1"",""1824""
","
","","[{""page_index"":0,""viewing_time"":4634}]","4634","","","","","","","","","","","","","","","","","","","","","","","",""
"pit-comprehension","109","959074","0.0-2.0-23.0-0.0","battery-v0.2","","""event"",""trial"",""time""
""fullscreenenter"",""1"",""1824""
""fullscreenenter"",""1"",""1824""
","
","
","""event"",""trial"",""time""
""fullscreenenter"",""1"",""1824""
""fullscreenenter"",""1"",""1824""
","
","","","15469.999999999884","[""True""]","0","12","8858","4196","","","","","","","","","","","","","","","","","","",""
"pit-instructions","110","962570","0.0-2.0-23.0-1.0","battery-v0.2","","""event"",""trial"",""time""
""fullscreenenter"",""1"",""1824""
""fullscreenenter"",""1"",""1824""
","
","
","""event"",""trial"",""time""
""fullscreenenter"",""1"",""1824""
""fullscreenenter"",""1"",""1824""
","
","","[{""page_index"":0,""viewing_time"":3460}]","3460","","","","","","","","","","","","","","","","","","","","","","","",""
"pit-comprehension","111","973470","0.0-2.0-24.0-0.0","battery-v0.2","","""event"",""trial"",""time""
""fullscreenenter"",""1"",""1824""
""fullscreenenter"",""1"",""1824""
","
","
","""event"",""trial"",""time""
""fullscreenenter"",""1"",""1824""
""fullscreenenter"",""1"",""1824""
","
","","","10892","[""True""]","0","12","8858","4196","","","","","","","","","","","","","","","","","","",""
"pit-instructions","112","976140","0.0-2.0-24.0-1.0","battery-v0.2","","""event"",""trial"",""time""
""fullscreenenter"",""1"",""1824""
""fullscreenenter"",""1"",""1824""
","
","
","""event"",""trial"",""time""
""fullscreenenter"",""1"",""1824""
""fullscreenenter"",""1"",""1824""
","
","","[{""page_index"":0,""viewing_time"":2636}]","2636","","","","","","","","","","","","","","","","","","","","","","","",""
"pit-comprehension","113","989648","0.0-2.0-25.0-0.0","battery-v0.2","","""event"",""trial"",""time""
""fullscreenenter"",""1"",""1824""
""fullscreenenter"",""1"",""1824""
","
","
","""event"",""trial"",""time""
""fullscreenenter"",""1"",""1824""
""fullscreenenter"",""1"",""1824""
","
","","","13501","[""False""]","1","12","8858","4196","","","","","","","","","","","","","","","","","","",""
"pit-instructions","114","994446","0.0-2.0-25.0-1.0","battery-v0.2","","""event"",""trial"",""time""
""fullscreenenter"",""1"",""1824""
""fullscreenenter"",""1"",""1824""
","
","
","""event"",""trial"",""time""
""fullscreenenter"",""1"",""1824""
""fullscreenenter"",""1"",""1824""
","
","","[{""page_index"":0,""viewing_time"":4766}]","4767.000000000116","","","","","","","","","","","","","","","","","","","","","","","",""
"pit-instructions","115","994682","0.0-2.0-25.0-2.0-0.0","battery-v0.2","","""event"",""trial"",""time""
""fullscreenenter"",""1"",""1824""
""fullscreenenter"",""1"",""1824""
","
","
","""event"",""trial"",""time""
""fullscreenenter"",""1"",""1824""
""fullscreenenter"",""1"",""1824""
","
","","[{""page_index"":0,""viewing_time"":230.00000000011642}]","230.00000000011642","","","","","","","","","","","","","","","","","","","","","","","",""
"pit-comprehension","116","1001004","0.0-2.0-25.1-0.1","battery-v0.2","","""event"",""trial"",""time""
""fullscreenenter"",""1"",""1824""
""fullscreenenter"",""1"",""1824""
","
","
","""event"",""trial"",""time""
""fullscreenenter"",""1"",""1824""
""fullscreenenter"",""1"",""1824""
","
","","","6315.000000000116","[""True""]","0","12","8858","4196","","","","","","","","","","","","","","","","","","",""
"pit-instructions","117","1005218","0.0-2.0-25.1-1.1","battery-v0.2","","""event"",""trial"",""time""
""fullscreenenter"",""1"",""1824""
""fullscreenenter"",""1"",""1824""
","
","
","""event"",""trial"",""time""
""fullscreenenter"",""1"",""1824""
""fullscreenenter"",""1"",""1824""
","
","","[{""page_index"":0,""viewing_time"":4179}]","4179","","","","","","","","","","","","","","","","","","","","","","","",""
"pit-comprehension","118","1014057","0.0-2.0-26.0-0.0","battery-v0.2","","""event"",""trial"",""time""
""fullscreenenter"",""1"",""1824""
""fullscreenenter"",""1"",""1824""
","
","
","""event"",""trial"",""time""
""fullscreenenter"",""1"",""1824""
""fullscreenenter"",""1"",""1824""
","
","","","8832","[""False""]","0","12","8858","4196","","","","","","","","","","","","","","","","","","",""
"pit-instructions","119","1016126","0.0-2.0-26.0-1.0","battery-v0.2","","""event"",""trial"",""time""
""fullscreenenter"",""1"",""1824""
""fullscreenenter"",""1"",""1824""
","
","
","""event"",""trial"",""time""
""fullscreenenter"",""1"",""1824""
""fullscreenenter"",""1"",""1824""
","
","","[{""page_index"":0,""viewing_time"":2033}]","2033","","","","","","","","","","","","","","","","","","","","","","","",""
"pit-instructions","120","1054836","0.0-3.0","battery-v0.2","","""event"",""trial"",""time""
""fullscreenenter"",""1"",""1824""
""fullscreenenter"",""1"",""1824""
","
","
","""event"",""trial"",""time""
""fullscreenenter"",""1"",""1824""
""fullscreenenter"",""1"",""1824""
","
","","[{""page_index"":0,""viewing_time"":5010},{""page_index"":1,""viewing_time"":8188.000000000116},{""page_index"":2,""viewing_time"":25504.999999999884}]","38703","","","","","","","","","","","","","","","","","","","","","","","",""
"pit-trial","121","1059230","0.0-4.0","battery-v0.2","","""event"",""trial"",""time""
""fullscreenenter"",""1"",""1824""
""fullscreenenter"",""1"",""1824""
","
","
","""event"",""trial"",""time""
""fullscreenenter"",""1"",""1824""
""fullscreenenter"",""1"",""1824""
","
","","","1533","","","12","8858","4196","&#9730;","elianto","#3366ff99"," "," ","1","0","[2384]","1","1","","","8858","1","1","1","win","go","1"
"pit-trial","122","1063377","0.0-5.0","battery-v0.2","","""event"",""trial"",""time""
""fullscreenenter"",""1"",""1824""
""fullscreenenter"",""1"",""1824""
","
","
","""event"",""trial"",""time""
""fullscreenenter"",""1"",""1824""
""fullscreenenter"",""1"",""1824""
","
","","","1288","","","12","8858","4196","&#9752;","elianto","#f73b6a7A"," "," ","1","0","[2139]","1","1","","","8858","2","3","3","lose","go","0"
"pit-trial","123","1067272","0.0-6.0","battery-v0.2","","""event"",""trial"",""time""
""fullscreenenter"",""1"",""1824""
""fullscreenenter"",""1"",""1824""
","
","
","""event"",""trial"",""time""
""fullscreenenter"",""1"",""1824""
""fullscreenenter"",""1"",""1824""
","
","","","1036","","","12","8858","4196","&#9733;","elianto","#3366ff99","-1"," ","0","0","[1887]","1","1","","","8858","3","2","2","win","no-go","0"
"pit-trial","124","1070790","0.0-7.0","battery-v0.2","","""event"",""trial"",""time""
""fullscreenenter"",""1"",""1824""
""fullscreenenter"",""1"",""1824""
","
","
","""event"",""trial"",""time""
""fullscreenenter"",""1"",""1824""
""fullscreenenter"",""1"",""1824""
","
","","","659.9999999997672","","","12","8858","4196","&#9728;","elianto","#f73b6a7A","-1"," ","0","-10","[1511]","1","1","","","8858","4","0","4","lose","no-go","0"
"pit-trial","125","1074634","0.0-8.0","battery-v0.2","","""event"",""trial"",""time""
""fullscreenenter"",""1"",""1824""
""fullscreenenter"",""1"",""1824""
","
","
","""event"",""trial"",""time""
""fullscreenenter"",""1"",""1824""
""fullscreenenter"",""1"",""1824""
","
","","","987","","","12","8858","4196","&#9752;","elianto","#f73b6a7A"," "," ","1","-10","[1837]","1","1","","","8858","5","3","3","lose","go","1"
"pit-trial","126","1079492","0.0-9.0","battery-v0.2","","""event"",""trial"",""time""
""fullscreenenter"",""1"",""1824""
""fullscreenenter"",""1"",""1824""
","
","
","""event"",""trial"",""time""
""fullscreenenter"",""1"",""1824""
""fullscreenenter"",""1"",""1824""
","
","","","-1","","","12","8858","4196","&#9728;","elianto","#f73b6a7A","-1","-1","1","0","[]","0","1","","","8858","6","0","4","lose","no-go","0"
"pit-trial","127","1084351","0.0-10.0","battery-v0.2","","""event"",""trial"",""time""
""fullscreenenter"",""1"",""1824""
""fullscreenenter"",""1"",""1824""
","
","
","""event"",""trial"",""time""
""fullscreenenter"",""1"",""1824""
""fullscreenenter"",""1"",""1824""
","
","","","-1","","","12","8858","4196","&#9733;","elianto","#3366ff99","-1","-1","1","+10","[]","0","1","","","8858","7","2","2","win","no-go","0"
"pit-trial","128","1088328","0.0-11.0","battery-v0.2","","""event"",""trial"",""time""
""fullscreenenter"",""1"",""1824""
""fullscreenenter"",""1"",""1824""
","
","
","""event"",""trial"",""time""
""fullscreenenter"",""1"",""1824""
""fullscreenenter"",""1"",""1824""
","
","","","1117","","","12","8858","4196","&#9730;","elianto","#3366ff99"," "," ","1","+10","[1968]","1","1","","","8858","8","1","1","win","go","0"
"pit-trial","129","1093186","0.0-12.0","battery-v0.2","","""event"",""trial"",""time""
""fullscreenenter"",""1"",""1824""
""fullscreenenter"",""1"",""1824""
","
","
","""event"",""trial"",""time""
""fullscreenenter"",""1"",""1824""
""fullscreenenter"",""1"",""1824""
","
","","","-1","","","12","8858","4196","&#9728;","elianto","#f73b6a7A","-1","-1","1","0","[]","0","1","","","8858","9","0","4","lose","no-go","0"
"pit-trial","130","1098044","0.0-13.0","battery-v0.2","","""event"",""trial"",""time""
""fullscreenenter"",""1"",""1824""
""fullscreenenter"",""1"",""1824""
","
","
","""event"",""trial"",""time""
""fullscreenenter"",""1"",""1824""
""fullscreenenter"",""1"",""1824""
","
","","","-1","","","12","8858","4196","&#9733;","elianto","#3366ff99","-1","-1","1","0","[]","0","1","","","8858","10","2","2","win","no-go","1"
"pit-trial","131","1102902","0.0-14.0","battery-v0.2","","""event"",""trial"",""time""
""fullscreenenter"",""1"",""1824""
""fullscreenenter"",""1"",""1824""
","
","
","""event"",""trial"",""time""
""fullscreenenter"",""1"",""1824""
""fullscreenenter"",""1"",""1824""
","
","","","-1","","","12","8858","4196","&#9752;","elianto","#f73b6a7A"," ","-1","0","-10","[]","0","1","","","8858","11","3","3","lose","go","0"
"pit-trial","132","1106847","0.0-15.0","battery-v0.2","","""event"",""trial"",""time""
""fullscreenenter"",""1"",""1824""
""fullscreenenter"",""1"",""1824""
","
","
","""event"",""trial"",""time""
""fullscreenenter"",""1"",""1824""
""fullscreenenter"",""1"",""1824""
","
","","","1085","","","12","8858","4196","&#9730;","elianto","#3366ff99"," "," ","1","+10","[1935.9999999997672]","1","1","","","8858","12","1","1","win","go","0"
"pit-trial","133","1110396","0.0-16.0","battery-v0.2","","""event"",""trial"",""time""
""fullscreenenter"",""1"",""1824""
""fullscreenenter"",""1"",""1824""
","
","
","""event"",""trial"",""time""
""fullscreenenter"",""1"",""1824""
""fullscreenenter"",""1"",""1824""
","
","","","691","","","12","8858","4196","&#9730;","elianto","#3366ff99"," "," ","1","+10","[1542]","1","1","","","8858","13","1","1","win","go","0"
"pit-trial","134","1115255","0.0-17.0","battery-v0.2","","""event"",""trial"",""time""
""fullscreenenter"",""1"",""1824""
""fullscreenenter"",""1"",""1824""
","
","
","""event"",""trial"",""time""
""fullscreenenter"",""1"",""1824""
""fullscreenenter"",""1"",""1824""
","
","","","-1","","","12","8858","4196","&#9728;","elianto","#f73b6a7A","-1","-1","1","0","[]","0","1","","","8858","14","0","4","lose","no-go","0"
"pit-trial","135","1120113","0.0-18.0","battery-v0.2","","""event"",""trial"",""time""
""fullscreenenter"",""1"",""1824""
""fullscreenenter"",""1"",""1824""
","
","
","""event"",""trial"",""time""
""fullscreenenter"",""1"",""1824""
""fullscreenenter"",""1"",""1824""
","
","","","-1","","","12","8858","4196","&#9733;","elianto","#3366ff99","-1","-1","1","+10","[]","0","1","","","8858","15","2","2","win","no-go","0"
"pit-trial","136","1124056","0.0-19.0","battery-v0.2","","""event"",""trial"",""time""
""fullscreenenter"",""1"",""1824""
""fullscreenenter"",""1"",""1824""
","
","
","""event"",""trial"",""time""
""fullscreenenter"",""1"",""1824""
""fullscreenenter"",""1"",""1824""
","
","","","1085","","","12","8858","4196","&#9752;","elianto","#f73b6a7A"," "," ","1","0","[1936]","1","1","","","8858","16","3","3","lose","go","0"
"pit-trial","137","1128914","0.0-20.0","battery-v0.2","","""event"",""trial"",""time""
""fullscreenenter"",""1"",""1824""
""fullscreenenter"",""1"",""1824""
","
","
","""event"",""trial"",""time""
""fullscreenenter"",""1"",""1824""
""fullscreenenter"",""1"",""1824""
","
","","","-1","","","12","8858","4196","&#9728;","elianto","#f73b6a7A","-1","-1","1","0","[]","0","1","","","8858","17","0","4","lose","no-go","0"
"pit-trial","138","1133773","0.0-21.0","battery-v0.2","","""event"",""trial"",""time""
""fullscreenenter"",""1"",""1824""
""fullscreenenter"",""1"",""1824""
","
","
","""event"",""trial"",""time""
""fullscreenenter"",""1"",""1824""
""fullscreenenter"",""1"",""1824""
","
","","","-1","","","12","8858","4196","&#9733;","elianto","#3366ff99","-1","-1","1","+10","[]","0","1","","","8858","18","2","2","win","no-go","0"
"pit-trial","139","1138589","0.0-22.0","battery-v0.2","","""event"",""trial"",""time""
""fullscreenenter"",""1"",""1824""
""fullscreenenter"",""1"",""1824""
","
","
","""event"",""trial"",""time""
""fullscreenenter"",""1"",""1824""
""fullscreenenter"",""1"",""1824""
","
","","","1958","","","12","8858","4196","&#9730;","elianto","#3366ff99"," "," ","1","+10","[2808]","1","1","","","8858","19","1","1","win","go","0"
"pit-trial","140","1142176","0.0-23.0","battery-v0.2","","""event"",""trial"",""time""
""fullscreenenter"",""1"",""1824""
""fullscreenenter"",""1"",""1824""
","
","
","""event"",""trial"",""time""
""fullscreenenter"",""1"",""1824""
""fullscreenenter"",""1"",""1824""
","
","","","728","","","12","8858","4196","&#9752;","elianto","#f73b6a7A"," "," ","1","0","[1579]","1","1","","","8858","20","3","3","lose","go","0"
"pit-instructions","141","1154094","0.0-24.0","battery-v0.2","","""event"",""trial"",""time""
""fullscreenenter"",""1"",""1824""
""fullscreenenter"",""1"",""1824""
","
","
","""event"",""trial"",""time""
""fullscreenenter"",""1"",""1824""
""fullscreenenter"",""1"",""1824""
","
","","[{""page_index"":0,""viewing_time"":5698},{""page_index"":1,""viewing_time"":6213}]","11911","","","","","","","","","","","","","","","","","","","","","","","",""
"pit-trial","142","1157911","0.0-25.0","battery-v0.2","","""event"",""trial"",""time""
""fullscreenenter"",""1"",""1824""
""fullscreenenter"",""1"",""1824""
","
","
","""event"",""trial"",""time""
""fullscreenenter"",""1"",""1824""
""fullscreenenter"",""1"",""1824""
","
","","","955","","","12","8858","4196","m","elianto","#f73b6a7A","-1"," ","0","0","[1805.9999999997672]","1","2","","","8858","21","0","4","lose","no-go","1"
"pit-trial","143","1161107","0.0-26.0","battery-v0.2","","""event"",""trial"",""time""
""fullscreenenter"",""1"",""1824""
""fullscreenenter"",""1"",""1824""
","
","
","""event"",""trial"",""time""
""fullscreenenter"",""1"",""1824""
""fullscreenenter"",""1"",""1824""
","
","","","338","","","12","8858","4196","r","elianto","#3366ff99"," "," ","1","+10","[1188]","1","2","","","8858","22","1","1","win","go","0"
"pit-trial","144","1164324","0.0-27.0","battery-v0.2","","""event"",""trial"",""time""
""fullscreenenter"",""1"",""1824""
""fullscreenenter"",""1"",""1824""
","
","
","""event"",""trial"",""time""
""fullscreenenter"",""1"",""1824""
""fullscreenenter"",""1"",""1824""
","
","","","357","","","12","8858","4196","y","elianto","#f73b6a7A","-1"," ","0","-10","[1206]","1","2","","","8858","23","2","4","lose","no-go","0"
"pit-trial","145","1168225","0.0-28.0","battery-v0.2","","""event"",""trial"",""time""
""fullscreenenter"",""1"",""1824""
""fullscreenenter"",""1"",""1824""
","
","
","""event"",""trial"",""time""
""fullscreenenter"",""1"",""1824""
""fullscreenenter"",""1"",""1824""
","
","","","1043","","","12","8858","4196","h","elianto","#f73b6a7A"," "," ","1","0","[1895]","1","2","","","8858","24","3","3","lose","go","0"
"pit-trial","146","1171763","0.0-29.0","battery-v0.2","","""event"",""trial"",""time""
""fullscreenenter"",""1"",""1824""
""fullscreenenter"",""1"",""1824""
","
","
","""event"",""trial"",""time""
""fullscreenenter"",""1"",""1824""
""fullscreenenter"",""1"",""1824""
","
","","","681","","","12","8858","4196","h","elianto","#f73b6a7A"," "," ","1","-10","[1531]","1","2","","","8858","25","3","3","lose","go","1"
"pit-trial","147","1175516","0.0-30.0","battery-v0.2","","""event"",""trial"",""time""
""fullscreenenter"",""1"",""1824""
""fullscreenenter"",""1"",""1824""
","
","
","""event"",""trial"",""time""
""fullscreenenter"",""1"",""1824""
""fullscreenenter"",""1"",""1824""
","
","","","895","","","12","8858","4196","m","elianto","#f73b6a7A","-1"," ","0","-10","[1746]","1","2","","","8858","26","0","4","lose","no-go","0"
"pit-trial","148","1179271","0.0-31.0","battery-v0.2","","""event"",""trial"",""time""
""fullscreenenter"",""1"",""1824""
""fullscreenenter"",""1"",""1824""
","
","
","""event"",""trial"",""time""
""fullscreenenter"",""1"",""1824""
""fullscreenenter"",""1"",""1824""
","
","","","896","","","12","8858","4196","r","elianto","#3366ff99"," "," ","1","0","[1747]","1","2","","","8858","27","1","1","win","go","1"
"pit-trial","149","1184130","0.0-32.0","battery-v0.2","","""event"",""trial"",""time""
""fullscreenenter"",""1"",""1824""
""fullscreenenter"",""1"",""1824""
","
","
","""event"",""trial"",""time""
""fullscreenenter"",""1"",""1824""
""fullscreenenter"",""1"",""1824""
","
","","","-1","","","12","8858","4196","y","elianto","#f73b6a7A","-1","-1","1","0","[]","0","2","","","8858","28","2","4","lose","no-go","0"
"pit-trial","150","1188988","0.0-33.0","battery-v0.2","","""event"",""trial"",""time""
""fullscreenenter"",""1"",""1824""
""fullscreenenter"",""1"",""1824""
","
","
","""event"",""trial"",""time""
""fullscreenenter"",""1"",""1824""
""fullscreenenter"",""1"",""1824""
","
","","","-1","","","12","8858","4196","r","elianto","#3366ff99"," ","-1","0","0","[]","0","2","","","8858","29","1","1","win","go","0"
"pit-trial","151","1193847","0.0-34.0","battery-v0.2","","""event"",""trial"",""time""
""fullscreenenter"",""1"",""1824""
""fullscreenenter"",""1"",""1824""
","
","
","""event"",""trial"",""time""
""fullscreenenter"",""1"",""1824""
""fullscreenenter"",""1"",""1824""
","
","","","-1","","","12","8858","4196","h","elianto","#f73b6a7A"," ","-1","0","-10","[64]","1","2","","","8858","30","3","3","lose","go","0"
"pit-trial","152","1197971","0.0-35.0","battery-v0.2","","""event"",""trial"",""time""
""fullscreenenter"",""1"",""1824""
""fullscreenenter"",""1"",""1824""
","
","
","""event"",""trial"",""time""
""fullscreenenter"",""1"",""1824""
""fullscreenenter"",""1"",""1824""
","
","","","1264","","","12","8858","4196","y","elianto","#f73b6a7A","-1"," ","0","-10","[504,2115]","2","2","","","8858","31","2","4","lose","no-go","0"
"pit-trial","153","1202830","0.0-36.0","battery-v0.2","","""event"",""trial"",""time""
""fullscreenenter"",""1"",""1824""
""fullscreenenter"",""1"",""1824""
","
","
","""event"",""trial"",""time""
""fullscreenenter"",""1"",""1824""
""fullscreenenter"",""1"",""1824""
","
","","","-1","","","12","8858","4196","m","elianto","#f73b6a7A","-1","-1","1","-10","[]","0","2","","","8858","32","0","4","lose","no-go","1"
"pit-trial","154","1206581","0.0-37.0","battery-v0.2","","""event"",""trial"",""time""
""fullscreenenter"",""1"",""1824""
""fullscreenenter"",""1"",""1824""
","
","
","""event"",""trial"",""time""
""fullscreenenter"",""1"",""1824""
""fullscreenenter"",""1"",""1824""
","
","","","894","","","12","8858","4196","y","elianto","#f73b6a7A","-1"," ","0","-10","[1744.9999999997672]","1","2","","","8858","33","2","4","lose","no-go","0"
"pit-trial","155","1211186","0.0-38.0","battery-v0.2","","""event"",""trial"",""time""
""fullscreenenter"",""1"",""1824""
""fullscreenenter"",""1"",""1824""
","
","
","""event"",""trial"",""time""
""fullscreenenter"",""1"",""1824""
""fullscreenenter"",""1"",""1824""
","
","","","1747","","","12","8858","4196","m","elianto","#f73b6a7A","-1"," ","0","-10","[2598]","1","2","","","8858","34","0","4","lose","no-go","0"
"pit-trial","156","1215953","0.0-39.0","battery-v0.2","","""event"",""trial"",""time""
""fullscreenenter"",""1"",""1824""
""fullscreenenter"",""1"",""1824""
","
","
","""event"",""trial"",""time""
""fullscreenenter"",""1"",""1824""
""fullscreenenter"",""1"",""1824""
","
","","","1909","","","12","8858","4196","r","elianto","#3366ff99"," "," ","1","+10","[2760]","1","2","","","8858","35","1","1","win","go","0"
"pit-trial","157","1219767","0.0-40.0","battery-v0.2","","""event"",""trial"",""time""
""fullscreenenter"",""1"",""1824""
""fullscreenenter"",""1"",""1824""
","
","
","""event"",""trial"",""time""
""fullscreenenter"",""1"",""1824""
""fullscreenenter"",""1"",""1824""
","
","","","955","","","12","8858","4196","h","elianto","#f73b6a7A"," "," ","1","0","[1807]","1","2","","","8858","36","3","3","lose","go","0"
"pit-trial","158","1223170","0.0-41.0","battery-v0.2","","""event"",""trial"",""time""
""fullscreenenter"",""1"",""1824""
""fullscreenenter"",""1"",""1824""
","
","
","""event"",""trial"",""time""
""fullscreenenter"",""1"",""1824""
""fullscreenenter"",""1"",""1824""
","
","","","544","","","12","8858","4196","y","elianto","#f73b6a7A","-1"," ","0","-10","[1395]","1","2","","","8858","37","2","4","lose","no-go","0"
"pit-trial","159","1226660","0.0-42.0","battery-v0.2","","""event"",""trial"",""time""
""fullscreenenter"",""1"",""1824""
""fullscreenenter"",""1"",""1824""
","
","
","""event"",""trial"",""time""
""fullscreenenter"",""1"",""1824""
""fullscreenenter"",""1"",""1824""
","
","","","631","","","12","8858","4196","m","elianto","#f73b6a7A","-1"," ","0","-10","[1481]","1","2","","","8858","38","0","4","lose","no-go","0"
"pit-trial","160","1230261","0.0-43.0","battery-v0.2","","""event"",""trial"",""time""
""fullscreenenter"",""1"",""1824""
""fullscreenenter"",""1"",""1824""
","
","
","""event"",""trial"",""time""
""fullscreenenter"",""1"",""1824""
""fullscreenenter"",""1"",""1824""
","
","","","744","","","12","8858","4196","r","elianto","#3366ff99"," "," ","1","+10","[1594]","1","2","","","8858","39","1","1","win","go","0"
"pit-trial","161","1234247","0.0-44.0","battery-v0.2","","""event"",""trial"",""time""
""fullscreenenter"",""1"",""1824""
""fullscreenenter"",""1"",""1824""
","
","
","""event"",""trial"",""time""
""fullscreenenter"",""1"",""1824""
""fullscreenenter"",""1"",""1824""
","
","","","1127","","","12","8858","4196","h","elianto","#f73b6a7A"," "," ","1","0","[1978]","1","2","","","8858","40","3","3","lose","go","0"
"pit-trial","162","1239107","0.0-45.0","battery-v0.2","","""event"",""trial"",""time""
""fullscreenenter"",""1"",""1824""
""fullscreenenter"",""1"",""1824""
","
","
","""event"",""trial"",""time""
""fullscreenenter"",""1"",""1824""
""fullscreenenter"",""1"",""1824""
","
","","","-1","","","12","8858","4196","y","elianto","#f73b6a7A","-1","-1","1","0","[]","0","2","","","8858","41","2","4","lose","no-go","0"
"pit-trial","163","1242572","0.0-46.0","battery-v0.2","","""event"",""trial"",""time""
""fullscreenenter"",""1"",""1824""
""fullscreenenter"",""1"",""1824""
","
","
","""event"",""trial"",""time""
""fullscreenenter"",""1"",""1824""
""fullscreenenter"",""1"",""1824""
","
","","","608","","","12","8858","4196","h","elianto","#f73b6a7A"," "," ","1","0","[1458]","1","2","","","8858","42","3","3","lose","go","0"
"pit-trial","164","1247003","0.0-47.0","battery-v0.2","","""event"",""trial"",""time""
""fullscreenenter"",""1"",""1824""
""fullscreenenter"",""1"",""1824""
","
","
","""event"",""trial"",""time""
""fullscreenenter"",""1"",""1824""
""fullscreenenter"",""1"",""1824""
","
","","","1573","","","12","8858","4196","r","elianto","#3366ff99"," "," ","1","+10","[2423]","1","2","","","8858","43","1","1","win","go","0"
"pit-trial","165","1251861","0.0-48.0","battery-v0.2","","""event"",""trial"",""time""
""fullscreenenter"",""1"",""1824""
""fullscreenenter"",""1"",""1824""
","
","
","""event"",""trial"",""time""
""fullscreenenter"",""1"",""1824""
""fullscreenenter"",""1"",""1824""
","
","","","-1","","","12","8858","4196","m","elianto","#f73b6a7A","-1","-1","1","0","[]","0","2","","","8858","44","0","4","lose","no-go","0"
"pit-trial","166","1255731","0.0-49.0","battery-v0.2","","""event"",""trial"",""time""
""fullscreenenter"",""1"",""1824""
""fullscreenenter"",""1"",""1824""
","
","
","""event"",""trial"",""time""
""fullscreenenter"",""1"",""1824""
""fullscreenenter"",""1"",""1824""
","
","","","1014.0000000002328","","","12","8858","4196","z","elianto","#3366ff99","-1"," ","0","+10","[1864.0000000002328]","1","2","","","8858","45","4","2","win","no-go","1"
"pit-trial","167","1259634","0.0-50.0","battery-v0.2","","""event"",""trial"",""time""
""fullscreenenter"",""1"",""1824""
""fullscreenenter"",""1"",""1824""
","
","
","""event"",""trial"",""time""
""fullscreenenter"",""1"",""1824""
""fullscreenenter"",""1"",""1824""
","
","","","1045","","","12","8858","4196","h","elianto","#f73b6a7A"," "," ","1","0","[1895]","1","2","","","8858","46","3","3","lose","go","0"
"pit-trial","168","1264492","0.0-51.0","battery-v0.2","","""event"",""trial"",""time""
""fullscreenenter"",""1"",""1824""
""fullscreenenter"",""1"",""1824""
","
","
","""event"",""trial"",""time""
""fullscreenenter"",""1"",""1824""
""fullscreenenter"",""1"",""1824""
","
","","","-1","","","12","8858","4196","y","elianto","#f73b6a7A","-1","-1","1","-10","[]","0","2","","","8858","47","2","4","lose","no-go","1"
"pit-trial","169","1268151","0.0-52.0","battery-v0.2","","""event"",""trial"",""time""
""fullscreenenter"",""1"",""1824""
""fullscreenenter"",""1"",""1824""
","
","
","""event"",""trial"",""time""
""fullscreenenter"",""1"",""1824""
""fullscreenenter"",""1"",""1824""
","
","","","801","","","12","8858","4196","m","elianto","#f73b6a7A","-1"," ","0","-10","[1652]","1","2","","","8858","48","0","4","lose","no-go","0"
"pit-trial","170","1272464","0.0-53.0","battery-v0.2","","""event"",""trial"",""time""
""fullscreenenter"",""1"",""1824""
""fullscreenenter"",""1"",""1824""
","
","
","""event"",""trial"",""time""
""fullscreenenter"",""1"",""1824""
""fullscreenenter"",""1"",""1824""
","
","","","1453.0000000002328","","","12","8858","4196","m","elianto","#f73b6a7A","-1"," ","0","-10","[2304.000000000233]","1","2","","","8858","49","0","4","lose","no-go","0"
"pit-trial","171","1276487","0.0-54.0","battery-v0.2","","""event"",""trial"",""time""
""fullscreenenter"",""1"",""1824""
""fullscreenenter"",""1"",""1824""
","
","
","""event"",""trial"",""time""
""fullscreenenter"",""1"",""1824""
""fullscreenenter"",""1"",""1824""
","
","","","1164","","","12","8858","4196","z","elianto","#3366ff99","-1"," ","0","0","[2013.9999999997672,2305.999999999767]","2","2","","","8858","50","4","2","win","no-go","0"
"pit-trial","172","1281346","0.0-55.0","battery-v0.2","","""event"",""trial"",""time""
""fullscreenenter"",""1"",""1824""
""fullscreenenter"",""1"",""1824""
","
","
","""event"",""trial"",""time""
""fullscreenenter"",""1"",""1824""
""fullscreenenter"",""1"",""1824""
","
","","","-1","","","12","8858","4196","h","elianto","#f73b6a7A"," ","-1","0","-10","[]","0","2","","","8858","51","3","3","lose","go","0"
"pit-trial","173","1285060","0.0-56.0","battery-v0.2","","""event"",""trial"",""time""
""fullscreenenter"",""1"",""1824""
""fullscreenenter"",""1"",""1824""
","
","
","""event"",""trial"",""time""
""fullscreenenter"",""1"",""1824""
""fullscreenenter"",""1"",""1824""
","
","","","857.0000000002328","","","12","8858","4196","r","elianto","#3366ff99"," "," ","1","+10","[1707.0000000002328]","1","2","","","8858","52","1","1","win","go","0"
"pit-trial","174","1288680","0.0-57.0","battery-v0.2","","""event"",""trial"",""time""
""fullscreenenter"",""1"",""1824""
""fullscreenenter"",""1"",""1824""
","
","
","""event"",""trial"",""time""
""fullscreenenter"",""1"",""1824""
""fullscreenenter"",""1"",""1824""
","
","","","762","","","12","8858","4196","y","elianto","#f73b6a7A","-1"," ","0","0","[1613]","1","2","","","8858","53","2","4","lose","no-go","1"
"pit-trial","175","1293538","0.0-58.0","battery-v0.2","","""event"",""trial"",""time""
""fullscreenenter"",""1"",""1824""
""fullscreenenter"",""1"",""1824""
","
","
","""event"",""trial"",""time""
""fullscreenenter"",""1"",""1824""
""fullscreenenter"",""1"",""1824""
","
","","","-1","","","12","8858","4196","m","elianto","#f73b6a7A","-1","-1","1","0","[]","0","2","","","8858","54","0","4","lose","no-go","0"
"pit-trial","176","1297188","0.0-59.0","battery-v0.2","","""event"",""trial"",""time""
""fullscreenenter"",""1"",""1824""
""fullscreenenter"",""1"",""1824""
","
","
","""event"",""trial"",""time""
""fullscreenenter"",""1"",""1824""
""fullscreenenter"",""1"",""1824""
","
","","","791","","","12","8858","4196","z","elianto","#3366ff99","-1"," ","0","0","[1641]","1","2","","","8858","55","4","2","win","no-go","0"
"pit-trial","177","1300993","0.0-60.0","battery-v0.2","","""event"",""trial"",""time""
""fullscreenenter"",""1"",""1824""
""fullscreenenter"",""1"",""1824""
","
","
","""event"",""trial"",""time""
""fullscreenenter"",""1"",""1824""
""fullscreenenter"",""1"",""1824""
","
","","","948.0000000002328","","","12","8858","4196","r","elianto","#3366ff99"," "," ","1","+10","[1799]","1","2","","","8858","56","1","1","win","go","0"
"pit-trial","178","1304989","0.0-61.0","battery-v0.2","","""event"",""trial"",""time""
""fullscreenenter"",""1"",""1824""
""fullscreenenter"",""1"",""1824""
","
","
","""event"",""trial"",""time""
""fullscreenenter"",""1"",""1824""
""fullscreenenter"",""1"",""1824""
","
","","","1136","","","12","8858","4196","r","elianto","#3366ff99"," "," ","1","0","[1989]","1","2","","","8858","57","1","1","win","go","1"
"pit-trial","179","1308656","0.0-62.0","battery-v0.2","","""event"",""trial"",""time""
""fullscreenenter"",""1"",""1824""
""fullscreenenter"",""1"",""1824""
","
","
","""event"",""trial"",""time""
""fullscreenenter"",""1"",""1824""
""fullscreenenter"",""1"",""1824""
","
","","","809.0000000002328","","","12","8858","4196","z","elianto","#3366ff99","-1"," ","0","0","[1660.0000000002328]","1","2","","","8858","58","4","2","win","no-go","0"
"pit-trial","180","1313515","0.0-63.0","battery-v0.2","","""event"",""trial"",""time""
""fullscreenenter"",""1"",""1824""
""fullscreenenter"",""1"",""1824""
","
","
","""event"",""trial"",""time""
""fullscreenenter"",""1"",""1824""
""fullscreenenter"",""1"",""1824""
","
","","","-1","","","12","8858","4196","m","elianto","#f73b6a7A","-1","-1","1","0","[]","0","2","","","8858","59","0","4","lose","no-go","0"
"pit-trial","181","1317151","0.0-64.0","battery-v0.2","","""event"",""trial"",""time""
""fullscreenenter"",""1"",""1824""
""fullscreenenter"",""1"",""1824""
","
","
","""event"",""trial"",""time""
""fullscreenenter"",""1"",""1824""
""fullscreenenter"",""1"",""1824""
","
","","","778","","","12","8858","4196","h","elianto","#f73b6a7A"," "," ","1","-10","[1628.9999999997672]","1","2","","","8858","60","3","3","lose","go","1"
"pit-trial","182","1322009","0.0-65.0","battery-v0.2","","""event"",""trial"",""time""
""fullscreenenter"",""1"",""1824""
""fullscreenenter"",""1"",""1824""
","
","
","""event"",""trial"",""time""
""fullscreenenter"",""1"",""1824""
""fullscreenenter"",""1"",""1824""
","
","","","-1","","","12","8858","4196","y","elianto","#f73b6a7A","-1","-1","1","0","[]","0","2","","","8858","61","2","4","lose","no-go","0"
"pit-trial","183","1325619","0.0-66.0","battery-v0.2","","""event"",""trial"",""time""
""fullscreenenter"",""1"",""1824""
""fullscreenenter"",""1"",""1824""
","
","
","""event"",""trial"",""time""
""fullscreenenter"",""1"",""1824""
""fullscreenenter"",""1"",""1824""
","
","","","752.0000000002328","","","12","8858","4196","z","elianto","#3366ff99","-1"," ","0","0","[1603.0000000002328,2974]","2","2","","","8858","62","4","2","win","no-go","0"
"pit-trial","184","1330477","0.0-67.0","battery-v0.2","","""event"",""trial"",""time""
""fullscreenenter"",""1"",""1824""
""fullscreenenter"",""1"",""1824""
","
","
","""event"",""trial"",""time""
""fullscreenenter"",""1"",""1824""
""fullscreenenter"",""1"",""1824""
","
","","","-1","","","12","8858","4196","h","elianto","#f73b6a7A"," ","-1","0","-10","[4039,4347,4577,4802]","4","2","","","8858","63","3","3","lose","go","0"
"pit-trial","185","1333521","0.0-68.0","battery-v0.2","","""event"",""trial"",""time""
""fullscreenenter"",""1"",""1824""
""fullscreenenter"",""1"",""1824""
","
","
","""event"",""trial"",""time""
""fullscreenenter"",""1"",""1824""
""fullscreenenter"",""1"",""1824""
","
","","","184.00000000023283","","","12","8858","4196","r","elianto","#3366ff99"," "," ","1","+10","[161,385,584,806,1035.0000000002328,1470,2054,2327,2597,2832]","10","2","","","8858","64","1","1","win","go","0"
"pit-trial","186","1336814","0.0-69.0","battery-v0.2","","""event"",""trial"",""time""
""fullscreenenter"",""1"",""1824""
""fullscreenenter"",""1"",""1824""
","
","
","""event"",""trial"",""time""
""fullscreenenter"",""1"",""1824""
""fullscreenenter"",""1"",""1824""
","
","","","435","","","12","8858","4196","r","elianto","#3366ff99"," "," ","1","+10","[32,280,496,1286]","4","2","","","8858","65","1","1","win","go","0"
"pit-trial","187","1341672","0.0-70.0","battery-v0.2","","""event"",""trial"",""time""
""fullscreenenter"",""1"",""1824""
""fullscreenenter"",""1"",""1824""
","
","
","""event"",""trial"",""time""
""fullscreenenter"",""1"",""1824""
""fullscreenenter"",""1"",""1824""
","
","","","-1","","","12","8858","4196","y","elianto","#f73b6a7A","-1","-1","1","-10","[3799,4183,4445,4747]","4","2","","","8858","66","2","4","lose","no-go","1"
"pit-trial","188","1345325","0.0-71.0","battery-v0.2","","""event"",""trial"",""time""
""fullscreenenter"",""1"",""1824""
""fullscreenenter"",""1"",""1824""
","
","
","""event"",""trial"",""time""
""fullscreenenter"",""1"",""1824""
""fullscreenenter"",""1"",""1824""
","
","","","794","","","12","8858","4196","z","elianto","#3366ff99","-1"," ","0","+10","[224,631,1645]","3","2","","","8858","67","4","2","win","no-go","1"
"pit-trial","189","1348952","0.0-72.0","battery-v0.2","","""event"",""trial"",""time""
""fullscreenenter"",""1"",""1824""
""fullscreenenter"",""1"",""1824""
","
","
","""event"",""trial"",""time""
""fullscreenenter"",""1"",""1824""
""fullscreenenter"",""1"",""1824""
","
","","","770","","","12","8858","4196","h","elianto","#f73b6a7A"," "," ","1","0","[1621]","1","2","","","8858","68","3","3","lose","go","0"
"pit-trial","190","1352363","0.0-73.0","battery-v0.2","","""event"",""trial"",""time""
""fullscreenenter"",""1"",""1824""
""fullscreenenter"",""1"",""1824""
","
","
","""event"",""trial"",""time""
""fullscreenenter"",""1"",""1824""
""fullscreenenter"",""1"",""1824""
","
","","","553","","","12","8858","4196","r","elianto","#3366ff99"," "," ","1","0","[1404]","1","2","","","8858","69","1","1","win","go","1"
"pit-trial","191","1355906","0.0-74.0","battery-v0.2","","""event"",""trial"",""time""
""fullscreenenter"",""1"",""1824""
""fullscreenenter"",""1"",""1824""
","
","
","""event"",""trial"",""time""
""fullscreenenter"",""1"",""1824""
""fullscreenenter"",""1"",""1824""
","
","","","685","","","12","8858","4196","z","elianto","#3366ff99","-1"," ","0","0","[1535]","1","2","","","8858","70","4","2","win","no-go","0"
"pit-trial","192","1358989","0.0-75.0","battery-v0.2","","""event"",""trial"",""time""
""fullscreenenter"",""1"",""1824""
""fullscreenenter"",""1"",""1824""
","
","
","""event"",""trial"",""time""
""fullscreenenter"",""1"",""1824""
""fullscreenenter"",""1"",""1824""
","
","","","225","","","12","8858","4196","h","elianto","#f73b6a7A"," "," ","1","-10","[1076]","1","2","","","8858","71","3","3","lose","go","1"
"pit-trial","193","1362692","0.0-76.0","battery-v0.2","","""event"",""trial"",""time""
""fullscreenenter"",""1"",""1824""
""fullscreenenter"",""1"",""1824""
","
","
","""event"",""trial"",""time""
""fullscreenenter"",""1"",""1824""
""fullscreenenter"",""1"",""1824""
","
","","","844","","","12","8858","4196","c","elianto","#3366ff99"," "," ","1","+10","[1694]","1","2","","","8858","72","5","1","win","go","0"
"pit-trial","194","1366271","0.0-77.0","battery-v0.2","","""event"",""trial"",""time""
""fullscreenenter"",""1"",""1824""
""fullscreenenter"",""1"",""1824""
","
","
","""event"",""trial"",""time""
""fullscreenenter"",""1"",""1824""
""fullscreenenter"",""1"",""1824""
","
","","","720","","","12","8858","4196","c","elianto","#3366ff99"," "," ","1","+10","[1571]","1","2","","","8858","73","5","1","win","go","0"
"pit-trial","195","1369844","0.0-78.0","battery-v0.2","","""event"",""trial"",""time""
""fullscreenenter"",""1"",""1824""
""fullscreenenter"",""1"",""1824""
","
","
","""event"",""trial"",""time""
""fullscreenenter"",""1"",""1824""
""fullscreenenter"",""1"",""1824""
","
","","","713.9999999997672","","","12","8858","4196","r","elianto","#3366ff99"," "," ","1","+10","[1565]","1","2","","","8858","74","1","1","win","go","0"
"pit-trial","196","1373290","0.0-79.0","battery-v0.2","","""event"",""trial"",""time""
""fullscreenenter"",""1"",""1824""
""fullscreenenter"",""1"",""1824""
","
","
","""event"",""trial"",""time""
""fullscreenenter"",""1"",""1824""
""fullscreenenter"",""1"",""1824""
","
","","","587","","","12","8858","4196","z","elianto","#3366ff99","-1"," ","0","+10","[1438]","1","2","","","8858","75","4","2","win","no-go","1"
"pit-trial","197","1378148","0.0-80.0","battery-v0.2","","""event"",""trial"",""time""
""fullscreenenter"",""1"",""1824""
""fullscreenenter"",""1"",""1824""
","
","
","""event"",""trial"",""time""
""fullscreenenter"",""1"",""1824""
""fullscreenenter"",""1"",""1824""
","
","","","-1","","","12","8858","4196","h","elianto","#f73b6a7A"," ","-1","0","-10","[]","0","2","","","8858","76","3","3","lose","go","0"
"pit-trial","198","1383006","0.0-81.0","battery-v0.2","","""event"",""trial"",""time""
""fullscreenenter"",""1"",""1824""
""fullscreenenter"",""1"",""1824""
","
","
","""event"",""trial"",""time""
""fullscreenenter"",""1"",""1824""
""fullscreenenter"",""1"",""1824""
","
","","","-1","","","12","8858","4196","h","elianto","#f73b6a7A"," ","-1","0","-10","[]","0","2","","","8858","77","3","3","lose","go","0"
"pit-trial","199","1386527","0.0-82.0","battery-v0.2","","""event"",""trial"",""time""
""fullscreenenter"",""1"",""1824""
""fullscreenenter"",""1"",""1824""
","
","
","""event"",""trial"",""time""
""fullscreenenter"",""1"",""1824""
""fullscreenenter"",""1"",""1824""
","
","","","662","","","12","8858","4196","z","elianto","#3366ff99","-1"," ","0","0","[1513]","1","2","","","8858","78","4","2","win","no-go","0"
"pit-trial","200","1389891","0.0-83.0","battery-v0.2","","""event"",""trial"",""time""
""fullscreenenter"",""1"",""1824""
""fullscreenenter"",""1"",""1824""
","
","
","""event"",""trial"",""time""
""fullscreenenter"",""1"",""1824""
""fullscreenenter"",""1"",""1824""
","
","","","506","","","12","8858","4196","c","elianto","#3366ff99"," "," ","1","+10","[1356.9999999997672]","1","2","","","8858","79","5","1","win","go","0"
"pit-trial","201","1393444","0.0-84.0","battery-v0.2","","""event"",""trial"",""time""
""fullscreenenter"",""1"",""1824""
""fullscreenenter"",""1"",""1824""
","
","
","""event"",""trial"",""time""
""fullscreenenter"",""1"",""1824""
""fullscreenenter"",""1"",""1824""
","
","","","693","","","12","8858","4196","b","elianto","#f73b6a7A","-1"," ","0","0","[1543]","1","2","","","8858","80","6","4","lose","no-go","1"
"pit-trial","202","1396879","0.0-85.0","battery-v0.2","","""event"",""trial"",""time""
""fullscreenenter"",""1"",""1824""
""fullscreenenter"",""1"",""1824""
","
","
","""event"",""trial"",""time""
""fullscreenenter"",""1"",""1824""
""fullscreenenter"",""1"",""1824""
","
","","","577","","","12","8858","4196","z","elianto","#3366ff99","-1"," ","0","0","[1428]","1","2","","","8858","81","4","2","win","no-go","0"
"pit-trial","203","1401463","0.0-86.0","battery-v0.2","","""event"",""trial"",""time""
""fullscreenenter"",""1"",""1824""
""fullscreenenter"",""1"",""1824""
","
","
","""event"",""trial"",""time""
""fullscreenenter"",""1"",""1824""
""fullscreenenter"",""1"",""1824""
","
","","","1726.9999999997672","","","12","8858","4196","t","elianto","#f73b6a7A"," "," ","1","0","[2577]","1","2","","","8858","82","7","3","lose","go","0"
"pit-trial","204","1405121","0.0-87.0","battery-v0.2","","""event"",""trial"",""time""
""fullscreenenter"",""1"",""1824""
""fullscreenenter"",""1"",""1824""
","
","
","""event"",""trial"",""time""
""fullscreenenter"",""1"",""1824""
""fullscreenenter"",""1"",""1824""
","
","","","798","","","12","8858","4196","b","elianto","#f73b6a7A","-1"," ","0","-10","[1650.0000000002328]","1","2","","","8858","83","6","4","lose","no-go","0"
"pit-trial","205","1408600","0.0-88.0","battery-v0.2","","""event"",""trial"",""time""
""fullscreenenter"",""1"",""1824""
""fullscreenenter"",""1"",""1824""
","
","
","""event"",""trial"",""time""
""fullscreenenter"",""1"",""1824""
""fullscreenenter"",""1"",""1824""
","
","","","620","","","12","8858","4196","c","elianto","#3366ff99"," "," ","1","+10","[1471]","1","2","","","8858","84","5","1","win","go","0"
"pit-trial","206","1411975","0.0-89.0","battery-v0.2","","""event"",""trial"",""time""
""fullscreenenter"",""1"",""1824""
""fullscreenenter"",""1"",""1824""
","
","
","""event"",""trial"",""time""
""fullscreenenter"",""1"",""1824""
""fullscreenenter"",""1"",""1824""
","
","","","516.9999999997672","","","12","8858","4196","z","elianto","#3366ff99","-1"," ","0","0","[1367]","1","2","","","8858","85","4","2","win","no-go","0"
"pit-trial","207","1415373","0.0-90.0","battery-v0.2","","""event"",""trial"",""time""
""fullscreenenter"",""1"",""1824""
""fullscreenenter"",""1"",""1824""
","
","
","""event"",""trial"",""time""
""fullscreenenter"",""1"",""1824""
""fullscreenenter"",""1"",""1824""
","
","","","539","","","12","8858","4196","c","elianto","#3366ff99"," "," ","1","+10","[1390]","1","2","","","8858","86","5","1","win","go","0"
"pit-trial","208","1420232","0.0-91.0","battery-v0.2","","""event"",""trial"",""time""
""fullscreenenter"",""1"",""1824""
""fullscreenenter"",""1"",""1824""
","
","
","""event"",""trial"",""time""
""fullscreenenter"",""1"",""1824""
""fullscreenenter"",""1"",""1824""
","
","","","-1","","","12","8858","4196","b","elianto","#f73b6a7A","-1","-1","1","0","[3915.999999999767]","1","2","","","8858","87","6","4","lose","no-go","0"
"pit-trial","209","1424334","0.0-92.0","battery-v0.2","","""event"",""trial"",""time""
""fullscreenenter"",""1"",""1824""
""fullscreenenter"",""1"",""1824""
","
","
","""event"",""trial"",""time""
""fullscreenenter"",""1"",""1824""
""fullscreenenter"",""1"",""1824""
","
","","","1246","","","12","8858","4196","t","elianto","#f73b6a7A"," "," ","1","0","[2096]","1","2","","","8858","88","7","3","lose","go","0"
"pit-trial","210","1428063","0.0-93.0","battery-v0.2","","""event"",""trial"",""time""
""fullscreenenter"",""1"",""1824""
""fullscreenenter"",""1"",""1824""
","
","
","""event"",""trial"",""time""
""fullscreenenter"",""1"",""1824""
""fullscreenenter"",""1"",""1824""
","
","","","870","","","12","8858","4196","z","elianto","#3366ff99","-1"," ","0","+10","[1721]","1","2","","","8858","89","4","2","win","no-go","1"
"pit-trial","211","1432922","0.0-94.0","battery-v0.2","","""event"",""trial"",""time""
""fullscreenenter"",""1"",""1824""
""fullscreenenter"",""1"",""1824""
","
","
","""event"",""trial"",""time""
""fullscreenenter"",""1"",""1824""
""fullscreenenter"",""1"",""1824""
","
","","","-1","","","12","8858","4196","b","elianto","#f73b6a7A","-1","-1","1","0","[]","0","2","","","8858","90","6","4","lose","no-go","0"
"pit-trial","212","1436550","0.0-95.0","battery-v0.2","","""event"",""trial"",""time""
""fullscreenenter"",""1"",""1824""
""fullscreenenter"",""1"",""1824""
","
","
","""event"",""trial"",""time""
""fullscreenenter"",""1"",""1824""
""fullscreenenter"",""1"",""1824""
","
","","","770","","","12","8858","4196","c","elianto","#3366ff99"," "," ","1","0","[1620.9999999997672]","1","2","","","8858","91","5","1","win","go","1"
"pit-trial","213","1441410","0.0-96.0","battery-v0.2","","""event"",""trial"",""time""
""fullscreenenter"",""1"",""1824""
""fullscreenenter"",""1"",""1824""
","
","
","""event"",""trial"",""time""
""fullscreenenter"",""1"",""1824""
""fullscreenenter"",""1"",""1824""
","
","","","-1","","","12","8858","4196","t","elianto","#f73b6a7A"," ","-1","0","-10","[]","0","2","","","8858","92","7","3","lose","go","0"
"pit-trial","214","1445106","0.0-97.0","battery-v0.2","","""event"",""trial"",""time""
""fullscreenenter"",""1"",""1824""
""fullscreenenter"",""1"",""1824""
","
","
","""event"",""trial"",""time""
""fullscreenenter"",""1"",""1824""
""fullscreenenter"",""1"",""1824""
","
","","","838","","","12","8858","4196","c","elianto","#3366ff99"," "," ","1","+10","[1689]","1","2","","","8858","93","5","1","win","go","0"
"pit-trial","215","1449965","0.0-98.0","battery-v0.2","","""event"",""trial"",""time""
""fullscreenenter"",""1"",""1824""
""fullscreenenter"",""1"",""1824""
","
","
","""event"",""trial"",""time""
""fullscreenenter"",""1"",""1824""
""fullscreenenter"",""1"",""1824""
","
","","","-1","","","12","8858","4196","t","elianto","#f73b6a7A"," ","-1","0","-10","[]","0","2","","","8858","94","7","3","lose","go","0"
"pit-trial","216","1453389","0.0-99.0","battery-v0.2","","""event"",""trial"",""time""
""fullscreenenter"",""1"",""1824""
""fullscreenenter"",""1"",""1824""
","
","
","""event"",""trial"",""time""
""fullscreenenter"",""1"",""1824""
""fullscreenenter"",""1"",""1824""
","
","","","566","","","12","8858","4196","f","elianto","#3366ff99","-1"," ","0","0","[1417]","1","2","","","8858","95","8","2","win","no-go","0"
"pit-trial","217","1458248","0.0-100.0","battery-v0.2","","""event"",""trial"",""time""
""fullscreenenter"",""1"",""1824""
""fullscreenenter"",""1"",""1824""
","
","
","""event"",""trial"",""time""
""fullscreenenter"",""1"",""1824""
""fullscreenenter"",""1"",""1824""
","
","","","-1","","","12","8858","4196","b","elianto","#f73b6a7A","-1","-1","1","0","[]","0","2","","","8858","96","6","4","lose","no-go","0"
"pit-trial","218","1463107","0.0-101.0","battery-v0.2","","""event"",""trial"",""time""
""fullscreenenter"",""1"",""1824""
""fullscreenenter"",""1"",""1824""
","
","
","""event"",""trial"",""time""
""fullscreenenter"",""1"",""1824""
""fullscreenenter"",""1"",""1824""
","
","","","-1","","","12","8858","4196","b","elianto","#f73b6a7A","-1","-1","1","0","[]","0","2","","","8858","97","6","4","lose","no-go","0"
"pit-trial","219","1467965","0.0-102.0","battery-v0.2","","""event"",""trial"",""time""
""fullscreenenter"",""1"",""1824""
""fullscreenenter"",""1"",""1824""
","
","
","""event"",""trial"",""time""
""fullscreenenter"",""1"",""1824""
""fullscreenenter"",""1"",""1824""
","
","","","-1","","","12","8858","4196","t","elianto","#f73b6a7A"," ","-1","0","-10","[]","0","2","","","8858","98","7","3","lose","go","0"
"pit-trial","220","1472281","0.0-103.0","battery-v0.2","","""event"",""trial"",""time""
""fullscreenenter"",""1"",""1824""
""fullscreenenter"",""1"",""1824""
","
","
","""event"",""trial"",""time""
""fullscreenenter"",""1"",""1824""
""fullscreenenter"",""1"",""1824""
","
","","","1459","","","12","8858","4196","f","elianto","#3366ff99","-1"," ","0","+10","[2309]","1","2","","","8858","99","8","2","win","no-go","1"
"pit-trial","221","1475828","0.0-104.0","battery-v0.2","","""event"",""trial"",""time""
""fullscreenenter"",""1"",""1824""
""fullscreenenter"",""1"",""1824""
","
","
","""event"",""trial"",""time""
""fullscreenenter"",""1"",""1824""
""fullscreenenter"",""1"",""1824""
","
","","","688","","","12","8858","4196","c","elianto","#3366ff99"," "," ","1","+10","[1540]","1","2","","","8858","100","5","1","win","go","0"
"pit-trial","222","1479273","0.0-105.0","battery-v0.2","","""event"",""trial"",""time""
""fullscreenenter"",""1"",""1824""
""fullscreenenter"",""1"",""1824""
","
","
","""event"",""trial"",""time""
""fullscreenenter"",""1"",""1824""
""fullscreenenter"",""1"",""1824""
","
","","","587","","","12","8858","4196","f","elianto","#3366ff99","-1"," ","0","0","[1437]","1","2","","","8858","101","8","2","win","no-go","0"
"pit-trial","223","1482771","0.0-106.0","battery-v0.2","","""event"",""trial"",""time""
""fullscreenenter"",""1"",""1824""
""fullscreenenter"",""1"",""1824""
","
","
","""event"",""trial"",""time""
""fullscreenenter"",""1"",""1824""
""fullscreenenter"",""1"",""1824""
","
","","","639","","","12","8858","4196","n","elianto","#3366ff99","-1"," ","0","+10","[1490]","1","2","","","8858","102","9","2","win","no-go","1"
"pit-trial","224","1486279","0.0-107.0","battery-v0.2","","""event"",""trial"",""time""
""fullscreenenter"",""1"",""1824""
""fullscreenenter"",""1"",""1824""
","
","
","""event"",""trial"",""time""
""fullscreenenter"",""1"",""1824""
""fullscreenenter"",""1"",""1824""
","
","","","649","","","12","8858","4196","c","elianto","#3366ff99"," "," ","1","+10","[1500]","1","2","","","8858","103","5","1","win","go","0"
"pit-trial","225","1491138","0.0-108.0","battery-v0.2","","""event"",""trial"",""time""
""fullscreenenter"",""1"",""1824""
""fullscreenenter"",""1"",""1824""
","
","
","""event"",""trial"",""time""
""fullscreenenter"",""1"",""1824""
""fullscreenenter"",""1"",""1824""
","
","","","-1","","","12","8858","4196","b","elianto","#f73b6a7A","-1","-1","1","-10","[]","0","2","","","8858","104","6","4","lose","no-go","1"
"pit-trial","226","1495997","0.0-109.0","battery-v0.2","","""event"",""trial"",""time""
""fullscreenenter"",""1"",""1824""
""fullscreenenter"",""1"",""1824""
","
","
","""event"",""trial"",""time""
""fullscreenenter"",""1"",""1824""
""fullscreenenter"",""1"",""1824""
","
","","","-1","","","12","8858","4196","b","elianto","#f73b6a7A","-1","-1","1","0","[]","0","2","","","8858","105","6","4","lose","no-go","0"
"pit-trial","227","1499786","0.0-110.0","battery-v0.2","","""event"",""trial"",""time""
""fullscreenenter"",""1"",""1824""
""fullscreenenter"",""1"",""1824""
","
","
","""event"",""trial"",""time""
""fullscreenenter"",""1"",""1824""
""fullscreenenter"",""1"",""1824""
","
","","","931","","","12","8858","4196","f","elianto","#3366ff99","-1"," ","0","0","[1782]","1","2","","","8858","106","8","2","win","no-go","0"
"pit-trial","228","1504645","0.0-111.0","battery-v0.2","","""event"",""trial"",""time""
""fullscreenenter"",""1"",""1824""
""fullscreenenter"",""1"",""1824""
","
","
","""event"",""trial"",""time""
""fullscreenenter"",""1"",""1824""
""fullscreenenter"",""1"",""1824""
","
