"trial_type","trial_index","time_elapsed","internal_node_id","task_version","subject_id","interactions","blur_events","focus_events","fullscreenenter_events","fullscreenexit_events","success","view_history","rt","responses","num_errors","age","subject","participantId","rune","rune_set","hex","correct","choice","accuracy","outcome","keys","total_keys","block","practice","value","sub","trial","stimulus","robot","valence","action","sham"
"pavlovia","0","3","0.0-0.0","battery-v0.2","","""event"",""trial"",""time""
""focus"",""0"",""1""
""fullscreenenter"",""1"",""3591""
","
","""event"",""trial"",""time""
""focus"",""0"",""1""
","""event"",""trial"",""time""
""fullscreenenter"",""1"",""3591""
","
","","","","","","","","","","","","","","","","","","","","","","","","","","",""
"fullscreen","1","4392","0.0-1.0","battery-v0.2","","""event"",""trial"",""time""
""focus"",""0"",""1""
""fullscreenenter"",""1"",""3591""
","
","""event"",""trial"",""time""
""focus"",""0"",""1""
","""event"",""trial"",""time""
""fullscreenenter"",""1"",""3591""
","
","true","","","","","","","","","","","","","","","","","","","","","","","","","",""
"pit-instructions","2","9656","0.0-2.0-0.0","battery-v0.2","","""event"",""trial"",""time""
""focus"",""0"",""1""
""fullscreenenter"",""1"",""3591""
","
","""event"",""trial"",""time""
""focus"",""0"",""1""
","""event"",""trial"",""time""
""fullscreenenter"",""1"",""3591""
","
","","[{""page_index"":0,""viewing_time"":5260}]","5260","","","","","","","","","","","","","","","","","","","","","","","",""
"pit-comprehension","3","13593","0.0-2.0-1.0-0.0","battery-v0.2","","""event"",""trial"",""time""
""focus"",""0"",""1""
""fullscreenenter"",""1"",""3591""
","
","""event"",""trial"",""time""
""focus"",""0"",""1""
","""event"",""trial"",""time""
""fullscreenenter"",""1"",""3591""
","
","","","3931","[""shark""]","0","20","10594","5074","","","","","","","","","","","","","","","","","","",""
"pit-instructions","4","16344","0.0-2.0-1.0-1.0","battery-v0.2","","""event"",""trial"",""time""
""focus"",""0"",""1""
""fullscreenenter"",""1"",""3591""
","
","""event"",""trial"",""time""
""focus"",""0"",""1""
","""event"",""trial"",""time""
""fullscreenenter"",""1"",""3591""
","
","","[{""page_index"":0,""viewing_time"":2748}]","2749","","","","","","","","","","","","","","","","","","","","","","","",""
"pit-comprehension","5","19516","0.0-2.0-2.0-0.0","battery-v0.2","","""event"",""trial"",""time""
""focus"",""0"",""1""
""fullscreenenter"",""1"",""3591""
","
","""event"",""trial"",""time""
""focus"",""0"",""1""
","""event"",""trial"",""time""
""fullscreenenter"",""1"",""3591""
","
","","","3169","[""tiger""]","0","20","10594","5074","","","","","","","","","","","","","","","","","","",""
"pit-instructions","6","25626","0.0-2.0-2.0-1.0","battery-v0.2","","""event"",""trial"",""time""
""focus"",""0"",""1""
""fullscreenenter"",""1"",""3591""
","
","""event"",""trial"",""time""
""focus"",""0"",""1""
","""event"",""trial"",""time""
""fullscreenenter"",""1"",""3591""
","
","","[{""page_index"":0,""viewing_time"":6107}]","6107","","","","","","","","","","","","","","","","","","","","","","","",""
"pit-instructions","7","120327","0.0-2.0-3.0","battery-v0.2","","""event"",""trial"",""time""
""focus"",""0"",""1""
""fullscreenenter"",""1"",""3591""
","
","""event"",""trial"",""time""
""focus"",""0"",""1""
","""event"",""trial"",""time""
""fullscreenenter"",""1"",""3591""
","
","","[{""page_index"":0,""viewing_time"":8186},{""page_index"":1,""viewing_time"":5842},{""page_index"":2,""viewing_time"":7990},{""page_index"":3,""viewing_time"":5031},{""page_index"":4,""viewing_time"":5679},{""page_index"":5,""viewing_time"":5413},{""page_index"":6,""viewing_time"":6631},{""page_index"":7,""viewing_time"":6491},{""page_index"":8,""viewing_time"":7257},{""page_index"":9,""viewing_time"":7717},{""page_index"":10,""viewing_time"":8532},{""page_index"":11,""viewing_time"":7076},{""page_index"":12,""viewing_time"":6923},{""page_index"":13,""viewing_time"":5928}]","94696","","","","","","","","","","","","","","","","","","","","","","","",""
"pit-trial","8","123736","0.0-2.0-4.0-0.0","battery-v0.2","","""event"",""trial"",""time""
""focus"",""0"",""1""
""fullscreenenter"",""1"",""3591""
","
","""event"",""trial"",""time""
""focus"",""0"",""1""
","""event"",""trial"",""time""
""fullscreenenter"",""1"",""3591""
","
","","","539","","","20","10594","5074","&#9784;","elianto","#FFFFF080"," "," ","1","&#10004","[1402]","1","0","0","","","","","","","",""
"pit-trial","9","127058","0.0-2.0-4.1-0.1","battery-v0.2","","""event"",""trial"",""time""
""focus"",""0"",""1""
""fullscreenenter"",""1"",""3591""
","
","""event"",""trial"",""time""
""focus"",""0"",""1""
","""event"",""trial"",""time""
""fullscreenenter"",""1"",""3591""
","
","","","448","","","20","10594","5074","&#9784;","elianto","#FFFFF080"," "," ","1","&#10004","[1312]","1","0","0","","","","","","","",""
"pit-trial","10","130423","0.0-2.0-4.2-0.2","battery-v0.2","","""event"",""trial"",""time""
""focus"",""0"",""1""
""fullscreenenter"",""1"",""3591""
","
","""event"",""trial"",""time""
""focus"",""0"",""1""
","""event"",""trial"",""time""
""fullscreenenter"",""1"",""3591""
","
","","","502","","","20","10594","5074","&#9784;","elianto","#FFFFF080"," "," ","1","&#10004","[1352]","1","0","0","","","","","","","",""
"pit-trial","11","133776","0.0-2.0-4.3-0.3","battery-v0.2","","""event"",""trial"",""time""
""focus"",""0"",""1""
""fullscreenenter"",""1"",""3591""
","
","""event"",""trial"",""time""
""focus"",""0"",""1""
","""event"",""trial"",""time""
""fullscreenenter"",""1"",""3591""
","
","","","497","","","20","10594","5074","&#9784;","elianto","#FFFFF080"," "," ","1","&#10004","[1347]","1","0","0","","","","","","","",""
"pit-trial","12","137363","0.0-2.0-4.4-0.4","battery-v0.2","","""event"",""trial"",""time""
""focus"",""0"",""1""
""fullscreenenter"",""1"",""3591""
","
","""event"",""trial"",""time""
""focus"",""0"",""1""
","""event"",""trial"",""time""
""fullscreenenter"",""1"",""3591""
","
","","","721","","","20","10594","5074","&#9784;","elianto","#FFFFF080"," "," ","1","&#10004","[1574]","1","0","0","","","","","","","",""
"pit-instructions","13","159024","0.0-2.0-5.0","battery-v0.2","","""event"",""trial"",""time""
""focus"",""0"",""1""
""fullscreenenter"",""1"",""3591""
","
","""event"",""trial"",""time""
""focus"",""0"",""1""
","""event"",""trial"",""time""
""fullscreenenter"",""1"",""3591""
","
","","[{""page_index"":0,""viewing_time"":4915},{""page_index"":1,""viewing_time"":5103},{""page_index"":2,""viewing_time"":4495},{""page_index"":3,""viewing_time"":7143}]","21656","","","","","","","","","","","","","","","","","","","","","","","",""
"pit-trial","14","163883","0.0-2.0-6.0-0.0","battery-v0.2","","""event"",""trial"",""time""
""focus"",""0"",""1""
""fullscreenenter"",""1"",""3591""
","
","""event"",""trial"",""time""
""focus"",""0"",""1""
","""event"",""trial"",""time""
""fullscreenenter"",""1"",""3591""
","
","","","-1","","","20","10594","5074","&#9854;","elianto","#FFFFF080","-1","-1","1","&#10004","[]","0","0","1","","","","","","","",""
"pit-trial","15","168757","0.0-2.0-6.1-0.1","battery-v0.2","","""event"",""trial"",""time""
""focus"",""0"",""1""
""fullscreenenter"",""1"",""3591""
","
","""event"",""trial"",""time""
""focus"",""0"",""1""
","""event"",""trial"",""time""
""fullscreenenter"",""1"",""3591""
","
","","","-1","","","20","10594","5074","&#9854;","elianto","#FFFFF080","-1","-1","1","&#10004","[]","0","0","1","","","","","","","",""
"pit-trial","16","173635","0.0-2.0-6.2-0.2","battery-v0.2","","""event"",""trial"",""time""
""focus"",""0"",""1""
""fullscreenenter"",""1"",""3591""
","
","""event"",""trial"",""time""
""focus"",""0"",""1""
","""event"",""trial"",""time""
""fullscreenenter"",""1"",""3591""
","
","","","-1","","","20","10594","5074","&#9854;","elianto","#FFFFF080","-1","-1","1","&#10004","[]","0","0","1","","","","","","","",""
"pit-trial","17","178503","0.0-2.0-6.3-0.3","battery-v0.2","","""event"",""trial"",""time""
""focus"",""0"",""1""
""fullscreenenter"",""1"",""3591""
","
","""event"",""trial"",""time""
""focus"",""0"",""1""
","""event"",""trial"",""time""
""fullscreenenter"",""1"",""3591""
","
","","","-1","","","20","10594","5074","&#9854;","elianto","#FFFFF080","-1","-1","1","&#10004","[]","0","0","1","","","","","","","",""
"pit-trial","18","183381","0.0-2.0-6.4-0.4","battery-v0.2","","""event"",""trial"",""time""
""focus"",""0"",""1""
""fullscreenenter"",""1"",""3591""
","
","""event"",""trial"",""time""
""focus"",""0"",""1""
","""event"",""trial"",""time""
""fullscreenenter"",""1"",""3591""
","
","","","-1","","","20","10594","5074","&#9854;","elianto","#FFFFF080","-1","-1","1","&#10004","[]","0","0","1","","","","","","","",""
"pit-instructions","19","296939","0.0-2.0-7.0","battery-v0.2","","""event"",""trial"",""time""
""focus"",""0"",""1""
""fullscreenenter"",""1"",""3591""
","
","""event"",""trial"",""time""
""focus"",""0"",""1""
","""event"",""trial"",""time""
""fullscreenenter"",""1"",""3591""
","
","","[{""page_index"":0,""viewing_time"":5454},{""page_index"":1,""viewing_time"":6898},{""page_index"":2,""viewing_time"":5870},{""page_index"":3,""viewing_time"":6371},{""page_index"":4,""viewing_time"":6073},{""page_index"":5,""viewing_time"":5576},{""page_index"":6,""viewing_time"":4609},{""page_index"":7,""viewing_time"":7641},{""page_index"":8,""viewing_time"":6529},{""page_index"":9,""viewing_time"":6548},{""page_index"":10,""viewing_time"":6443},{""page_index"":11,""viewing_time"":4253},{""page_index"":12,""viewing_time"":7068},{""page_index"":13,""viewing_time"":7645},{""page_index"":14,""viewing_time"":7119},{""page_index"":15,""viewing_time"":6567},{""page_index"":16,""viewing_time"":6075},{""page_index"":17,""viewing_time"":6813}]","113553","","","","","","","","","","","","","","","","","","","","","","","",""
"pit-trial","20","300350","0.0-2.0-8.0-0.0","battery-v0.2","","""event"",""trial"",""time""
""focus"",""0"",""1""
""fullscreenenter"",""1"",""3591""
","
","""event"",""trial"",""time""
""focus"",""0"",""1""
","""event"",""trial"",""time""
""fullscreenenter"",""1"",""3591""
","
","","","543","","","20","10594","5074","&#9776;","elianto","#3366ff99"," "," ","1","+10","[1395]","1","0","1","","","","","","","",""
"pit-trial","21","305213","0.0-2.0-8.0-1.0","battery-v0.2","","""event"",""trial"",""time""
""focus"",""0"",""1""
""fullscreenenter"",""1"",""3591""
","
","""event"",""trial"",""time""
""focus"",""0"",""1""
","""event"",""trial"",""time""
""fullscreenenter"",""1"",""3591""
","
","","","-1","","","20","10594","5074","&#9776;","elianto","#3366ff99"," ","-1","0","0","[]","0","0","1","","","","","","","",""
"pit-trial","22","308582","0.0-2.0-8.0-2.0","battery-v0.2","","""event"",""trial"",""time""
""focus"",""0"",""1""
""fullscreenenter"",""1"",""3591""
","
","""event"",""trial"",""time""
""focus"",""0"",""1""
","""event"",""trial"",""time""
""fullscreenenter"",""1"",""3591""
","
","","","511","","","20","10594","5074","&#9776;","elianto","#3366ff99"," "," ","1","+10","[1367]","1","0","1","","","","","","","",""
"pit-trial","23","311868","0.0-2.0-8.0-3.0","battery-v0.2","","""event"",""trial"",""time""
""focus"",""0"",""1""
""fullscreenenter"",""1"",""3591""
","
","""event"",""trial"",""time""
""focus"",""0"",""1""
","""event"",""trial"",""time""
""fullscreenenter"",""1"",""3591""
","
","","","420","","","20","10594","5074","&#9776;","elianto","#3366ff99"," "," ","1","0","[1271]","1","0","1","","","","","","","",""
"pit-trial","24","315138","0.0-2.0-8.0-4.0","battery-v0.2","","""event"",""trial"",""time""
""focus"",""0"",""1""
""fullscreenenter"",""1"",""3591""
","
","""event"",""trial"",""time""
""focus"",""0"",""1""
","""event"",""trial"",""time""
""fullscreenenter"",""1"",""3591""
","
","","","396","","","20","10594","5074","&#9776;","elianto","#3366ff99"," "," ","1","+10","[1253]","1","0","1","","","","","","","",""
"pit-trial","25","318470","0.0-2.0-8.1-0.1","battery-v0.2","","""event"",""trial"",""time""
""focus"",""0"",""1""
""fullscreenenter"",""1"",""3591""
","
","""event"",""trial"",""time""
""focus"",""0"",""1""
","""event"",""trial"",""time""
""fullscreenenter"",""1"",""3591""
","
","","","469","","","20","10594","5074","&#9776;","elianto","#3366ff99"," "," ","1","+10","[1321]","1","0","1","","","","","","","",""
"pit-trial","26","321692","0.0-2.0-8.1-1.1","battery-v0.2","","""event"",""trial"",""time""
""focus"",""0"",""1""
""fullscreenenter"",""1"",""3591""
","
","""event"",""trial"",""time""
""focus"",""0"",""1""
","""event"",""trial"",""time""
""fullscreenenter"",""1"",""3591""
","
","","","360","","","20","10594","5074","&#9776;","elianto","#3366ff99"," "," ","1","+10","[1218]","1","0","1","","","","","","","",""
"pit-trial","27","324903","0.0-2.0-8.1-2.1","battery-v0.2","","""event"",""trial"",""time""
""focus"",""0"",""1""
""fullscreenenter"",""1"",""3591""
","
","""event"",""trial"",""time""
""focus"",""0"",""1""
","""event"",""trial"",""time""
""fullscreenenter"",""1"",""3591""
","
","","","350","","","20","10594","5074","&#9776;","elianto","#3366ff99"," "," ","1","+10","[1201]","1","0","1","","","","","","","",""
"pit-trial","28","328209","0.0-2.0-8.1-3.1","battery-v0.2","","""event"",""trial"",""time""
""focus"",""0"",""1""
""fullscreenenter"",""1"",""3591""
","
","""event"",""trial"",""time""
""focus"",""0"",""1""
","""event"",""trial"",""time""
""fullscreenenter"",""1"",""3591""
","
","","","438","","","20","10594","5074","&#9776;","elianto","#3366ff99"," "," ","1","0","[1291]","1","0","1","","","","","","","",""
"pit-trial","29","331419","0.0-2.0-8.1-4.1","battery-v0.2","","""event"",""trial"",""time""
""focus"",""0"",""1""
""fullscreenenter"",""1"",""3591""
","
","""event"",""trial"",""time""
""focus"",""0"",""1""
","""event"",""trial"",""time""
""fullscreenenter"",""1"",""3591""
","
","","","333","","","20","10594","5074","&#9776;","elianto","#3366ff99"," "," ","1","+10","[1198]","1","0","1","","","","","","","",""
"pit-trial","30","334650","0.0-2.0-8.2-0.2","battery-v0.2","","""event"",""trial"",""time""
""focus"",""0"",""1""
""fullscreenenter"",""1"",""3591""
","
","""event"",""trial"",""time""
""focus"",""0"",""1""
","""event"",""trial"",""time""
""fullscreenenter"",""1"",""3591""
","
","","","373","","","20","10594","5074","&#9776;","elianto","#3366ff99"," "," ","1","+10","[1223]","1","0","1","","","","","","","",""
"pit-trial","31","337877","0.0-2.0-8.2-1.2","battery-v0.2","","""event"",""trial"",""time""
""focus"",""0"",""1""
""fullscreenenter"",""1"",""3591""
","
","""event"",""trial"",""time""
""focus"",""0"",""1""
","""event"",""trial"",""time""
""fullscreenenter"",""1"",""3591""
","
","","","369","","","20","10594","5074","&#9776;","elianto","#3366ff99"," "," ","1","+10","[1218]","1","0","1","","","","","","","",""
"pit-trial","32","341216","0.0-2.0-8.2-2.2","battery-v0.2","","""event"",""trial"",""time""
""focus"",""0"",""1""
""fullscreenenter"",""1"",""3591""
","
","""event"",""trial"",""time""
""focus"",""0"",""1""
","""event"",""trial"",""time""
""fullscreenenter"",""1"",""3591""
","
","","","470","","","20","10594","5074","&#9776;","elianto","#3366ff99"," "," ","1","+10","[1327]","1","0","1","","","","","","","",""
"pit-trial","33","344459","0.0-2.0-8.2-3.2","battery-v0.2","","""event"",""trial"",""time""
""focus"",""0"",""1""
""fullscreenenter"",""1"",""3591""
","
","""event"",""trial"",""time""
""focus"",""0"",""1""
","""event"",""trial"",""time""
""fullscreenenter"",""1"",""3591""
","
","","","370","","","20","10594","5074","&#9776;","elianto","#3366ff99"," "," ","1","0","[1228]","1","0","1","","","","","","","",""
"pit-trial","34","347696","0.0-2.0-8.2-4.2","battery-v0.2","","""event"",""trial"",""time""
""focus"",""0"",""1""
""fullscreenenter"",""1"",""3591""
","
","""event"",""trial"",""time""
""focus"",""0"",""1""
","""event"",""trial"",""time""
""fullscreenenter"",""1"",""3591""
","
","","","376","","","20","10594","5074","&#9776;","elianto","#3366ff99"," "," ","1","+10","[1230]","1","0","1","","","","","","","",""
"call-function","35","347698","0.0-2.0-9.0","battery-v0.2","","""event"",""trial"",""time""
""focus"",""0"",""1""
""fullscreenenter"",""1"",""3591""
","
","""event"",""trial"",""time""
""focus"",""0"",""1""
","""event"",""trial"",""time""
""fullscreenenter"",""1"",""3591""
","
","","","","","","","","","","","","","","","","","","","","","","","","","","",""
"pit-instructions","36","386294","0.0-2.0-10.0","battery-v0.2","","""event"",""trial"",""time""
""focus"",""0"",""1""
""fullscreenenter"",""1"",""3591""
","
","""event"",""trial"",""time""
""focus"",""0"",""1""
","""event"",""trial"",""time""
""fullscreenenter"",""1"",""3591""
","
","","[{""page_index"":0,""viewing_time"":5849},{""page_index"":1,""viewing_time"":6994},{""page_index"":2,""viewing_time"":9466},{""page_index"":3,""viewing_time"":8972},{""page_index"":4,""viewing_time"":7314}]","38595","","","","","","","","","","","","","","","","","","","","","","","",""
"pit-trial","37","389574","0.0-2.0-11.0-0.0","battery-v0.2","","""event"",""trial"",""time""
""focus"",""0"",""1""
""fullscreenenter"",""1"",""3591""
","
","""event"",""trial"",""time""
""focus"",""0"",""1""
","""event"",""trial"",""time""
""fullscreenenter"",""1"",""3591""
","
","","","420","","","20","10594","5074","&#9761;","elianto","#3366ff99","-1"," ","0","0","[1271]","1","0","2","","","","","","","",""
"pit-trial","38","394441","0.0-2.0-11.0-1.0","battery-v0.2","","""event"",""trial"",""time""
""focus"",""0"",""1""
""fullscreenenter"",""1"",""3591""
","
","""event"",""trial"",""time""
""focus"",""0"",""1""
","""event"",""trial"",""time""
""fullscreenenter"",""1"",""3591""
","
","","","-1","","","20","10594","5074","&#9761;","elianto","#3366ff99","-1","-1","1","+10","[]","0","0","2","","","","","","","",""
"pit-trial","39","399304","0.0-2.0-11.0-2.0","battery-v0.2","","""event"",""trial"",""time""
""focus"",""0"",""1""
""fullscreenenter"",""1"",""3591""
","
","""event"",""trial"",""time""
""focus"",""0"",""1""
","""event"",""trial"",""time""
""fullscreenenter"",""1"",""3591""
","
","","","-1","","","20","10594","5074","&#9761;","elianto","#3366ff99","-1","-1","1","+10","[]","0","0","2","","","","","","","",""
"pit-trial","40","404178","0.0-2.0-11.0-3.0","battery-v0.2","","""event"",""trial"",""time""
""focus"",""0"",""1""
""fullscreenenter"",""1"",""3591""
","
","""event"",""trial"",""time""
""focus"",""0"",""1""
","""event"",""trial"",""time""
""fullscreenenter"",""1"",""3591""
","
","","","-1","","","20","10594","5074","&#9761;","elianto","#3366ff99","-1","-1","1","0","[]","0","0","2","","","","","","","",""
"pit-trial","41","409040","0.0-2.0-11.0-4.0","battery-v0.2","","""event"",""trial"",""time""
""focus"",""0"",""1""
""fullscreenenter"",""1"",""3591""
","
","""event"",""trial"",""time""
""focus"",""0"",""1""
","""event"",""trial"",""time""
""fullscreenenter"",""1"",""3591""
","
","","","-1","","","20","10594","5074","&#9761;","elianto","#3366ff99","-1","-1","1","+10","[]","0","0","2","","","","","","","",""
"pit-trial","42","413916","0.0-2.0-11.1-0.1","battery-v0.2","","""event"",""trial"",""time""
""focus"",""0"",""1""
""fullscreenenter"",""1"",""3591""
","
","""event"",""trial"",""time""
""focus"",""0"",""1""
","""event"",""trial"",""time""
""fullscreenenter"",""1"",""3591""
","
","","","-1","","","20","10594","5074","&#9761;","elianto","#3366ff99","-1","-1","1","+10","[]","0","0","2","","","","","","","",""
"pit-trial","43","418789","0.0-2.0-11.1-1.1","battery-v0.2","","""event"",""trial"",""time""
""focus"",""0"",""1""
""fullscreenenter"",""1"",""3591""
","
","""event"",""trial"",""time""
""focus"",""0"",""1""
","""event"",""trial"",""time""
""fullscreenenter"",""1"",""3591""
","
","","","-1","","","20","10594","5074","&#9761;","elianto","#3366ff99","-1","-1","1","+10","[]","0","0","2","","","","","","","",""
"pit-trial","44","423642","0.0-2.0-11.1-2.1","battery-v0.2","","""event"",""trial"",""time""
""focus"",""0"",""1""
""fullscreenenter"",""1"",""3591""
","
","""event"",""trial"",""time""
""focus"",""0"",""1""
","""event"",""trial"",""time""
""fullscreenenter"",""1"",""3591""
","
","","","-1","","","20","10594","5074","&#9761;","elianto","#3366ff99","-1","-1","1","+10","[]","0","0","2","","","","","","","",""
"pit-trial","45","428502","0.0-2.0-11.1-3.1","battery-v0.2","","""event"",""trial"",""time""
""focus"",""0"",""1""
""fullscreenenter"",""1"",""3591""
","
","""event"",""trial"",""time""
""focus"",""0"",""1""
","""event"",""trial"",""time""
""fullscreenenter"",""1"",""3591""
","
","","","-1","","","20","10594","5074","&#9761;","elianto","#3366ff99","-1","-1","1","0","[]","0","0","2","","","","","","","",""
"pit-trial","46","433362","0.0-2.0-11.1-4.1","battery-v0.2","","""event"",""trial"",""time""
""focus"",""0"",""1""
""fullscreenenter"",""1"",""3591""
","
","""event"",""trial"",""time""
""focus"",""0"",""1""
","""event"",""trial"",""time""
""fullscreenenter"",""1"",""3591""
","
","","","-1","","","20","10594","5074","&#9761;","elianto","#3366ff99","-1","-1","1","+10","[]","0","0","2","","","","","","","",""
"pit-trial","47","438235","0.0-2.0-11.2-0.2","battery-v0.2","","""event"",""trial"",""time""
""focus"",""0"",""1""
""fullscreenenter"",""1"",""3591""
","
","""event"",""trial"",""time""
""focus"",""0"",""1""
","""event"",""trial"",""time""
""fullscreenenter"",""1"",""3591""
","
","","","-1","","","20","10594","5074","&#9761;","elianto","#3366ff99","-1","-1","1","+10","[]","0","0","2","","","","","","","",""
"pit-trial","48","443112","0.0-2.0-11.2-1.2","battery-v0.2","","""event"",""trial"",""time""
""focus"",""0"",""1""
""fullscreenenter"",""1"",""3591""
","
","""event"",""trial"",""time""
""focus"",""0"",""1""
","""event"",""trial"",""time""
""fullscreenenter"",""1"",""3591""
","
","","","-1","","","20","10594","5074","&#9761;","elianto","#3366ff99","-1","-1","1","+10","[]","0","0","2","","","","","","","",""
"pit-trial","49","447980","0.0-2.0-11.2-2.2","battery-v0.2","","""event"",""trial"",""time""
""focus"",""0"",""1""
""fullscreenenter"",""1"",""3591""
","
","""event"",""trial"",""time""
""focus"",""0"",""1""
","""event"",""trial"",""time""
""fullscreenenter"",""1"",""3591""
","
","","","-1","","","20","10594","5074","&#9761;","elianto","#3366ff99","-1","-1","1","+10","[]","0","0","2","","","","","","","",""
"pit-trial","50","452836","0.0-2.0-11.2-3.2","battery-v0.2","","""event"",""trial"",""time""
""focus"",""0"",""1""
""fullscreenenter"",""1"",""3591""
","
","""event"",""trial"",""time""
""focus"",""0"",""1""
","""event"",""trial"",""time""
""fullscreenenter"",""1"",""3591""
","
","","","-1","","","20","10594","5074","&#9761;","elianto","#3366ff99","-1","-1","1","0","[]","0","0","2","","","","","","","",""
"pit-trial","51","457703","0.0-2.0-11.2-4.2","battery-v0.2","","""event"",""trial"",""time""
""focus"",""0"",""1""
""fullscreenenter"",""1"",""3591""
","
","""event"",""trial"",""time""
""focus"",""0"",""1""
","""event"",""trial"",""time""
""fullscreenenter"",""1"",""3591""
","
","","","-1","","","20","10594","5074","&#9761;","elianto","#3366ff99","-1","-1","1","+10","[]","0","0","2","","","","","","","",""
"pit-trial","52","462585","0.0-2.0-11.3-0.3","battery-v0.2","","""event"",""trial"",""time""
""focus"",""0"",""1""
""fullscreenenter"",""1"",""3591""
","
","""event"",""trial"",""time""
""focus"",""0"",""1""
","""event"",""trial"",""time""
""fullscreenenter"",""1"",""3591""
","
","","","-1","","","20","10594","5074","&#9761;","elianto","#3366ff99","-1","-1","1","+10","[]","0","0","2","","","","","","","",""
"pit-trial","53","467455","0.0-2.0-11.3-1.3","battery-v0.2","","""event"",""trial"",""time""
""focus"",""0"",""1""
""fullscreenenter"",""1"",""3591""
","
","""event"",""trial"",""time""
""focus"",""0"",""1""
","""event"",""trial"",""time""
""fullscreenenter"",""1"",""3591""
","
","","","-1","","","20","10594","5074","&#9761;","elianto","#3366ff99","-1","-1","1","+10","[]","0","0","2","","","","","","","",""
"pit-trial","54","472324","0.0-2.0-11.3-2.3","battery-v0.2","","""event"",""trial"",""time""
""focus"",""0"",""1""
""fullscreenenter"",""1"",""3591""
","
","""event"",""trial"",""time""
""focus"",""0"",""1""
","""event"",""trial"",""time""
""fullscreenenter"",""1"",""3591""
","
","","","-1","","","20","10594","5074","&#9761;","elianto","#3366ff99","-1","-1","1","+10","[]","0","0","2","","","","","","","",""
"pit-trial","55","477181","0.0-2.0-11.3-3.3","battery-v0.2","","""event"",""trial"",""time""
""focus"",""0"",""1""
""fullscreenenter"",""1"",""3591""
","
","""event"",""trial"",""time""
""focus"",""0"",""1""
","""event"",""trial"",""time""
""fullscreenenter"",""1"",""3591""
","
","","","-1","","","20","10594","5074","&#9761;","elianto","#3366ff99","-1","-1","1","0","[]","0","0","2","","","","","","","",""
"pit-trial","56","482053","0.0-2.0-11.3-4.3","battery-v0.2","","""event"",""trial"",""time""
""focus"",""0"",""1""
""fullscreenenter"",""1"",""3591""
","
","""event"",""trial"",""time""
""focus"",""0"",""1""
","""event"",""trial"",""time""
""fullscreenenter"",""1"",""3591""
","
","","","-1","","","20","10594","5074","&#9761;","elianto","#3366ff99","-1","-1","1","+10","[]","0","0","2","","","","","","","",""
"call-function","57","482055","0.0-2.0-12.0","battery-v0.2","","""event"",""trial"",""time""
""focus"",""0"",""1""
""fullscreenenter"",""1"",""3591""
","
","""event"",""trial"",""time""
""focus"",""0"",""1""
","""event"",""trial"",""time""
""fullscreenenter"",""1"",""3591""
","
","","","","","","","","","","","","","","","","","","","","","","","","","","",""
"pit-instructions","58","514338","0.0-2.0-13.0","battery-v0.2","","""event"",""trial"",""time""
""focus"",""0"",""1""
""fullscreenenter"",""1"",""3591""
","
","""event"",""trial"",""time""
""focus"",""0"",""1""
","""event"",""trial"",""time""
""fullscreenenter"",""1"",""3591""
","
","","[{""page_index"":0,""viewing_time"":4709},{""page_index"":1,""viewing_time"":7661},{""page_index"":2,""viewing_time"":3233},{""page_index"":3,""viewing_time"":11721},{""page_index"":4,""viewing_time"":4958}]","32282","","","","","","","","","","","","","","","","","","","","","","","",""
"pit-trial","59","517751","0.0-2.0-14.0-0.0","battery-v0.2","","""event"",""trial"",""time""
""focus"",""0"",""1""
""fullscreenenter"",""1"",""3591""
","
","""event"",""trial"",""time""
""focus"",""0"",""1""
","""event"",""trial"",""time""
""fullscreenenter"",""1"",""3591""
","
","","","550","","","20","10594","5074","&#9826;","elianto","#f73b6a7A","-1"," ","0","-10","[1411]","1","0","3","","","","","","","",""
"pit-trial","60","522626","0.0-2.0-14.0-1.0","battery-v0.2","","""event"",""trial"",""time""
""focus"",""0"",""1""
""fullscreenenter"",""1"",""3591""
","
","""event"",""trial"",""time""
""focus"",""0"",""1""
","""event"",""trial"",""time""
""fullscreenenter"",""1"",""3591""
","
","","","-1","","","20","10594","5074","&#9826;","elianto","#f73b6a7A","-1","-1","1","0","[]","0","0","3","","","","","","","",""
"pit-trial","61","527502","0.0-2.0-14.0-2.0","battery-v0.2","","""event"",""trial"",""time""
""focus"",""0"",""1""
""fullscreenenter"",""1"",""3591""
","
","""event"",""trial"",""time""
""focus"",""0"",""1""
","""event"",""trial"",""time""
""fullscreenenter"",""1"",""3591""
","
","","","-1","","","20","10594","5074","&#9826;","elianto","#f73b6a7A","-1","-1","1","0","[]","0","0","3","","","","","","","",""
"pit-trial","62","532358","0.0-2.0-14.0-3.0","battery-v0.2","","""event"",""trial"",""time""
""focus"",""0"",""1""
""fullscreenenter"",""1"",""3591""
","
","""event"",""trial"",""time""
""focus"",""0"",""1""
","""event"",""trial"",""time""
""fullscreenenter"",""1"",""3591""
","
","","","-1","","","20","10594","5074","&#9826;","elianto","#f73b6a7A","-1","-1","1","-10","[]","0","0","3","","","","","","","",""
"pit-trial","63","537226","0.0-2.0-14.0-4.0","battery-v0.2","","""event"",""trial"",""time""
""focus"",""0"",""1""
""fullscreenenter"",""1"",""3591""
","
","""event"",""trial"",""time""
""focus"",""0"",""1""
","""event"",""trial"",""time""
""fullscreenenter"",""1"",""3591""
","
","","","-1","","","20","10594","5074","&#9826;","elianto","#f73b6a7A","-1","-1","1","0","[]","0","0","3","","","","","","","",""
"pit-trial","64","542100","0.0-2.0-14.1-0.1","battery-v0.2","","""event"",""trial"",""time""
""focus"",""0"",""1""
""fullscreenenter"",""1"",""3591""
","
","""event"",""trial"",""time""
""focus"",""0"",""1""
","""event"",""trial"",""time""
""fullscreenenter"",""1"",""3591""
","
","","","-1","","","20","10594","5074","&#9826;","elianto","#f73b6a7A","-1","-1","1","0","[]","0","0","3","","","","","","","",""
"pit-trial","65","546975","0.0-2.0-14.1-1.1","battery-v0.2","","""event"",""trial"",""time""
""focus"",""0"",""1""
""fullscreenenter"",""1"",""3591""
","
","""event"",""trial"",""time""
""focus"",""0"",""1""
","""event"",""trial"",""time""
""fullscreenenter"",""1"",""3591""
","
","","","-1","","","20","10594","5074","&#9826;","elianto","#f73b6a7A","-1","-1","1","0","[]","0","0","3","","","","","","","",""
"pit-trial","66","551833","0.0-2.0-14.1-2.1","battery-v0.2","","""event"",""trial"",""time""
""focus"",""0"",""1""
""fullscreenenter"",""1"",""3591""
","
","""event"",""trial"",""time""
""focus"",""0"",""1""
","""event"",""trial"",""time""
""fullscreenenter"",""1"",""3591""
","
","","","-1","","","20","10594","5074","&#9826;","elianto","#f73b6a7A","-1","-1","1","0","[]","0","0","3","","","","","","","",""
"pit-trial","67","556713","0.0-2.0-14.1-3.1","battery-v0.2","","""event"",""trial"",""time""
""focus"",""0"",""1""
""fullscreenenter"",""1"",""3591""
","
","""event"",""trial"",""time""
""focus"",""0"",""1""
","""event"",""trial"",""time""
""fullscreenenter"",""1"",""3591""
","
","","","-1","","","20","10594","5074","&#9826;","elianto","#f73b6a7A","-1","-1","1","-10","[]","0","0","3","","","","","","","",""
"pit-trial","68","561581","0.0-2.0-14.1-4.1","battery-v0.2","","""event"",""trial"",""time""
""focus"",""0"",""1""
""fullscreenenter"",""1"",""3591""
","
","""event"",""trial"",""time""
""focus"",""0"",""1""
","""event"",""trial"",""time""
""fullscreenenter"",""1"",""3591""
","
","","","-1","","","20","10594","5074","&#9826;","elianto","#f73b6a7A","-1","-1","1","0","[]","0","0","3","","","","","","","",""
"pit-trial","69","566458","0.0-2.0-14.2-0.2","battery-v0.2","","""event"",""trial"",""time""
""focus"",""0"",""1""
""fullscreenenter"",""1"",""3591""
","
","""event"",""trial"",""time""
""focus"",""0"",""1""
","""event"",""trial"",""time""
""fullscreenenter"",""1"",""3591""
","
","","","-1","","","20","10594","5074","&#9826;","elianto","#f73b6a7A","-1","-1","1","0","[]","0","0","3","","","","","","","",""
"pit-trial","70","571334","0.0-2.0-14.2-1.2","battery-v0.2","","""event"",""trial"",""time""
""focus"",""0"",""1""
""fullscreenenter"",""1"",""3591""
","
","""event"",""trial"",""time""
""focus"",""0"",""1""
","""event"",""trial"",""time""
""fullscreenenter"",""1"",""3591""
","
","","","-1","","","20","10594","5074","&#9826;","elianto","#f73b6a7A","-1","-1","1","0","[]","0","0","3","","","","","","","",""
"pit-trial","71","576197","0.0-2.0-14.2-2.2","battery-v0.2","","""event"",""trial"",""time""
""focus"",""0"",""1""
""fullscreenenter"",""1"",""3591""
","
","""event"",""trial"",""time""
""focus"",""0"",""1""
","""event"",""trial"",""time""
""fullscreenenter"",""1"",""3591""
","
","","","-1","","","20","10594","5074","&#9826;","elianto","#f73b6a7A","-1","-1","1","0","[]","0","0","3","","","","","","","",""
"pit-trial","72","581064","0.0-2.0-14.2-3.2","battery-v0.2","","""event"",""trial"",""time""
""focus"",""0"",""1""
""fullscreenenter"",""1"",""3591""
","
","""event"",""trial"",""time""
""focus"",""0"",""1""
","""event"",""trial"",""time""
""fullscreenenter"",""1"",""3591""
","
","","","-1","","","20","10594","5074","&#9826;","elianto","#f73b6a7A","-1","-1","1","-10","[]","0","0","3","","","","","","","",""
"pit-trial","73","585944","0.0-2.0-14.2-4.2","battery-v0.2","","""event"",""trial"",""time""
""focus"",""0"",""1""
""fullscreenenter"",""1"",""3591""
","
","""event"",""trial"",""time""
""focus"",""0"",""1""
","""event"",""trial"",""time""
""fullscreenenter"",""1"",""3591""
","
","","","-1","","","20","10594","5074","&#9826;","elianto","#f73b6a7A","-1","-1","1","0","[]","0","0","3","","","","","","","",""
"pit-trial","74","590813","0.0-2.0-14.3-0.3","battery-v0.2","","""event"",""trial"",""time""
""focus"",""0"",""1""
""fullscreenenter"",""1"",""3591""
","
","""event"",""trial"",""time""
""focus"",""0"",""1""
","""event"",""trial"",""time""
""fullscreenenter"",""1"",""3591""
","
","","","-1","","","20","10594","5074","&#9826;","elianto","#f73b6a7A","-1","-1","1","0","[]","0","0","3","","","","","","","",""
"pit-trial","75","595675","0.0-2.0-14.3-1.3","battery-v0.2","","""event"",""trial"",""time""
""focus"",""0"",""1""
""fullscreenenter"",""1"",""3591""
","
","""event"",""trial"",""time""
""focus"",""0"",""1""
","""event"",""trial"",""time""
""fullscreenenter"",""1"",""3591""
","
","","","-1","","","20","10594","5074","&#9826;","elianto","#f73b6a7A","-1","-1","1","0","[]","0","0","3","","","","","","","",""
"pit-trial","76","600531","0.0-2.0-14.3-2.3","battery-v0.2","","""event"",""trial"",""time""
""focus"",""0"",""1""
""fullscreenenter"",""1"",""3591""
","
","""event"",""trial"",""time""
""focus"",""0"",""1""
","""event"",""trial"",""time""
""fullscreenenter"",""1"",""3591""
","
","","","-1","","","20","10594","5074","&#9826;","elianto","#f73b6a7A","-1","-1","1","0","[]","0","0","3","","","","","","","",""
"pit-trial","77","605384","0.0-2.0-14.3-3.3","battery-v0.2","","""event"",""trial"",""time""
""focus"",""0"",""1""
""fullscreenenter"",""1"",""3591""
","
","""event"",""trial"",""time""
""focus"",""0"",""1""
","""event"",""trial"",""time""
""fullscreenenter"",""1"",""3591""
","
","","","-1","","","20","10594","5074","&#9826;","elianto","#f73b6a7A","-1","-1","1","-10","[]","0","0","3","","","","","","","",""
"pit-trial","78","610244","0.0-2.0-14.3-4.3","battery-v0.2","","""event"",""trial"",""time""
""focus"",""0"",""1""
""fullscreenenter"",""1"",""3591""
","
","""event"",""trial"",""time""
""focus"",""0"",""1""
","""event"",""trial"",""time""
""fullscreenenter"",""1"",""3591""
","
","","","-1","","","20","10594","5074","&#9826;","elianto","#f73b6a7A","-1","-1","1","0","[]","0","0","3","","","","","","","",""
"call-function","79","610246","0.0-2.0-15.0","battery-v0.2","","""event"",""trial"",""time""
""focus"",""0"",""1""
""fullscreenenter"",""1"",""3591""
","
","""event"",""trial"",""time""
""focus"",""0"",""1""
","""event"",""trial"",""time""
""fullscreenenter"",""1"",""3591""
","
","","","","","","","","","","","","","","","","","","","","","","","","","","",""
"pit-instructions","80","634120","0.0-2.0-16.0","battery-v0.2","","""event"",""trial"",""time""
""focus"",""0"",""1""
""fullscreenenter"",""1"",""3591""
","
","""event"",""trial"",""time""
""focus"",""0"",""1""
","""event"",""trial"",""time""
""fullscreenenter"",""1"",""3591""
","
","","[{""page_index"":0,""viewing_time"":6463},{""page_index"":1,""viewing_time"":8224},{""page_index"":2,""viewing_time"":4270},{""page_index"":3,""viewing_time"":4918}]","23875","","","","","","","","","","","","","","","","","","","","","","","",""
"pit-trial","81","637642","0.0-2.0-17.0-0.0","battery-v0.2","","""event"",""trial"",""time""
""focus"",""0"",""1""
""fullscreenenter"",""1"",""3591""
","
","""event"",""trial"",""time""
""focus"",""0"",""1""
","""event"",""trial"",""time""
""fullscreenenter"",""1"",""3591""
","
","","","638","","","20","10594","5074","&#9789;","elianto","#f73b6a7A"," "," ","1","0","[1508]","1","0","4","","","","","","","",""
"pit-trial","82","642503","0.0-2.0-17.0-1.0","battery-v0.2","","""event"",""trial"",""time""
""focus"",""0"",""1""
""fullscreenenter"",""1"",""3591""
","
","""event"",""trial"",""time""
""focus"",""0"",""1""
","""event"",""trial"",""time""
""fullscreenenter"",""1"",""3591""
","
","","","-1","","","20","10594","5074","&#9789;","elianto","#f73b6a7A"," ","-1","0","-10","[]","0","0","4","","","","","","","",""
"pit-trial","83","645823","0.0-2.0-17.0-2.0","battery-v0.2","","""event"",""trial"",""time""
""focus"",""0"",""1""
""fullscreenenter"",""1"",""3591""
","
","""event"",""trial"",""time""
""focus"",""0"",""1""
","""event"",""trial"",""time""
""fullscreenenter"",""1"",""3591""
","
","","","460","","","20","10594","5074","&#9789;","elianto","#f73b6a7A"," "," ","1","0","[1312]","1","0","4","","","","","","","",""
"pit-trial","84","649038","0.0-2.0-17.0-3.0","battery-v0.2","","""event"",""trial"",""time""
""focus"",""0"",""1""
""fullscreenenter"",""1"",""3591""
","
","""event"",""trial"",""time""
""focus"",""0"",""1""
","""event"",""trial"",""time""
""fullscreenenter"",""1"",""3591""
","
","","","350","","","20","10594","5074","&#9789;","elianto","#f73b6a7A"," "," ","1","-10","[1206]","1","0","4","","","","","","","",""
"pit-trial","85","652335","0.0-2.0-17.0-4.0","battery-v0.2","","""event"",""trial"",""time""
""focus"",""0"",""1""
""fullscreenenter"",""1"",""3591""
","
","""event"",""trial"",""time""
""focus"",""0"",""1""
","""event"",""trial"",""time""
""fullscreenenter"",""1"",""3591""
","
","","","425","","","20","10594","5074","&#9789;","elianto","#f73b6a7A"," "," ","1","0","[1280]","1","0","4","","","","","","","",""
"pit-trial","86","655664","0.0-2.0-17.1-0.1","battery-v0.2","","""event"",""trial"",""time""
""focus"",""0"",""1""
""fullscreenenter"",""1"",""3591""
","
","""event"",""trial"",""time""
""focus"",""0"",""1""
","""event"",""trial"",""time""
""fullscreenenter"",""1"",""3591""
","
","","","474","","","20","10594","5074","&#9789;","elianto","#f73b6a7A"," "," ","1","0","[1325]","1","0","4","","","","","","","",""
"pit-trial","87","658890","0.0-2.0-17.1-1.1","battery-v0.2","","""event"",""trial"",""time""
""focus"",""0"",""1""
""fullscreenenter"",""1"",""3591""
","
","""event"",""trial"",""time""
""focus"",""0"",""1""
","""event"",""trial"",""time""
""fullscreenenter"",""1"",""3591""
","
","","","364","","","20","10594","5074","&#9789;","elianto","#f73b6a7A"," "," ","1","0","[1218]","1","0","4","","","","","","","",""
"pit-trial","88","662239","0.0-2.0-17.1-2.1","battery-v0.2","","""event"",""trial"",""time""
""focus"",""0"",""1""
""fullscreenenter"",""1"",""3591""
","
","""event"",""trial"",""time""
""focus"",""0"",""1""
","""event"",""trial"",""time""
""fullscreenenter"",""1"",""3591""
","
","","","486","","","20","10594","5074","&#9789;","elianto","#f73b6a7A"," "," ","1","0","[1344]","1","0","4","","","","","","","",""
"pit-trial","89","665502","0.0-2.0-17.1-3.1","battery-v0.2","","""event"",""trial"",""time""
""focus"",""0"",""1""
""fullscreenenter"",""1"",""3591""
","
","""event"",""trial"",""time""
""focus"",""0"",""1""
","""event"",""trial"",""time""
""fullscreenenter"",""1"",""3591""
","
","","","399","","","20","10594","5074","&#9789;","elianto","#f73b6a7A"," "," ","1","-10","[1255]","1","0","4","","","","","","","",""
"pit-trial","90","668753","0.0-2.0-17.1-4.1","battery-v0.2","","""event"",""trial"",""time""
""focus"",""0"",""1""
""fullscreenenter"",""1"",""3591""
","
","""event"",""trial"",""time""
""focus"",""0"",""1""
","""event"",""trial"",""time""
""fullscreenenter"",""1"",""3591""
","
","","","383","","","20","10594","5074","&#9789;","elianto","#f73b6a7A"," "," ","1","0","[1238]","1","0","4","","","","","","","",""
"pit-trial","91","671996","0.0-2.0-17.2-0.2","battery-v0.2","","""event"",""trial"",""time""
""focus"",""0"",""1""
""fullscreenenter"",""1"",""3591""
","
","""event"",""trial"",""time""
""focus"",""0"",""1""
","""event"",""trial"",""time""
""fullscreenenter"",""1"",""3591""
","
","","","382","","","20","10594","5074","&#9789;","elianto","#f73b6a7A"," "," ","1","0","[1237]","1","0","4","","","","","","","",""
"pit-trial","92","675212","0.0-2.0-17.2-1.2","battery-v0.2","","""event"",""trial"",""time""
""focus"",""0"",""1""
""fullscreenenter"",""1"",""3591""
","
","""event"",""trial"",""time""
""focus"",""0"",""1""
","""event"",""trial"",""time""
""fullscreenenter"",""1"",""3591""
","
","","","350","","","20","10594","5074","&#9789;","elianto","#f73b6a7A"," "," ","1","0","[1201]","1","0","4","","","","","","","",""
"pit-trial","93","678453","0.0-2.0-17.2-2.2","battery-v0.2","","""event"",""trial"",""time""
""focus"",""0"",""1""
""fullscreenenter"",""1"",""3591""
","
","""event"",""trial"",""time""
""focus"",""0"",""1""
","""event"",""trial"",""time""
""fullscreenenter"",""1"",""3591""
","
","","","379","","","20","10594","5074","&#9789;","elianto","#f73b6a7A"," "," ","1","0","[1233]","1","0","4","","","","","","","",""
"pit-trial","94","681740","0.0-2.0-17.2-3.2","battery-v0.2","","""event"",""trial"",""time""
""focus"",""0"",""1""
""fullscreenenter"",""1"",""3591""
","
","""event"",""trial"",""time""
""focus"",""0"",""1""
","""event"",""trial"",""time""
""fullscreenenter"",""1"",""3591""
","
","","","416","","","20","10594","5074","&#9789;","elianto","#f73b6a7A"," "," ","1","-10","[1279]","1","0","4","","","","","","","",""
"pit-trial","95","684980","0.0-2.0-17.2-4.2","battery-v0.2","","""event"",""trial"",""time""
""focus"",""0"",""1""
""fullscreenenter"",""1"",""3591""
","
","""event"",""trial"",""time""
""focus"",""0"",""1""
","""event"",""trial"",""time""
""fullscreenenter"",""1"",""3591""
","
","","","374","","","20","10594","5074","&#9789;","elianto","#f73b6a7A"," "," ","1","0","[1227]","1","0","4","","","","","","","",""
"pit-trial","96","688123","0.0-2.0-17.3-0.3","battery-v0.2","","""event"",""trial"",""time""
""focus"",""0"",""1""
""fullscreenenter"",""1"",""3591""
","
","""event"",""trial"",""time""
""focus"",""0"",""1""
","""event"",""trial"",""time""
""fullscreenenter"",""1"",""3591""
","
","","","279","","","20","10594","5074","&#9789;","elianto","#f73b6a7A"," "," ","1","0","[1133]","1","0","4","","","","","","","",""
"pit-trial","97","691169","0.0-2.0-17.3-1.3","battery-v0.2","","""event"",""trial"",""time""
""focus"",""0"",""1""
""fullscreenenter"",""1"",""3591""
","
","""event"",""trial"",""time""
""focus"",""0"",""1""
","""event"",""trial"",""time""
""fullscreenenter"",""1"",""3591""
","
","","","180","","","20","10594","5074","&#9789;","elianto","#f73b6a7A"," "," ","1","0","[1031]","1","0","4","","","","","","","",""
"pit-trial","98","694244","0.0-2.0-17.3-2.3","battery-v0.2","","""event"",""trial"",""time""
""focus"",""0"",""1""
""fullscreenenter"",""1"",""3591""
","
","""event"",""trial"",""time""
""focus"",""0"",""1""
","""event"",""trial"",""time""
""fullscreenenter"",""1"",""3591""
","
","","","212","","","20","10594","5074","&#9789;","elianto","#f73b6a7A"," "," ","1","0","[1065]","1","0","4","","","","","","","",""
"pit-trial","99","697407","0.0-2.0-17.3-3.3","battery-v0.2","","""event"",""trial"",""time""
""focus"",""0"",""1""
""fullscreenenter"",""1"",""3591""
","
","""event"",""trial"",""time""
""focus"",""0"",""1""
","""event"",""trial"",""time""
""fullscreenenter"",""1"",""3591""
","
","","","306","","","20","10594","5074","&#9789;","elianto","#f73b6a7A"," "," ","1","-10","[1158]","1","0","4","","","","","","","",""
"pit-trial","100","700766","0.0-2.0-17.3-4.3","battery-v0.2","","""event"",""trial"",""time""
""focus"",""0"",""1""
""fullscreenenter"",""1"",""3591""
","
","""event"",""trial"",""time""
""focus"",""0"",""1""
","""event"",""trial"",""time""
""fullscreenenter"",""1"",""3591""
","
","","","489","","","20","10594","5074","&#9789;","elianto","#f73b6a7A"," "," ","1","0","[1343]","1","0","4","","","","","","","",""
"call-function","101","700767","0.0-2.0-18.0","battery-v0.2","","""event"",""trial"",""time""
""focus"",""0"",""1""
""fullscreenenter"",""1"",""3591""
","
","""event"",""trial"",""time""
""focus"",""0"",""1""
","""event"",""trial"",""time""
""fullscreenenter"",""1"",""3591""
","
","","","","","","","","","","","","","","","","","","","","","","","","","","",""
"pit-instructions","102","771255","0.0-2.0-19.0","battery-v0.2","","""event"",""trial"",""time""
""focus"",""0"",""1""
""fullscreenenter"",""1"",""3591""
","
","""event"",""trial"",""time""
""focus"",""0"",""1""
","""event"",""trial"",""time""
""fullscreenenter"",""1"",""3591""
","
","","[{""page_index"":0,""viewing_time"":6762},{""page_index"":1,""viewing_time"":6055},{""page_index"":2,""viewing_time"":13525},{""page_index"":3,""viewing_time"":7621},{""page_index"":4,""viewing_time"":9144},{""page_index"":5,""viewing_time"":9059},{""page_index"":6,""viewing_time"":8128},{""page_index"":7,""viewing_time"":6126},{""page_index"":8,""viewing_time"":4066}]","70486","","","","","","","","","","","","","","","","","","","","","","","",""
"pit-comprehension","103","775800","0.0-2.0-20.0-0.0","battery-v0.2","","""event"",""trial"",""time""
""focus"",""0"",""1""
""fullscreenenter"",""1"",""3591""
","
","""event"",""trial"",""time""
""focus"",""0"",""1""
","""event"",""trial"",""time""
""fullscreenenter"",""1"",""3591""
","
","","","4542","[""SPACE""]","0","20","10594","5074","","","","","","","","","","","","","","","","","","",""
"pit-instructions","104","778637","0.0-2.0-20.0-1.0","battery-v0.2","","""event"",""trial"",""time""
""focus"",""0"",""1""
""fullscreenenter"",""1"",""3591""
","
","""event"",""trial"",""time""
""focus"",""0"",""1""
","""event"",""trial"",""time""
""fullscreenenter"",""1"",""3591""
","
","","[{""page_index"":0,""viewing_time"":2808}]","2809","","","","","","","","","","","","","","","","","","","","","","","",""
"pit-comprehension","105","784456","0.0-2.0-21.0-0.0","battery-v0.2","","""event"",""trial"",""time""
""focus"",""0"",""1""
""fullscreenenter"",""1"",""3591""
","
","""event"",""trial"",""time""
""focus"",""0"",""1""
","""event"",""trial"",""time""
""fullscreenenter"",""1"",""3591""
","
","","","5815","[""10""]","0","20","10594","5074","","","","","","","","","","","","","","","","","","",""
"pit-instructions","106","786360","0.0-2.0-21.0-1.0","battery-v0.2","","""event"",""trial"",""time""
""focus"",""0"",""1""
""fullscreenenter"",""1"",""3591""
","
","""event"",""trial"",""time""
""focus"",""0"",""1""
","""event"",""trial"",""time""
""fullscreenenter"",""1"",""3591""
","
","","[{""page_index"":0,""viewing_time"":1874}]","1874","","","","","","","","","","","","","","","","","","","","","","","",""
"pit-comprehension","107","793030","0.0-2.0-22.0-0.0","battery-v0.2","","""event"",""trial"",""time""
""focus"",""0"",""1""
""fullscreenenter"",""1"",""3591""
","
","""event"",""trial"",""time""
""focus"",""0"",""1""
","""event"",""trial"",""time""
""fullscreenenter"",""1"",""3591""
","
","","","6666","[""0""]","0","20","10594","5074","","","","","","","","","","","","","","","","","","",""
"pit-instructions","108","795373","0.0-2.0-22.0-1.0","battery-v0.2","","""event"",""trial"",""time""
""focus"",""0"",""1""
""fullscreenenter"",""1"",""3591""
","
","""event"",""trial"",""time""
""focus"",""0"",""1""
","""event"",""trial"",""time""
""fullscreenenter"",""1"",""3591""
","
","","[{""page_index"":0,""viewing_time"":2313}]","2313","","","","","","","","","","","","","","","","","","","","","","","",""
"pit-comprehension","109","803783","0.0-2.0-23.0-0.0","battery-v0.2","","""event"",""trial"",""time""
""focus"",""0"",""1""
""fullscreenenter"",""1"",""3591""
","
","""event"",""trial"",""time""
""focus"",""0"",""1""
","""event"",""trial"",""time""
""fullscreenenter"",""1"",""3591""
","
","","","8406","[""True""]","0","20","10594","5074","","","","","","","","","","","","","","","","","","",""
"pit-instructions","110","805664","0.0-2.0-23.0-1.0","battery-v0.2","","""event"",""trial"",""time""
""focus"",""0"",""1""
""fullscreenenter"",""1"",""3591""
","
","""event"",""trial"",""time""
""focus"",""0"",""1""
","""event"",""trial"",""time""
""fullscreenenter"",""1"",""3591""
","
","","[{""page_index"":0,""viewing_time"":1851}]","1851","","","","","","","","","","","","","","","","","","","","","","","",""
"pit-comprehension","111","813101","0.0-2.0-24.0-0.0","battery-v0.2","","""event"",""trial"",""time""
""focus"",""0"",""1""
""fullscreenenter"",""1"",""3591""
","
","""event"",""trial"",""time""
""focus"",""0"",""1""
","""event"",""trial"",""time""
""fullscreenenter"",""1"",""3591""
","
","","","7435","[""True""]","0","20","10594","5074","","","","","","","","","","","","","","","","","","",""
"pit-instructions","112","815556","0.0-2.0-24.0-1.0","battery-v0.2","","""event"",""trial"",""time""
""focus"",""0"",""1""
""fullscreenenter"",""1"",""3591""
","
","""event"",""trial"",""time""
""focus"",""0"",""1""
","""event"",""trial"",""time""
""fullscreenenter"",""1"",""3591""
","
","","[{""page_index"":0,""viewing_time"":2424}]","2424","","","","","","","","","","","","","","","","","","","","","","","",""
"pit-comprehension","113","822002","0.0-2.0-25.0-0.0","battery-v0.2","","""event"",""trial"",""time""
""focus"",""0"",""1""
""fullscreenenter"",""1"",""3591""
","
","""event"",""trial"",""time""
""focus"",""0"",""1""
","""event"",""trial"",""time""
""fullscreenenter"",""1"",""3591""
","
","","","6444","[""True""]","0","20","10594","5074","","","","","","","","","","","","","","","","","","",""
"pit-instructions","114","824540","0.0-2.0-25.0-1.0","battery-v0.2","","""event"",""trial"",""time""
""focus"",""0"",""1""
""fullscreenenter"",""1"",""3591""
","
","""event"",""trial"",""time""
""focus"",""0"",""1""
","""event"",""trial"",""time""
""fullscreenenter"",""1"",""3591""
","
","","[{""page_index"":0,""viewing_time"":2503}]","2504","","","","","","","","","","","","","","","","","","","","","","","",""
"pit-comprehension","115","830357","0.0-2.0-26.0-0.0","battery-v0.2","","""event"",""trial"",""time""
""focus"",""0"",""1""
""fullscreenenter"",""1"",""3591""
","
","""event"",""trial"",""time""
""focus"",""0"",""1""
","""event"",""trial"",""time""
""fullscreenenter"",""1"",""3591""
","
","","","5814","[""False""]","0","20","10594","5074","","","","","","","","","","","","","","","","","","",""
"pit-instructions","116","832784","0.0-2.0-26.0-1.0","battery-v0.2","","""event"",""trial"",""time""
""focus"",""0"",""1""
""fullscreenenter"",""1"",""3591""
","
","""event"",""trial"",""time""
""focus"",""0"",""1""
","""event"",""trial"",""time""
""fullscreenenter"",""1"",""3591""
","
","","[{""page_index"":0,""viewing_time"":2397}]","2397","","","","","","","","","","","","","","","","","","","","","","","",""
"pit-instructions","117","849593","0.0-3.0","battery-v0.2","","""event"",""trial"",""time""
""focus"",""0"",""1""
""fullscreenenter"",""1"",""3591""
","
","""event"",""trial"",""time""
""focus"",""0"",""1""
","""event"",""trial"",""time""
""fullscreenenter"",""1"",""3591""
","
","","[{""page_index"":0,""viewing_time"":3889},{""page_index"":1,""viewing_time"":5176},{""page_index"":2,""viewing_time"":7742}]","16807","","","","","","","","","","","","","","","","","","","","","","","",""
"pit-trial","118","853169","0.0-4.0","battery-v0.2","","""event"",""trial"",""time""
""focus"",""0"",""1""
""fullscreenenter"",""1"",""3591""
","
","""event"",""trial"",""time""
""focus"",""0"",""1""
","""event"",""trial"",""time""
""fullscreenenter"",""1"",""3591""
","
","","","698","","","20","10594","5074","&#9728;","elianto","#f73b6a7A","-1"," ","0","0","[1559]","1","1","","","10594","1","0","4","lose","no-go","1"
"pit-trial","119","856744","0.0-5.0","battery-v0.2","","""event"",""trial"",""time""
""focus"",""0"",""1""
""fullscreenenter"",""1"",""3591""
","
","""event"",""trial"",""time""
""focus"",""0"",""1""
","""event"",""trial"",""time""
""fullscreenenter"",""1"",""3591""
","
","","","709","","","20","10594","5074","&#9730;","elianto","#3366ff99"," "," ","1","+10","[1567]","1","1","","","10594","2","1","1","win","go","0"
"pit-trial","120","861611","0.0-6.0","battery-v0.2","","""event"",""trial"",""time""
""focus"",""0"",""1""
""fullscreenenter"",""1"",""3591""
","
","""event"",""trial"",""time""
""focus"",""0"",""1""
","""event"",""trial"",""time""
""fullscreenenter"",""1"",""3591""
","
","","","-1","","","20","10594","5074","&#9752;","elianto","#f73b6a7A"," ","-1","0","-10","[]","0","1","","","10594","3","3","3","lose","go","0"
"pit-trial","121","865296","0.0-7.0","battery-v0.2","","""event"",""trial"",""time""
""focus"",""0"",""1""
""fullscreenenter"",""1"",""3591""
","
","""event"",""trial"",""time""
""focus"",""0"",""1""
","""event"",""trial"",""time""
""fullscreenenter"",""1"",""3591""
","
","","","821","","","20","10594","5074","&#9733;","elianto","#3366ff99","-1"," ","0","+10","[1672]","1","1","","","10594","4","2","2","win","no-go","1"
"pit-trial","122","868814","0.0-8.0","battery-v0.2","","""event"",""trial"",""time""
""focus"",""0"",""1""
""fullscreenenter"",""1"",""3591""
","
","""event"",""trial"",""time""
""focus"",""0"",""1""
","""event"",""trial"",""time""
""fullscreenenter"",""1"",""3591""
","
","","","656","","","20","10594","5074","&#9728;","elianto","#f73b6a7A","-1"," ","0","-10","[1510]","1","1","","","10594","5","0","4","lose","no-go","0"
"pit-trial","123","872349","0.0-9.0","battery-v0.2","","""event"",""trial"",""time""
""focus"",""0"",""1""
""fullscreenenter"",""1"",""3591""
","
","""event"",""trial"",""time""
""focus"",""0"",""1""
","""event"",""trial"",""time""
""fullscreenenter"",""1"",""3591""
","
","","","673","","","20","10594","5074","&#9733;","elianto","#3366ff99","-1"," ","0","0","[1523]","1","1","","","10594","6","2","2","win","no-go","0"
"pit-trial","124","875861","0.0-10.0","battery-v0.2","","""event"",""trial"",""time""
""focus"",""0"",""1""
""fullscreenenter"",""1"",""3591""
","
","""event"",""trial"",""time""
""focus"",""0"",""1""
","""event"",""trial"",""time""
""fullscreenenter"",""1"",""3591""
","
","","","639","","","20","10594","5074","&#9752;","elianto","#f73b6a7A"," "," ","1","0","[1494]","1","1","","","10594","7","3","3","lose","go","0"
"pit-trial","125","879411","0.0-11.0","battery-v0.2","","""event"",""trial"",""time""
""focus"",""0"",""1""
""fullscreenenter"",""1"",""3591""
","
","""event"",""trial"",""time""
""focus"",""0"",""1""
","""event"",""trial"",""time""
""fullscreenenter"",""1"",""3591""
","
","","","695","","","20","10594","5074","&#9730;","elianto","#3366ff99"," "," ","1","+10","[1546]","1","1","","","10594","8","1","1","win","go","0"
"pit-trial","126","882735","0.0-12.0","battery-v0.2","","""event"",""trial"",""time""
""focus"",""0"",""1""
""fullscreenenter"",""1"",""3591""
","
","""event"",""trial"",""time""
""focus"",""0"",""1""
","""event"",""trial"",""time""
""fullscreenenter"",""1"",""3591""
","
","","","460","","","20","10594","5074","&#9752;","elianto","#f73b6a7A"," "," ","1","0","[1319]","1","1","","","10594","9","3","3","lose","go","0"
"pit-trial","127","886151","0.0-13.0","battery-v0.2","","""event"",""trial"",""time""
""focus"",""0"",""1""
""fullscreenenter"",""1"",""3591""
","
","""event"",""trial"",""time""
""focus"",""0"",""1""
","""event"",""trial"",""time""
""fullscreenenter"",""1"",""3591""
","
","","","551","","","20","10594","5074","&#9733;","elianto","#3366ff99","-1"," ","0","0","[1405]","1","1","","","10594","10","2","2","win","no-go","0"
"pit-trial","128","889651","0.0-14.0","battery-v0.2","","""event"",""trial"",""time""
""focus"",""0"",""1""
""fullscreenenter"",""1"",""3591""
","
","""event"",""trial"",""time""
""focus"",""0"",""1""
","""event"",""trial"",""time""
""fullscreenenter"",""1"",""3591""
","
","","","641","","","20","10594","5074","&#9728;","elianto","#f73b6a7A","-1"," ","0","-10","[1493]","1","1","","","10594","11","0","4","lose","no-go","0"
"pit-trial","129","893158","0.0-15.0","battery-v0.2","","""event"",""trial"",""time""
""focus"",""0"",""1""
""fullscreenenter"",""1"",""3591""
","
","""event"",""trial"",""time""
""focus"",""0"",""1""
","""event"",""trial"",""time""
""fullscreenenter"",""1"",""3591""
","
","","","646","","","20","10594","5074","&#9730;","elianto","#3366ff99"," "," ","1","+10","[1502]","1","1","","","10594","12","1","1","win","go","0"
"pit-trial","130","898015","0.0-16.0","battery-v0.2","","""event"",""trial"",""time""
""focus"",""0"",""1""
""fullscreenenter"",""1"",""3591""
","
","""event"",""trial"",""time""
""focus"",""0"",""1""
","""event"",""trial"",""time""
""fullscreenenter"",""1"",""3591""
","
","","","-1","","","20","10594","5074","&#9728;","elianto","#f73b6a7A","-1","-1","1","-10","[]","0","1","","","10594","13","0","4","lose","no-go","1"
"pit-trial","131","901614","0.0-17.0","battery-v0.2","","""event"",""trial"",""time""
""focus"",""0"",""1""
""fullscreenenter"",""1"",""3591""
","
","""event"",""trial"",""time""
""focus"",""0"",""1""
","""event"",""trial"",""time""
""fullscreenenter"",""1"",""3591""
","
","","","744","","","20","10594","5074","&#9752;","elianto","#f73b6a7A"," "," ","1","0","[1594]","1","1","","","10594","14","3","3","lose","go","0"
"pit-trial","132","906472","0.0-18.0","battery-v0.2","","""event"",""trial"",""time""
""focus"",""0"",""1""
""fullscreenenter"",""1"",""3591""
","
","""event"",""trial"",""time""
""focus"",""0"",""1""
","""event"",""trial"",""time""
""fullscreenenter"",""1"",""3591""
","
","","","-1","","","20","10594","5074","&#9733;","elianto","#3366ff99","-1","-1","1","+10","[]","0","1","","","10594","15","2","2","win","no-go","0"
"pit-trial","133","910065","0.0-19.0","battery-v0.2","","""event"",""trial"",""time""
""focus"",""0"",""1""
""fullscreenenter"",""1"",""3591""
","
","""event"",""trial"",""time""
""focus"",""0"",""1""
","""event"",""trial"",""time""
""fullscreenenter"",""1"",""3591""
","
","","","731","","","20","10594","5074","&#9730;","elianto","#3366ff99"," "," ","1","+10","[1586]","1","1","","","10594","16","1","1","win","go","0"
"pit-trial","134","913593","0.0-20.0","battery-v0.2","","""event"",""trial"",""time""
""focus"",""0"",""1""
""fullscreenenter"",""1"",""3591""
","
","""event"",""trial"",""time""
""focus"",""0"",""1""
","""event"",""trial"",""time""
""fullscreenenter"",""1"",""3591""
","
","","","662","","","20","10594","5074","&#9752;","elianto","#f73b6a7A"," "," ","1","-10","[1517]","1","1","","","10594","17","3","3","lose","go","1"
"pit-trial","135","917042","0.0-21.0","battery-v0.2","","""event"",""trial"",""time""
""focus"",""0"",""1""
""fullscreenenter"",""1"",""3591""
","
","""event"",""trial"",""time""
""focus"",""0"",""1""
","""event"",""trial"",""time""
""fullscreenenter"",""1"",""3591""
","
","","","584","","","20","10594","5074","&#9730;","elianto","#3366ff99"," "," ","1","0","[1438]","1","1","","","10594","18","1","1","win","go","1"
"pit-trial","136","920627","0.0-22.0","battery-v0.2","","""event"",""trial"",""time""
""focus"",""0"",""1""
""fullscreenenter"",""1"",""3591""
","
","""event"",""trial"",""time""
""focus"",""0"",""1""
","""event"",""trial"",""time""
""fullscreenenter"",""1"",""3591""
","
","","","724","","","20","10594","5074","&#9728;","elianto","#f73b6a7A","-1"," ","0","-10","[1577]","1","1","","","10594","19","0","4","lose","no-go","0"
"pit-trial","137","924043","0.0-23.0","battery-v0.2","","""event"",""trial"",""time""
""focus"",""0"",""1""
""fullscreenenter"",""1"",""3591""
","
","""event"",""trial"",""time""
""focus"",""0"",""1""
","""event"",""trial"",""time""
""fullscreenenter"",""1"",""3591""
","
","","","554","","","20","10594","5074","&#9733;","elianto","#3366ff99","-1"," ","0","0","[1404]","1","1","","","10594","20","2","2","win","no-go","0"
"pit-instructions","138","969136","0.0-24.0","battery-v0.2","","""event"",""trial"",""time""
""focus"",""0"",""1""
""fullscreenenter"",""1"",""3591""
","
","""event"",""trial"",""time""
""focus"",""0"",""1""
","""event"",""trial"",""time""
""fullscreenenter"",""1"",""3591""
","
","","[{""page_index"":0,""viewing_time"":24389},{""page_index"":1,""viewing_time"":20701}]","45091","","","","","","","","","","","","","","","","","","","","","","","",""
"pit-trial","139","972519","0.0-25.0","battery-v0.2","","""event"",""trial"",""time""
""focus"",""0"",""1""
""fullscreenenter"",""1"",""3591""
","
","""event"",""trial"",""time""
""focus"",""0"",""1""
","""event"",""trial"",""time""
""fullscreenenter"",""1"",""3591""
","
","","","512","","","20","10594","5074","y","elianto","#f73b6a7A"," "," ","1","0","[1366]","1","2","","","10594","21","2","3","lose","go","0"
"pit-trial","140","975914","0.0-26.0","battery-v0.2","","""event"",""trial"",""time""
""focus"",""0"",""1""
""fullscreenenter"",""1"",""3591""
","
","""event"",""trial"",""time""
""focus"",""0"",""1""
","""event"",""trial"",""time""
""fullscreenenter"",""1"",""3591""
","
","","","528","","","20","10594","5074","h","elianto","#f73b6a7A","-1"," ","0","-10","[1381]","1","2","","","10594","22","3","4","lose","no-go","0"
"pit-trial","141","979385","0.0-27.0","battery-v0.2","","""event"",""trial"",""time""
""focus"",""0"",""1""
""fullscreenenter"",""1"",""3591""
","
","""event"",""trial"",""time""
""focus"",""0"",""1""
","""event"",""trial"",""time""
""fullscreenenter"",""1"",""3591""
","
","","","602","","","20","10594","5074","m","elianto","#f73b6a7A"," "," ","1","-10","[1457]","1","2","","","10594","23","0","3","lose","go","1"
"pit-trial","142","982835","0.0-28.0","battery-v0.2","","""event"",""trial"",""time""
""focus"",""0"",""1""
""fullscreenenter"",""1"",""3591""
","
","""event"",""trial"",""time""
""focus"",""0"",""1""
","""event"",""trial"",""time""
""fullscreenenter"",""1"",""3591""
","
","","","591","","","20","10594","5074","r","elianto","#3366ff99","-1"," ","0","0","[1446]","1","2","","","10594","24","1","2","win","no-go","0"
"pit-trial","143","986426","0.0-29.0","battery-v0.2","","""event"",""trial"",""time""
""focus"",""0"",""1""
""fullscreenenter"",""1"",""3591""
","
","""event"",""trial"",""time""
""focus"",""0"",""1""
","""event"",""trial"",""time""
""fullscreenenter"",""1"",""3591""
","
","","","724","","","20","10594","5074","h","elianto","#f73b6a7A","-1"," ","0","-10","[1580]","1","2","","","10594","25","3","4","lose","no-go","0"
"pit-trial","144","991291","0.0-30.0","battery-v0.2","","""event"",""trial"",""time""
""focus"",""0"",""1""
""fullscreenenter"",""1"",""3591""
","
","""event"",""trial"",""time""
""focus"",""0"",""1""
","""event"",""trial"",""time""
""fullscreenenter"",""1"",""3591""
","
","","","-1","","","20","10594","5074","y","elianto","#f73b6a7A"," ","-1","0","-10","[]","0","2","","","10594","26","2","3","lose","go","0"
"pit-trial","145","996176","0.0-31.0","battery-v0.2","","""event"",""trial"",""time""
""focus"",""0"",""1""
""fullscreenenter"",""1"",""3591""
","
","""event"",""trial"",""time""
""focus"",""0"",""1""
","""event"",""trial"",""time""
""fullscreenenter"",""1"",""3591""
","
","","","-1","","","20","10594","5074","r","elianto","#3366ff99","-1","-1","1","+10","[]","0","2","","","10594","27","1","2","win","no-go","0"
"pit-trial","146","1001045","0.0-32.0","battery-v0.2","","""event"",""trial"",""time""
""focus"",""0"",""1""
""fullscreenenter"",""1"",""3591""
","
","""event"",""trial"",""time""
""focus"",""0"",""1""
","""event"",""trial"",""time""
""fullscreenenter"",""1"",""3591""
","
","","","-1","","","20","10594","5074","m","elianto","#f73b6a7A"," ","-1","0","0","[]","0","2","","","10594","28","0","3","lose","go","1"
"pit-trial","147","1005914","0.0-33.0","battery-v0.2","","""event"",""trial"",""time""
""focus"",""0"",""1""
""fullscreenenter"",""1"",""3591""
","
","""event"",""trial"",""time""
""focus"",""0"",""1""
","""event"",""trial"",""time""
""fullscreenenter"",""1"",""3591""
","
","","","-1","","","20","10594","5074","r","elianto","#3366ff99","-1","-1","1","0","[]","0","2","","","10594","29","1","2","win","no-go","1"
"pit-trial","148","1010774","0.0-34.0","battery-v0.2","","""event"",""trial"",""time""
""focus"",""0"",""1""
""fullscreenenter"",""1"",""3591""
","
","""event"",""trial"",""time""
""focus"",""0"",""1""
","""event"",""trial"",""time""
""fullscreenenter"",""1"",""3591""
","
","","","-1","","","20","10594","5074","h","elianto","#f73b6a7A","-1","-1","1","-10","[]","0","2","","","10594","30","3","4","lose","no-go","1"
"pit-trial","149","1014444","0.0-35.0","battery-v0.2","","""event"",""trial"",""time""
""focus"",""0"",""1""
""fullscreenenter"",""1"",""3591""
","
","""event"",""trial"",""time""
""focus"",""0"",""1""
","""event"",""trial"",""time""
""fullscreenenter"",""1"",""3591""
","
","","","806","","","20","10594","5074","y","elianto","#f73b6a7A"," "," ","1","0","[1662]","1","2","","","10594","31","2","3","lose","go","0"
"pit-trial","150","1018571","0.0-36.0","battery-v0.2","","""event"",""trial"",""time""
""focus"",""0"",""1""
""fullscreenenter"",""1"",""3591""
","
","""event"",""trial"",""time""
""focus"",""0"",""1""
","""event"",""trial"",""time""
""fullscreenenter"",""1"",""3591""
","
","","","1261","","","20","10594","5074","m","elianto","#f73b6a7A"," "," ","1","-10","[2115]","1","2","","","10594","32","0","3","lose","go","1"
"pit-trial","151","1023452","0.0-37.0","battery-v0.2","","""event"",""trial"",""time""
""focus"",""0"",""1""
""fullscreenenter"",""1"",""3591""
","
","""event"",""trial"",""time""
""focus"",""0"",""1""
","""event"",""trial"",""time""
""fullscreenenter"",""1"",""3591""
","
","","","-1","","","20","10594","5074","h","elianto","#f73b6a7A","-1","-1","1","0","[]","0","2","","","10594","33","3","4","lose","no-go","0"
"pit-trial","152","1027145","0.0-38.0","battery-v0.2","","""event"",""trial"",""time""
""focus"",""0"",""1""
""fullscreenenter"",""1"",""3591""
","
","""event"",""trial"",""time""
""focus"",""0"",""1""
","""event"",""trial"",""time""
""fullscreenenter"",""1"",""3591""
","
","","","836","","","20","10594","5074","y","elianto","#f73b6a7A"," "," ","1","0","[1687]","1","2","","","10594","34","2","3","lose","go","0"
"pit-trial","153","1032016","0.0-39.0","battery-v0.2","","""event"",""trial"",""time""
""focus"",""0"",""1""
""fullscreenenter"",""1"",""3591""
","
","""event"",""trial"",""time""
""focus"",""0"",""1""
","""event"",""trial"",""time""
""fullscreenenter"",""1"",""3591""
","
","","","-1","","","20","10594","5074","m","elianto","#f73b6a7A"," ","-1","0","-10","[]","0","2","","","10594","35","0","3","lose","go","0"
"pit-trial","154","1036889","0.0-40.0","battery-v0.2","","""event"",""trial"",""time""
""focus"",""0"",""1""
""fullscreenenter"",""1"",""3591""
","
","""event"",""trial"",""time""
""focus"",""0"",""1""
","""event"",""trial"",""time""
""fullscreenenter"",""1"",""3591""
","
","","","-1","","","20","10594","5074","r","elianto","#3366ff99","-1","-1","1","+10","[]","0","2","","","10594","36","1","2","win","no-go","0"
"pit-trial","155","1041761","0.0-41.0","battery-v0.2","","""event"",""trial"",""time""
""focus"",""0"",""1""
""fullscreenenter"",""1"",""3591""
","
","""event"",""trial"",""time""
""focus"",""0"",""1""
","""event"",""trial"",""time""
""fullscreenenter"",""1"",""3591""
","
","","","-1","","","20","10594","5074","r","elianto","#3366ff99","-1","-1","1","+10","[]","0","2","","","10594","37","1","2","win","no-go","0"
"pit-trial","156","1045440","0.0-42.0","battery-v0.2","","""event"",""trial"",""time""
""focus"",""0"",""1""
""fullscreenenter"",""1"",""3591""
","
","""event"",""trial"",""time""
""focus"",""0"",""1""
","""event"",""trial"",""time""
""fullscreenenter"",""1"",""3591""
","
","","","812","","","20","10594","5074","y","elianto","#f73b6a7A"," "," ","1","-10","[1666]","1","2","","","10594","38","2","3","lose","go","1"
"pit-trial","157","1050309","0.0-43.0","battery-v0.2","","""event"",""trial"",""time""
""focus"",""0"",""1""
""fullscreenenter"",""1"",""3591""
","
","""event"",""trial"",""time""
""focus"",""0"",""1""
","""event"",""trial"",""time""
""fullscreenenter"",""1"",""3591""
","
","","","-1","","","20","10594","5074","m","elianto","#f73b6a7A"," ","-1","0","-10","[]","0","2","","","10594","39","0","3","lose","go","0"
"pit-trial","158","1055169","0.0-44.0","battery-v0.2","","""event"",""trial"",""time""
""focus"",""0"",""1""
""fullscreenenter"",""1"",""3591""
","
","""event"",""trial"",""time""
""focus"",""0"",""1""
","""event"",""trial"",""time""
""fullscreenenter"",""1"",""3591""
","
","","","-1","","","20","10594","5074","h","elianto","#f73b6a7A","-1","-1","1","0","[]","0","2","","","10594","40","3","4","lose","no-go","0"
"pit-trial","159","1060040","0.0-45.0","battery-v0.2","","""event"",""trial"",""time""
""focus"",""0"",""1""
""fullscreenenter"",""1"",""3591""
","
","""event"",""trial"",""time""
""focus"",""0"",""1""
","""event"",""trial"",""time""
""fullscreenenter"",""1"",""3591""
","
","","","-1","","","20","10594","5074","r","elianto","#3366ff99","-1","-1","1","+10","[]","0","2","","","10594","41","1","2","win","no-go","0"
"pit-trial","160","1063573","0.0-46.0","battery-v0.2","","""event"",""trial"",""time""
""focus"",""0"",""1""
""fullscreenenter"",""1"",""3591""
","
","""event"",""trial"",""time""
""focus"",""0"",""1""
","""event"",""trial"",""time""
""fullscreenenter"",""1"",""3591""
","
","","","675","","","20","10594","5074","m","elianto","#f73b6a7A"," "," ","1","0","[1529]","1","2","","","10594","42","0","3","lose","go","0"
"pit-trial","161","1066963","0.0-47.0","battery-v0.2","","""event"",""trial"",""time""
""focus"",""0"",""1""
""fullscreenenter"",""1"",""3591""
","
","""event"",""trial"",""time""
""focus"",""0"",""1""
","""event"",""trial"",""time""
""fullscreenenter"",""1"",""3591""
","
","","","518","","","20","10594","5074","y","elianto","#f73b6a7A"," "," ","1","0","[1373]","1","2","","","10594","43","2","3","lose","go","0"
"pit-trial","162","1071829","0.0-48.0","battery-v0.2","","""event"",""trial"",""time""
""focus"",""0"",""1""
""fullscreenenter"",""1"",""3591""
","
","""event"",""trial"",""time""
""focus"",""0"",""1""
","""event"",""trial"",""time""
""fullscreenenter"",""1"",""3591""
","
","","","-1","","","20","10594","5074","h","elianto","#f73b6a7A","-1","-1","1","0","[]","0","2","","","10594","44","3","4","lose","no-go","0"
"pit-trial","163","1076697","0.0-49.0","battery-v0.2","","""event"",""trial"",""time""
""focus"",""0"",""1""
""fullscreenenter"",""1"",""3591""
","
","""event"",""trial"",""time""
""focus"",""0"",""1""
","""event"",""trial"",""time""
""fullscreenenter"",""1"",""3591""
","
","","","-1","","","20","10594","5074","r","elianto","#3366ff99","-1","-1","1","0","[]","0","2","","","10594","45","1","2","win","no-go","1"
"pit-trial","164","1081564","0.0-50.0","battery-v0.2","","""event"",""trial"",""time""
""focus"",""0"",""1""
""fullscreenenter"",""1"",""3591""
","
","""event"",""trial"",""time""
""focus"",""0"",""1""
","""event"",""trial"",""time""
""fullscreenenter"",""1"",""3591""
","
","","","-1","","","20","10594","5074","h","elianto","#f73b6a7A","-1","-1","1","0","[]","0","2","","","10594","46","3","4","lose","no-go","0"
"pit-trial","165","1085113","0.0-51.0","battery-v0.2","","""event"",""trial"",""time""
""focus"",""0"",""1""
""fullscreenenter"",""1"",""3591""
","
","""event"",""trial"",""time""
""focus"",""0"",""1""
","""event"",""trial"",""time""
""fullscreenenter"",""1"",""3591""
","
","","","683","","","20","10594","5074","y","elianto","#f73b6a7A"," "," ","1","-10","[1539]","1","2","","","10594","47","2","3","lose","go","1"
"pit-trial","166","1088566","0.0-52.0","battery-v0.2","","""event"",""trial"",""time""
""focus"",""0"",""1""
""fullscreenenter"",""1"",""3591""
","
","""event"",""trial"",""time""
""focus"",""0"",""1""
","""event"",""trial"",""time""
""fullscreenenter"",""1"",""3591""
","
","","","580","","","20","10594","5074","m","elianto","#f73b6a7A"," "," ","1","0","[1437]","1","2","","","10594","48","0","3","lose","go","0"
"pit-trial","167","1093442","0.0-53.0","battery-v0.2","","""event"",""trial"",""time""
""focus"",""0"",""1""
""fullscreenenter"",""1"",""3591""
","
","""event"",""trial"",""time""
""focus"",""0"",""1""
","""event"",""trial"",""time""
""fullscreenenter"",""1"",""3591""
","
","","","-1","","","20","10594","5074","h","elianto","#f73b6a7A","-1","-1","1","0","[]","0","2","","","10594","49","3","4","lose","no-go","0"
"pit-trial","168","1097035","0.0-54.0","battery-v0.2","","""event"",""trial"",""time""
""focus"",""0"",""1""
""fullscreenenter"",""1"",""3591""
","
","""event"",""trial"",""time""
""focus"",""0"",""1""
","""event"",""trial"",""time""
""fullscreenenter"",""1"",""3591""
","
","","","734","","","20","10594","5074","y","elianto","#f73b6a7A"," "," ","1","-10","[1586]","1","2","","","10594","50","2","3","lose","go","1"
"pit-trial","169","1101908","0.0-55.0","battery-v0.2","","""event"",""trial"",""time""
""focus"",""0"",""1""
""fullscreenenter"",""1"",""3591""
","
","""event"",""trial"",""time""
""focus"",""0"",""1""
","""event"",""trial"",""time""
""fullscreenenter"",""1"",""3591""
","
","","","-1","","","20","10594","5074","r","elianto","#3366ff99","-1","-1","1","+10","[]","0","2","","","10594","51","1","2","win","no-go","0"
"pit-trial","170","1105575","0.0-56.0","battery-v0.2","","""event"",""trial"",""time""
""focus"",""0"",""1""
""fullscreenenter"",""1"",""3591""
","
","""event"",""trial"",""time""
""focus"",""0"",""1""
","""event"",""trial"",""time""
""fullscreenenter"",""1"",""3591""
","
","","","810","","","20","10594","5074","m","elianto","#f73b6a7A"," "," ","1","0","[1665]","1","2","","","10594","52","0","3","lose","go","0"
"pit-trial","171","1110438","0.0-57.0","battery-v0.2","","""event"",""trial"",""time""
""focus"",""0"",""1""
""fullscreenenter"",""1"",""3591""
","
","""event"",""trial"",""time""
""focus"",""0"",""1""
","""event"",""trial"",""time""
""fullscreenenter"",""1"",""3591""
","
","","","-1","","","20","10594","5074","y","elianto","#f73b6a7A"," ","-1","0","-10","[]","0","2","","","10594","53","2","3","lose","go","0"
"pit-trial","172","1115308","0.0-58.0","battery-v0.2","","""event"",""trial"",""time""
""focus"",""0"",""1""
""fullscreenenter"",""1"",""3591""
","
","""event"",""trial"",""time""
""focus"",""0"",""1""
","""event"",""trial"",""time""
""fullscreenenter"",""1"",""3591""
","
","","","-1","","","20","10594","5074","r","elianto","#3366ff99","-1","-1","1","0","[]","0","2","","","10594","54","1","2","win","no-go","1"
"pit-trial","173","1120168","0.0-59.0","battery-v0.2","","""event"",""trial"",""time""
""focus"",""0"",""1""
""fullscreenenter"",""1"",""3591""
","
","""event"",""trial"",""time""
""focus"",""0"",""1""
","""event"",""trial"",""time""
""fullscreenenter"",""1"",""3591""
","
","","","-1","","","20","10594","5074","h","elianto","#f73b6a7A","-1","-1","1","0","[]","0","2","","","10594","55","3","4","lose","no-go","0"
"pit-trial","174","1123716","0.0-60.0","battery-v0.2","","""event"",""trial"",""time""
""focus"",""0"",""1""
""fullscreenenter"",""1"",""3591""
","
","""event"",""trial"",""time""
""focus"",""0"",""1""
","""event"",""trial"",""time""
""fullscreenenter"",""1"",""3591""
","
","","","690","","","20","10594","5074","m","elianto","#f73b6a7A"," "," ","1","0","[1544]","1","2","","","10594","56","0","3","lose","go","0"
"pit-trial","175","1127978","0.0-61.0","battery-v0.2","","""event"",""trial"",""time""
""focus"",""0"",""1""
""fullscreenenter"",""1"",""3591""
","
","""event"",""trial"",""time""
""focus"",""0"",""1""
","""event"",""trial"",""time""
""fullscreenenter"",""1"",""3591""
","
","","","1391","","","20","10594","5074","z","elianto","#3366ff99"," "," ","1","+10","[2247]","1","2","","","10594","57","4","1","win","go","0"
"pit-trial","176","1131535","0.0-62.0","battery-v0.2","","""event"",""trial"",""time""
""focus"",""0"",""1""
""fullscreenenter"",""1"",""3591""
","
","""event"",""trial"",""time""
""focus"",""0"",""1""
","""event"",""trial"",""time""
""fullscreenenter"",""1"",""3591""
","
","","","700","","","20","10594","5074","y","elianto","#f73b6a7A"," "," ","1","-10","[1553]","1","2","","","10594","58","2","3","lose","go","1"
"pit-trial","177","1136398","0.0-63.0","battery-v0.2","","""event"",""trial"",""time""
""focus"",""0"",""1""
""fullscreenenter"",""1"",""3591""
","
","""event"",""trial"",""time""
""focus"",""0"",""1""
","""event"",""trial"",""time""
""fullscreenenter"",""1"",""3591""
","
","","","-1","","","20","10594","5074","h","elianto","#f73b6a7A","-1","-1","1","-10","[]","0","2","","","10594","59","3","4","lose","no-go","1"
"pit-trial","178","1140253","0.0-64.0","battery-v0.2","","""event"",""trial"",""time""
""focus"",""0"",""1""
""fullscreenenter"",""1"",""3591""
","
","""event"",""trial"",""time""
""focus"",""0"",""1""
","""event"",""trial"",""time""
""fullscreenenter"",""1"",""3591""
","
","","","994","","","20","10594","5074","m","elianto","#f73b6a7A"," "," ","1","0","[1846]","1","2","","","10594","60","0","3","lose","go","0"
"pit-trial","179","1145108","0.0-65.0","battery-v0.2","","""event"",""trial"",""time""
""focus"",""0"",""1""
""fullscreenenter"",""1"",""3591""
","
","""event"",""trial"",""time""
""focus"",""0"",""1""
","""event"",""trial"",""time""
""fullscreenenter"",""1"",""3591""
","
","","","-1","","","20","10594","5074","r","elianto","#3366ff99","-1","-1","1","+10","[]","0","2","","","10594","61","1","2","win","no-go","0"
"pit-trial","180","1149970","0.0-66.0","battery-v0.2","","""event"",""trial"",""time""
""focus"",""0"",""1""
""fullscreenenter"",""1"",""3591""
","
","""event"",""trial"",""time""
""focus"",""0"",""1""
","""event"",""trial"",""time""
""fullscreenenter"",""1"",""3591""
","
","","","-1","","","20","10594","5074","h","elianto","#f73b6a7A","-1","-1","1","0","[]","0","2","","","10594","62","3","4","lose","no-go","0"
"pit-trial","181","1154823","0.0-67.0","battery-v0.2","","""event"",""trial"",""time""
""focus"",""0"",""1""
""fullscreenenter"",""1"",""3591""
","
","""event"",""trial"",""time""
""focus"",""0"",""1""
","""event"",""trial"",""time""
""fullscreenenter"",""1"",""3591""
","
","","","-1","","","20","10594","5074","z","elianto","#3366ff99"," ","-1","0","0","[]","0","2","","","10594","63","4","1","win","go","0"
"pit-trial","182","1158773","0.0-68.0","battery-v0.2","","""event"",""trial"",""time""
""focus"",""0"",""1""
""fullscreenenter"",""1"",""3591""
","
","""event"",""trial"",""time""
""focus"",""0"",""1""
","""event"",""trial"",""time""
""fullscreenenter"",""1"",""3591""
","
","","","1087","","","20","10594","5074","y","elianto","#f73b6a7A"," "," ","1","-10","[1942]","1","2","","","10594","64","2","3","lose","go","1"
"pit-trial","183","1162749","0.0-69.0","battery-v0.2","","""event"",""trial"",""time""
""focus"",""0"",""1""
""fullscreenenter"",""1"",""3591""
","
","""event"",""trial"",""time""
""focus"",""0"",""1""
","""event"",""trial"",""time""
""fullscreenenter"",""1"",""3591""
","
","","","1117","","","20","10594","5074","c","elianto","#3366ff99","-1"," ","0","0","[1969]","1","2","","","10594","65","5","2","win","no-go","0"
"pit-trial","184","1167616","0.0-70.0","battery-v0.2","","""event"",""trial"",""time""
""focus"",""0"",""1""
""fullscreenenter"",""1"",""3591""
","
","""event"",""trial"",""time""
""focus"",""0"",""1""
","""event"",""trial"",""time""
""fullscreenenter"",""1"",""3591""
","
","","","-1","","","20","10594","5074","r","elianto","#3366ff99","-1","-1","1","0","[]","0","2","","","10594","66","1","2","win","no-go","1"
"pit-trial","185","1172496","0.0-71.0","battery-v0.2","","""event"",""trial"",""time""
""focus"",""0"",""1""
""fullscreenenter"",""1"",""3591""
","
","""event"",""trial"",""time""
""focus"",""0"",""1""
","""event"",""trial"",""time""
""fullscreenenter"",""1"",""3591""
","
","","","-1","","","20","10594","5074","h","elianto","#f73b6a7A","-1","-1","1","0","[]","0","2","","","10594","67","3","4","lose","no-go","0"
"pit-trial","186","1176547","0.0-72.0","battery-v0.2","","""event"",""trial"",""time""
""focus"",""0"",""1""
""fullscreenenter"",""1"",""3591""
","
","""event"",""trial"",""time""
""focus"",""0"",""1""
","""event"",""trial"",""time""
""fullscreenenter"",""1"",""3591""
","
","","","1181","","","20","10594","5074","z","elianto","#3366ff99"," "," ","1","+10","[2045]","1","2","","","10594","68","4","1","win","go","0"
"pit-trial","187","1181414","0.0-73.0","battery-v0.2","","""event"",""trial"",""time""
""focus"",""0"",""1""
""fullscreenenter"",""1"",""3591""
","
","""event"",""trial"",""time""
""focus"",""0"",""1""
","""event"",""trial"",""time""
""fullscreenenter"",""1"",""3591""
","
","","","-1","","","20","10594","5074","r","elianto","#3366ff99","-1","-1","1","+10","[]","0","2","","","10594","69","1","2","win","no-go","0"
"pit-trial","188","1185144","0.0-74.0","battery-v0.2","","""event"",""trial"",""time""
""focus"",""0"",""1""
""fullscreenenter"",""1"",""3591""
","
","""event"",""trial"",""time""
""focus"",""0"",""1""
","""event"",""trial"",""time""
""fullscreenenter"",""1"",""3591""
","
","","","864","","","20","10594","5074","z","elianto","#3366ff99"," "," ","1","+10","[1719]","1","2","","","10594","70","4","1","win","go","0"
"pit-trial","189","1189998","0.0-75.0","battery-v0.2","","""event"",""trial"",""time""
""focus"",""0"",""1""
""fullscreenenter"",""1"",""3591""
","
","""event"",""trial"",""time""
""focus"",""0"",""1""
","""event"",""trial"",""time""
""fullscreenenter"",""1"",""3591""
","
","","","-1","","","20","10594","5074","c","elianto","#3366ff99","-1","-1","1","+10","[]","0","2","","","10594","71","5","2","win","no-go","0"
"pit-trial","190","1194866","0.0-76.0","battery-v0.2","","""event"",""trial"",""time""
""focus"",""0"",""1""
""fullscreenenter"",""1"",""3591""
","
","""event"",""trial"",""time""
""focus"",""0"",""1""
","""event"",""trial"",""time""
""fullscreenenter"",""1"",""3591""
","
","","","-1","","","20","10594","5074","y","elianto","#f73b6a7A"," ","-1","0","-10","[]","0","2","","","10594","72","2","3","lose","go","0"
"pit-trial","191","1199741","0.0-77.0","battery-v0.2","","""event"",""trial"",""time""
""focus"",""0"",""1""
""fullscreenenter"",""1"",""3591""
","
","""event"",""trial"",""time""
""focus"",""0"",""1""
","""event"",""trial"",""time""
""fullscreenenter"",""1"",""3591""
","
","","","-1","","","20","10594","5074","r","elianto","#3366ff99","-1","-1","1","0","[]","0","2","","","10594","73","1","2","win","no-go","1"
"pit-trial","192","1204608","0.0-78.0","battery-v0.2","","""event"",""trial"",""time""
""focus"",""0"",""1""
""fullscreenenter"",""1"",""3591""
","
","""event"",""trial"",""time""
""focus"",""0"",""1""
","""event"",""trial"",""time""
""fullscreenenter"",""1"",""3591""
","
","","","-1","","","20","10594","5074","h","elianto","#f73b6a7A","-1","-1","1","0","[]","0","2","","","10594","74","3","4","lose","no-go","0"
"pit-trial","193","1208446","0.0-79.0","battery-v0.2","","""event"",""trial"",""time""
""focus"",""0"",""1""
""fullscreenenter"",""1"",""3591""
","
","""event"",""trial"",""time""
""focus"",""0"",""1""
","""event"",""trial"",""time""
""fullscreenenter"",""1"",""3591""
","
","","","976","","","20","10594","5074","z","elianto","#3366ff99"," "," ","1","+10","[1827]","1","2","","","10594","75","4","1","win","go","0"
"pit-trial","194","1213313","0.0-80.0","battery-v0.2","","""event"",""trial"",""time""
""focus"",""0"",""1""
""fullscreenenter"",""1"",""3591""
","
","""event"",""trial"",""time""
""focus"",""0"",""1""
","""event"",""trial"",""time""
""fullscreenenter"",""1"",""3591""
","
","","","-1","","","20","10594","5074","c","elianto","#3366ff99","-1","-1","1","+10","[]","0","2","","","10594","76","5","2","win","no-go","0"
"pit-trial","195","1218179","0.0-81.0","battery-v0.2","","""event"",""trial"",""time""
""focus"",""0"",""1""
""fullscreenenter"",""1"",""3591""
","
","""event"",""trial"",""time""
""focus"",""0"",""1""
","""event"",""trial"",""time""
""fullscreenenter"",""1"",""3591""
","
","","","-1","","","20","10594","5074","c","elianto","#3366ff99","-1","-1","1","+10","[]","0","2","","","10594","77","5","2","win","no-go","0"
"pit-trial","196","1222035","0.0-82.0","battery-v0.2","","""event"",""trial"",""time""
""focus"",""0"",""1""
""fullscreenenter"",""1"",""3591""
","
","""event"",""trial"",""time""
""focus"",""0"",""1""
","""event"",""trial"",""time""
""fullscreenenter"",""1"",""3591""
","
","","","992","","","20","10594","5074","z","elianto","#3366ff99"," "," ","1","+10","[1846]","1","2","","","10594","78","4","1","win","go","0"
"pit-trial","197","1226906","0.0-83.0","battery-v0.2","","""event"",""trial"",""time""
""focus"",""0"",""1""
""fullscreenenter"",""1"",""3591""
","
","""event"",""trial"",""time""
""focus"",""0"",""1""
","""event"",""trial"",""time""
""fullscreenenter"",""1"",""3591""
","
","","","-1","","","20","10594","5074","h","elianto","#f73b6a7A","-1","-1","1","0","[]","0","2","","","10594","79","3","4","lose","no-go","0"
"pit-trial","198","1230994","0.0-84.0","battery-v0.2","","""event"",""trial"",""time""
""focus"",""0"",""1""
""fullscreenenter"",""1"",""3591""
","
","""event"",""trial"",""time""
""focus"",""0"",""1""
","""event"",""trial"",""time""
""fullscreenenter"",""1"",""3591""
","
","","","1224","","","20","10594","5074","z","elianto","#3366ff99"," "," ","1","0","[2078]","1","2","","","10594","80","4","1","win","go","1"
"pit-trial","199","1235866","0.0-85.0","battery-v0.2","","""event"",""trial"",""time""
""focus"",""0"",""1""
""fullscreenenter"",""1"",""3591""
","
","""event"",""trial"",""time""
""focus"",""0"",""1""
","""event"",""trial"",""time""
""fullscreenenter"",""1"",""3591""
","
","","","-1","","","20","10594","5074","c","elianto","#3366ff99","-1","-1","1","+10","[]","0","2","","","10594","81","5","2","win","no-go","0"
"pit-trial","200","1239863","0.0-86.0","battery-v0.2","","""event"",""trial"",""time""
""focus"",""0"",""1""
""fullscreenenter"",""1"",""3591""
","
","""event"",""trial"",""time""
""focus"",""0"",""1""
","""event"",""trial"",""time""
""fullscreenenter"",""1"",""3591""
","
","","","1127","","","20","10594","5074","t","elianto","#f73b6a7A","-1"," ","0","-10","[1980]","1","2","","","10594","82","7","4","lose","no-go","0"
"pit-trial","201","1243575","0.0-87.0","battery-v0.2","","""event"",""trial"",""time""
""focus"",""0"",""1""
""fullscreenenter"",""1"",""3591""
","
","""event"",""trial"",""time""
""focus"",""0"",""1""
","""event"",""trial"",""time""
""fullscreenenter"",""1"",""3591""
","
","","","853","","","20","10594","5074","z","elianto","#3366ff99"," "," ","1","0","[1708]","1","2","","","10594","83","4","1","win","go","1"
"pit-trial","202","1248449","0.0-88.0","battery-v0.2","","""event"",""trial"",""time""
""focus"",""0"",""1""
""fullscreenenter"",""1"",""3591""
","
","""event"",""trial"",""time""
""focus"",""0"",""1""
","""event"",""trial"",""time""
""fullscreenenter"",""1"",""3591""
","
","","","-1","","","20","10594","5074","h","elianto","#f73b6a7A","-1","-1","1","0","[]","0","2","","","10594","84","3","4","lose","no-go","0"
"pit-trial","203","1253316","0.0-89.0","battery-v0.2","","""event"",""trial"",""time""
""focus"",""0"",""1""
""fullscreenenter"",""1"",""3591""
","
","""event"",""trial"",""time""
""focus"",""0"",""1""
","""event"",""trial"",""time""
""fullscreenenter"",""1"",""3591""
","
","","","-1","","","20","10594","5074","c","elianto","#3366ff99","-1","-1","1","+10","[]","0","2","","","10594","85","5","2","win","no-go","0"
"pit-trial","204","1257275","0.0-90.0","battery-v0.2","","""event"",""trial"",""time""
""focus"",""0"",""1""
""fullscreenenter"",""1"",""3591""
","
","""event"",""trial"",""time""
""focus"",""0"",""1""
","""event"",""trial"",""time""
""fullscreenenter"",""1"",""3591""
","
","","","1090","","","20","10594","5074","b","elianto","#f73b6a7A"," "," ","1","0","[1943]","1","2","","","10594","86","6","3","lose","go","0"
"pit-trial","205","1261067","0.0-91.0","battery-v0.2","","""event"",""trial"",""time""
""focus"",""0"",""1""
""fullscreenenter"",""1"",""3591""
","
","""event"",""trial"",""time""
""focus"",""0"",""1""
","""event"",""trial"",""time""
""fullscreenenter"",""1"",""3591""
","
","","","935","","","20","10594","5074","z","elianto","#3366ff99"," "," ","1","+10","[1785]","1","2","","","10594","87","4","1","win","go","0"
"pit-trial","206","1265944","0.0-92.0","battery-v0.2","","""event"",""trial"",""time""
""focus"",""0"",""1""
""fullscreenenter"",""1"",""3591""
","
","""event"",""trial"",""time""
""focus"",""0"",""1""
","""event"",""trial"",""time""
""fullscreenenter"",""1"",""3591""
","
","","","-1","","","20","10594","5074","t","elianto","#f73b6a7A","-1","-1","1","-10","[]","0","2","","","10594","88","7","4","lose","no-go","1"
"pit-trial","207","1269754","0.0-93.0","battery-v0.2","","""event"",""trial"",""time""
""focus"",""0"",""1""
""fullscreenenter"",""1"",""3591""
","
","""event"",""trial"",""time""
""focus"",""0"",""1""
","""event"",""trial"",""time""
""fullscreenenter"",""1"",""3591""
","
","","","950","","","20","10594","5074","z","elianto","#3366ff99"," "," ","1","+10","[1804]","1","2","","","10594","89","4","1","win","go","0"
"pit-trial","208","1273583","0.0-94.0","battery-v0.2","","""event"",""trial"",""time""
""focus"",""0"",""1""
""fullscreenenter"",""1"",""3591""
","
","""event"",""trial"",""time""
""focus"",""0"",""1""
","""event"",""trial"",""time""
""fullscreenenter"",""1"",""3591""
","
","","","973","","","20","10594","5074","t","elianto","#f73b6a7A","-1"," ","0","-10","[1826]","1","2","","","10594","90","7","4","lose","no-go","0"
"pit-trial","209","1278445","0.0-95.0","battery-v0.2","","""event"",""trial"",""time""
""focus"",""0"",""1""
""fullscreenenter"",""1"",""3591""
","
","""event"",""trial"",""time""
""focus"",""0"",""1""
","""event"",""trial"",""time""
""fullscreenenter"",""1"",""3591""
","
","","","-1","","","20","10594","5074","c","elianto","#3366ff99","-1","-1","1","+10","[]","0","2","","","10594","91","5","2","win","no-go","0"
"pit-trial","210","1283313","0.0-96.0","battery-v0.2","","""event"",""trial"",""time""
""focus"",""0"",""1""
""fullscreenenter"",""1"",""3591""
","
","""event"",""trial"",""time""
""focus"",""0"",""1""
","""event"",""trial"",""time""
""fullscreenenter"",""1"",""3591""
","
","","","-1","","","20","10594","5074","b","elianto","#f73b6a7A"," ","-1","0","-10","[]","0","2","","","10594","92","6","3","lose","go","0"
"pit-trial","211","1287323","0.0-97.0","battery-v0.2","","""event"",""trial"",""time""
""focus"",""0"",""1""
""fullscreenenter"",""1"",""3591""
","
","""event"",""trial"",""time""
""focus"",""0"",""1""
","""event"",""trial"",""time""
""fullscreenenter"",""1"",""3591""
","
","","","1145","","","20","10594","5074","f","elianto","#3366ff99"," "," ","1","+10","[2000]","1","2","","","10594","93","8","1","win","go","0"
"pit-trial","212","1292190","0.0-98.0","battery-v0.2","","""event"",""trial"",""time""
""focus"",""0"",""1""
""fullscreenenter"",""1"",""3591""
","
","""event"",""trial"",""time""
""focus"",""0"",""1""
","""event"",""trial"",""time""
""fullscreenenter"",""1"",""3591""
","
","","","-1","","","20","10594","5074","c","elianto","#3366ff99","-1","-1","1","+10","[]","0","2","","","10594","94","5","2","win","no-go","0"
"pit-trial","213","1297048","0.0-99.0","battery-v0.2","","""event"",""trial"",""time""
""focus"",""0"",""1""
""fullscreenenter"",""1"",""3591""
","
","""event"",""trial"",""time""
""focus"",""0"",""1""
","""event"",""trial"",""time""
""fullscreenenter"",""1"",""3591""
","
","","","-1","","","20","10594","5074","t","elianto","#f73b6a7A","-1","-1","1","0","[]","0","2","","","10594","95","7","4","lose","no-go","0"
"pit-trial","214","1301916","0.0-100.0","battery-v0.2","","""event"",""trial"",""time""
""focus"",""0"",""1""
""fullscreenenter"",""1"",""3591""
","
","""event"",""trial"",""time""
""focus"",""0"",""1""
","""event"",""trial"",""time""
""fullscreenenter"",""1"",""3591""
","
","","","-1","","","20","10594","5074","b","elianto","#f73b6a7A"," ","-1","0","-10","[]","0","2","","","10594","96","6","3","lose","go","0"
"pit-trial","215","1306781","0.0-101.0","battery-v0.2","","""event"",""trial"",""time""
""focus"",""0"",""1""
""fullscreenenter"",""1"",""3591""
","
","""event"",""trial"",""time""
""focus"",""0"",""1""
","""event"",""trial"",""time""
""fullscreenenter"",""1"",""3591""
","
","","","-1","","","20","10594","5074","c","elianto","#3366ff99","-1","-1","1","+10","[]","0","2","","","10594","97","5","2","win","no-go","0"
"pit-trial","216","1310461","0.0-102.0","battery-v0.2","","""event"",""trial"",""time""
""focus"",""0"",""1""
""fullscreenenter"",""1"",""3591""
","
","""event"",""trial"",""time""
""focus"",""0"",""1""
","""event"",""trial"",""time""
""fullscreenenter"",""1"",""3591""
","
","","","819","","","20","10594","5074","b","elianto","#f73b6a7A"," "," ","1","-10","[1674]","1","2","","","10594","98","6","3","lose","go","1"
"pit-trial","217","1315333","0.0-103.0","battery-v0.2","","""event"",""trial"",""time""
""focus"",""0"",""1""
""fullscreenenter"",""1"",""3591""
","
","""event"",""trial"",""time""
""focus"",""0"",""1""
","""event"",""trial"",""time""
""fullscreenenter"",""1"",""3591""
","
","","","-1","","","20","10594","5074","f","elianto","#3366ff99"," ","-1","0","0","[]","0","2","","","10594","99","8","1","win","go","0"
"pit-trial","218","1320200","0.0-104.0","battery-v0.2","","""event"",""trial"",""time""
""focus"",""0"",""1""
""fullscreenenter"",""1"",""3591""
","
","""event"",""trial"",""time""
""focus"",""0"",""1""
","""event"",""trial"",""time""
""fullscreenenter"",""1"",""3591""
","
","","","-1","","","20","10594","5074","t","elianto","#f73b6a7A","-1","-1","1","0","[]","0","2","","","10594","100","7","4","lose","no-go","0"
"pit-trial","219","1325068","0.0-105.0","battery-v0.2","","""event"",""trial"",""time""
""focus"",""0"",""1""
""fullscreenenter"",""1"",""3591""
","
","""event"",""trial"",""time""
""focus"",""0"",""1""
","""event"",""trial"",""time""
""fullscreenenter"",""1"",""3591""
","
","","","-1","","","20","10594","5074","t","elianto","#f73b6a7A","-1","-1","1","0","[]","0","2","","","10594","101","7","4","lose","no-go","0"
"pit-trial","220","1328866","0.0-106.0","battery-v0.2","","""event"",""trial"",""time""
""focus"",""0"",""1""
""fullscreenenter"",""1"",""3591""
","
","""event"",""trial"",""time""
""focus"",""0"",""1""
","""event"",""trial"",""time""
""fullscreenenter"",""1"",""3591""
","
","","","928","","","20","10594","5074","f","elianto","#3366ff99"," "," ","1","+10","[1781]","1","2","","","10594","102","8","1","win","go","0"
"pit-trial","221","1333745","0.0-107.0","battery-v0.2","","""event"",""trial"",""time""
""focus"",""0"",""1""
""fullscreenenter"",""1"",""3591""
","
","""event"",""trial"",""time""
""focus"",""0"",""1""
","""event"",""trial"",""time""
""fullscreenenter"",""1"",""3591""
","
","","","-1","","","20","10594","5074","c","elianto","#3366ff99","-1","-1","1","0","[]","0","2","","","10594","103","5","2","win","no-go","1"
"pit-trial","222","1337638","0.0-108.0","battery-v0.2","","""event"",""trial"",""time""
""focus"",""0"",""1""
""fullscreenenter"",""1"",""3591""
","
","""event"",""trial"",""time""
""focus"",""0"",""1""
","""event"",""trial"",""time""
""fullscreenenter"",""1"",""3591""
","
","","","1030","","","20","10594","5074","n","elianto","#3366ff99"," "," ","1","+10","[1884]","1","2","","","10594","104","9","1","win","go","0"
"pit-trial","223","1341435","0.0-109.0","battery-v0.2","","""event"",""trial"",""time""
""focus"",""0"",""1""
""fullscreenenter"",""1"",""3591""
","
","""event"",""trial"",""time""
""focus"",""0"",""1""
","""event"",""trial"",""time""
""fullscreenenter"",""1"",""3591""
","
","","","942","","","20","10594","5074","f","elianto","#3366ff99"," "," ","1","+10","[1793]","1","2","","","10594","105","8","1","win","go","0"
"pit-trial","224","1345443","0.0-110.0","battery-v0.2","","""event"",""trial"",""time""
""focus"",""0"",""1""
""fullscreenenter"",""1"",""3591""
","
","""event"",""trial"",""time""
""focus"",""0"",""1""
","""event"",""trial"",""time""
""fullscreenenter"",""1"",""3591""
","
","","","1148","","","20","10594","5074","z","elianto","#3366ff99"," "," ","1","+10","[2003]","1","2","","","10594","106","4","1","win","go","0"
"pit-trial","225","1350215","0.0-111.0","battery-v0.2","","""event"",""trial"",""time""
""focus"",""0"",""1""
""fullscreenenter"",""1"",""3591""
","
","""event"",""trial"",""time""
""focus"",""0"",""1""
","""event"",""trial"",""time""
""fullscreenenter"",""1"",""3591""
","
","","","1901","","","20","10594","5074","b","elianto","#f73b6a7A"," "," ","1","0","[2757]","1","2","","","10594","107","6","3","lose","go","0"
"pit-trial","226","1355087","0.0-112.0","battery-v0.2","","""event"",""trial"",""time""
""focus"",""0"",""1""
""fullscreenenter"",""1"",""3591""
","
","""event"",""trial"",""time""
""focus"",""0"",""1""
","""event"",""trial"",""time""
""fullscreenenter"",""1"",""3591""
","
","","","-1","","","20","10594","5074","n","elianto","#3366ff99"," ","-1","0","0","[]","0","2","","","10594","108","9","1","win","go","0"
"pit-trial","227","1358791","0.0-113.0","battery-v0.2","","""event"",""trial"",""time""
""focus"",""0"",""1""
""fullscreenenter"",""1"",""3591""
","
","""event"",""trial"",""time""
""focus"",""0"",""1""
","""event"",""trial"",""time""
""fullscreenenter"",""1"",""3591""
","
","","","840","","","20","10594","5074","n","elianto","#3366ff99"," "," ","1","+10","[1693]","1","2","","","10594","109","9","1","win","go","0"
"pit-trial","228","1362579","0.0-114.0","battery-v0.2","","""event"",""trial"",""time""
""focus"",""0"",""1""
""fullscreenenter"",""1"",""3591""
","
","""event"",""trial"",""time""
""focus"",""0"",""1""
","""event"",""trial"",""time""
""fullscreenenter"",""1"",""3591""
","
","","","921","","","20","10594","5074","b","elianto","#f73b6a7A"," "," ","1","0","[1777]","1","2","","","10594","110","6","3","lose","go","0"
"pit-trial","229","1367442","0.0-115.0","battery-v0.2","","""event"",""trial"",""time""
""focus"",""0"",""1""
""fullscreenenter"",""1"",""3591""
","
","""event"",""trial"",""time""
""focus"",""0"",""1""
","""event"",""trial"",""time""
""fullscreenenter"",""1"",""3591""
","
","","","-1","","","20","10594","5074","c","elianto","#3366ff99","-1","-1","1","+10","[]","0","2","","","10594","111","5","2","win","no-go","0"
"pit-trial","230","1371191","0.0-116.0","battery-v0.2","","""event"",""trial"",""time""
""focus"",""0"",""1""
""fullscreenenter"",""1"",""3591""
","
