"trial_type","trial_index","time_elapsed","internal_node_id","task_version","subject_id","interactions","blur_events","focus_events","fullscreenenter_events","fullscreenexit_events","success","view_history","rt","responses","num_errors","age","subject","participantId","rune","rune_set","hex","correct","choice","accuracy","outcome","keys","total_keys","block","practice","value","sub","trial","stimulus","robot","valence","action","sham"
"pavlovia","0","17","0.0-0.0","battery-v0.2","","""event"",""trial"",""time""
""fullscreenenter"",""1"",""3069""
","
","
","""event"",""trial"",""time""
""fullscreenenter"",""1"",""3069""
","
","","","","","","","","","","","","","","","","","","","","","","","","","","",""
"fullscreen","1","4036","0.0-1.0","battery-v0.2","","""event"",""trial"",""time""
""fullscreenenter"",""1"",""3069""
","
","
","""event"",""trial"",""time""
""fullscreenenter"",""1"",""3069""
","
","true","","","","","","","","","","","","","","","","","","","","","","","","","",""
"pit-instructions","2","8972","0.0-2.0-0.0","battery-v0.2","","""event"",""trial"",""time""
""fullscreenenter"",""1"",""3069""
","
","
","""event"",""trial"",""time""
""fullscreenenter"",""1"",""3069""
","
","","[{""page_index"":0,""viewing_time"":4924.5}]","4925.400000035763","","","","","","","","","","","","","","","","","","","","","","","",""
"pit-comprehension","3","12494","0.0-2.0-1.0-0.0","battery-v0.2","","""event"",""trial"",""time""
""fullscreenenter"",""1"",""3069""
","
","
","""event"",""trial"",""time""
""fullscreenenter"",""1"",""3069""
","
","","","3510.600000023842","[""shark""]","0","16","7810","3716","","","","","","","","","","","","","","","","","","",""
"pit-instructions","4","20255","0.0-2.0-1.0-1.0","battery-v0.2","","""event"",""trial"",""time""
""fullscreenenter"",""1"",""3069""
","
","
","""event"",""trial"",""time""
""fullscreenenter"",""1"",""3069""
","
","","[{""page_index"":0,""viewing_time"":7721.399999976158}]","7722.100000023842","","","","","","","","","","","","","","","","","","","","","","","",""
"pit-comprehension","5","22407","0.0-2.0-2.0-0.0","battery-v0.2","","""event"",""trial"",""time""
""fullscreenenter"",""1"",""3069""
","
","
","""event"",""trial"",""time""
""fullscreenenter"",""1"",""3069""
","
","","","2143.800000011921","[""tiger""]","0","16","7810","3716","","","","","","","","","","","","","","","","","","",""
"pit-instructions","6","68853","0.0-2.0-2.0-1.0","battery-v0.2","","""event"",""trial"",""time""
""fullscreenenter"",""1"",""3069""
","
","
","""event"",""trial"",""time""
""fullscreenenter"",""1"",""3069""
","
","","[{""page_index"":0,""viewing_time"":46431.09999996424}]","46431.80000001192","","","","","","","","","","","","","","","","","","","","","","","",""
"pit-instructions","7","165469","0.0-2.0-3.0","battery-v0.2","","""event"",""trial"",""time""
""fullscreenenter"",""1"",""3069""
","
","
","""event"",""trial"",""time""
""fullscreenenter"",""1"",""3069""
","
","","[{""page_index"":0,""viewing_time"":10052.899999976158},{""page_index"":1,""viewing_time"":6794.800000011921},{""page_index"":2,""viewing_time"":6933},{""page_index"":3,""viewing_time"":6172.899999976158},{""page_index"":4,""viewing_time"":5294.100000023842},{""page_index"":5,""viewing_time"":5469},{""page_index"":6,""viewing_time"":7333.099999964237},{""page_index"":7,""viewing_time"":7364.800000011921},{""page_index"":8,""viewing_time"":6236.100000023842},{""page_index"":9,""viewing_time"":9004.099999964237},{""page_index"":10,""viewing_time"":7763.5},{""page_index"":11,""viewing_time"":6835.400000035763},{""page_index"":12,""viewing_time"":6365.699999988079},{""page_index"":13,""viewing_time"":4996}]","96616.79999995232","","","","","","","","","","","","","","","","","","","","","","","",""
"pit-trial","8","169006","0.0-2.0-4.0-0.0","battery-v0.2","","""event"",""trial"",""time""
""fullscreenenter"",""1"",""3069""
","
","
","""event"",""trial"",""time""
""fullscreenenter"",""1"",""3069""
","
","","","661.4000000357628","","","16","7810","3716","&#9784;","elianto","#FFFFF080"," "," ","1","&#10004","[1520.6000000238419]","1","0","0","","","","","","","",""
"pit-trial","9","172395","0.0-2.0-4.1-0.1","battery-v0.2","","""event"",""trial"",""time""
""fullscreenenter"",""1"",""3069""
","
","
","""event"",""trial"",""time""
""fullscreenenter"",""1"",""3069""
","
","","","528.8000000119209","","","16","7810","3716","&#9784;","elianto","#FFFFF080"," "," ","1","&#10004","[1380.2999999523163]","1","0","0","","","","","","","",""
"pit-trial","10","175805","0.0-2.0-4.2-0.2","battery-v0.2","","""event"",""trial"",""time""
""fullscreenenter"",""1"",""3069""
","
","
","""event"",""trial"",""time""
""fullscreenenter"",""1"",""3069""
","
","","","545.6999999880791","","","16","7810","3716","&#9784;","elianto","#FFFFF080"," "," ","1","&#10004","[1395.7000000476837]","1","0","0","","","","","","","",""
"pit-trial","11","179175","0.0-2.0-4.3-0.3","battery-v0.2","","""event"",""trial"",""time""
""fullscreenenter"",""1"",""3069""
","
","
","""event"",""trial"",""time""
""fullscreenenter"",""1"",""3069""
","
","","","496.69999998807907","","","16","7810","3716","&#9784;","elianto","#FFFFF080"," "," ","1","&#10004","[1350]","1","0","0","","","","","","","",""
"pit-trial","12","182865","0.0-2.0-4.4-0.4","battery-v0.2","","""event"",""trial"",""time""
""fullscreenenter"",""1"",""3069""
","
","
","""event"",""trial"",""time""
""fullscreenenter"",""1"",""3069""
","
","","","826.8999999761581","","","16","7810","3716","&#9784;","elianto","#FFFFF080"," "," ","1","&#10004","[1680.6000000238419]","1","0","0","","","","","","","",""
"pit-instructions","13","204216","0.0-2.0-5.0","battery-v0.2","","""event"",""trial"",""time""
""fullscreenenter"",""1"",""3069""
","
","
","""event"",""trial"",""time""
""fullscreenenter"",""1"",""3069""
","
","","[{""page_index"":0,""viewing_time"":4878.799999952316},{""page_index"":1,""viewing_time"":5693.100000023842},{""page_index"":2,""viewing_time"":5285.699999988079},{""page_index"":3,""viewing_time"":5485.400000035763}]","21343.69999998808","","","","","","","","","","","","","","","","","","","","","","","",""
"pit-trial","14","209111","0.0-2.0-6.0-0.0","battery-v0.2","","""event"",""trial"",""time""
""fullscreenenter"",""1"",""3069""
","
","
","""event"",""trial"",""time""
""fullscreenenter"",""1"",""3069""
","
","","","-1","","","16","7810","3716","&#9854;","elianto","#FFFFF080","-1","-1","1","&#10004","[]","0","0","1","","","","","","","",""
"pit-trial","15","213990","0.0-2.0-6.1-0.1","battery-v0.2","","""event"",""trial"",""time""
""fullscreenenter"",""1"",""3069""
","
","
","""event"",""trial"",""time""
""fullscreenenter"",""1"",""3069""
","
","","","-1","","","16","7810","3716","&#9854;","elianto","#FFFFF080","-1","-1","1","&#10004","[]","0","0","1","","","","","","","",""
"pit-trial","16","218871","0.0-2.0-6.2-0.2","battery-v0.2","","""event"",""trial"",""time""
""fullscreenenter"",""1"",""3069""
","
","
","""event"",""trial"",""time""
""fullscreenenter"",""1"",""3069""
","
","","","-1","","","16","7810","3716","&#9854;","elianto","#FFFFF080","-1","-1","1","&#10004","[]","0","0","1","","","","","","","",""
"pit-trial","17","223741","0.0-2.0-6.3-0.3","battery-v0.2","","""event"",""trial"",""time""
""fullscreenenter"",""1"",""3069""
","
","
","""event"",""trial"",""time""
""fullscreenenter"",""1"",""3069""
","
","","","-1","","","16","7810","3716","&#9854;","elianto","#FFFFF080","-1","-1","1","&#10004","[]","0","0","1","","","","","","","",""
"pit-trial","18","228631","0.0-2.0-6.4-0.4","battery-v0.2","","""event"",""trial"",""time""
""fullscreenenter"",""1"",""3069""
","
","
","""event"",""trial"",""time""
""fullscreenenter"",""1"",""3069""
","
","","","-1","","","16","7810","3716","&#9854;","elianto","#FFFFF080","-1","-1","1","&#10004","[]","0","0","1","","","","","","","",""
"pit-instructions","19","348705","0.0-2.0-7.0","battery-v0.2","","""event"",""trial"",""time""
""fullscreenenter"",""1"",""3069""
","
","
","""event"",""trial"",""time""
""fullscreenenter"",""1"",""3069""
","
","","[{""page_index"":0,""viewing_time"":5481.699999988079},{""page_index"":1,""viewing_time"":8091.800000011921},{""page_index"":2,""viewing_time"":6125.699999988079},{""page_index"":3,""viewing_time"":8980.699999988079},{""page_index"":4,""viewing_time"":5340.800000011921},{""page_index"":5,""viewing_time"":7028.899999976158},{""page_index"":6,""viewing_time"":4615.600000023842},{""page_index"":7,""viewing_time"":8009.899999976158},{""page_index"":8,""viewing_time"":6885.400000035763},{""page_index"":9,""viewing_time"":5622.299999952316},{""page_index"":10,""viewing_time"":6092.900000035763},{""page_index"":11,""viewing_time"":4477.599999964237},{""page_index"":12,""viewing_time"":8764.5},{""page_index"":13,""viewing_time"":7116.5},{""page_index"":14,""viewing_time"":7229.300000011921},{""page_index"":15,""viewing_time"":6485.5},{""page_index"":16,""viewing_time"":6788.5},{""page_index"":17,""viewing_time"":6925}]","120063.5","","","","","","","","","","","","","","","","","","","","","","","",""
"pit-trial","20","352671","0.0-2.0-8.0-0.0","battery-v0.2","","""event"",""trial"",""time""
""fullscreenenter"",""1"",""3069""
","
","
","""event"",""trial"",""time""
""fullscreenenter"",""1"",""3069""
","
","","","1099.8999999761581","","","16","7810","3716","&#9776;","elianto","#3366ff99"," "," ","1","+10","[1950.1000000238419]","1","0","1","","","","","","","",""
"pit-trial","21","356034","0.0-2.0-8.0-1.0","battery-v0.2","","""event"",""trial"",""time""
""fullscreenenter"",""1"",""3069""
","
","
","""event"",""trial"",""time""
""fullscreenenter"",""1"",""3069""
","
","","","501.5","","","16","7810","3716","&#9776;","elianto","#3366ff99"," "," ","1","+10","[1354.3999999761581]","1","0","1","","","","","","","",""
"pit-trial","22","359444","0.0-2.0-8.0-2.0","battery-v0.2","","""event"",""trial"",""time""
""fullscreenenter"",""1"",""3069""
","
","
","""event"",""trial"",""time""
""fullscreenenter"",""1"",""3069""
","
","","","535","","","16","7810","3716","&#9776;","elianto","#3366ff99"," "," ","1","+10","[1388.5999999642372]","1","0","1","","","","","","","",""
"pit-trial","23","362682","0.0-2.0-8.0-3.0","battery-v0.2","","""event"",""trial"",""time""
""fullscreenenter"",""1"",""3069""
","
","
","""event"",""trial"",""time""
""fullscreenenter"",""1"",""3069""
","
","","","360.4000000357628","","","16","7810","3716","&#9776;","elianto","#3366ff99"," "," ","1","0","[1216.6000000238419]","1","0","1","","","","","","","",""
"pit-trial","24","365864","0.0-2.0-8.0-4.0","battery-v0.2","","""event"",""trial"",""time""
""fullscreenenter"",""1"",""3069""
","
","
","""event"",""trial"",""time""
""fullscreenenter"",""1"",""3069""
","
","","","310.69999998807907","","","16","7810","3716","&#9776;","elianto","#3366ff99"," "," ","1","+10","[1162.5999999642372]","1","0","1","","","","","","","",""
"pit-trial","25","368853","0.0-2.0-8.1-0.1","battery-v0.2","","""event"",""trial"",""time""
""fullscreenenter"",""1"",""3069""
","
","
","""event"",""trial"",""time""
""fullscreenenter"",""1"",""3069""
","
","","","114.80000001192093","","","16","7810","3716","&#9776;","elianto","#3366ff99"," "," ","1","+10","[965.6999999880791]","1","0","1","","","","","","","",""
"pit-trial","26","371734","0.0-2.0-8.1-1.1","battery-v0.2","","""event"",""trial"",""time""
""fullscreenenter"",""1"",""3069""
","
","
","""event"",""trial"",""time""
""fullscreenenter"",""1"",""3069""
","
","","","8.600000023841858","","","16","7810","3716","&#9776;","elianto","#3366ff99"," "," ","1","+10","[863.6000000238419]","1","0","1","","","","","","","",""
"pit-trial","27","374623","0.0-2.0-8.1-2.1","battery-v0.2","","""event"",""trial"",""time""
""fullscreenenter"",""1"",""3069""
","
","
","""event"",""trial"",""time""
""fullscreenenter"",""1"",""3069""
","
","","","12.800000011920929","","","16","7810","3716","&#9776;","elianto","#3366ff99"," "," ","1","+10","[867.3999999761581,1857.0999999642372]","2","0","1","","","","","","","",""
"pit-trial","28","377683","0.0-2.0-8.1-3.1","battery-v0.2","","""event"",""trial"",""time""
""fullscreenenter"",""1"",""3069""
","
","
","""event"",""trial"",""time""
""fullscreenenter"",""1"",""3069""
","
","","","181.4000000357628","","","16","7810","3716","&#9776;","elianto","#3366ff99"," "," ","1","0","[797.4000000357628,1036.6000000238419,1107.2000000476837,1598.6000000238419]","4","0","1","","","","","","","",""
"pit-trial","29","380587","0.0-2.0-8.1-4.1","battery-v0.2","","""event"",""trial"",""time""
""fullscreenenter"",""1"",""3069""
","
","
","""event"",""trial"",""time""
""fullscreenenter"",""1"",""3069""
","
","","","36.60000002384186","","","16","7810","3716","&#9776;","elianto","#3366ff99"," "," ","1","+10","[891]","1","0","1","","","","","","","",""
"pit-trial","30","384020","0.0-2.0-8.2-0.2","battery-v0.2","","""event"",""trial"",""time""
""fullscreenenter"",""1"",""3069""
","
","
","""event"",""trial"",""time""
""fullscreenenter"",""1"",""3069""
","
","","","567","","","16","7810","3716","&#9776;","elianto","#3366ff99"," "," ","1","+10","[782.1999999880791,1421.5]","2","0","1","","","","","","","",""
"pit-trial","31","387555","0.0-2.0-8.2-1.2","battery-v0.2","","""event"",""trial"",""time""
""fullscreenenter"",""1"",""3069""
","
","
","""event"",""trial"",""time""
""fullscreenenter"",""1"",""3069""
","
","","","676.1000000238419","","","16","7810","3716","&#9776;","elianto","#3366ff99"," "," ","1","+10","[1527.699999988079]","1","0","1","","","","","","","",""
"pit-trial","32","391347","0.0-2.0-8.2-2.2","battery-v0.2","","""event"",""trial"",""time""
""fullscreenenter"",""1"",""3069""
","
","
","""event"",""trial"",""time""
""fullscreenenter"",""1"",""3069""
","
","","","930.1999999880791","","","16","7810","3716","&#9776;","elianto","#3366ff99"," "," ","1","+10","[1781.1000000238419]","1","0","1","","","","","","","",""
"pit-trial","33","395108","0.0-2.0-8.2-3.2","battery-v0.2","","""event"",""trial"",""time""
""fullscreenenter"",""1"",""3069""
","
","
","""event"",""trial"",""time""
""fullscreenenter"",""1"",""3069""
","
","","","900.4000000357628","","","16","7810","3716","&#9776;","elianto","#3366ff99"," "," ","1","0","[1755.199999988079,3715.300000011921]","2","0","1","","","","","","","",""
"pit-trial","34","398737","0.0-2.0-8.2-4.2","battery-v0.2","","""event"",""trial"",""time""
""fullscreenenter"",""1"",""3069""
","
","
","""event"",""trial"",""time""
""fullscreenenter"",""1"",""3069""
","
","","","758.0999999642372","","","16","7810","3716","&#9776;","elianto","#3366ff99"," "," ","1","+10","[1614.9000000357628]","1","0","1","","","","","","","",""
"call-function","35","398743","0.0-2.0-9.0","battery-v0.2","","""event"",""trial"",""time""
""fullscreenenter"",""1"",""3069""
","
","
","""event"",""trial"",""time""
""fullscreenenter"",""1"",""3069""
","
","","","","","","","","","","","","","","","","","","","","","","","","","","",""
"pit-instructions","36","439600","0.0-2.0-10.0","battery-v0.2","","""event"",""trial"",""time""
""fullscreenenter"",""1"",""3069""
","
","
","""event"",""trial"",""time""
""fullscreenenter"",""1"",""3069""
","
","","[{""page_index"":0,""viewing_time"":7133.699999988079},{""page_index"":1,""viewing_time"":7227.5},{""page_index"":2,""viewing_time"":9652.600000023842},{""page_index"":3,""viewing_time"":9604.099999964237},{""page_index"":4,""viewing_time"":7236.400000035763}]","40855.19999998808","","","","","","","","","","","","","","","","","","","","","","","",""
"pit-trial","37","443139","0.0-2.0-11.0-0.0","battery-v0.2","","""event"",""trial"",""time""
""fullscreenenter"",""1"",""3069""
","
","
","""event"",""trial"",""time""
""fullscreenenter"",""1"",""3069""
","
","","","674.0999999642372","","","16","7810","3716","&#9761;","elianto","#3366ff99","-1"," ","0","0","[1529.5]","1","0","2","","","","","","","",""
"pit-trial","38","446043","0.0-2.0-11.0-1.0","battery-v0.2","","""event"",""trial"",""time""
""fullscreenenter"",""1"",""3069""
","
","
","""event"",""trial"",""time""
""fullscreenenter"",""1"",""3069""
","
","","","30.899999976158142","","","16","7810","3716","&#9761;","elianto","#3366ff99","-1"," ","0","0","[882.8999999761581]","1","0","2","","","","","","","",""
"pit-trial","39","450924","0.0-2.0-11.0-2.0","battery-v0.2","","""event"",""trial"",""time""
""fullscreenenter"",""1"",""3069""
","
","
","""event"",""trial"",""time""
""fullscreenenter"",""1"",""3069""
","
","","","-1","","","16","7810","3716","&#9761;","elianto","#3366ff99","-1","-1","1","+10","[]","0","0","2","","","","","","","",""
"pit-trial","40","455813","0.0-2.0-11.0-3.0","battery-v0.2","","""event"",""trial"",""time""
""fullscreenenter"",""1"",""3069""
","
","
","""event"",""trial"",""time""
""fullscreenenter"",""1"",""3069""
","
","","","-1","","","16","7810","3716","&#9761;","elianto","#3366ff99","-1","-1","1","0","[]","0","0","2","","","","","","","",""
"pit-trial","41","460684","0.0-2.0-11.0-4.0","battery-v0.2","","""event"",""trial"",""time""
""fullscreenenter"",""1"",""3069""
","
","
","""event"",""trial"",""time""
""fullscreenenter"",""1"",""3069""
","
","","","-1","","","16","7810","3716","&#9761;","elianto","#3366ff99","-1","-1","1","+10","[]","0","0","2","","","","","","","",""
"pit-trial","42","465563","0.0-2.0-11.1-0.1","battery-v0.2","","""event"",""trial"",""time""
""fullscreenenter"",""1"",""3069""
","
","
","""event"",""trial"",""time""
""fullscreenenter"",""1"",""3069""
","
","","","-1","","","16","7810","3716","&#9761;","elianto","#3366ff99","-1","-1","1","+10","[]","0","0","2","","","","","","","",""
"pit-trial","43","470453","0.0-2.0-11.1-1.1","battery-v0.2","","""event"",""trial"",""time""
""fullscreenenter"",""1"",""3069""
","
","
","""event"",""trial"",""time""
""fullscreenenter"",""1"",""3069""
","
","","","-1","","","16","7810","3716","&#9761;","elianto","#3366ff99","-1","-1","1","+10","[]","0","0","2","","","","","","","",""
"pit-trial","44","475319","0.0-2.0-11.1-2.1","battery-v0.2","","""event"",""trial"",""time""
""fullscreenenter"",""1"",""3069""
","
","
","""event"",""trial"",""time""
""fullscreenenter"",""1"",""3069""
","
","","","-1","","","16","7810","3716","&#9761;","elianto","#3366ff99","-1","-1","1","+10","[]","0","0","2","","","","","","","",""
"pit-trial","45","480180","0.0-2.0-11.1-3.1","battery-v0.2","","""event"",""trial"",""time""
""fullscreenenter"",""1"",""3069""
","
","
","""event"",""trial"",""time""
""fullscreenenter"",""1"",""3069""
","
","","","-1","","","16","7810","3716","&#9761;","elianto","#3366ff99","-1","-1","1","0","[]","0","0","2","","","","","","","",""
"pit-trial","46","485050","0.0-2.0-11.1-4.1","battery-v0.2","","""event"",""trial"",""time""
""fullscreenenter"",""1"",""3069""
","
","
","""event"",""trial"",""time""
""fullscreenenter"",""1"",""3069""
","
","","","-1","","","16","7810","3716","&#9761;","elianto","#3366ff99","-1","-1","1","+10","[]","0","0","2","","","","","","","",""
"pit-trial","47","489917","0.0-2.0-11.2-0.2","battery-v0.2","","""event"",""trial"",""time""
""fullscreenenter"",""1"",""3069""
","
","
","""event"",""trial"",""time""
""fullscreenenter"",""1"",""3069""
","
","","","-1","","","16","7810","3716","&#9761;","elianto","#3366ff99","-1","-1","1","+10","[]","0","0","2","","","","","","","",""
"pit-trial","48","494783","0.0-2.0-11.2-1.2","battery-v0.2","","""event"",""trial"",""time""
""fullscreenenter"",""1"",""3069""
","
","
","""event"",""trial"",""time""
""fullscreenenter"",""1"",""3069""
","
","","","-1","","","16","7810","3716","&#9761;","elianto","#3366ff99","-1","-1","1","+10","[]","0","0","2","","","","","","","",""
"pit-trial","49","499646","0.0-2.0-11.2-2.2","battery-v0.2","","""event"",""trial"",""time""
""fullscreenenter"",""1"",""3069""
","
","
","""event"",""trial"",""time""
""fullscreenenter"",""1"",""3069""
","
","","","-1","","","16","7810","3716","&#9761;","elianto","#3366ff99","-1","-1","1","+10","[]","0","0","2","","","","","","","",""
"pit-trial","50","504521","0.0-2.0-11.2-3.2","battery-v0.2","","""event"",""trial"",""time""
""fullscreenenter"",""1"",""3069""
","
","
","""event"",""trial"",""time""
""fullscreenenter"",""1"",""3069""
","
","","","-1","","","16","7810","3716","&#9761;","elianto","#3366ff99","-1","-1","1","0","[]","0","0","2","","","","","","","",""
"pit-trial","51","509384","0.0-2.0-11.2-4.2","battery-v0.2","","""event"",""trial"",""time""
""fullscreenenter"",""1"",""3069""
","
","
","""event"",""trial"",""time""
""fullscreenenter"",""1"",""3069""
","
","","","-1","","","16","7810","3716","&#9761;","elianto","#3366ff99","-1","-1","1","+10","[]","0","0","2","","","","","","","",""
"pit-trial","52","514259","0.0-2.0-11.3-0.3","battery-v0.2","","""event"",""trial"",""time""
""fullscreenenter"",""1"",""3069""
","
","
","""event"",""trial"",""time""
""fullscreenenter"",""1"",""3069""
","
","","","-1","","","16","7810","3716","&#9761;","elianto","#3366ff99","-1","-1","1","+10","[]","0","0","2","","","","","","","",""
"pit-trial","53","519117","0.0-2.0-11.3-1.3","battery-v0.2","","""event"",""trial"",""time""
""fullscreenenter"",""1"",""3069""
","
","
","""event"",""trial"",""time""
""fullscreenenter"",""1"",""3069""
","
","","","-1","","","16","7810","3716","&#9761;","elianto","#3366ff99","-1","-1","1","+10","[]","0","0","2","","","","","","","",""
"pit-trial","54","523984","0.0-2.0-11.3-2.3","battery-v0.2","","""event"",""trial"",""time""
""fullscreenenter"",""1"",""3069""
","
","
","""event"",""trial"",""time""
""fullscreenenter"",""1"",""3069""
","
","","","-1","","","16","7810","3716","&#9761;","elianto","#3366ff99","-1","-1","1","+10","[]","0","0","2","","","","","","","",""
"pit-trial","55","528854","0.0-2.0-11.3-3.3","battery-v0.2","","""event"",""trial"",""time""
""fullscreenenter"",""1"",""3069""
","
","
","""event"",""trial"",""time""
""fullscreenenter"",""1"",""3069""
","
","","","-1","","","16","7810","3716","&#9761;","elianto","#3366ff99","-1","-1","1","0","[]","0","0","2","","","","","","","",""
"pit-trial","56","533719","0.0-2.0-11.3-4.3","battery-v0.2","","""event"",""trial"",""time""
""fullscreenenter"",""1"",""3069""
","
","
","""event"",""trial"",""time""
""fullscreenenter"",""1"",""3069""
","
","","","-1","","","16","7810","3716","&#9761;","elianto","#3366ff99","-1","-1","1","+10","[]","0","0","2","","","","","","","",""
"call-function","57","533723","0.0-2.0-12.0","battery-v0.2","","""event"",""trial"",""time""
""fullscreenenter"",""1"",""3069""
","
","
","""event"",""trial"",""time""
""fullscreenenter"",""1"",""3069""
","
","","","","","","","","","","","","","","","","","","","","","","","","","","",""
"pit-instructions","58","567803","0.0-2.0-13.0","battery-v0.2","","""event"",""trial"",""time""
""fullscreenenter"",""1"",""3069""
","
","
","""event"",""trial"",""time""
""fullscreenenter"",""1"",""3069""
","
","","[{""page_index"":0,""viewing_time"":4873.899999976158},{""page_index"":1,""viewing_time"":6893.5},{""page_index"":2,""viewing_time"":6637},{""page_index"":3,""viewing_time"":10468},{""page_index"":4,""viewing_time"":5204.800000011921}]","34078","","","","","","","","","","","","","","","","","","","","","","","",""
"pit-trial","59","570848","0.0-2.0-14.0-0.0","battery-v0.2","","""event"",""trial"",""time""
""fullscreenenter"",""1"",""3069""
","
","
","""event"",""trial"",""time""
""fullscreenenter"",""1"",""3069""
","
","","","170.60000002384186","","","16","7810","3716","&#9826;","elianto","#f73b6a7A","-1"," ","0","-10","[1025.8999999761581]","1","0","3","","","","","","","",""
"pit-trial","60","575722","0.0-2.0-14.0-1.0","battery-v0.2","","""event"",""trial"",""time""
""fullscreenenter"",""1"",""3069""
","
","
","""event"",""trial"",""time""
""fullscreenenter"",""1"",""3069""
","
","","","-1","","","16","7810","3716","&#9826;","elianto","#f73b6a7A","-1","-1","1","0","[]","0","0","3","","","","","","","",""
"pit-trial","61","580609","0.0-2.0-14.0-2.0","battery-v0.2","","""event"",""trial"",""time""
""fullscreenenter"",""1"",""3069""
","
","
","""event"",""trial"",""time""
""fullscreenenter"",""1"",""3069""
","
","","","-1","","","16","7810","3716","&#9826;","elianto","#f73b6a7A","-1","-1","1","0","[]","0","0","3","","","","","","","",""
"pit-trial","62","585488","0.0-2.0-14.0-3.0","battery-v0.2","","""event"",""trial"",""time""
""fullscreenenter"",""1"",""3069""
","
","
","""event"",""trial"",""time""
""fullscreenenter"",""1"",""3069""
","
","","","-1","","","16","7810","3716","&#9826;","elianto","#f73b6a7A","-1","-1","1","-10","[]","0","0","3","","","","","","","",""
"pit-trial","63","590373","0.0-2.0-14.0-4.0","battery-v0.2","","""event"",""trial"",""time""
""fullscreenenter"",""1"",""3069""
","
","
","""event"",""trial"",""time""
""fullscreenenter"",""1"",""3069""
","
","","","-1","","","16","7810","3716","&#9826;","elianto","#f73b6a7A","-1","-1","1","0","[]","0","0","3","","","","","","","",""
"pit-trial","64","595251","0.0-2.0-14.1-0.1","battery-v0.2","","""event"",""trial"",""time""
""fullscreenenter"",""1"",""3069""
","
","
","""event"",""trial"",""time""
""fullscreenenter"",""1"",""3069""
","
","","","-1","","","16","7810","3716","&#9826;","elianto","#f73b6a7A","-1","-1","1","0","[]","0","0","3","","","","","","","",""
"pit-trial","65","600110","0.0-2.0-14.1-1.1","battery-v0.2","","""event"",""trial"",""time""
""fullscreenenter"",""1"",""3069""
","
","
","""event"",""trial"",""time""
""fullscreenenter"",""1"",""3069""
","
","","","-1","","","16","7810","3716","&#9826;","elianto","#f73b6a7A","-1","-1","1","0","[]","0","0","3","","","","","","","",""
"pit-trial","66","604974","0.0-2.0-14.1-2.1","battery-v0.2","","""event"",""trial"",""time""
""fullscreenenter"",""1"",""3069""
","
","
","""event"",""trial"",""time""
""fullscreenenter"",""1"",""3069""
","
","","","-1","","","16","7810","3716","&#9826;","elianto","#f73b6a7A","-1","-1","1","0","[]","0","0","3","","","","","","","",""
"pit-trial","67","609841","0.0-2.0-14.1-3.1","battery-v0.2","","""event"",""trial"",""time""
""fullscreenenter"",""1"",""3069""
","
","
","""event"",""trial"",""time""
""fullscreenenter"",""1"",""3069""
","
","","","-1","","","16","7810","3716","&#9826;","elianto","#f73b6a7A","-1","-1","1","-10","[]","0","0","3","","","","","","","",""
"pit-trial","68","614711","0.0-2.0-14.1-4.1","battery-v0.2","","""event"",""trial"",""time""
""fullscreenenter"",""1"",""3069""
","
","
","""event"",""trial"",""time""
""fullscreenenter"",""1"",""3069""
","
","","","-1","","","16","7810","3716","&#9826;","elianto","#f73b6a7A","-1","-1","1","0","[]","0","0","3","","","","","","","",""
"pit-trial","69","619577","0.0-2.0-14.2-0.2","battery-v0.2","","""event"",""trial"",""time""
""fullscreenenter"",""1"",""3069""
","
","
","""event"",""trial"",""time""
""fullscreenenter"",""1"",""3069""
","
","","","-1","","","16","7810","3716","&#9826;","elianto","#f73b6a7A","-1","-1","1","0","[]","0","0","3","","","","","","","",""
"pit-trial","70","624446","0.0-2.0-14.2-1.2","battery-v0.2","","""event"",""trial"",""time""
""fullscreenenter"",""1"",""3069""
","
","
","""event"",""trial"",""time""
""fullscreenenter"",""1"",""3069""
","
","","","-1","","","16","7810","3716","&#9826;","elianto","#f73b6a7A","-1","-1","1","0","[]","0","0","3","","","","","","","",""
"pit-trial","71","629320","0.0-2.0-14.2-2.2","battery-v0.2","","""event"",""trial"",""time""
""fullscreenenter"",""1"",""3069""
","
","
","""event"",""trial"",""time""
""fullscreenenter"",""1"",""3069""
","
","","","-1","","","16","7810","3716","&#9826;","elianto","#f73b6a7A","-1","-1","1","0","[]","0","0","3","","","","","","","",""
"pit-trial","72","634181","0.0-2.0-14.2-3.2","battery-v0.2","","""event"",""trial"",""time""
""fullscreenenter"",""1"",""3069""
","
","
","""event"",""trial"",""time""
""fullscreenenter"",""1"",""3069""
","
","","","-1","","","16","7810","3716","&#9826;","elianto","#f73b6a7A","-1","-1","1","-10","[]","0","0","3","","","","","","","",""
"pit-trial","73","639043","0.0-2.0-14.2-4.2","battery-v0.2","","""event"",""trial"",""time""
""fullscreenenter"",""1"",""3069""
","
","
","""event"",""trial"",""time""
""fullscreenenter"",""1"",""3069""
","
","","","-1","","","16","7810","3716","&#9826;","elianto","#f73b6a7A","-1","-1","1","0","[]","0","0","3","","","","","","","",""
"pit-trial","74","643906","0.0-2.0-14.3-0.3","battery-v0.2","","""event"",""trial"",""time""
""fullscreenenter"",""1"",""3069""
","
","
","""event"",""trial"",""time""
""fullscreenenter"",""1"",""3069""
","
","","","-1","","","16","7810","3716","&#9826;","elianto","#f73b6a7A","-1","-1","1","0","[]","0","0","3","","","","","","","",""
"pit-trial","75","648766","0.0-2.0-14.3-1.3","battery-v0.2","","""event"",""trial"",""time""
""fullscreenenter"",""1"",""3069""
","
","
","""event"",""trial"",""time""
""fullscreenenter"",""1"",""3069""
","
","","","-1","","","16","7810","3716","&#9826;","elianto","#f73b6a7A","-1","-1","1","0","[]","0","0","3","","","","","","","",""
"pit-trial","76","653629","0.0-2.0-14.3-2.3","battery-v0.2","","""event"",""trial"",""time""
""fullscreenenter"",""1"",""3069""
","
","
","""event"",""trial"",""time""
""fullscreenenter"",""1"",""3069""
","
","","","-1","","","16","7810","3716","&#9826;","elianto","#f73b6a7A","-1","-1","1","0","[]","0","0","3","","","","","","","",""
"pit-trial","77","658493","0.0-2.0-14.3-3.3","battery-v0.2","","""event"",""trial"",""time""
""fullscreenenter"",""1"",""3069""
","
","
","""event"",""trial"",""time""
""fullscreenenter"",""1"",""3069""
","
","","","-1","","","16","7810","3716","&#9826;","elianto","#f73b6a7A","-1","-1","1","-10","[]","0","0","3","","","","","","","",""
"pit-trial","78","663358","0.0-2.0-14.3-4.3","battery-v0.2","","""event"",""trial"",""time""
""fullscreenenter"",""1"",""3069""
","
","
","""event"",""trial"",""time""
""fullscreenenter"",""1"",""3069""
","
","","","-1","","","16","7810","3716","&#9826;","elianto","#f73b6a7A","-1","-1","1","0","[]","0","0","3","","","","","","","",""
"call-function","79","663362","0.0-2.0-15.0","battery-v0.2","","""event"",""trial"",""time""
""fullscreenenter"",""1"",""3069""
","
","
","""event"",""trial"",""time""
""fullscreenenter"",""1"",""3069""
","
","","","","","","","","","","","","","","","","","","","","","","","","","","",""
"pit-instructions","80","693239","0.0-2.0-16.0","battery-v0.2","","""event"",""trial"",""time""
""fullscreenenter"",""1"",""3069""
","
","
","""event"",""trial"",""time""
""fullscreenenter"",""1"",""3069""
","
","","[{""page_index"":0,""viewing_time"":9980},{""page_index"":1,""viewing_time"":9306.5},{""page_index"":2,""viewing_time"":4206.100000023842},{""page_index"":3,""viewing_time"":6382.199999988079}]","29875.5","","","","","","","","","","","","","","","","","","","","","","","",""
"pit-trial","81","696289","0.0-2.0-17.0-0.0","battery-v0.2","","""event"",""trial"",""time""
""fullscreenenter"",""1"",""3069""
","
","
","""event"",""trial"",""time""
""fullscreenenter"",""1"",""3069""
","
","","","185.69999998807907","","","16","7810","3716","&#9789;","elianto","#f73b6a7A"," "," ","1","0","[1037.199999988079]","1","0","4","","","","","","","",""
"pit-trial","82","699376","0.0-2.0-17.0-1.0","battery-v0.2","","""event"",""trial"",""time""
""fullscreenenter"",""1"",""3069""
","
","
","""event"",""trial"",""time""
""fullscreenenter"",""1"",""3069""
","
","","","222.10000002384186","","","16","7810","3716","&#9789;","elianto","#f73b6a7A"," "," ","1","0","[1074.3999999761581]","1","0","4","","","","","","","",""
"pit-trial","83","702326","0.0-2.0-17.0-2.0","battery-v0.2","","""event"",""trial"",""time""
""fullscreenenter"",""1"",""3069""
","
","
","""event"",""trial"",""time""
""fullscreenenter"",""1"",""3069""
","
","","","81.5","","","16","7810","3716","&#9789;","elianto","#f73b6a7A"," "," ","1","0","[937.0999999642372]","1","0","4","","","","","","","",""
"pit-trial","84","707215","0.0-2.0-17.0-3.0","battery-v0.2","","""event"",""trial"",""time""
""fullscreenenter"",""1"",""3069""
","
","
","""event"",""trial"",""time""
""fullscreenenter"",""1"",""3069""
","
","","","-1","","","16","7810","3716","&#9789;","elianto","#f73b6a7A"," ","-1","0","0","[]","0","0","4","","","","","","","",""
"pit-trial","85","712095","0.0-2.0-17.0-4.0","battery-v0.2","","""event"",""trial"",""time""
""fullscreenenter"",""1"",""3069""
","
","
","""event"",""trial"",""time""
""fullscreenenter"",""1"",""3069""
","
","","","-1","","","16","7810","3716","&#9789;","elianto","#f73b6a7A"," ","-1","0","-10","[]","0","0","4","","","","","","","",""
"pit-trial","86","716965","0.0-2.0-17.1-0.1","battery-v0.2","","""event"",""trial"",""time""
""fullscreenenter"",""1"",""3069""
","
","
","""event"",""trial"",""time""
""fullscreenenter"",""1"",""3069""
","
","","","-1","","","16","7810","3716","&#9789;","elianto","#f73b6a7A"," ","-1","0","-10","[]","0","0","4","","","","","","","",""
"pit-trial","87","720067","0.0-2.0-17.1-1.1","battery-v0.2","","""event"",""trial"",""time""
""fullscreenenter"",""1"",""3069""
","
","
","""event"",""trial"",""time""
""fullscreenenter"",""1"",""3069""
","
","","","236.4000000357628","","","16","7810","3716","&#9789;","elianto","#f73b6a7A"," "," ","1","0","[1088.199999988079,2088.399999976158]","2","0","4","","","","","","","",""
"pit-trial","88","723215","0.0-2.0-17.1-2.1","battery-v0.2","","""event"",""trial"",""time""
""fullscreenenter"",""1"",""3069""
","
","
","""event"",""trial"",""time""
""fullscreenenter"",""1"",""3069""
","
","","","290","","","16","7810","3716","&#9789;","elianto","#f73b6a7A"," "," ","1","0","[828.8000000119209,1142.800000011921]","2","0","4","","","","","","","",""
"pit-trial","89","726279","0.0-2.0-17.1-3.1","battery-v0.2","","""event"",""trial"",""time""
""fullscreenenter"",""1"",""3069""
","
","
","""event"",""trial"",""time""
""fullscreenenter"",""1"",""3069""
","
","","","207.39999997615814","","","16","7810","3716","&#9789;","elianto","#f73b6a7A"," "," ","1","-10","[1059.699999988079]","1","0","4","","","","","","","",""
"pit-trial","90","729349","0.0-2.0-17.1-4.1","battery-v0.2","","""event"",""trial"",""time""
""fullscreenenter"",""1"",""3069""
","
","
","""event"",""trial"",""time""
""fullscreenenter"",""1"",""3069""
","
","","","205.60000002384186","","","16","7810","3716","&#9789;","elianto","#f73b6a7A"," "," ","1","0","[194.29999995231628,1057.0999999642372]","2","0","4","","","","","","","",""
"pit-trial","91","732413","0.0-2.0-17.2-0.2","battery-v0.2","","""event"",""trial"",""time""
""fullscreenenter"",""1"",""3069""
","
","
","""event"",""trial"",""time""
""fullscreenenter"",""1"",""3069""
","
","","","200.69999998807907","","","16","7810","3716","&#9789;","elianto","#f73b6a7A"," "," ","1","0","[328.69999998807907,1052.800000011921,1545.800000011921]","3","0","4","","","","","","","",""
"pit-trial","92","735407","0.0-2.0-17.2-1.2","battery-v0.2","","""event"",""trial"",""time""
""fullscreenenter"",""1"",""3069""
","
","
","""event"",""trial"",""time""
""fullscreenenter"",""1"",""3069""
","
","","","133.19999998807907","","","16","7810","3716","&#9789;","elianto","#f73b6a7A"," "," ","1","0","[983.3999999761581]","1","0","4","","","","","","","",""
"pit-trial","93","738620","0.0-2.0-17.2-2.2","battery-v0.2","","""event"",""trial"",""time""
""fullscreenenter"",""1"",""3069""
","
","
","""event"",""trial"",""time""
""fullscreenenter"",""1"",""3069""
","
","","","350.60000002384186","","","16","7810","3716","&#9789;","elianto","#f73b6a7A"," "," ","1","0","[1200.9000000357628]","1","0","4","","","","","","","",""
"pit-trial","94","741781","0.0-2.0-17.2-3.2","battery-v0.2","","""event"",""trial"",""time""
""fullscreenenter"",""1"",""3069""
","
","
","""event"",""trial"",""time""
""fullscreenenter"",""1"",""3069""
","
","","","286.4000000357628","","","16","7810","3716","&#9789;","elianto","#f73b6a7A"," "," ","1","-10","[1142.3999999761581,2323.300000011921]","2","0","4","","","","","","","",""
"pit-trial","95","745087","0.0-2.0-17.2-4.2","battery-v0.2","","""event"",""trial"",""time""
""fullscreenenter"",""1"",""3069""
","
","
","""event"",""trial"",""time""
""fullscreenenter"",""1"",""3069""
","
","","","445.80000001192093","","","16","7810","3716","&#9789;","elianto","#f73b6a7A"," "," ","1","0","[1297]","1","0","4","","","","","","","",""
"pit-trial","96","748150","0.0-2.0-17.3-0.3","battery-v0.2","","""event"",""trial"",""time""
""fullscreenenter"",""1"",""3069""
","
","
","""event"",""trial"",""time""
""fullscreenenter"",""1"",""3069""
","
","","","196.39999997615814","","","16","7810","3716","&#9789;","elianto","#f73b6a7A"," "," ","1","0","[1051.3999999761581]","1","0","4","","","","","","","",""
"pit-trial","97","751358","0.0-2.0-17.3-1.3","battery-v0.2","","""event"",""trial"",""time""
""fullscreenenter"",""1"",""3069""
","
","
","""event"",""trial"",""time""
""fullscreenenter"",""1"",""3069""
","
","","","345.69999998807907","","","16","7810","3716","&#9789;","elianto","#f73b6a7A"," "," ","1","0","[1199.300000011921]","1","0","4","","","","","","","",""
"pit-trial","98","755134","0.0-2.0-17.3-2.3","battery-v0.2","","""event"",""trial"",""time""
""fullscreenenter"",""1"",""3069""
","
","
","""event"",""trial"",""time""
""fullscreenenter"",""1"",""3069""
","
","","","916.8000000119209","","","16","7810","3716","&#9789;","elianto","#f73b6a7A"," "," ","1","0","[1770.8999999761581]","1","0","4","","","","","","","",""
"pit-trial","99","758514","0.0-2.0-17.3-3.3","battery-v0.2","","""event"",""trial"",""time""
""fullscreenenter"",""1"",""3069""
","
","
","""event"",""trial"",""time""
""fullscreenenter"",""1"",""3069""
","
","","","517.2000000476837","","","16","7810","3716","&#9789;","elianto","#f73b6a7A"," "," ","1","-10","[1374.1000000238419]","1","0","4","","","","","","","",""
"pit-trial","100","761522","0.0-2.0-17.3-4.3","battery-v0.2","","""event"",""trial"",""time""
""fullscreenenter"",""1"",""3069""
","
","
","""event"",""trial"",""time""
""fullscreenenter"",""1"",""3069""
","
","","","154.79999995231628","","","16","7810","3716","&#9789;","elianto","#f73b6a7A"," "," ","1","0","[1006.1999999880791]","1","0","4","","","","","","","",""
"call-function","101","761526","0.0-2.0-18.0","battery-v0.2","","""event"",""trial"",""time""
""fullscreenenter"",""1"",""3069""
","
","
","""event"",""trial"",""time""
""fullscreenenter"",""1"",""3069""
","
","","","","","","","","","","","","","","","","","","","","","","","","","","",""
"pit-instructions","102","841501","0.0-2.0-19.0","battery-v0.2","","""event"",""trial"",""time""
""fullscreenenter"",""1"",""3069""
","
","
","""event"",""trial"",""time""
""fullscreenenter"",""1"",""3069""
","
","","[{""page_index"":0,""viewing_time"":9190.599999964237},{""page_index"":1,""viewing_time"":7948.600000023842},{""page_index"":2,""viewing_time"":9963.399999976158},{""page_index"":3,""viewing_time"":8357.200000047684},{""page_index"":4,""viewing_time"":9610.699999988079},{""page_index"":5,""viewing_time"":8908.099999964237},{""page_index"":6,""viewing_time"":9365.800000011921},{""page_index"":7,""viewing_time"":8281.699999988079},{""page_index"":8,""viewing_time"":8342.900000035763}]","79969.80000001192","","","","","","","","","","","","","","","","","","","","","","","",""
"pit-comprehension","103","848515","0.0-2.0-20.0-0.0","battery-v0.2","","""event"",""trial"",""time""
""fullscreenenter"",""1"",""3069""
","
","
","""event"",""trial"",""time""
""fullscreenenter"",""1"",""3069""
","
","","","7003","[""SPACE""]","0","16","7810","3716","","","","","","","","","","","","","","","","","","",""
"pit-instructions","104","856317","0.0-2.0-20.0-1.0","battery-v0.2","","""event"",""trial"",""time""
""fullscreenenter"",""1"",""3069""
","
","
","""event"",""trial"",""time""
""fullscreenenter"",""1"",""3069""
","
","","[{""page_index"":0,""viewing_time"":7580.800000011921}]","7581.699999988079","","","","","","","","","","","","","","","","","","","","","","","",""
"pit-comprehension","105","864267","0.0-2.0-21.0-0.0","battery-v0.2","","""event"",""trial"",""time""
""fullscreenenter"",""1"",""3069""
","
","
","""event"",""trial"",""time""
""fullscreenenter"",""1"",""3069""
","
","","","7941.599999964237","[""10""]","0","16","7810","3716","","","","","","","","","","","","","","","","","","",""
"pit-instructions","106","865944","0.0-2.0-21.0-1.0","battery-v0.2","","""event"",""trial"",""time""
""fullscreenenter"",""1"",""3069""
","
","
","""event"",""trial"",""time""
""fullscreenenter"",""1"",""3069""
","
","","[{""page_index"":0,""viewing_time"":1488.199999988079}]","1488.8999999761581","","","","","","","","","","","","","","","","","","","","","","","",""
"pit-comprehension","107","872399","0.0-2.0-22.0-0.0","battery-v0.2","","""event"",""trial"",""time""
""fullscreenenter"",""1"",""3069""
","
","
","""event"",""trial"",""time""
""fullscreenenter"",""1"",""3069""
","
","","","6446.800000011921","[""-10""]","1","16","7810","3716","","","","","","","","","","","","","","","","","","",""
"pit-instructions","108","880810","0.0-2.0-22.0-1.0","battery-v0.2","","""event"",""trial"",""time""
""fullscreenenter"",""1"",""3069""
","
","
","""event"",""trial"",""time""
""fullscreenenter"",""1"",""3069""
","
","","[{""page_index"":0,""viewing_time"":8283.699999988079}]","8284.699999988079","","","","","","","","","","","","","","","","","","","","","","","",""
"pit-instructions","109","882146","0.0-2.0-22.0-2.0-0.0","battery-v0.2","","""event"",""trial"",""time""
""fullscreenenter"",""1"",""3069""
","
","
","""event"",""trial"",""time""
""fullscreenenter"",""1"",""3069""
","
","","[{""page_index"":0,""viewing_time"":1330.3999999761581}]","1331.1000000238419","","","","","","","","","","","","","","","","","","","","","","","",""
"pit-comprehension","110","889920","0.0-2.0-22.1-0.1","battery-v0.2","","""event"",""trial"",""time""
""fullscreenenter"",""1"",""3069""
","
","
","""event"",""trial"",""time""
""fullscreenenter"",""1"",""3069""
","
","","","7766.399999976158","[""0""]","0","16","7810","3716","","","","","","","","","","","","","","","","","","",""
"pit-instructions","111","891638","0.0-2.0-22.1-1.1","battery-v0.2","","""event"",""trial"",""time""
""fullscreenenter"",""1"",""3069""
","
","
","""event"",""trial"",""time""
""fullscreenenter"",""1"",""3069""
","
","","[{""page_index"":0,""viewing_time"":1501.800000011921}]","1502.5","","","","","","","","","","","","","","","","","","","","","","","",""
"pit-comprehension","112","901435","0.0-2.0-23.0-0.0","battery-v0.2","","""event"",""trial"",""time""
""fullscreenenter"",""1"",""3069""
","
","
","""event"",""trial"",""time""
""fullscreenenter"",""1"",""3069""
","
","","","9790.5","[""True""]","0","16","7810","3716","","","","","","","","","","","","","","","","","","",""
"pit-instructions","113","903585","0.0-2.0-23.0-1.0","battery-v0.2","","""event"",""trial"",""time""
""fullscreenenter"",""1"",""3069""
","
","
","""event"",""trial"",""time""
""fullscreenenter"",""1"",""3069""
","
","","[{""page_index"":0,""viewing_time"":1988.1000000238419}]","1988.800000011921","","","","","","","","","","","","","","","","","","","","","","","",""
"pit-comprehension","114","912615","0.0-2.0-24.0-0.0","battery-v0.2","","""event"",""trial"",""time""
""fullscreenenter"",""1"",""3069""
","
","
","""event"",""trial"",""time""
""fullscreenenter"",""1"",""3069""
","
","","","9021.899999976158","[""True""]","0","16","7810","3716","","","","","","","","","","","","","","","","","","",""
"pit-instructions","115","914238","0.0-2.0-24.0-1.0","battery-v0.2","","""event"",""trial"",""time""
""fullscreenenter"",""1"",""3069""
","
","
","""event"",""trial"",""time""
""fullscreenenter"",""1"",""3069""
","
","","[{""page_index"":0,""viewing_time"":1509.5}]","1510.199999988079","","","","","","","","","","","","","","","","","","","","","","","",""
"pit-comprehension","116","920778","0.0-2.0-25.0-0.0","battery-v0.2","","""event"",""trial"",""time""
""fullscreenenter"",""1"",""3069""
","
","
","""event"",""trial"",""time""
""fullscreenenter"",""1"",""3069""
","
","","","6530.699999988079","[""True""]","0","16","7810","3716","","","","","","","","","","","","","","","","","","",""
"pit-instructions","117","922465","0.0-2.0-25.0-1.0","battery-v0.2","","""event"",""trial"",""time""
""fullscreenenter"",""1"",""3069""
","
","
","""event"",""trial"",""time""
""fullscreenenter"",""1"",""3069""
","
","","[{""page_index"":0,""viewing_time"":1571.699999988079}]","1572.3999999761581","","","","","","","","","","","","","","","","","","","","","","","",""
"pit-comprehension","118","929654","0.0-2.0-26.0-0.0","battery-v0.2","","""event"",""trial"",""time""
""fullscreenenter"",""1"",""3069""
","
","
","""event"",""trial"",""time""
""fullscreenenter"",""1"",""3069""
","
","","","7180.699999988079","[""False""]","0","16","7810","3716","","","","","","","","","","","","","","","","","","",""
"pit-instructions","119","931844","0.0-2.0-26.0-1.0","battery-v0.2","","""event"",""trial"",""time""
""fullscreenenter"",""1"",""3069""
","
","
","""event"",""trial"",""time""
""fullscreenenter"",""1"",""3069""
","
","","[{""page_index"":0,""viewing_time"":1995.6000000238419}]","1996.6000000238419","","","","","","","","","","","","","","","","","","","","","","","",""
"pit-instructions","120","950220","0.0-3.0","battery-v0.2","","""event"",""trial"",""time""
""fullscreenenter"",""1"",""3069""
","
","
","""event"",""trial"",""time""
""fullscreenenter"",""1"",""3069""
","
","","[{""page_index"":0,""viewing_time"":5776.100000023842},{""page_index"":1,""viewing_time"":5892.300000011921},{""page_index"":2,""viewing_time"":6701.5}]","18370.600000023842","","","","","","","","","","","","","","","","","","","","","","","",""
"pit-trial","121","954037","0.0-4.0","battery-v0.2","","""event"",""trial"",""time""
""fullscreenenter"",""1"",""3069""
","
","
","""event"",""trial"",""time""
""fullscreenenter"",""1"",""3069""
","
","","","946.1999999880791","","","16","7810","3716","&#9733;","elianto","#3366ff99","-1"," ","0","0","[1798.5]","1","1","","","7810","1","2","2","win","no-go","0"
"pit-trial","122","958908","0.0-5.0","battery-v0.2","","""event"",""trial"",""time""
""fullscreenenter"",""1"",""3069""
","
","
","""event"",""trial"",""time""
""fullscreenenter"",""1"",""3069""
","
","","","-1","","","16","7810","3716","&#9752;","elianto","#f73b6a7A"," ","-1","0","-10","[]","0","1","","","7810","2","3","3","lose","go","0"
"pit-trial","123","962400","0.0-6.0","battery-v0.2","","""event"",""trial"",""time""
""fullscreenenter"",""1"",""3069""
","
","
","""event"",""trial"",""time""
""fullscreenenter"",""1"",""3069""
","
","","","620.3999999761581","","","16","7810","3716","&#9728;","elianto","#f73b6a7A","-1"," ","0","-10","[1473.9000000357628]","1","1","","","7810","3","0","4","lose","no-go","0"
"pit-trial","124","966016","0.0-7.0","battery-v0.2","","""event"",""trial"",""time""
""fullscreenenter"",""1"",""3069""
","
","
","""event"",""trial"",""time""
""fullscreenenter"",""1"",""3069""
","
","","","740.5","","","16","7810","3716","&#9730;","elianto","#3366ff99"," "," ","1","+10","[1600]","1","1","","","7810","4","1","1","win","go","0"
"pit-trial","125","970907","0.0-8.0","battery-v0.2","","""event"",""trial"",""time""
""fullscreenenter"",""1"",""3069""
","
","
","""event"",""trial"",""time""
""fullscreenenter"",""1"",""3069""
","
","","","-1","","","16","7810","3716","&#9728;","elianto","#f73b6a7A","-1","-1","1","0","[]","0","1","","","7810","5","0","4","lose","no-go","0"
"pit-trial","126","974526","0.0-9.0","battery-v0.2","","""event"",""trial"",""time""
""fullscreenenter"",""1"",""3069""
","
","
","""event"",""trial"",""time""
""fullscreenenter"",""1"",""3069""
","
","","","749.3000000119209","","","16","7810","3716","&#9733;","elianto","#3366ff99","-1"," ","0","+10","[1600.199999988079]","1","1","","","7810","6","2","2","win","no-go","1"
"pit-trial","127","978022","0.0-10.0","battery-v0.2","","""event"",""trial"",""time""
""fullscreenenter"",""1"",""3069""
","
","
","""event"",""trial"",""time""
""fullscreenenter"",""1"",""3069""
","
","","","627.5999999642372","","","16","7810","3716","&#9730;","elianto","#3366ff99"," "," ","1","+10","[1482.6000000238419]","1","1","","","7810","7","1","1","win","go","0"
"pit-trial","128","981635","0.0-11.0","battery-v0.2","","""event"",""trial"",""time""
""fullscreenenter"",""1"",""3069""
","
","
","""event"",""trial"",""time""
""fullscreenenter"",""1"",""3069""
","
","","","750.7999999523163","","","16","7810","3716","&#9752;","elianto","#f73b6a7A"," "," ","1","-10","[1606.199999988079]","1","1","","","7810","8","3","3","lose","go","1"
"pit-trial","129","985553","0.0-12.0","battery-v0.2","","""event"",""trial"",""time""
""fullscreenenter"",""1"",""3069""
","
","
","""event"",""trial"",""time""
""fullscreenenter"",""1"",""3069""
","
","","","1055.3999999761581","","","16","7810","3716","&#9728;","elianto","#f73b6a7A","-1"," ","0","-10","[1906.8999999761581]","1","1","","","7810","9","0","4","lose","no-go","0"
"pit-trial","130","989121","0.0-13.0","battery-v0.2","","""event"",""trial"",""time""
""fullscreenenter"",""1"",""3069""
","
","
","""event"",""trial"",""time""
""fullscreenenter"",""1"",""3069""
","
","","","708.4000000357628","","","16","7810","3716","&#9752;","elianto","#f73b6a7A"," "," ","1","-10","[1559.699999988079]","1","1","","","7810","10","3","3","lose","go","1"
"pit-trial","131","992584","0.0-14.0","battery-v0.2","","""event"",""trial"",""time""
""fullscreenenter"",""1"",""3069""
","
","
","""event"",""trial"",""time""
""fullscreenenter"",""1"",""3069""
","
","","","597.3999999761581","","","16","7810","3716","&#9730;","elianto","#3366ff99"," "," ","1","0","[1448.4000000357628]","1","1","","","7810","11","1","1","win","go","1"
"pit-trial","132","995982","0.0-15.0","battery-v0.2","","""event"",""trial"",""time""
""fullscreenenter"",""1"",""3069""
","
","
","""event"",""trial"",""time""
""fullscreenenter"",""1"",""3069""
","
","","","533.8999999761581","","","16","7810","3716","&#9733;","elianto","#3366ff99","-1"," ","0","+10","[1385.5]","1","1","","","7810","12","2","2","win","no-go","1"
"pit-trial","133","999538","0.0-16.0","battery-v0.2","","""event"",""trial"",""time""
""fullscreenenter"",""1"",""3069""
","
","
","""event"",""trial"",""time""
""fullscreenenter"",""1"",""3069""
","
","","","692.1999999880791","","","16","7810","3716","&#9752;","elianto","#f73b6a7A"," "," ","1","-10","[1543.8999999761581]","1","1","","","7810","13","3","3","lose","go","1"
"pit-trial","134","1003049","0.0-17.0","battery-v0.2","","""event"",""trial"",""time""
""fullscreenenter"",""1"",""3069""
","
","
","""event"",""trial"",""time""
""fullscreenenter"",""1"",""3069""
","
","","","650.3999999761581","","","16","7810","3716","&#9730;","elianto","#3366ff99"," "," ","1","+10","[1502.3999999761581]","1","1","","","7810","14","1","1","win","go","0"
"pit-trial","135","1006478","0.0-18.0","battery-v0.2","","""event"",""trial"",""time""
""fullscreenenter"",""1"",""3069""
","
","
","""event"",""trial"",""time""
""fullscreenenter"",""1"",""3069""
","
","","","568.5999999642372","","","16","7810","3716","&#9733;","elianto","#3366ff99","-1"," ","0","0","[1423.199999988079]","1","1","","","7810","15","2","2","win","no-go","0"
"pit-trial","136","1011356","0.0-19.0","battery-v0.2","","""event"",""trial"",""time""
""fullscreenenter"",""1"",""3069""
","
","
","""event"",""trial"",""time""
""fullscreenenter"",""1"",""3069""
","
","","","-1","","","16","7810","3716","&#9728;","elianto","#f73b6a7A","-1","-1","1","0","[]","0","1","","","7810","16","0","4","lose","no-go","0"
"pit-trial","137","1016225","0.0-20.0","battery-v0.2","","""event"",""trial"",""time""
""fullscreenenter"",""1"",""3069""
","
","
","""event"",""trial"",""time""
""fullscreenenter"",""1"",""3069""
","
","","","-1","","","16","7810","3716","&#9752;","elianto","#f73b6a7A"," ","-1","0","-10","[]","0","1","","","7810","17","3","3","lose","go","0"
"pit-trial","138","1019621","0.0-21.0","battery-v0.2","","""event"",""trial"",""time""
""fullscreenenter"",""1"",""3069""
","
","
","""event"",""trial"",""time""
""fullscreenenter"",""1"",""3069""
","
","","","528.5999999642372","","","16","7810","3716","&#9730;","elianto","#3366ff99"," "," ","1","+10","[1381.8999999761581]","1","1","","","7810","18","1","1","win","go","0"
"pit-trial","139","1023331","0.0-22.0","battery-v0.2","","""event"",""trial"",""time""
""fullscreenenter"",""1"",""3069""
","
","
","""event"",""trial"",""time""
""fullscreenenter"",""1"",""3069""
","
","","","843.8999999761581","","","16","7810","3716","&#9728;","elianto","#f73b6a7A","-1"," ","0","-10","[1697.800000011921]","1","1","","","7810","19","0","4","lose","no-go","0"
"pit-trial","140","1026772","0.0-23.0","battery-v0.2","","""event"",""trial"",""time""
""fullscreenenter"",""1"",""3069""
","
","
","""event"",""trial"",""time""
""fullscreenenter"",""1"",""3069""
","
","","","580.0999999642372","","","16","7810","3716","&#9733;","elianto","#3366ff99","-1"," ","0","+10","[1432]","1","1","","","7810","20","2","2","win","no-go","1"
"pit-instructions","141","1039452","0.0-24.0","battery-v0.2","","""event"",""trial"",""time""
""fullscreenenter"",""1"",""3069""
","
","
","""event"",""trial"",""time""
""fullscreenenter"",""1"",""3069""
","
","","[{""page_index"":0,""viewing_time"":6006.599999964237},{""page_index"":1,""viewing_time"":6669}]","12676.5","","","","","","","","","","","","","","","","","","","","","","","",""
"pit-trial","142","1043228","0.0-25.0","battery-v0.2","","""event"",""trial"",""time""
""fullscreenenter"",""1"",""3069""
","
","
","""event"",""trial"",""time""
""fullscreenenter"",""1"",""3069""
","
","","","907.6999999880791","","","16","7810","3716","n","elianto","#f73b6a7A","-1"," ","0","-10","[1758]","1","2","","","7810","21","0","4","lose","no-go","0"
"pit-trial","143","1046860","0.0-26.0","battery-v0.2","","""event"",""trial"",""time""
""fullscreenenter"",""1"",""3069""
","
","
","""event"",""trial"",""time""
""fullscreenenter"",""1"",""3069""
","
","","","770","","","16","7810","3716","t","elianto","#f73b6a7A","-1"," ","0","-10","[1621.699999988079]","1","2","","","7810","22","2","4","lose","no-go","0"
"pit-trial","144","1050245","0.0-27.0","battery-v0.2","","""event"",""trial"",""time""
""fullscreenenter"",""1"",""3069""
","
","
","""event"",""trial"",""time""
""fullscreenenter"",""1"",""3069""
","
","","","515.8000000119209","","","16","7810","3716","b","elianto","#f73b6a7A"," "," ","1","0","[1370.800000011921]","1","2","","","7810","23","3","3","lose","go","0"
"pit-trial","145","1053680","0.0-28.0","battery-v0.2","","""event"",""trial"",""time""
""fullscreenenter"",""1"",""3069""
","
","
","""event"",""trial"",""time""
""fullscreenenter"",""1"",""3069""
","
","","","561","","","16","7810","3716","f","elianto","#3366ff99"," "," ","1","+10","[1422.300000011921]","1","2","","","7810","24","1","1","win","go","0"
"pit-trial","146","1057020","0.0-29.0","battery-v0.2","","""event"",""trial"",""time""
""fullscreenenter"",""1"",""3069""
","
","
","""event"",""trial"",""time""
""fullscreenenter"",""1"",""3069""
","
","","","471.69999998807907","","","16","7810","3716","f","elianto","#3366ff99"," "," ","1","+10","[1327.0999999642372]","1","2","","","7810","25","1","1","win","go","0"
"pit-trial","147","1060920","0.0-30.0","battery-v0.2","","""event"",""trial"",""time""
""fullscreenenter"",""1"",""3069""
","
","
","""event"",""trial"",""time""
""fullscreenenter"",""1"",""3069""
","
","","","1031.300000011921","","","16","7810","3716","b","elianto","#f73b6a7A"," "," ","1","0","[1883.3999999761581]","1","2","","","7810","26","3","3","lose","go","0"
"pit-trial","148","1065791","0.0-31.0","battery-v0.2","","""event"",""trial"",""time""
""fullscreenenter"",""1"",""3069""
","
","
","""event"",""trial"",""time""
""fullscreenenter"",""1"",""3069""
","
","","","-1","","","16","7810","3716","n","elianto","#f73b6a7A","-1","-1","1","0","[]","0","2","","","7810","27","0","4","lose","no-go","0"
"pit-trial","149","1070654","0.0-32.0","battery-v0.2","","""event"",""trial"",""time""
""fullscreenenter"",""1"",""3069""
","
","
","""event"",""trial"",""time""
""fullscreenenter"",""1"",""3069""
","
","","","-1","","","16","7810","3716","t","elianto","#f73b6a7A","-1","-1","1","0","[]","0","2","","","7810","28","2","4","lose","no-go","0"
"pit-trial","150","1075077","0.0-33.0","battery-v0.2","","""event"",""trial"",""time""
""fullscreenenter"",""1"",""3069""
","
","
","""event"",""trial"",""time""
""fullscreenenter"",""1"",""3069""
","
","","","1561.4000000357628","","","16","7810","3716","t","elianto","#f73b6a7A","-1"," ","0","-10","[2415.600000023842]","1","2","","","7810","29","2","4","lose","no-go","0"
"pit-trial","151","1079045","0.0-34.0","battery-v0.2","","""event"",""trial"",""time""
""fullscreenenter"",""1"",""3069""
","
","
","""event"",""trial"",""time""
""fullscreenenter"",""1"",""3069""
","
","","","1110.699999988079","","","16","7810","3716","f","elianto","#3366ff99"," "," ","1","0","[1961.7000000476837]","1","2","","","7810","30","1","1","win","go","1"
"pit-trial","152","1083907","0.0-35.0","battery-v0.2","","""event"",""trial"",""time""
""fullscreenenter"",""1"",""3069""
","
","
","""event"",""trial"",""time""
""fullscreenenter"",""1"",""3069""
","
","","","-1","","","16","7810","3716","n","elianto","#f73b6a7A","-1","-1","1","0","[]","0","2","","","7810","31","0","4","lose","no-go","0"
"pit-trial","153","1087414","0.0-36.0","battery-v0.2","","""event"",""trial"",""time""
""fullscreenenter"",""1"",""3069""
","
","
","""event"",""trial"",""time""
""fullscreenenter"",""1"",""3069""
","
","","","643.3999999761581","","","16","7810","3716","b","elianto","#f73b6a7A"," "," ","1","0","[1494.6000000238419]","1","2","","","7810","32","3","3","lose","go","0"
"pit-trial","154","1090835","0.0-37.0","battery-v0.2","","""event"",""trial"",""time""
""fullscreenenter"",""1"",""3069""
","
","
","""event"",""trial"",""time""
""fullscreenenter"",""1"",""3069""
","
","","","556.3999999761581","","","16","7810","3716","f","elianto","#3366ff99"," "," ","1","+10","[1408.7999999523163]","1","2","","","7810","33","1","1","win","go","0"
"pit-trial","155","1095699","0.0-38.0","battery-v0.2","","""event"",""trial"",""time""
""fullscreenenter"",""1"",""3069""
","
","
","""event"",""trial"",""time""
""fullscreenenter"",""1"",""3069""
","
","","","-1","","","16","7810","3716","n","elianto","#f73b6a7A","-1","-1","1","-10","[]","0","2","","","7810","34","0","4","lose","no-go","1"
"pit-trial","156","1099234","0.0-39.0","battery-v0.2","","""event"",""trial"",""time""
""fullscreenenter"",""1"",""3069""
","
","
","""event"",""trial"",""time""
""fullscreenenter"",""1"",""3069""
","
","","","671.3999999761581","","","16","7810","3716","b","elianto","#f73b6a7A"," "," ","1","0","[1527.9000000357628]","1","2","","","7810","35","3","3","lose","go","0"
"pit-trial","157","1104098","0.0-40.0","battery-v0.2","","""event"",""trial"",""time""
""fullscreenenter"",""1"",""3069""
","
","
","""event"",""trial"",""time""
""fullscreenenter"",""1"",""3069""
","
","","","-1","","","16","7810","3716","t","elianto","#f73b6a7A","-1","-1","1","0","[]","0","2","","","7810","36","2","4","lose","no-go","0"
"pit-trial","158","1108967","0.0-41.0","battery-v0.2","","""event"",""trial"",""time""
""fullscreenenter"",""1"",""3069""
","
","
","""event"",""trial"",""time""
""fullscreenenter"",""1"",""3069""
","
","","","-1","","","16","7810","3716","n","elianto","#f73b6a7A","-1","-1","1","0","[]","0","2","","","7810","37","0","4","lose","no-go","0"
"pit-trial","159","1112488","0.0-42.0","battery-v0.2","","""event"",""trial"",""time""
""fullscreenenter"",""1"",""3069""
","
","
","""event"",""trial"",""time""
""fullscreenenter"",""1"",""3069""
","
","","","658.1999999880791","","","16","7810","3716","b","elianto","#f73b6a7A"," "," ","1","-10","[1511.3999999761581]","1","2","","","7810","38","3","3","lose","go","1"
"pit-trial","160","1117358","0.0-43.0","battery-v0.2","","""event"",""trial"",""time""
""fullscreenenter"",""1"",""3069""
","
","
","""event"",""trial"",""time""
""fullscreenenter"",""1"",""3069""
","
","","","-1","","","16","7810","3716","t","elianto","#f73b6a7A","-1","-1","1","0","[]","0","2","","","7810","39","2","4","lose","no-go","0"
"pit-trial","161","1120993","0.0-44.0","battery-v0.2","","""event"",""trial"",""time""
""fullscreenenter"",""1"",""3069""
","
","
","""event"",""trial"",""time""
""fullscreenenter"",""1"",""3069""
","
","","","771.3999999761581","","","16","7810","3716","f","elianto","#3366ff99"," "," ","1","0","[1621.6000000238419]","1","2","","","7810","40","1","1","win","go","1"
"pit-trial","162","1125092","0.0-45.0","battery-v0.2","","""event"",""trial"",""time""
""fullscreenenter"",""1"",""3069""
","
","
","""event"",""trial"",""time""
""fullscreenenter"",""1"",""3069""
","
","","","1235.3999999761581","","","16","7810","3716","f","elianto","#3366ff99"," "," ","1","+10","[2086.599999964237]","1","2","","","7810","41","1","1","win","go","0"
"pit-trial","163","1129952","0.0-46.0","battery-v0.2","","""event"",""trial"",""time""
""fullscreenenter"",""1"",""3069""
","
","
","""event"",""trial"",""time""
""fullscreenenter"",""1"",""3069""
","
","","","-1","","","16","7810","3716","n","elianto","#f73b6a7A","-1","-1","1","0","[]","0","2","","","7810","42","0","4","lose","no-go","0"
"pit-trial","164","1134095","0.0-47.0","battery-v0.2","","""event"",""trial"",""time""
""fullscreenenter"",""1"",""3069""
","
","
","""event"",""trial"",""time""
""fullscreenenter"",""1"",""3069""
","
","","","1278.3999999761581","","","16","7810","3716","b","elianto","#f73b6a7A"," "," ","1","-10","[2134.5]","1","2","","","7810","43","3","3","lose","go","1"
"pit-trial","165","1138965","0.0-48.0","battery-v0.2","","""event"",""trial"",""time""
""fullscreenenter"",""1"",""3069""
","
","
","""event"",""trial"",""time""
""fullscreenenter"",""1"",""3069""
","
","","","-1","","","16","7810","3716","t","elianto","#f73b6a7A","-1","-1","1","0","[]","0","2","","","7810","44","2","4","lose","no-go","0"
"pit-trial","166","1143835","0.0-49.0","battery-v0.2","","""event"",""trial"",""time""
""fullscreenenter"",""1"",""3069""
","
","
","""event"",""trial"",""time""
""fullscreenenter"",""1"",""3069""
","
","","","-1","","","16","7810","3716","t","elianto","#f73b6a7A","-1","-1","1","-10","[4299.200000047684]","1","2","","","7810","45","2","4","lose","no-go","1"
"pit-trial","167","1148699","0.0-50.0","battery-v0.2","","""event"",""trial"",""time""
""fullscreenenter"",""1"",""3069""
","
","
","""event"",""trial"",""time""
""fullscreenenter"",""1"",""3069""
","
","","","-1","","","16","7810","3716","n","elianto","#f73b6a7A","-1","-1","1","0","[]","0","2","","","7810","46","0","4","lose","no-go","0"
"pit-trial","168","1152460","0.0-51.0","battery-v0.2","","""event"",""trial"",""time""
""fullscreenenter"",""1"",""3069""
","
","
","""event"",""trial"",""time""
""fullscreenenter"",""1"",""3069""
","
","","","890.6000000238419","","","16","7810","3716","c","elianto","#3366ff99","-1"," ","0","0","[1740.699999988079]","1","2","","","7810","47","4","2","win","no-go","0"
"pit-trial","169","1156095","0.0-52.0","battery-v0.2","","""event"",""trial"",""time""
""fullscreenenter"",""1"",""3069""
","
","
","""event"",""trial"",""time""
""fullscreenenter"",""1"",""3069""
","
","","","777","","","16","7810","3716","b","elianto","#f73b6a7A"," "," ","1","0","[1628.300000011921]","1","2","","","7810","48","3","3","lose","go","0"
"pit-trial","170","1159569","0.0-53.0","battery-v0.2","","""event"",""trial"",""time""
""fullscreenenter"",""1"",""3069""
","
","
","""event"",""trial"",""time""
""fullscreenenter"",""1"",""3069""
","
","","","606.3000000119209","","","16","7810","3716","c","elianto","#3366ff99","-1"," ","0","0","[1462.199999988079]","1","2","","","7810","49","4","2","win","no-go","0"
"pit-trial","171","1164433","0.0-54.0","battery-v0.2","","""event"",""trial"",""time""
""fullscreenenter"",""1"",""3069""
","
","
","""event"",""trial"",""time""
""fullscreenenter"",""1"",""3069""
","
","","","-1","","","16","7810","3716","n","elianto","#f73b6a7A","-1","-1","1","0","[]","0","2","","","7810","50","0","4","lose","no-go","0"
"pit-trial","172","1168607","0.0-55.0","battery-v0.2","","""event"",""trial"",""time""
""fullscreenenter"",""1"",""3069""
","
","
","""event"",""trial"",""time""
""fullscreenenter"",""1"",""3069""
","
","","","1309.4000000357628","","","16","7810","3716","b","elianto","#f73b6a7A"," "," ","1","0","[2166.800000011921]","1","2","","","7810","51","3","3","lose","go","0"
"pit-trial","173","1172460","0.0-56.0","battery-v0.2","","""event"",""trial"",""time""
""fullscreenenter"",""1"",""3069""
","
","
","""event"",""trial"",""time""
""fullscreenenter"",""1"",""3069""
","
","","","993.3000000119209","","","16","7810","3716","f","elianto","#3366ff99"," "," ","1","+10","[1846.5]","1","2","","","7810","52","1","1","win","go","0"
"pit-trial","174","1175915","0.0-57.0","battery-v0.2","","""event"",""trial"",""time""
""fullscreenenter"",""1"",""3069""
","
","
","""event"",""trial"",""time""
""fullscreenenter"",""1"",""3069""
","
","","","591","","","16","7810","3716","t","elianto","#f73b6a7A","-1"," ","0","-10","[1443]","1","2","","","7810","53","2","4","lose","no-go","0"
"pit-trial","175","1180781","0.0-58.0","battery-v0.2","","""event"",""trial"",""time""
""fullscreenenter"",""1"",""3069""
","
","
","""event"",""trial"",""time""
""fullscreenenter"",""1"",""3069""
","
","","","-1","","","16","7810","3716","n","elianto","#f73b6a7A","-1","-1","1","0","[]","0","2","","","7810","54","0","4","lose","no-go","0"
"pit-trial","176","1184229","0.0-59.0","battery-v0.2","","""event"",""trial"",""time""
""fullscreenenter"",""1"",""3069""
","
","
","""event"",""trial"",""time""
""fullscreenenter"",""1"",""3069""
","
","","","590.1000000238419","","","16","7810","3716","c","elianto","#3366ff99","-1"," ","0","+10","[1441.300000011921]","1","2","","","7810","55","4","2","win","no-go","1"
"pit-trial","177","1187641","0.0-60.0","battery-v0.2","","""event"",""trial"",""time""
""fullscreenenter"",""1"",""3069""
","
","
","""event"",""trial"",""time""
""fullscreenenter"",""1"",""3069""
","
","","","551.1999999880791","","","16","7810","3716","f","elianto","#3366ff99"," "," ","1","0","[1403]","1","2","","","7810","56","1","1","win","go","1"
"pit-trial","178","1191160","0.0-61.0","battery-v0.2","","""event"",""trial"",""time""
""fullscreenenter"",""1"",""3069""
","
","
","""event"",""trial"",""time""
""fullscreenenter"",""1"",""3069""
","
","","","654.3999999761581","","","16","7810","3716","f","elianto","#3366ff99"," "," ","1","+10","[1505.5]","1","2","","","7810","57","1","1","win","go","0"
"pit-trial","179","1195023","0.0-62.0","battery-v0.2","","""event"",""trial"",""time""
""fullscreenenter"",""1"",""3069""
","
","
","""event"",""trial"",""time""
""fullscreenenter"",""1"",""3069""
","
","","","989.2999999523163","","","16","7810","3716","b","elianto","#f73b6a7A"," "," ","1","0","[1849.9000000357628]","1","2","","","7810","58","3","3","lose","go","0"
"pit-trial","180","1199543","0.0-63.0","battery-v0.2","","""event"",""trial"",""time""
""fullscreenenter"",""1"",""3069""
","
","
","""event"",""trial"",""time""
""fullscreenenter"",""1"",""3069""
","
","","","1657","","","16","7810","3716","c","elianto","#3366ff99","-1"," ","0","+10","[2507.899999976158]","1","2","","","7810","59","4","2","win","no-go","1"
"pit-trial","181","1204405","0.0-64.0","battery-v0.2","","""event"",""trial"",""time""
""fullscreenenter"",""1"",""3069""
","
","
","""event"",""trial"",""time""
""fullscreenenter"",""1"",""3069""
","
","","","-1","","","16","7810","3716","n","elianto","#f73b6a7A","-1","-1","1","0","[]","0","2","","","7810","60","0","4","lose","no-go","0"
"pit-trial","182","1208024","0.0-65.0","battery-v0.2","","""event"",""trial"",""time""
""fullscreenenter"",""1"",""3069""
","
","
","""event"",""trial"",""time""
""fullscreenenter"",""1"",""3069""
","
","","","757.2000000476837","","","16","7810","3716","b","elianto","#f73b6a7A"," "," ","1","-10","[1612]","1","2","","","7810","61","3","3","lose","go","1"
"pit-trial","183","1212902","0.0-66.0","battery-v0.2","","""event"",""trial"",""time""
""fullscreenenter"",""1"",""3069""
","
","
","""event"",""trial"",""time""
""fullscreenenter"",""1"",""3069""
","
","","","-1","","","16","7810","3716","t","elianto","#f73b6a7A","-1","-1","1","-10","[]","0","2","","","7810","62","2","4","lose","no-go","1"
"pit-trial","184","1216381","0.0-67.0","battery-v0.2","","""event"",""trial"",""time""
""fullscreenenter"",""1"",""3069""
","
","
","""event"",""trial"",""time""
""fullscreenenter"",""1"",""3069""
","
","","","615.6000000238419","","","16","7810","3716","f","elianto","#3366ff99"," "," ","1","0","[1466.699999988079]","1","2","","","7810","63","1","1","win","go","1"
"pit-trial","185","1220020","0.0-68.0","battery-v0.2","","""event"",""trial"",""time""
""fullscreenenter"",""1"",""3069""
","
","
","""event"",""trial"",""time""
""fullscreenenter"",""1"",""3069""
","
","","","779.4000000357628","","","16","7810","3716","c","elianto","#3366ff99","-1"," ","0","0","[1630.5]","1","2","","","7810","64","4","2","win","no-go","0"
"pit-trial","186","1223938","0.0-69.0","battery-v0.2","","""event"",""trial"",""time""
""fullscreenenter"",""1"",""3069""
","
","
","""event"",""trial"",""time""
""fullscreenenter"",""1"",""3069""
","
","","","1059.300000011921","","","16","7810","3716","b","elianto","#f73b6a7A"," "," ","1","0","[1912.800000011921]","1","2","","","7810","65","3","3","lose","go","0"
"pit-trial","187","1227652","0.0-70.0","battery-v0.2","","""event"",""trial"",""time""
""fullscreenenter"",""1"",""3069""
","
","
","""event"",""trial"",""time""
""fullscreenenter"",""1"",""3069""
","
","","","848.6000000238419","","","16","7810","3716","c","elianto","#3366ff99","-1"," ","0","0","[1701.300000011921]","1","2","","","7810","66","4","2","win","no-go","0"
"pit-trial","188","1231430","0.0-71.0","battery-v0.2","","""event"",""trial"",""time""
""fullscreenenter"",""1"",""3069""
","
","
","""event"",""trial"",""time""
""fullscreenenter"",""1"",""3069""
","
","","","920.2000000476837","","","16","7810","3716","f","elianto","#3366ff99"," "," ","1","+10","[1770.9000000357628]","1","2","","","7810","67","1","1","win","go","0"
"pit-trial","189","1236295","0.0-72.0","battery-v0.2","","""event"",""trial"",""time""
""fullscreenenter"",""1"",""3069""
","
","
","""event"",""trial"",""time""
""fullscreenenter"",""1"",""3069""
","
","","","-1","","","16","7810","3716","t","elianto","#f73b6a7A","-1","-1","1","0","[]","0","2","","","7810","68","2","4","lose","no-go","0"
"pit-trial","190","1240008","0.0-73.0","battery-v0.2","","""event"",""trial"",""time""
""fullscreenenter"",""1"",""3069""
","
","
","""event"",""trial"",""time""
""fullscreenenter"",""1"",""3069""
","
","","","840.1000000238419","","","16","7810","3716","c","elianto","#3366ff99","-1"," ","0","0","[1693]","1","2","","","7810","69","4","2","win","no-go","0"
"pit-trial","191","1243625","0.0-74.0","battery-v0.2","","""event"",""trial"",""time""
""fullscreenenter"",""1"",""3069""
","
","
","""event"",""trial"",""time""
""fullscreenenter"",""1"",""3069""
","
","","","759.3000000119209","","","16","7810","3716","f","elianto","#3366ff99"," "," ","1","+10","[1610.4000000357628]","1","2","","","7810","70","1","1","win","go","0"
"pit-trial","192","1247405","0.0-75.0","battery-v0.2","","""event"",""trial"",""time""
""fullscreenenter"",""1"",""3069""
","
","
","""event"",""trial"",""time""
""fullscreenenter"",""1"",""3069""
","
","","","911.8000000119209","","","16","7810","3716","b","elianto","#f73b6a7A"," "," ","1","0","[1769.5]","1","2","","","7810","71","3","3","lose","go","0"
"pit-trial","193","1251630","0.0-76.0","battery-v0.2","","""event"",""trial"",""time""
""fullscreenenter"",""1"",""3069""
","
","
","""event"",""trial"",""time""
""fullscreenenter"",""1"",""3069""
","
","","","1365","","","16","7810","3716","z","elianto","#3366ff99"," "," ","1","+10","[2218.199999988079]","1","2","","","7810","72","5","1","win","go","0"
"pit-trial","194","1255103","0.0-77.0","battery-v0.2","","""event"",""trial"",""time""
""fullscreenenter"",""1"",""3069""
","
","
","""event"",""trial"",""time""
""fullscreenenter"",""1"",""3069""
","
","","","612.3000000119209","","","16","7810","3716","c","elianto","#3366ff99","-1"," ","0","+10","[1465.0999999642372]","1","2","","","7810","73","4","2","win","no-go","1"
"pit-trial","195","1258484","0.0-78.0","battery-v0.2","","""event"",""trial"",""time""
""fullscreenenter"",""1"",""3069""
","
","
","""event"",""trial"",""time""
""fullscreenenter"",""1"",""3069""
","
","","","519.8999999761581","","","16","7810","3716","f","elianto","#3366ff99"," "," ","1","+10","[1375.199999988079]","1","2","","","7810","74","1","1","win","go","0"
"pit-trial","196","1262072","0.0-79.0","battery-v0.2","","""event"",""trial"",""time""
""fullscreenenter"",""1"",""3069""
","
","
","""event"",""trial"",""time""
""fullscreenenter"",""1"",""3069""
","
","","","720.3999999761581","","","16","7810","3716","b","elianto","#f73b6a7A"," "," ","1","0","[1575.5999999642372]","1","2","","","7810","75","3","3","lose","go","0"
"pit-trial","197","1265643","0.0-80.0","battery-v0.2","","""event"",""trial"",""time""
""fullscreenenter"",""1"",""3069""
","
","
","""event"",""trial"",""time""
""fullscreenenter"",""1"",""3069""
","
","","","702.3999999761581","","","16","7810","3716","z","elianto","#3366ff99"," "," ","1","+10","[1559.4000000357628]","1","2","","","7810","76","5","1","win","go","0"
"pit-trial","198","1269361","0.0-81.0","battery-v0.2","","""event"",""trial"",""time""
""fullscreenenter"",""1"",""3069""
","
","
","""event"",""trial"",""time""
""fullscreenenter"",""1"",""3069""
","
","","","857.1000000238419","","","16","7810","3716","z","elianto","#3366ff99"," "," ","1","+10","[1711.199999988079]","1","2","","","7810","77","5","1","win","go","0"
"pit-trial","199","1273032","0.0-82.0","battery-v0.2","","""event"",""trial"",""time""
""fullscreenenter"",""1"",""3069""
","
","
","""event"",""trial"",""time""
""fullscreenenter"",""1"",""3069""
","
","","","806.5","","","16","7810","3716","b","elianto","#f73b6a7A"," "," ","1","-10","[1660.2999999523163]","1","2","","","7810","78","3","3","lose","go","1"
"pit-trial","200","1276873","0.0-83.0","battery-v0.2","","""event"",""trial"",""time""
""fullscreenenter"",""1"",""3069""
","
","
","""event"",""trial"",""time""
""fullscreenenter"",""1"",""3069""
","
","","","982.2000000476837","","","16","7810","3716","h","elianto","#f73b6a7A","-1"," ","0","-10","[1835.3999999761581]","1","2","","","7810","79","6","4","lose","no-go","0"
"pit-trial","201","1280502","0.0-84.0","battery-v0.2","","""event"",""trial"",""time""
""fullscreenenter"",""1"",""3069""
","
","
","""event"",""trial"",""time""
""fullscreenenter"",""1"",""3069""
","
","","","768.6000000238419","","","16","7810","3716","c","elianto","#3366ff99","-1"," ","0","0","[1621.199999988079]","1","2","","","7810","80","4","2","win","no-go","0"
"pit-trial","202","1285375","0.0-85.0","battery-v0.2","","""event"",""trial"",""time""
""fullscreenenter"",""1"",""3069""
","
","
","""event"",""trial"",""time""
""fullscreenenter"",""1"",""3069""
","
","","","-1","","","16","7810","3716","c","elianto","#3366ff99","-1","-1","1","+10","[]","0","2","","","7810","81","4","2","win","no-go","0"
"pit-trial","203","1289171","0.0-86.0","battery-v0.2","","""event"",""trial"",""time""
""fullscreenenter"",""1"",""3069""
","
","
","""event"",""trial"",""time""
""fullscreenenter"",""1"",""3069""
","
","","","937","","","16","7810","3716","z","elianto","#3366ff99"," "," ","1","+10","[1790.300000011921]","1","2","","","7810","82","5","1","win","go","0"
"pit-trial","204","1292890","0.0-87.0","battery-v0.2","","""event"",""trial"",""time""
""fullscreenenter"",""1"",""3069""
","
","
","""event"",""trial"",""time""
""fullscreenenter"",""1"",""3069""
","
","","","857","","","16","7810","3716","y","elianto","#f73b6a7A"," "," ","1","0","[1708.9000000357628]","1","2","","","7810","83","7","3","lose","go","0"
"pit-trial","205","1297750","0.0-88.0","battery-v0.2","","""event"",""trial"",""time""
""fullscreenenter"",""1"",""3069""
","
","
","""event"",""trial"",""time""
""fullscreenenter"",""1"",""3069""
","
","","","-1","","","16","7810","3716","h","elianto","#f73b6a7A","-1","-1","1","0","[]","0","2","","","7810","84","6","4","lose","no-go","0"
"pit-trial","206","1301406","0.0-89.0","battery-v0.2","","""event"",""trial"",""time""
""fullscreenenter"",""1"",""3069""
","
","
","""event"",""trial"",""time""
""fullscreenenter"",""1"",""3069""
","
","","","787.6999999880791","","","16","7810","3716","c","elianto","#3366ff99","-1"," ","0","0","[1645.800000011921]","1","2","","","7810","85","4","2","win","no-go","0"
"pit-trial","207","1305135","0.0-90.0","battery-v0.2","","""event"",""trial"",""time""
""fullscreenenter"",""1"",""3069""
","
","
","""event"",""trial"",""time""
""fullscreenenter"",""1"",""3069""
","
","","","870.6999999880791","","","16","7810","3716","z","elianto","#3366ff99"," "," ","1","+10","[1722.5]","1","2","","","7810","86","5","1","win","go","0"
"pit-trial","208","1309995","0.0-91.0","battery-v0.2","","""event"",""trial"",""time""
""fullscreenenter"",""1"",""3069""
","
","
","""event"",""trial"",""time""
""fullscreenenter"",""1"",""3069""
","
","","","-1","","","16","7810","3716","h","elianto","#f73b6a7A","-1","-1","1","0","[]","0","2","","","7810","87","6","4","lose","no-go","0"
"pit-trial","209","1314867","0.0-92.0","battery-v0.2","","""event"",""trial"",""time""
""fullscreenenter"",""1"",""3069""
","
","
","""event"",""trial"",""time""
""fullscreenenter"",""1"",""3069""
","
","","","-1","","","16","7810","3716","y","elianto","#f73b6a7A"," ","-1","0","-10","[]","0","2","","","7810","88","7","3","lose","go","0"
"pit-trial","210","1318662","0.0-93.0","battery-v0.2","","""event"",""trial"",""time""
""fullscreenenter"",""1"",""3069""
","
","
","""event"",""trial"",""time""
""fullscreenenter"",""1"",""3069""
","
","","","934.1999999880791","","","16","7810","3716","z","elianto","#3366ff99"," "," ","1","0","[1785]","1","2","","","7810","89","5","1","win","go","1"
"pit-trial","211","1323337","0.0-94.0","battery-v0.2","","""event"",""trial"",""time""
""fullscreenenter"",""1"",""3069""
","
","
","""event"",""trial"",""time""
""fullscreenenter"",""1"",""3069""
","
","","","1812.800000011921","","","16","7810","3716","y","elianto","#f73b6a7A"," "," ","1","-10","[2667.600000023842]","1","2","","","7810","90","7","3","lose","go","1"
"pit-trial","212","1328201","0.0-95.0","battery-v0.2","","""event"",""trial"",""time""
""fullscreenenter"",""1"",""3069""
","
","
","""event"",""trial"",""time""
""fullscreenenter"",""1"",""3069""
","
","","","-1","","","16","7810","3716","h","elianto","#f73b6a7A","-1","-1","1","0","[]","0","2","","","7810","91","6","4","lose","no-go","0"
"pit-trial","213","1333062","0.0-96.0","battery-v0.2","","""event"",""trial"",""time""
""fullscreenenter"",""1"",""3069""
","
","
","""event"",""trial"",""time""
""fullscreenenter"",""1"",""3069""
","
","","","-1","","","16","7810","3716","c","elianto","#3366ff99","-1","-1","1","+10","[]","0","2","","","7810","92","4","2","win","no-go","0"
"pit-trial","214","1336743","0.0-97.0","battery-v0.2","","""event"",""trial"",""time""
""fullscreenenter"",""1"",""3069""
","
","
","""event"",""trial"",""time""
""fullscreenenter"",""1"",""3069""
","
","","","823.5","","","16","7810","3716","z","elianto","#3366ff99"," "," ","1","+10","[1674]","1","2","","","7810","93","5","1","win","go","0"
"pit-trial","215","1340634","0.0-98.0","battery-v0.2","","""event"",""trial"",""time""
""fullscreenenter"",""1"",""3069""
","
","
","""event"",""trial"",""time""
""fullscreenenter"",""1"",""3069""
","
","","","1023.5999999642372","","","16","7810","3716","r","elianto","#3366ff99","-1"," ","0","0","[1878.3999999761581]","1","2","","","7810","94","8","2","win","no-go","0"
"pit-trial","216","1345491","0.0-99.0","battery-v0.2","","""event"",""trial"",""time""
""fullscreenenter"",""1"",""3069""
","
","
","""event"",""trial"",""time""
""fullscreenenter"",""1"",""3069""
","
","","","-1","","","16","7810","3716","h","elianto","#f73b6a7A","-1","-1","1","0","[]","0","2","","","7810","95","6","4","lose","no-go","0"
"pit-trial","217","1350356","0.0-100.0","battery-v0.2","","""event"",""trial"",""time""
""fullscreenenter"",""1"",""3069""
","
","
","""event"",""trial"",""time""
""fullscreenenter"",""1"",""3069""
","
","","","-1","","","16","7810","3716","y","elianto","#f73b6a7A"," ","-1","0","-10","[]","0","2","","","7810","96","7","3","lose","go","0"
"pit-trial","218","1354251","0.0-101.0","battery-v0.2","","""event"",""trial"",""time""
""fullscreenenter"",""1"",""3069""
","
","
","""event"",""trial"",""time""
""fullscreenenter"",""1"",""3069""
","
","","","1031.699999988079","","","16","7810","3716","z","elianto","#3366ff99"," "," ","1","0","[1883.300000011921]","1","2","","","7810","97","5","1","win","go","1"
"pit-trial","219","1359117","0.0-102.0","battery-v0.2","","""event"",""trial"",""time""
""fullscreenenter"",""1"",""3069""
","
","
","""event"",""trial"",""time""
""fullscreenenter"",""1"",""3069""
","
","","","-1","","","16","7810","3716","h","elianto","#f73b6a7A","-1","-1","1","0","[]","0","2","","","7810","98","6","4","lose","no-go","0"
"pit-trial","220","1363403","0.0-103.0","battery-v0.2","","""event"",""trial"",""time""
""fullscreenenter"",""1"",""3069""
","
","
","""event"",""trial"",""time""
""fullscreenenter"",""1"",""3069""
","
","","","1420.699999988079","","","16","7810","3716","y","elianto","#f73b6a7A"," "," ","1","0","[2274.399999976158]","1","2","","","7810","99","7","3","lose","go","0"
"pit-trial","221","1368277","0.0-104.0","battery-v0.2","","""event"",""trial"",""time""
""fullscreenenter"",""1"",""3069""
","
","
","""event"",""trial"",""time""
""fullscreenenter"",""1"",""3069""
","
","","","-1","","","16","7810","3716","r","elianto","#3366ff99","-1","-1","1","+10","[]","0","2","","","7810","100","8","2","win","no-go","0"
"pit-trial","222","1373140","0.0-105.0","battery-v0.2","","""event"",""trial"",""time""
""fullscreenenter"",""1"",""3069""
","
","
","""event"",""trial"",""time""
""fullscreenenter"",""1"",""3069""
","
","","","-1","","","16","7810","3716","r","elianto","#3366ff99","-1","-1","1","0","[]","0","2","","","7810","101","8","2","win","no-go","1"
"pit-trial","223","1377317","0.0-106.0","battery-v0.2","","""event"",""trial"",""time""
""fullscreenenter"",""1"",""3069""
","
","
","""event"",""trial"",""time""
""fullscreenenter"",""1"",""3069""
","
","","","1321","","","16","7810","3716","z","elianto","#3366ff99"," "," ","1","0","[2171.699999988079]","1","2","","","7810","102","5","1","win","go","1"
"pit-trial","224","1382177","0.0-107.0","battery-v0.2","","""event"",""trial"",""time""
""fullscreenenter"",""1"",""3069""
","
","
","""event"",""trial"",""time""
""fullscreenenter"",""1"",""3069""
","
","","","-1","","","16","7810","3716","h","elianto","#f73b6a7A","-1","-1","1","0","[]","0","2","","","7810","103","6","4","lose","no-go","0"
"pit-trial","225","1386052","0.0-108.0","battery-v0.2","","""event"",""trial"",""time""
""fullscreenenter"",""1"",""3069""
","
","
","""event"",""trial"",""time""
""fullscreenenter"",""1"",""3069""
","
","","","1008","","","16","7810","3716","m","elianto","#3366ff99","-1"," ","0","0","[1863.1000000238419]","1","2","","","7810","104","9","2","win","no-go","0"
"pit-trial","226","1390915","0.0-109.0","battery-v0.2","","""event"",""trial"",""time""
""fullscreenenter"",""1"",""3069""
","
","
","""event"",""trial"",""time""
""fullscreenenter"",""1"",""3069""
","
","","","-1","","","16","7810","3716","h","elianto","#f73b6a7A","-1","-1","1","0","[]","0","2","","","7810","105","6","4","lose","no-go","0"
"pit-trial","227","1395790","0.0-110.0","battery-v0.2","","""event"",""trial"",""time""
""fullscreenenter"",""1"",""3069""
","
","
","""event"",""trial"",""time""
""fullscreenenter"",""1"",""3069""
","
","","","-1","","","16","7810","3716","r","elianto","#3366ff99","-1","-1","1","+10","[]","0","2","","","7810","106","8","2","win","no-go","0"
"pit-trial","228","1400655","0.0-111.0","battery-v0.2","","""event"",""trial"",""time""
""fullscreenenter"",""1"",""3069""
","
","
","""event"",""trial"",""time""
""fullscreenenter"",""1"",""3069""
","
","","","-1","","","16","7810","3716","m","elianto","#3366ff99","-1","-1","1","+10","[]","0","2","","","7810","107","9","2","win","no-go","0"
"pit-trial","229","1404652","0.0-112.0","battery-v0.2","","""event"",""trial"",""time""
""fullscreenenter"",""1"",""3069""
","
","
","""event"",""trial"",""time""
""fullscreenenter"",""1"",""3069""
","
","","","1119.699999988079","","","16","7810","3716","z","elianto","#3366ff99"," "," ","1","+10","[1986]","1","2","","","7810","108","5","1","win","go","0"
"pit-trial","230","1409515","0.0-113.0","battery-v0.2","","""event"",""trial"",""time""
""fullscreenenter"",""1"",""3069""
","
","
","""event"",""trial"",""time""
""fullscreenenter"",""1"",""3069""
","
","","","-1","","","16","7810","3716","r","elianto","#3366ff99","-1","-1","1","+10","[]","0","2","","","7810","109","8","2","win","no-go","0"
"pit-trial","231","1414381","0.0-114.0","battery-v0.2","","""event"",""trial"",""time""
""fullscreenenter"",""1"",""3069""
","
","
","""event"",""trial"",""time""
""fullscreenenter"",""1"",""3069""
","
","","","-1","","","16","7810","3716","h","elianto","#f73b6a7A","-1","-1","1","0","[]","0","2","","","7810","110","6","4","lose","no-go","0"
"pit-trial","232","1418682","0.0-115.0","battery-v0.2","","""event"",""trial"",""time""
""fullscreenenter"",""1"",""3069""
","
","
","""event"",""trial"",""time""
""fullscreenenter"",""1"",""3069""
","
","","","1442.2999999523163","","","16","7810","3716","z","elianto","#3366ff99"," "," ","1","+10","[2295]","1","2","","","7810","111","5","1","win","go","0"
"pit-trial","233","1423562","0.0-116.0","battery-v0.2","","""event"",""trial"",""time""
""fullscreenenter"",""1"",""3069""
","
","
","""event"",""trial"",""time""
""fullscreenenter"",""1"",""3069""
","
","","","-1","","","16","7810","3716","m","elianto","#3366ff99","-1","-1","1","+10","[]","0","2","","","7810","112","9","2","win","no-go","0"
"pit-trial","234","1427448","0.0-117.0","battery-v0.2","","""event"",""trial"",""time""
""fullscreenenter"",""1"",""3069""
","
","
","""event"",""trial"",""time""
""fullscreenenter"",""1"",""3069""
","
","","","1021.1999999880791","","","16","7810","3716","z","elianto","#3366ff99"," "," ","1","+10","[1872.5]","1","2","","","7810","113","5","1","win","go","0"
"pit-trial","235","1432310","0.0-118.0","battery-v0.2","","""event"",""trial"",""time""
""fullscreenenter"",""1"",""3069""
","
","
","""event"",""trial"",""time""
""fullscreenenter"",""1"",""3069""
","
","","","-1","","","16","7810","3716","m","elianto","#3366ff99","-1","-1","1","+10","[]","0","2","","","7810","114","9","2","win","no-go","0"
"pit-trial","236","1437167","0.0-119.0","battery-v0.2","","""event"",""trial"",""time""
""fullscreenenter"",""1"",""3069""
","
","
","""event"",""trial"",""time""
""fullscreenenter"",""1"",""3069""
","
","","","-1","","","16","7810","3716","y","elianto","#f73b6a7A"," ","-1","0","0","[]","0","2","","","7810","115","7","3","lose","go","1"
"pit-trial","237","1442029","0.0-120.0","battery-v0.2","","""event"",""trial"",""time""
""fullscreenenter"",""1"",""3069""
","
","
","""event"",""trial"",""time""
""fullscreenenter"",""1"",""3069""
","
","","","-1","","","16","7810","3716","r","elianto","#3366ff99","-1","-1","1","0","[]","0","2","","","7810","116","8","2","win","no-go","1"
"pit-trial","238","1445994","0.0-121.0","battery-v0.2","","""event"",""trial"",""time""
""fullscreenenter"",""1"",""3069""
","
","
","""event"",""trial"",""time""
""fullscreenenter"",""1"",""3069""
","
","","","1096.5999999642372","","","16","7810","3716","z","elianto","#3366ff99"," "," ","1","0","[1951.199999988079]","1","2","","","7810","117","5","1","win","go","1"
"pit-trial","239","1450861","0.0-122.0","battery-v0.2","","""event"",""trial"",""time""
""fullscreenenter"",""1"",""3069""
","
","
","""event"",""trial"",""time""
""fullscreenenter"",""1"",""3069""
","
","","","-1","","","16","7810","3716","m","elianto","#3366ff99","-1","-1","1","+10","[]","0","2","","","7810","118","9","2","win","no-go","0"
"pit-trial","240","1455722","0.0-123.0","battery-v0.2","","""event"",""trial"",""time""
""fullscreenenter"",""1"",""3069""
","
","
","""event"",""trial"",""time""
""fullscreenenter"",""1"",""3069""
","
","","","-1","","","16","7810","3716","h","elianto","#f73b6a7A","-1","-1","1","0","[]","0","2","","","7810","119","6","4","lose","no-go","0"
"pit-trial","241","1460590","0.0-124.0","battery-v0.2","","""event"",""trial"",""time""
""fullscreenenter"",""1"",""3069""
","
","
","""event"",""trial"",""time""
""fullscreenenter"",""1"",""3069""
","
","","","-1","","","16","7810","3716","r","elianto","#3366ff99","-1","-1","1","+10","[]","0","2","","","7810","120","8","2","win","no-go","0"
"pit-trial","242","1465460","0.0-125.0","battery-v0.2","","""event"",""trial"",""time""
""fullscreenenter"",""1"",""3069""
","
","
","""event"",""trial"",""time""
""fullscreenenter"",""1"",""3069""
","
","","","-1","","","16","7810","3716","r","elianto","#3366ff99","-1","-1","1","+10","[]","0","2","","","7810","121","8","2","win","no-go","0"
"pit-trial","243","1469223","0.0-126.0","battery-v0.2","","""event"",""trial"",""time""
""fullscreenenter"",""1"",""3069""
","
","
","""event"",""trial"",""time""
""fullscreenenter"",""1"",""3069""
","
","","","900.2000000476837","","","16","7810","3716","y","elianto","#f73b6a7A"," "," ","1","-10","[1754.3999999761581]","1","2","","","7810","122","7","3","lose","go","1"
"pit-trial","244","1474089","0.0-127.0","battery-v0.2","","""event"",""trial"",""time""
""fullscreenenter"",""1"",""3069""
","
","
","""event"",""trial"",""time""
""fullscreenenter"",""1"",""3069""
","
","","","-1","","","16","7810","3716","m","elianto","#3366ff99","-1","-1","1","+10","[]","0","2","","","7810","123","9","2","win","no-go","0"
"pit-trial","245","1478648","0.0-128.0","battery-v0.2","","""event"",""trial"",""time""
""fullscreenenter"",""1"",""3069""
","
","
","""event"",""trial"",""time""
""fullscreenenter"",""1"",""3069""
","
","","","1693.9000000357628","","","16","7810","3716","z","elianto","#3366ff99"," "," ","1","+10","[2548.099999964237]","1","2","","","7810","124","5","1","win","go","0"
"pit-trial","246","1483523","0.0-129.0","battery-v0.2","","""event"",""trial"",""time""
""fullscreenenter"",""1"",""3069""
","
","
","""event"",""trial"",""time""
""fullscreenenter"",""1"",""3069""
","
","","","-1","","","16","7810","3716","r","elianto","#3366ff99","-1","-1","1","+10","[]","0","2","","","7810","125","8","2","win","no-go","0"
"pit-trial","247","1488385","0.0-130.0","battery-v0.2","","""event"",""trial"",""time""
""fullscreenenter"",""1"",""3069""
","
","
","""event"",""trial"",""time""
""fullscreenenter"",""1"",""3069""
","
","","","-1","","","16","7810","3716","h","elianto","#f73b6a7A","-1","-1","1","0","[]","0","2","","","7810","126","6","4","lose","no-go","0"
"pit-trial","248","1492467","0.0-131.0","battery-v0.2","","""event"",""trial"",""time""
""fullscreenenter"",""1"",""3069""
","
","
","""event"",""trial"",""time""
""fullscreenenter"",""1"",""3069""
","
","","","1221.7000000476837","","","16","7810","3716","y","elianto","#f73b6a7A"," "," ","1","0","[2074.699999988079]","1","2","","","7810","127","7","3","lose","go","0"
"pit-trial","249","1497339","0.0-132.0","battery-v0.2","","""event"",""trial"",""time""
""fullscreenenter"",""1"",""3069""
","
","
","""event"",""trial"",""time""
""fullscreenenter"",""1"",""3069""
","
","","","-1","","","16","7810","3716","m","elianto","#3366ff99","-1","-1","1","+10","[]","0","2","","","7810","128","9","2","win","no-go","0"
"pit-trial","250","1502206","0.0-133.0","battery-v0.2","","""event"",""trial"",""time""
""fullscreenenter"",""1"",""3069""
","
","
","""event"",""trial"",""time""
""fullscreenenter"",""1"",""3069""
","
","","","-1","","","16","7810","3716","m","elianto","#3366ff99","-1","-1","1","+10","[]","0","2","","","7810","129","9","2","win","no-go","0"
"pit-trial","251","1506079","0.0-134.0","battery-v0.2","","""event"",""trial"",""time""
""fullscreenenter"",""1"",""3069""
","
","
","""event"",""trial"",""time""
""fullscreenenter"",""1"",""3069""
","
","","","1013.0999999642372","","","16","7810","3716","y","elianto","#f73b6a7A"," "," ","1","-10","[1866.7999999523163]","1","2","","","7810","130","7","3","lose","go","1"
"pit-trial","252","1510945","0.0-135.0","battery-v0.2","","""event"",""trial"",""time""
""fullscreenenter"",""1"",""3069""
","
","
","""event"",""trial"",""time""
""fullscreenenter"",""1"",""3069""
","
","","","-1","","","16","7810","3716","r","elianto","#3366ff99","-1","-1","1","+10","[]","0","2","","","7810","131","8","2","win","no-go","0"
"pit-trial","253","1515809","0.0-136.0","battery-v0.2","","""event"",""trial"",""time""
""fullscreenenter"",""1"",""3069""
","
","
","""event"",""trial"",""time""
""fullscreenenter"",""1"",""3069""
","
","","","-1","","","16","7810","3716","h","elianto","#f73b6a7A","-1","-1","1","0","[]","0","2","","","7810","132","6","4","lose","no-go","0"
"pit-trial","254","1520677","0.0-137.0","battery-v0.2","","""event"",""trial"",""time""
""fullscreenenter"",""1"",""3069""
","
","
","""event"",""trial"",""time""
""fullscreenenter"",""1"",""3069""
","
","","","-1","","","16","7810","3716","m","elianto","#3366ff99","-1","-1","1","+10","[]","0","2","","","7810","133","9","2","win","no-go","0"
"pit-trial","255","1524627","0.0-138.0","battery-v0.2","","""event"",""trial"",""time""
""fullscreenenter"",""1"",""3069""
","
","
","""event"",""trial"",""time""
""fullscreenenter"",""1"",""3069""
","
","","","1086.5","","","16","7810","3716","y","elianto","#f73b6a7A"," "," ","1","0","[1941.800000011921]","1","2","","","7810","134","7","3","lose","go","0"
"pit-trial","256","1529490","0.0-139.0","battery-v0.2","","""event"",""trial"",""time""
""fullscreenenter"",""1"",""3069""
","
","
","""event"",""trial"",""time""
""fullscreenenter"",""1"",""3069""
","
","","","-1","","","16","7810","3716","r","elianto","#3366ff99","-1","-1","1","+10","[]","0","2","","","7810","135","8","2","win","no-go","0"
"pit-trial","257","1534350","0.0-140.0","battery-v0.2","","""event"",""trial"",""time""
""fullscreenenter"",""1"",""3069""
","
","
","""event"",""trial"",""time""
""fullscreenenter"",""1"",""3069""
","
","","","-1","","","16","7810","3716","h","elianto","#f73b6a7A","-1","-1","1","0","[]","0","2","","","7810","136","6","4","lose","no-go","0"
"pit-trial","258","1539217","0.0-141.0","battery-v0.2","","""event"",""trial"",""time""
""fullscreenenter"",""1"",""3069""
","
","
","""event"",""trial"",""time""
""fullscreenenter"",""1"",""3069""
","
","","","-1","","","16","7810","3716","m","elianto","#3366ff99","-1","-1","1","+10","[]","0","2","","","7810","137","9","2","win","no-go","0"
"pit-trial","259","1543113","0.0-142.0","battery-v0.2","","""event"",""trial"",""time""
""fullscreenenter"",""1"",""3069""
","
","
","""event"",""trial"",""time""
""fullscreenenter"",""1"",""3069""
","
","","","1031.7000000476837","","","16","7810","3716","y","elianto","#f73b6a7A"," "," ","1","0","[1883.5]","1","2","","","7810","138","7","3","lose","go","0"
"pit-trial","260","1547986","0.0-143.0","battery-v0.2","","""event"",""trial"",""time""
""fullscreenenter"",""1"",""3069""
","
","
","""event"",""trial"",""time""
""fullscreenenter"",""1"",""3069""
","
","","","-1","","","16","7810","3716","h","elianto","#f73b6a7A","-1","-1","1","0","[]","0","2","","","7810","139","6","4","lose","no-go","0"
"pit-trial","261","1552855","0.0-144.0","battery-v0.2","","""event"",""trial"",""time""
""fullscreenenter"",""1"",""3069""
","
","
","""event"",""trial"",""time""
""fullscreenenter"",""1"",""3069""
","
","","","-1","","","16","7810","3716","r","elianto","#3366ff99","-1","-1","1","+10","[]","0","2","","","7810","140","8","2","win","no-go","0"
"pit-instructions","262","1570110","0.0-145.0","battery-v0.2","","""event"",""trial"",""time""
""fullscreenenter"",""1"",""3069""
","
","
","""event"",""trial"",""time""
""fullscreenenter"",""1"",""3069""
","
","","[{""page_index"":0,""viewing_time"":8405},{""page_index"":1,""viewing_time"":8844.300000011921}]","17249.899999976158","","","","","","","","","","","","","","","","","","","","","","","",""
"pit-trial","263","1573754","0.0-146.0","battery-v0.2","","""event"",""trial"",""time""
""fullscreenenter"",""1"",""3069""
","
","
","""event"",""trial"",""time""
""fullscreenenter"",""1"",""3069""
","
","","","771.5","","","16","7810","3716","a","elianto","#f73b6a7A"," "," ","1","0","[1623.199999988079]","1","3","","","7810","141","2","3","lose","go","0"
"pit-trial","264","1578644","0.0-147.0","battery-v0.2","","""event"",""trial"",""time""
""fullscreenenter"",""1"",""3069""
","
","
","""event"",""trial"",""time""
""fullscreenenter"",""1"",""3069""
","
","","","-1","","","16","7810","3716","g","elianto","#f73b6a7A","-1","-1","1","0","[]","0","3","","","7810","142","3","4","lose","no-go","0"
"pit-trial","265","1581994","0.0-148.0","battery-v0.2","","""event"",""trial"",""time""
""fullscreenenter"",""1"",""3069""
","
","
","""event"",""trial"",""time""
""fullscreenenter"",""1"",""3069""
","
","","","478.69999998807907","","","16","7810","3716","l","elianto","#3366ff99","-1"," ","0","0","[1340]","1","3","","","7810","143","1","2","win","no-go","0"
"pit-trial","266","1586884","0.0-149.0","battery-v0.2","","""event"",""trial"",""time""
""fullscreenenter"",""1"",""3069""
","
","
","""event"",""trial"",""time""
""fullscreenenter"",""1"",""3069""
","
","","","-1","","","16","7810","3716","u","elianto","#f73b6a7A"," ","-1","0","0","[]","0","3","","","7810","144","0","3","lose","go","1"
"pit-trial","267","1590994","0.0-150.0","battery-v0.2","","""event"",""trial"",""time""
""fullscreenenter"",""1"",""3069""
","
","
","""event"",""trial"",""time""
""fullscreenenter"",""1"",""3069""
","
