"trial_type","trial_index","time_elapsed","internal_node_id","task_version","subject_id","interactions","blur_events","focus_events","fullscreenenter_events","fullscreenexit_events","success","view_history","rt","responses","num_errors","age","subject","participantId","rune","rune_set","hex","correct","choice","accuracy","outcome","keys","total_keys","block","practice","value","sub","trial","stimulus","robot","valence","action","sham"
"pavlovia","0","24","0.0-0.0","battery-v0.2","","""event"",""trial"",""time""
""fullscreenenter"",""1"",""1807""
","
","
","""event"",""trial"",""time""
""fullscreenenter"",""1"",""1807""
","
","","","","","","","","","","","","","","","","","","","","","","","","","","",""
"fullscreen","1","2791","0.0-1.0","battery-v0.2","","""event"",""trial"",""time""
""fullscreenenter"",""1"",""1807""
","
","
","""event"",""trial"",""time""
""fullscreenenter"",""1"",""1807""
","
","true","","","","","","","","","","","","","","","","","","","","","","","","","",""
"pit-instructions","2","8385","0.0-2.0-0.0","battery-v0.2","","""event"",""trial"",""time""
""fullscreenenter"",""1"",""1807""
","
","
","""event"",""trial"",""time""
""fullscreenenter"",""1"",""1807""
","
","","[{""page_index"":0,""viewing_time"":5587.900000095367}]","5589.400000095367","","","","","","","","","","","","","","","","","","","","","","","",""
"pit-comprehension","3","12008","0.0-2.0-1.0-0.0","battery-v0.2","","""event"",""trial"",""time""
""fullscreenenter"",""1"",""1807""
","
","
","""event"",""trial"",""time""
""fullscreenenter"",""1"",""1807""
","
","","","3620.7000000476837","[""shark""]","0","23","16363","6417","","","","","","","","","","","","","","","","","","",""
"pit-instructions","4","13279","0.0-2.0-1.0-1.0","battery-v0.2","","""event"",""trial"",""time""
""fullscreenenter"",""1"",""1807""
","
","
","""event"",""trial"",""time""
""fullscreenenter"",""1"",""1807""
","
","","[{""page_index"":0,""viewing_time"":1257.2999999523163}]","1257.5999999046326","","","","","","","","","","","","","","","","","","","","","","","",""
"pit-comprehension","5","16744","0.0-2.0-2.0-0.0","battery-v0.2","","""event"",""trial"",""time""
""fullscreenenter"",""1"",""1807""
","
","
","""event"",""trial"",""time""
""fullscreenenter"",""1"",""1807""
","
","","","3462.2999999523163","[""tiger""]","0","23","16363","6417","","","","","","","","","","","","","","","","","","",""
"pit-instructions","6","18144","0.0-2.0-2.0-1.0","battery-v0.2","","""event"",""trial"",""time""
""fullscreenenter"",""1"",""1807""
","
","
","""event"",""trial"",""time""
""fullscreenenter"",""1"",""1807""
","
","","[{""page_index"":0,""viewing_time"":1397.1000001430511}]","1397.7000000476837","","","","","","","","","","","","","","","","","","","","","","","",""
"pit-instructions","7","218136","0.0-2.0-3.0","battery-v0.2","","""event"",""trial"",""time""
""fullscreenenter"",""1"",""1807""
","
","
","""event"",""trial"",""time""
""fullscreenenter"",""1"",""1807""
","
","","[{""page_index"":0,""viewing_time"":14604.5},{""page_index"":1,""viewing_time"":14304.299999952316},{""page_index"":2,""viewing_time"":7320},{""page_index"":3,""viewing_time"":9009.200000047684},{""page_index"":4,""viewing_time"":10054.5},{""page_index"":5,""viewing_time"":8025.299999952316},{""page_index"":6,""viewing_time"":9719.300000190735},{""page_index"":7,""viewing_time"":6999.699999809265},{""page_index"":8,""viewing_time"":6424.100000143051},{""page_index"":9,""viewing_time"":8816.099999904633},{""page_index"":10,""viewing_time"":15447.5},{""page_index"":11,""viewing_time"":76212.60000014305},{""page_index"":12,""viewing_time"":7485.899999856949},{""page_index"":13,""viewing_time"":5565.700000047684}]","199989.10000014305","","","","","","","","","","","","","","","","","","","","","","","",""
"pit-trial","8","221787","0.0-2.0-4.0-0.0","battery-v0.2","","""event"",""trial"",""time""
""fullscreenenter"",""1"",""1807""
","
","
","""event"",""trial"",""time""
""fullscreenenter"",""1"",""1807""
","
","","","793","","","23","16363","6417","&#9784;","elianto","#FFFFF080"," "," ","1","&#10004","[1645.5999999046326]","1","0","0","","","","","","","",""
"pit-trial","9","225247","0.0-2.0-4.1-0.1","battery-v0.2","","""event"",""trial"",""time""
""fullscreenenter"",""1"",""1807""
","
","
","""event"",""trial"",""time""
""fullscreenenter"",""1"",""1807""
","
","","","596.6999998092651","","","23","16363","6417","&#9784;","elianto","#FFFFF080"," "," ","1","&#10004","[1448.1999998092651]","1","0","0","","","","","","","",""
"pit-trial","10","228661","0.0-2.0-4.2-0.2","battery-v0.2","","""event"",""trial"",""time""
""fullscreenenter"",""1"",""1807""
","
","
","""event"",""trial"",""time""
""fullscreenenter"",""1"",""1807""
","
","","","553.2999999523163","","","23","16363","6417","&#9784;","elianto","#FFFFF080"," "," ","1","&#10004","[1410.2999999523163]","1","0","0","","","","","","","",""
"pit-trial","11","231973","0.0-2.0-4.3-0.3","battery-v0.2","","""event"",""trial"",""time""
""fullscreenenter"",""1"",""1807""
","
","
","""event"",""trial"",""time""
""fullscreenenter"",""1"",""1807""
","
","","","442.5","","","23","16363","6417","&#9784;","elianto","#FFFFF080"," "," ","1","&#10004","[1301.8000001907349]","1","0","0","","","","","","","",""
"pit-trial","12","235279","0.0-2.0-4.4-0.4","battery-v0.2","","""event"",""trial"",""time""
""fullscreenenter"",""1"",""1807""
","
","
","""event"",""trial"",""time""
""fullscreenenter"",""1"",""1807""
","
","","","449","","","23","16363","6417","&#9784;","elianto","#FFFFF080"," "," ","1","&#10004","[1299.2999999523163]","1","0","0","","","","","","","",""
"pit-instructions","13","260464","0.0-2.0-5.0","battery-v0.2","","""event"",""trial"",""time""
""fullscreenenter"",""1"",""1807""
","
","
","""event"",""trial"",""time""
""fullscreenenter"",""1"",""1807""
","
","","[{""page_index"":0,""viewing_time"":6068},{""page_index"":1,""viewing_time"":6768.400000095367},{""page_index"":2,""viewing_time"":6448.099999904633},{""page_index"":3,""viewing_time"":5895.400000095367}]","25180.400000095367","","","","","","","","","","","","","","","","","","","","","","","",""
"pit-trial","14","265321","0.0-2.0-6.0-0.0","battery-v0.2","","""event"",""trial"",""time""
""fullscreenenter"",""1"",""1807""
","
","
","""event"",""trial"",""time""
""fullscreenenter"",""1"",""1807""
","
","","","-1","","","23","16363","6417","&#9854;","elianto","#FFFFF080","-1","-1","1","&#10004","[]","0","0","1","","","","","","","",""
"pit-trial","15","270196","0.0-2.0-6.1-0.1","battery-v0.2","","""event"",""trial"",""time""
""fullscreenenter"",""1"",""1807""
","
","
","""event"",""trial"",""time""
""fullscreenenter"",""1"",""1807""
","
","","","-1","","","23","16363","6417","&#9854;","elianto","#FFFFF080","-1","-1","1","&#10004","[]","0","0","1","","","","","","","",""
"pit-trial","16","275078","0.0-2.0-6.2-0.2","battery-v0.2","","""event"",""trial"",""time""
""fullscreenenter"",""1"",""1807""
","
","
","""event"",""trial"",""time""
""fullscreenenter"",""1"",""1807""
","
","","","-1","","","23","16363","6417","&#9854;","elianto","#FFFFF080","-1","-1","1","&#10004","[]","0","0","1","","","","","","","",""
"pit-trial","17","279938","0.0-2.0-6.3-0.3","battery-v0.2","","""event"",""trial"",""time""
""fullscreenenter"",""1"",""1807""
","
","
","""event"",""trial"",""time""
""fullscreenenter"",""1"",""1807""
","
","","","-1","","","23","16363","6417","&#9854;","elianto","#FFFFF080","-1","-1","1","&#10004","[]","0","0","1","","","","","","","",""
"pit-trial","18","284808","0.0-2.0-6.4-0.4","battery-v0.2","","""event"",""trial"",""time""
""fullscreenenter"",""1"",""1807""
","
","
","""event"",""trial"",""time""
""fullscreenenter"",""1"",""1807""
","
","","","-1","","","23","16363","6417","&#9854;","elianto","#FFFFF080","-1","-1","1","&#10004","[]","0","0","1","","","","","","","",""
"pit-instructions","19","483664","0.0-2.0-7.0","battery-v0.2","","""event"",""trial"",""time""
""fullscreenenter"",""1"",""1807""
","
","
","""event"",""trial"",""time""
""fullscreenenter"",""1"",""1807""
","
","","[{""page_index"":0,""viewing_time"":15259.700000047684},{""page_index"":1,""viewing_time"":11209.5},{""page_index"":2,""viewing_time"":7160.599999904633},{""page_index"":3,""viewing_time"":8528.100000143051},{""page_index"":4,""viewing_time"":6633.099999904633},{""page_index"":5,""viewing_time"":24136.799999952316},{""page_index"":6,""viewing_time"":5817.900000095367},{""page_index"":7,""viewing_time"":12449.200000047684},{""page_index"":8,""viewing_time"":7913},{""page_index"":9,""viewing_time"":11911.399999856949},{""page_index"":10,""viewing_time"":16104.400000095367},{""page_index"":11,""viewing_time"":6924.099999904633},{""page_index"":12,""viewing_time"":9460.299999952316},{""page_index"":13,""viewing_time"":16015.700000047684},{""page_index"":14,""viewing_time"":9391.700000047684},{""page_index"":15,""viewing_time"":8512.599999904633},{""page_index"":16,""viewing_time"":12503.5},{""page_index"":17,""viewing_time"":8920.200000047684}]","198852.20000004768","","","","","","","","","","","","","","","","","","","","","","","",""
"pit-trial","20","488528","0.0-2.0-8.0-0.0","battery-v0.2","","""event"",""trial"",""time""
""fullscreenenter"",""1"",""1807""
","
","
","""event"",""trial"",""time""
""fullscreenenter"",""1"",""1807""
","
","","","-1","","","23","16363","6417","&#9776;","elianto","#3366ff99"," ","-1","0","0","[]","0","0","1","","","","","","","",""
"pit-trial","21","492539","0.0-2.0-8.0-1.0","battery-v0.2","","""event"",""trial"",""time""
""fullscreenenter"",""1"",""1807""
","
","
","""event"",""trial"",""time""
""fullscreenenter"",""1"",""1807""
","
","","","1155.8000001907349","","","23","16363","6417","&#9776;","elianto","#3366ff99"," "," ","1","+10","[2006.7000000476837]","1","0","1","","","","","","","",""
"pit-trial","22","496355","0.0-2.0-8.0-2.0","battery-v0.2","","""event"",""trial"",""time""
""fullscreenenter"",""1"",""1807""
","
","
","""event"",""trial"",""time""
""fullscreenenter"",""1"",""1807""
","
","","","947.2999999523163","","","23","16363","6417","&#9776;","elianto","#3366ff99"," "," ","1","+10","[1800.2999999523163]","1","0","1","","","","","","","",""
"pit-trial","23","499709","0.0-2.0-8.0-3.0","battery-v0.2","","""event"",""trial"",""time""
""fullscreenenter"",""1"",""1807""
","
","
","""event"",""trial"",""time""
""fullscreenenter"",""1"",""1807""
","
","","","486.89999985694885","","","23","16363","6417","&#9776;","elianto","#3366ff99"," "," ","1","0","[1340.7999999523163]","1","0","1","","","","","","","",""
"pit-trial","24","503027","0.0-2.0-8.0-4.0","battery-v0.2","","""event"",""trial"",""time""
""fullscreenenter"",""1"",""1807""
","
","
","""event"",""trial"",""time""
""fullscreenenter"",""1"",""1807""
","
","","","454.09999990463257","","","23","16363","6417","&#9776;","elianto","#3366ff99"," "," ","1","+10","[1304.4000000953674]","1","0","1","","","","","","","",""
"pit-trial","25","506339","0.0-2.0-8.1-0.1","battery-v0.2","","""event"",""trial"",""time""
""fullscreenenter"",""1"",""1807""
","
","
","""event"",""trial"",""time""
""fullscreenenter"",""1"",""1807""
","
","","","442","","","23","16363","6417","&#9776;","elianto","#3366ff99"," "," ","1","+10","[1298.5999999046326]","1","0","1","","","","","","","",""
"pit-trial","26","509669","0.0-2.0-8.1-1.1","battery-v0.2","","""event"",""trial"",""time""
""fullscreenenter"",""1"",""1807""
","
","
","""event"",""trial"",""time""
""fullscreenenter"",""1"",""1807""
","
","","","464.7000000476837","","","23","16363","6417","&#9776;","elianto","#3366ff99"," "," ","1","+10","[1316]","1","0","1","","","","","","","",""
"pit-trial","27","513121","0.0-2.0-8.1-2.1","battery-v0.2","","""event"",""trial"",""time""
""fullscreenenter"",""1"",""1807""
","
","
","""event"",""trial"",""time""
""fullscreenenter"",""1"",""1807""
","
","","","593.6999998092651","","","23","16363","6417","&#9776;","elianto","#3366ff99"," "," ","1","+10","[1444]","1","0","1","","","","","","","",""
"pit-trial","28","516568","0.0-2.0-8.1-3.1","battery-v0.2","","""event"",""trial"",""time""
""fullscreenenter"",""1"",""1807""
","
","
","""event"",""trial"",""time""
""fullscreenenter"",""1"",""1807""
","
","","","588.1000001430511","","","23","16363","6417","&#9776;","elianto","#3366ff99"," "," ","1","0","[1440.5]","1","0","1","","","","","","","",""
"pit-trial","29","519904","0.0-2.0-8.1-4.1","battery-v0.2","","""event"",""trial"",""time""
""fullscreenenter"",""1"",""1807""
","
","
","""event"",""trial"",""time""
""fullscreenenter"",""1"",""1807""
","
","","","479.60000014305115","","","23","16363","6417","&#9776;","elianto","#3366ff99"," "," ","1","+10","[1331.6000001430511]","1","0","1","","","","","","","",""
"pit-trial","30","523553","0.0-2.0-8.2-0.2","battery-v0.2","","""event"",""trial"",""time""
""fullscreenenter"",""1"",""1807""
","
","
","""event"",""trial"",""time""
""fullscreenenter"",""1"",""1807""
","
","","","790.0999999046326","","","23","16363","6417","&#9776;","elianto","#3366ff99"," "," ","1","+10","[1641.6999998092651]","1","0","1","","","","","","","",""
"pit-trial","31","526939","0.0-2.0-8.2-1.2","battery-v0.2","","""event"",""trial"",""time""
""fullscreenenter"",""1"",""1807""
","
","
","""event"",""trial"",""time""
""fullscreenenter"",""1"",""1807""
","
","","","526.0999999046326","","","23","16363","6417","&#9776;","elianto","#3366ff99"," "," ","1","+10","[1378.8000001907349]","1","0","1","","","","","","","",""
"pit-trial","32","530321","0.0-2.0-8.2-2.2","battery-v0.2","","""event"",""trial"",""time""
""fullscreenenter"",""1"",""1807""
","
","
","""event"",""trial"",""time""
""fullscreenenter"",""1"",""1807""
","
","","","520.5","","","23","16363","6417","&#9776;","elianto","#3366ff99"," "," ","1","+10","[1370.7000000476837]","1","0","1","","","","","","","",""
"pit-trial","33","533679","0.0-2.0-8.2-3.2","battery-v0.2","","""event"",""trial"",""time""
""fullscreenenter"",""1"",""1807""
","
","
","""event"",""trial"",""time""
""fullscreenenter"",""1"",""1807""
","
","","","501.40000009536743","","","23","16363","6417","&#9776;","elianto","#3366ff99"," "," ","1","0","[1353.2999999523163]","1","0","1","","","","","","","",""
"pit-trial","34","536996","0.0-2.0-8.2-4.2","battery-v0.2","","""event"",""trial"",""time""
""fullscreenenter"",""1"",""1807""
","
","
","""event"",""trial"",""time""
""fullscreenenter"",""1"",""1807""
","
","","","453.2999999523163","","","23","16363","6417","&#9776;","elianto","#3366ff99"," "," ","1","+10","[1309.0999999046326]","1","0","1","","","","","","","",""
"call-function","35","536999","0.0-2.0-9.0","battery-v0.2","","""event"",""trial"",""time""
""fullscreenenter"",""1"",""1807""
","
","
","""event"",""trial"",""time""
""fullscreenenter"",""1"",""1807""
","
","","","","","","","","","","","","","","","","","","","","","","","","","","",""
"pit-instructions","36","589600","0.0-2.0-10.0","battery-v0.2","","""event"",""trial"",""time""
""fullscreenenter"",""1"",""1807""
","
","
","""event"",""trial"",""time""
""fullscreenenter"",""1"",""1807""
","
","","[{""page_index"":0,""viewing_time"":8583.600000143051},{""page_index"":1,""viewing_time"":8414.700000047684},{""page_index"":2,""viewing_time"":11984.099999904633},{""page_index"":3,""viewing_time"":10997.599999904633},{""page_index"":4,""viewing_time"":12618.600000143051}]","52599","","","","","","","","","","","","","","","","","","","","","","","",""
"pit-trial","37","594476","0.0-2.0-11.0-0.0","battery-v0.2","","""event"",""trial"",""time""
""fullscreenenter"",""1"",""1807""
","
","
","""event"",""trial"",""time""
""fullscreenenter"",""1"",""1807""
","
","","","-1","","","23","16363","6417","&#9761;","elianto","#3366ff99","-1","-1","1","+10","[]","0","0","2","","","","","","","",""
"pit-trial","38","599354","0.0-2.0-11.0-1.0","battery-v0.2","","""event"",""trial"",""time""
""fullscreenenter"",""1"",""1807""
","
","
","""event"",""trial"",""time""
""fullscreenenter"",""1"",""1807""
","
","","","-1","","","23","16363","6417","&#9761;","elianto","#3366ff99","-1","-1","1","+10","[]","0","0","2","","","","","","","",""
"pit-trial","39","604213","0.0-2.0-11.0-2.0","battery-v0.2","","""event"",""trial"",""time""
""fullscreenenter"",""1"",""1807""
","
","
","""event"",""trial"",""time""
""fullscreenenter"",""1"",""1807""
","
","","","-1","","","23","16363","6417","&#9761;","elianto","#3366ff99","-1","-1","1","+10","[]","0","0","2","","","","","","","",""
"pit-trial","40","609087","0.0-2.0-11.0-3.0","battery-v0.2","","""event"",""trial"",""time""
""fullscreenenter"",""1"",""1807""
","
","
","""event"",""trial"",""time""
""fullscreenenter"",""1"",""1807""
","
","","","-1","","","23","16363","6417","&#9761;","elianto","#3366ff99","-1","-1","1","0","[]","0","0","2","","","","","","","",""
"pit-trial","41","613953","0.0-2.0-11.0-4.0","battery-v0.2","","""event"",""trial"",""time""
""fullscreenenter"",""1"",""1807""
","
","
","""event"",""trial"",""time""
""fullscreenenter"",""1"",""1807""
","
","","","-1","","","23","16363","6417","&#9761;","elianto","#3366ff99","-1","-1","1","+10","[]","0","0","2","","","","","","","",""
"pit-trial","42","618822","0.0-2.0-11.1-0.1","battery-v0.2","","""event"",""trial"",""time""
""fullscreenenter"",""1"",""1807""
","
","
","""event"",""trial"",""time""
""fullscreenenter"",""1"",""1807""
","
","","","-1","","","23","16363","6417","&#9761;","elianto","#3366ff99","-1","-1","1","+10","[]","0","0","2","","","","","","","",""
"pit-trial","43","623692","0.0-2.0-11.1-1.1","battery-v0.2","","""event"",""trial"",""time""
""fullscreenenter"",""1"",""1807""
","
","
","""event"",""trial"",""time""
""fullscreenenter"",""1"",""1807""
","
","","","-1","","","23","16363","6417","&#9761;","elianto","#3366ff99","-1","-1","1","+10","[]","0","0","2","","","","","","","",""
"pit-trial","44","628550","0.0-2.0-11.1-2.1","battery-v0.2","","""event"",""trial"",""time""
""fullscreenenter"",""1"",""1807""
","
","
","""event"",""trial"",""time""
""fullscreenenter"",""1"",""1807""
","
","","","-1","","","23","16363","6417","&#9761;","elianto","#3366ff99","-1","-1","1","+10","[]","0","0","2","","","","","","","",""
"pit-trial","45","633419","0.0-2.0-11.1-3.1","battery-v0.2","","""event"",""trial"",""time""
""fullscreenenter"",""1"",""1807""
","
","
","""event"",""trial"",""time""
""fullscreenenter"",""1"",""1807""
","
","","","-1","","","23","16363","6417","&#9761;","elianto","#3366ff99","-1","-1","1","0","[]","0","0","2","","","","","","","",""
"pit-trial","46","638282","0.0-2.0-11.1-4.1","battery-v0.2","","""event"",""trial"",""time""
""fullscreenenter"",""1"",""1807""
","
","
","""event"",""trial"",""time""
""fullscreenenter"",""1"",""1807""
","
","","","-1","","","23","16363","6417","&#9761;","elianto","#3366ff99","-1","-1","1","+10","[]","0","0","2","","","","","","","",""
"pit-trial","47","643140","0.0-2.0-11.2-0.2","battery-v0.2","","""event"",""trial"",""time""
""fullscreenenter"",""1"",""1807""
","
","
","""event"",""trial"",""time""
""fullscreenenter"",""1"",""1807""
","
","","","-1","","","23","16363","6417","&#9761;","elianto","#3366ff99","-1","-1","1","+10","[]","0","0","2","","","","","","","",""
"pit-trial","48","648001","0.0-2.0-11.2-1.2","battery-v0.2","","""event"",""trial"",""time""
""fullscreenenter"",""1"",""1807""
","
","
","""event"",""trial"",""time""
""fullscreenenter"",""1"",""1807""
","
","","","-1","","","23","16363","6417","&#9761;","elianto","#3366ff99","-1","-1","1","+10","[]","0","0","2","","","","","","","",""
"pit-trial","49","652858","0.0-2.0-11.2-2.2","battery-v0.2","","""event"",""trial"",""time""
""fullscreenenter"",""1"",""1807""
","
","
","""event"",""trial"",""time""
""fullscreenenter"",""1"",""1807""
","
","","","-1","","","23","16363","6417","&#9761;","elianto","#3366ff99","-1","-1","1","+10","[]","0","0","2","","","","","","","",""
"pit-trial","50","657720","0.0-2.0-11.2-3.2","battery-v0.2","","""event"",""trial"",""time""
""fullscreenenter"",""1"",""1807""
","
","
","""event"",""trial"",""time""
""fullscreenenter"",""1"",""1807""
","
","","","-1","","","23","16363","6417","&#9761;","elianto","#3366ff99","-1","-1","1","0","[]","0","0","2","","","","","","","",""
"pit-trial","51","662582","0.0-2.0-11.2-4.2","battery-v0.2","","""event"",""trial"",""time""
""fullscreenenter"",""1"",""1807""
","
","
","""event"",""trial"",""time""
""fullscreenenter"",""1"",""1807""
","
","","","-1","","","23","16363","6417","&#9761;","elianto","#3366ff99","-1","-1","1","+10","[]","0","0","2","","","","","","","",""
"pit-trial","52","667447","0.0-2.0-11.3-0.3","battery-v0.2","","""event"",""trial"",""time""
""fullscreenenter"",""1"",""1807""
","
","
","""event"",""trial"",""time""
""fullscreenenter"",""1"",""1807""
","
","","","-1","","","23","16363","6417","&#9761;","elianto","#3366ff99","-1","-1","1","+10","[]","0","0","2","","","","","","","",""
"pit-trial","53","672313","0.0-2.0-11.3-1.3","battery-v0.2","","""event"",""trial"",""time""
""fullscreenenter"",""1"",""1807""
","
","
","""event"",""trial"",""time""
""fullscreenenter"",""1"",""1807""
","
","","","-1","","","23","16363","6417","&#9761;","elianto","#3366ff99","-1","-1","1","+10","[]","0","0","2","","","","","","","",""
"pit-trial","54","677182","0.0-2.0-11.3-2.3","battery-v0.2","","""event"",""trial"",""time""
""fullscreenenter"",""1"",""1807""
","
","
","""event"",""trial"",""time""
""fullscreenenter"",""1"",""1807""
","
","","","-1","","","23","16363","6417","&#9761;","elianto","#3366ff99","-1","-1","1","+10","[]","0","0","2","","","","","","","",""
"pit-trial","55","682054","0.0-2.0-11.3-3.3","battery-v0.2","","""event"",""trial"",""time""
""fullscreenenter"",""1"",""1807""
","
","
","""event"",""trial"",""time""
""fullscreenenter"",""1"",""1807""
","
","","","-1","","","23","16363","6417","&#9761;","elianto","#3366ff99","-1","-1","1","0","[]","0","0","2","","","","","","","",""
"pit-trial","56","686917","0.0-2.0-11.3-4.3","battery-v0.2","","""event"",""trial"",""time""
""fullscreenenter"",""1"",""1807""
","
","
","""event"",""trial"",""time""
""fullscreenenter"",""1"",""1807""
","
","","","-1","","","23","16363","6417","&#9761;","elianto","#3366ff99","-1","-1","1","+10","[]","0","0","2","","","","","","","",""
"call-function","57","686919","0.0-2.0-12.0","battery-v0.2","","""event"",""trial"",""time""
""fullscreenenter"",""1"",""1807""
","
","
","""event"",""trial"",""time""
""fullscreenenter"",""1"",""1807""
","
","","","","","","","","","","","","","","","","","","","","","","","","","","",""
"pit-instructions","58","745153","0.0-2.0-13.0","battery-v0.2","","""event"",""trial"",""time""
""fullscreenenter"",""1"",""1807""
","
","
","""event"",""trial"",""time""
""fullscreenenter"",""1"",""1807""
","
","","[{""page_index"":0,""viewing_time"":26279.800000190735},{""page_index"":1,""viewing_time"":7799.5},{""page_index"":2,""viewing_time"":4200.099999904633},{""page_index"":3,""viewing_time"":12376.799999952316},{""page_index"":4,""viewing_time"":7576}]","58232.800000190735","","","","","","","","","","","","","","","","","","","","","","","",""
"pit-trial","59","748821","0.0-2.0-14.0-0.0","battery-v0.2","","""event"",""trial"",""time""
""fullscreenenter"",""1"",""1807""
","
","
","""event"",""trial"",""time""
""fullscreenenter"",""1"",""1807""
","
","","","805.0999999046326","","","23","16363","6417","&#9826;","elianto","#f73b6a7A","-1"," ","0","-10","[1660.0999999046326]","1","0","3","","","","","","","",""
"pit-trial","60","753699","0.0-2.0-14.0-1.0","battery-v0.2","","""event"",""trial"",""time""
""fullscreenenter"",""1"",""1807""
","
","
","""event"",""trial"",""time""
""fullscreenenter"",""1"",""1807""
","
","","","-1","","","23","16363","6417","&#9826;","elianto","#f73b6a7A","-1","-1","1","0","[]","0","0","3","","","","","","","",""
"pit-trial","61","758557","0.0-2.0-14.0-2.0","battery-v0.2","","""event"",""trial"",""time""
""fullscreenenter"",""1"",""1807""
","
","
","""event"",""trial"",""time""
""fullscreenenter"",""1"",""1807""
","
","","","-1","","","23","16363","6417","&#9826;","elianto","#f73b6a7A","-1","-1","1","0","[]","0","0","3","","","","","","","",""
"pit-trial","62","763426","0.0-2.0-14.0-3.0","battery-v0.2","","""event"",""trial"",""time""
""fullscreenenter"",""1"",""1807""
","
","
","""event"",""trial"",""time""
""fullscreenenter"",""1"",""1807""
","
","","","-1","","","23","16363","6417","&#9826;","elianto","#f73b6a7A","-1","-1","1","-10","[]","0","0","3","","","","","","","",""
"pit-trial","63","768309","0.0-2.0-14.0-4.0","battery-v0.2","","""event"",""trial"",""time""
""fullscreenenter"",""1"",""1807""
","
","
","""event"",""trial"",""time""
""fullscreenenter"",""1"",""1807""
","
","","","-1","","","23","16363","6417","&#9826;","elianto","#f73b6a7A","-1","-1","1","0","[]","0","0","3","","","","","","","",""
"pit-trial","64","773175","0.0-2.0-14.1-0.1","battery-v0.2","","""event"",""trial"",""time""
""fullscreenenter"",""1"",""1807""
","
","
","""event"",""trial"",""time""
""fullscreenenter"",""1"",""1807""
","
","","","-1","","","23","16363","6417","&#9826;","elianto","#f73b6a7A","-1","-1","1","0","[]","0","0","3","","","","","","","",""
"pit-trial","65","778032","0.0-2.0-14.1-1.1","battery-v0.2","","""event"",""trial"",""time""
""fullscreenenter"",""1"",""1807""
","
","
","""event"",""trial"",""time""
""fullscreenenter"",""1"",""1807""
","
","","","-1","","","23","16363","6417","&#9826;","elianto","#f73b6a7A","-1","-1","1","0","[]","0","0","3","","","","","","","",""
"pit-trial","66","782899","0.0-2.0-14.1-2.1","battery-v0.2","","""event"",""trial"",""time""
""fullscreenenter"",""1"",""1807""
","
","
","""event"",""trial"",""time""
""fullscreenenter"",""1"",""1807""
","
","","","-1","","","23","16363","6417","&#9826;","elianto","#f73b6a7A","-1","-1","1","0","[]","0","0","3","","","","","","","",""
"pit-trial","67","787757","0.0-2.0-14.1-3.1","battery-v0.2","","""event"",""trial"",""time""
""fullscreenenter"",""1"",""1807""
","
","
","""event"",""trial"",""time""
""fullscreenenter"",""1"",""1807""
","
","","","-1","","","23","16363","6417","&#9826;","elianto","#f73b6a7A","-1","-1","1","-10","[]","0","0","3","","","","","","","",""
"pit-trial","68","792631","0.0-2.0-14.1-4.1","battery-v0.2","","""event"",""trial"",""time""
""fullscreenenter"",""1"",""1807""
","
","
","""event"",""trial"",""time""
""fullscreenenter"",""1"",""1807""
","
","","","-1","","","23","16363","6417","&#9826;","elianto","#f73b6a7A","-1","-1","1","0","[]","0","0","3","","","","","","","",""
"pit-trial","69","797508","0.0-2.0-14.2-0.2","battery-v0.2","","""event"",""trial"",""time""
""fullscreenenter"",""1"",""1807""
","
","
","""event"",""trial"",""time""
""fullscreenenter"",""1"",""1807""
","
","","","-1","","","23","16363","6417","&#9826;","elianto","#f73b6a7A","-1","-1","1","0","[]","0","0","3","","","","","","","",""
"pit-trial","70","802370","0.0-2.0-14.2-1.2","battery-v0.2","","""event"",""trial"",""time""
""fullscreenenter"",""1"",""1807""
","
","
","""event"",""trial"",""time""
""fullscreenenter"",""1"",""1807""
","
","","","-1","","","23","16363","6417","&#9826;","elianto","#f73b6a7A","-1","-1","1","0","[]","0","0","3","","","","","","","",""
"pit-trial","71","807244","0.0-2.0-14.2-2.2","battery-v0.2","","""event"",""trial"",""time""
""fullscreenenter"",""1"",""1807""
","
","
","""event"",""trial"",""time""
""fullscreenenter"",""1"",""1807""
","
","","","-1","","","23","16363","6417","&#9826;","elianto","#f73b6a7A","-1","-1","1","0","[]","0","0","3","","","","","","","",""
"pit-trial","72","812117","0.0-2.0-14.2-3.2","battery-v0.2","","""event"",""trial"",""time""
""fullscreenenter"",""1"",""1807""
","
","
","""event"",""trial"",""time""
""fullscreenenter"",""1"",""1807""
","
","","","-1","","","23","16363","6417","&#9826;","elianto","#f73b6a7A","-1","-1","1","-10","[]","0","0","3","","","","","","","",""
"pit-trial","73","816981","0.0-2.0-14.2-4.2","battery-v0.2","","""event"",""trial"",""time""
""fullscreenenter"",""1"",""1807""
","
","
","""event"",""trial"",""time""
""fullscreenenter"",""1"",""1807""
","
","","","-1","","","23","16363","6417","&#9826;","elianto","#f73b6a7A","-1","-1","1","0","[]","0","0","3","","","","","","","",""
"pit-trial","74","821843","0.0-2.0-14.3-0.3","battery-v0.2","","""event"",""trial"",""time""
""fullscreenenter"",""1"",""1807""
","
","
","""event"",""trial"",""time""
""fullscreenenter"",""1"",""1807""
","
","","","-1","","","23","16363","6417","&#9826;","elianto","#f73b6a7A","-1","-1","1","0","[]","0","0","3","","","","","","","",""
"pit-trial","75","826712","0.0-2.0-14.3-1.3","battery-v0.2","","""event"",""trial"",""time""
""fullscreenenter"",""1"",""1807""
","
","
","""event"",""trial"",""time""
""fullscreenenter"",""1"",""1807""
","
","","","-1","","","23","16363","6417","&#9826;","elianto","#f73b6a7A","-1","-1","1","0","[]","0","0","3","","","","","","","",""
"pit-trial","76","831587","0.0-2.0-14.3-2.3","battery-v0.2","","""event"",""trial"",""time""
""fullscreenenter"",""1"",""1807""
","
","
","""event"",""trial"",""time""
""fullscreenenter"",""1"",""1807""
","
","","","-1","","","23","16363","6417","&#9826;","elianto","#f73b6a7A","-1","-1","1","0","[]","0","0","3","","","","","","","",""
"pit-trial","77","836454","0.0-2.0-14.3-3.3","battery-v0.2","","""event"",""trial"",""time""
""fullscreenenter"",""1"",""1807""
","
","
","""event"",""trial"",""time""
""fullscreenenter"",""1"",""1807""
","
","","","-1","","","23","16363","6417","&#9826;","elianto","#f73b6a7A","-1","-1","1","-10","[]","0","0","3","","","","","","","",""
"pit-trial","78","841323","0.0-2.0-14.3-4.3","battery-v0.2","","""event"",""trial"",""time""
""fullscreenenter"",""1"",""1807""
","
","
","""event"",""trial"",""time""
""fullscreenenter"",""1"",""1807""
","
","","","-1","","","23","16363","6417","&#9826;","elianto","#f73b6a7A","-1","-1","1","0","[]","0","0","3","","","","","","","",""
"call-function","79","841326","0.0-2.0-15.0","battery-v0.2","","""event"",""trial"",""time""
""fullscreenenter"",""1"",""1807""
","
","
","""event"",""trial"",""time""
""fullscreenenter"",""1"",""1807""
","
","","","","","","","","","","","","","","","","","","","","","","","","","","",""
"pit-instructions","80","876727","0.0-2.0-16.0","battery-v0.2","","""event"",""trial"",""time""
""fullscreenenter"",""1"",""1807""
","
","
","""event"",""trial"",""time""
""fullscreenenter"",""1"",""1807""
","
","","[{""page_index"":0,""viewing_time"":15440.5},{""page_index"":1,""viewing_time"":9553.399999856949},{""page_index"":2,""viewing_time"":5174.5},{""page_index"":3,""viewing_time"":5231.700000047684}]","35400.5","","","","","","","","","","","","","","","","","","","","","","","",""
"pit-trial","81","880450","0.0-2.0-17.0-0.0","battery-v0.2","","""event"",""trial"",""time""
""fullscreenenter"",""1"",""1807""
","
","
","""event"",""trial"",""time""
""fullscreenenter"",""1"",""1807""
","
","","","849.7999999523163","","","23","16363","6417","&#9789;","elianto","#f73b6a7A"," "," ","1","0","[1706.5]","1","0","4","","","","","","","",""
"pit-trial","82","883731","0.0-2.0-17.0-1.0","battery-v0.2","","""event"",""trial"",""time""
""fullscreenenter"",""1"",""1807""
","
","
","""event"",""trial"",""time""
""fullscreenenter"",""1"",""1807""
","
","","","420","","","23","16363","6417","&#9789;","elianto","#f73b6a7A"," "," ","1","0","[1272.2000000476837]","1","0","4","","","","","","","",""
"pit-trial","83","887169","0.0-2.0-17.0-2.0","battery-v0.2","","""event"",""trial"",""time""
""fullscreenenter"",""1"",""1807""
","
","
","""event"",""trial"",""time""
""fullscreenenter"",""1"",""1807""
","
","","","578.0999999046326","","","23","16363","6417","&#9789;","elianto","#f73b6a7A"," "," ","1","0","[1428.9000000953674]","1","0","4","","","","","","","",""
"pit-trial","84","891025","0.0-2.0-17.0-3.0","battery-v0.2","","""event"",""trial"",""time""
""fullscreenenter"",""1"",""1807""
","
","
","""event"",""trial"",""time""
""fullscreenenter"",""1"",""1807""
","
","","","998.5","","","23","16363","6417","&#9789;","elianto","#f73b6a7A"," "," ","1","-10","[1849.8999998569489]","1","0","4","","","","","","","",""
"pit-trial","85","894337","0.0-2.0-17.0-4.0","battery-v0.2","","""event"",""trial"",""time""
""fullscreenenter"",""1"",""1807""
","
","
","""event"",""trial"",""time""
""fullscreenenter"",""1"",""1807""
","
","","","442.09999990463257","","","23","16363","6417","&#9789;","elianto","#f73b6a7A"," "," ","1","0","[1295.5999999046326]","1","0","4","","","","","","","",""
"pit-trial","86","897697","0.0-2.0-17.1-0.1","battery-v0.2","","""event"",""trial"",""time""
""fullscreenenter"",""1"",""1807""
","
","
","""event"",""trial"",""time""
""fullscreenenter"",""1"",""1807""
","
","","","490.2999999523163","","","23","16363","6417","&#9789;","elianto","#f73b6a7A"," "," ","1","0","[1347.7999999523163]","1","0","4","","","","","","","",""
"pit-trial","87","900989","0.0-2.0-17.1-1.1","battery-v0.2","","""event"",""trial"",""time""
""fullscreenenter"",""1"",""1807""
","
","
","""event"",""trial"",""time""
""fullscreenenter"",""1"",""1807""
","
","","","429.2000000476837","","","23","16363","6417","&#9789;","elianto","#f73b6a7A"," "," ","1","0","[1283.7000000476837]","1","0","4","","","","","","","",""
"pit-trial","88","904229","0.0-2.0-17.1-2.1","battery-v0.2","","""event"",""trial"",""time""
""fullscreenenter"",""1"",""1807""
","
","
","""event"",""trial"",""time""
""fullscreenenter"",""1"",""1807""
","
","","","363.2999999523163","","","23","16363","6417","&#9789;","elianto","#f73b6a7A"," "," ","1","0","[1221.5]","1","0","4","","","","","","","",""
"pit-trial","89","907533","0.0-2.0-17.1-3.1","battery-v0.2","","""event"",""trial"",""time""
""fullscreenenter"",""1"",""1807""
","
","
","""event"",""trial"",""time""
""fullscreenenter"",""1"",""1807""
","
","","","443.7000000476837","","","23","16363","6417","&#9789;","elianto","#f73b6a7A"," "," ","1","-10","[1296.6000001430511]","1","0","4","","","","","","","",""
"pit-trial","90","910783","0.0-2.0-17.1-4.1","battery-v0.2","","""event"",""trial"",""time""
""fullscreenenter"",""1"",""1807""
","
","
","""event"",""trial"",""time""
""fullscreenenter"",""1"",""1807""
","
","","","389.59999990463257","","","23","16363","6417","&#9789;","elianto","#f73b6a7A"," "," ","1","0","[1241.5]","1","0","4","","","","","","","",""
"pit-trial","91","913817","0.0-2.0-17.2-0.2","battery-v0.2","","""event"",""trial"",""time""
""fullscreenenter"",""1"",""1807""
","
","
","""event"",""trial"",""time""
""fullscreenenter"",""1"",""1807""
","
","","","173.90000009536743","","","23","16363","6417","&#9789;","elianto","#f73b6a7A"," "," ","1","0","[1023.9000000953674]","1","0","4","","","","","","","",""
"pit-trial","92","916815","0.0-2.0-17.2-1.2","battery-v0.2","","""event"",""trial"",""time""
""fullscreenenter"",""1"",""1807""
","
","
","""event"",""trial"",""time""
""fullscreenenter"",""1"",""1807""
","
","","","140.29999995231628","","","23","16363","6417","&#9789;","elianto","#f73b6a7A"," "," ","1","0","[991.3999998569489]","1","0","4","","","","","","","",""
"pit-trial","93","920010","0.0-2.0-17.2-2.2","battery-v0.2","","""event"",""trial"",""time""
""fullscreenenter"",""1"",""1807""
","
","
","""event"",""trial"",""time""
""fullscreenenter"",""1"",""1807""
","
","","","339.59999990463257","","","23","16363","6417","&#9789;","elianto","#f73b6a7A"," "," ","1","0","[1190.5]","1","0","4","","","","","","","",""
"pit-trial","94","923192","0.0-2.0-17.2-3.2","battery-v0.2","","""event"",""trial"",""time""
""fullscreenenter"",""1"",""1807""
","
","
","""event"",""trial"",""time""
""fullscreenenter"",""1"",""1807""
","
","","","324.5","","","23","16363","6417","&#9789;","elianto","#f73b6a7A"," "," ","1","-10","[1177.8000001907349]","1","0","4","","","","","","","",""
"pit-trial","95","926431","0.0-2.0-17.2-4.2","battery-v0.2","","""event"",""trial"",""time""
""fullscreenenter"",""1"",""1807""
","
","
","""event"",""trial"",""time""
""fullscreenenter"",""1"",""1807""
","
","","","375.39999985694885","","","23","16363","6417","&#9789;","elianto","#f73b6a7A"," "," ","1","0","[1234.5999999046326]","1","0","4","","","","","","","",""
"pit-trial","96","929481","0.0-2.0-17.3-0.3","battery-v0.2","","""event"",""trial"",""time""
""fullscreenenter"",""1"",""1807""
","
","
","""event"",""trial"",""time""
""fullscreenenter"",""1"",""1807""
","
","","","191.19999980926514","","","23","16363","6417","&#9789;","elianto","#f73b6a7A"," "," ","1","0","[1042.7000000476837]","1","0","4","","","","","","","",""
"pit-trial","97","932445","0.0-2.0-17.3-1.3","battery-v0.2","","""event"",""trial"",""time""
""fullscreenenter"",""1"",""1807""
","
","
","""event"",""trial"",""time""
""fullscreenenter"",""1"",""1807""
","
","","","100.80000019073486","","","23","16363","6417","&#9789;","elianto","#f73b6a7A"," "," ","1","0","[952.7000000476837]","1","0","4","","","","","","","",""
"pit-trial","98","935460","0.0-2.0-17.3-2.3","battery-v0.2","","""event"",""trial"",""time""
""fullscreenenter"",""1"",""1807""
","
","
","""event"",""trial"",""time""
""fullscreenenter"",""1"",""1807""
","
","","","154.09999990463257","","","23","16363","6417","&#9789;","elianto","#f73b6a7A"," "," ","1","0","[1006.5]","1","0","4","","","","","","","",""
"pit-trial","99","938607","0.0-2.0-17.3-3.3","battery-v0.2","","""event"",""trial"",""time""
""fullscreenenter"",""1"",""1807""
","
","
","""event"",""trial"",""time""
""fullscreenenter"",""1"",""1807""
","
","","","283.19999980926514","","","23","16363","6417","&#9789;","elianto","#f73b6a7A"," "," ","1","-10","[1136.9000000953674]","1","0","4","","","","","","","",""
"pit-trial","100","941634","0.0-2.0-17.3-4.3","battery-v0.2","","""event"",""trial"",""time""
""fullscreenenter"",""1"",""1807""
","
","
","""event"",""trial"",""time""
""fullscreenenter"",""1"",""1807""
","
","","","171.59999990463257","","","23","16363","6417","&#9789;","elianto","#f73b6a7A"," "," ","1","0","[1025.2000000476837]","1","0","4","","","","","","","",""
"call-function","101","941637","0.0-2.0-18.0","battery-v0.2","","""event"",""trial"",""time""
""fullscreenenter"",""1"",""1807""
","
","
","""event"",""trial"",""time""
""fullscreenenter"",""1"",""1807""
","
","","","","","","","","","","","","","","","","","","","","","","","","","","",""
"pit-instructions","102","1091857","0.0-2.0-19.0","battery-v0.2","","""event"",""trial"",""time""
""fullscreenenter"",""1"",""1807""
","
","
","""event"",""trial"",""time""
""fullscreenenter"",""1"",""1807""
","
","","[{""page_index"":0,""viewing_time"":31317.800000190735},{""page_index"":1,""viewing_time"":18163.39999985695},{""page_index"":2,""viewing_time"":17824.700000047684},{""page_index"":3,""viewing_time"":13679.400000095367},{""page_index"":4,""viewing_time"":25608.299999952316},{""page_index"":5,""viewing_time"":8400},{""page_index"":6,""viewing_time"":19056},{""page_index"":7,""viewing_time"":8055.5},{""page_index"":8,""viewing_time"":8112.5}]","150218.10000014305","","","","","","","","","","","","","","","","","","","","","","","",""
"pit-comprehension","103","1096817","0.0-2.0-20.0-0.0","battery-v0.2","","""event"",""trial"",""time""
""fullscreenenter"",""1"",""1807""
","
","
","""event"",""trial"",""time""
""fullscreenenter"",""1"",""1807""
","
","","","4957.200000047684","[""SPACE""]","0","23","16363","6417","","","","","","","","","","","","","","","","","","",""
"pit-instructions","104","1100064","0.0-2.0-20.0-1.0","battery-v0.2","","""event"",""trial"",""time""
""fullscreenenter"",""1"",""1807""
","
","
","""event"",""trial"",""time""
""fullscreenenter"",""1"",""1807""
","
","","[{""page_index"":0,""viewing_time"":3214.800000190735}]","3215.100000143051","","","","","","","","","","","","","","","","","","","","","","","",""
"pit-comprehension","105","1107081","0.0-2.0-21.0-0.0","battery-v0.2","","""event"",""trial"",""time""
""fullscreenenter"",""1"",""1807""
","
","
","""event"",""trial"",""time""
""fullscreenenter"",""1"",""1807""
","
","","","7013.399999856949","[""10""]","0","23","16363","6417","","","","","","","","","","","","","","","","","","",""
"pit-instructions","106","1117136","0.0-2.0-21.0-1.0","battery-v0.2","","""event"",""trial"",""time""
""fullscreenenter"",""1"",""1807""
","
","
","""event"",""trial"",""time""
""fullscreenenter"",""1"",""1807""
","
","","[{""page_index"":0,""viewing_time"":10028.099999904633}]","10028.299999952316","","","","","","","","","","","","","","","","","","","","","","","",""
"pit-comprehension","107","1125193","0.0-2.0-22.0-0.0","battery-v0.2","","""event"",""trial"",""time""
""fullscreenenter"",""1"",""1807""
","
","
","""event"",""trial"",""time""
""fullscreenenter"",""1"",""1807""
","
","","","8053.5","[""0""]","0","23","16363","6417","","","","","","","","","","","","","","","","","","",""
"pit-instructions","108","1127144","0.0-2.0-22.0-1.0","battery-v0.2","","""event"",""trial"",""time""
""fullscreenenter"",""1"",""1807""
","
","
","""event"",""trial"",""time""
""fullscreenenter"",""1"",""1807""
","
","","[{""page_index"":0,""viewing_time"":1926.3999998569489}]","1926.6999998092651","","","","","","","","","","","","","","","","","","","","","","","",""
"pit-comprehension","109","1142305","0.0-2.0-23.0-0.0","battery-v0.2","","""event"",""trial"",""time""
""fullscreenenter"",""1"",""1807""
","
","
","""event"",""trial"",""time""
""fullscreenenter"",""1"",""1807""
","
","","","15158.399999856949","[""False""]","1","23","16363","6417","","","","","","","","","","","","","","","","","","",""
"pit-instructions","110","1147008","0.0-2.0-23.0-1.0","battery-v0.2","","""event"",""trial"",""time""
""fullscreenenter"",""1"",""1807""
","
","
","""event"",""trial"",""time""
""fullscreenenter"",""1"",""1807""
","
","","[{""page_index"":0,""viewing_time"":4678.599999904633}]","4678.899999856949","","","","","","","","","","","","","","","","","","","","","","","",""
"pit-instructions","111","1148713","0.0-2.0-23.0-2.0-0.0","battery-v0.2","","""event"",""trial"",""time""
""fullscreenenter"",""1"",""1807""
","
","
","""event"",""trial"",""time""
""fullscreenenter"",""1"",""1807""
","
","","[{""page_index"":0,""viewing_time"":1703.7999999523163}]","1704.0999999046326","","","","","","","","","","","","","","","","","","","","","","","",""
"pit-comprehension","112","1158129","0.0-2.0-23.1-0.1","battery-v0.2","","""event"",""trial"",""time""
""fullscreenenter"",""1"",""1807""
","
","
","""event"",""trial"",""time""
""fullscreenenter"",""1"",""1807""
","
","","","9413.600000143051","[""True""]","0","23","16363","6417","","","","","","","","","","","","","","","","","","",""
"pit-instructions","113","1159800","0.0-2.0-23.1-1.1","battery-v0.2","","""event"",""trial"",""time""
""fullscreenenter"",""1"",""1807""
","
","
","""event"",""trial"",""time""
""fullscreenenter"",""1"",""1807""
","
","","[{""page_index"":0,""viewing_time"":1645.3000001907349}]","1645.7000000476837","","","","","","","","","","","","","","","","","","","","","","","",""
"pit-comprehension","114","1169944","0.0-2.0-24.0-0.0","battery-v0.2","","""event"",""trial"",""time""
""fullscreenenter"",""1"",""1807""
","
","
","""event"",""trial"",""time""
""fullscreenenter"",""1"",""1807""
","
","","","10141","[""True""]","0","23","16363","6417","","","","","","","","","","","","","","","","","","",""
"pit-instructions","115","1172504","0.0-2.0-24.0-1.0","battery-v0.2","","""event"",""trial"",""time""
""fullscreenenter"",""1"",""1807""
","
","
","""event"",""trial"",""time""
""fullscreenenter"",""1"",""1807""
","
","","[{""page_index"":0,""viewing_time"":2533.2000000476837}]","2533.5","","","","","","","","","","","","","","","","","","","","","","","",""
"pit-comprehension","116","1181345","0.0-2.0-25.0-0.0","battery-v0.2","","""event"",""trial"",""time""
""fullscreenenter"",""1"",""1807""
","
","
","""event"",""trial"",""time""
""fullscreenenter"",""1"",""1807""
","
","","","8838.5","[""True""]","0","23","16363","6417","","","","","","","","","","","","","","","","","","",""
"pit-instructions","117","1183352","0.0-2.0-25.0-1.0","battery-v0.2","","""event"",""trial"",""time""
""fullscreenenter"",""1"",""1807""
","
","
","""event"",""trial"",""time""
""fullscreenenter"",""1"",""1807""
","
","","[{""page_index"":0,""viewing_time"":1980.7999999523163}]","1981.0999999046326","","","","","","","","","","","","","","","","","","","","","","","",""
"pit-comprehension","118","1191658","0.0-2.0-26.0-0.0","battery-v0.2","","""event"",""trial"",""time""
""fullscreenenter"",""1"",""1807""
","
","
","""event"",""trial"",""time""
""fullscreenenter"",""1"",""1807""
","
","","","8303.099999904633","[""False""]","0","23","16363","6417","","","","","","","","","","","","","","","","","","",""
"pit-instructions","119","1193496","0.0-2.0-26.0-1.0","battery-v0.2","","""event"",""trial"",""time""
""fullscreenenter"",""1"",""1807""
","
","
","""event"",""trial"",""time""
""fullscreenenter"",""1"",""1807""
","
","","[{""page_index"":0,""viewing_time"":1810}]","1810.2999999523163","","","","","","","","","","","","","","","","","","","","","","","",""
"pit-instructions","120","1222744","0.0-3.0","battery-v0.2","","""event"",""trial"",""time""
""fullscreenenter"",""1"",""1807""
","
","
","""event"",""trial"",""time""
""fullscreenenter"",""1"",""1807""
","
","","[{""page_index"":0,""viewing_time"":11349.899999856949},{""page_index"":1,""viewing_time"":9880.600000143051},{""page_index"":2,""viewing_time"":8015.599999904633}]","29246.299999952316","","","","","","","","","","","","","","","","","","","","","","","",""
"pit-trial","121","1227621","0.0-4.0","battery-v0.2","","""event"",""trial"",""time""
""fullscreenenter"",""1"",""1807""
","
","
","""event"",""trial"",""time""
""fullscreenenter"",""1"",""1807""
","
","","","-1","","","23","16363","6417","&#9730;","elianto","#3366ff99"," ","-1","0","+10","[]","0","1","","","16363","1","1","1","win","go","1"
"pit-trial","122","1232482","0.0-5.0","battery-v0.2","","""event"",""trial"",""time""
""fullscreenenter"",""1"",""1807""
","
","
","""event"",""trial"",""time""
""fullscreenenter"",""1"",""1807""
","
","","","-1","","","23","16363","6417","&#9733;","elianto","#3366ff99","-1","-1","1","+10","[]","0","1","","","16363","2","2","2","win","no-go","0"
"pit-trial","123","1236516","0.0-6.0","battery-v0.2","","""event"",""trial"",""time""
""fullscreenenter"",""1"",""1807""
","
","
","""event"",""trial"",""time""
""fullscreenenter"",""1"",""1807""
","
","","","1170","","","23","16363","6417","&#9728;","elianto","#f73b6a7A","-1"," ","0","-10","[2021.0999999046326]","1","1","","","16363","3","0","4","lose","no-go","0"
"pit-trial","124","1240258","0.0-7.0","battery-v0.2","","""event"",""trial"",""time""
""fullscreenenter"",""1"",""1807""
","
","
","""event"",""trial"",""time""
""fullscreenenter"",""1"",""1807""
","
","","","876.6000001430511","","","23","16363","6417","&#9752;","elianto","#f73b6a7A"," "," ","1","0","[1726.7000000476837]","1","1","","","16363","4","3","3","lose","go","0"
"pit-trial","125","1243853","0.0-8.0","battery-v0.2","","""event"",""trial"",""time""
""fullscreenenter"",""1"",""1807""
","
","
","""event"",""trial"",""time""
""fullscreenenter"",""1"",""1807""
","
","","","725.2999999523163","","","23","16363","6417","&#9752;","elianto","#f73b6a7A"," "," ","1","-10","[1579.5999999046326]","1","1","","","16363","5","3","3","lose","go","1"
"pit-trial","126","1248562","0.0-9.0","battery-v0.2","","""event"",""trial"",""time""
""fullscreenenter"",""1"",""1807""
","
","
","""event"",""trial"",""time""
""fullscreenenter"",""1"",""1807""
","
","","","1839.8000001907349","","","23","16363","6417","&#9730;","elianto","#3366ff99"," "," ","1","+10","[2697.2000000476837]","1","1","","","16363","6","1","1","win","go","0"
"pit-trial","127","1253423","0.0-10.0","battery-v0.2","","""event"",""trial"",""time""
""fullscreenenter"",""1"",""1807""
","
","
","""event"",""trial"",""time""
""fullscreenenter"",""1"",""1807""
","
","","","-1","","","23","16363","6417","&#9733;","elianto","#3366ff99","-1","-1","1","+10","[]","0","1","","","16363","7","2","2","win","no-go","0"
"pit-trial","128","1258292","0.0-11.0","battery-v0.2","","""event"",""trial"",""time""
""fullscreenenter"",""1"",""1807""
","
","
","""event"",""trial"",""time""
""fullscreenenter"",""1"",""1807""
","
","","","-1","","","23","16363","6417","&#9728;","elianto","#f73b6a7A","-1","-1","1","0","[]","0","1","","","16363","8","0","4","lose","no-go","0"
"pit-trial","129","1262104","0.0-12.0","battery-v0.2","","""event"",""trial"",""time""
""fullscreenenter"",""1"",""1807""
","
","
","""event"",""trial"",""time""
""fullscreenenter"",""1"",""1807""
","
","","","948.2000000476837","","","23","16363","6417","&#9752;","elianto","#f73b6a7A"," "," ","1","0","[1803.7000000476837]","1","1","","","16363","9","3","3","lose","go","0"
"pit-trial","130","1266284","0.0-13.0","battery-v0.2","","""event"",""trial"",""time""
""fullscreenenter"",""1"",""1807""
","
","
","""event"",""trial"",""time""
""fullscreenenter"",""1"",""1807""
","
","","","1315.3999998569489","","","23","16363","6417","&#9730;","elianto","#3366ff99"," "," ","1","+10","[2171.399999856949]","1","1","","","16363","10","1","1","win","go","0"
"pit-trial","131","1271145","0.0-14.0","battery-v0.2","","""event"",""trial"",""time""
""fullscreenenter"",""1"",""1807""
","
","
","""event"",""trial"",""time""
""fullscreenenter"",""1"",""1807""
","
","","","-1","","","23","16363","6417","&#9728;","elianto","#f73b6a7A","-1","-1","1","0","[]","0","1","","","16363","11","0","4","lose","no-go","0"
"pit-trial","132","1274635","0.0-15.0","battery-v0.2","","""event"",""trial"",""time""
""fullscreenenter"",""1"",""1807""
","
","
","""event"",""trial"",""time""
""fullscreenenter"",""1"",""1807""
","
","","","631.2999999523163","","","23","16363","6417","&#9733;","elianto","#3366ff99","-1"," ","0","0","[1481.7000000476837]","1","1","","","16363","12","2","2","win","no-go","0"
"pit-trial","133","1279503","0.0-16.0","battery-v0.2","","""event"",""trial"",""time""
""fullscreenenter"",""1"",""1807""
","
","
","""event"",""trial"",""time""
""fullscreenenter"",""1"",""1807""
","
","","","-1","","","23","16363","6417","&#9730;","elianto","#3366ff99"," ","-1","0","0","[2927]","1","1","","","16363","13","1","1","win","go","0"
"pit-trial","134","1284370","0.0-17.0","battery-v0.2","","""event"",""trial"",""time""
""fullscreenenter"",""1"",""1807""
","
","
","""event"",""trial"",""time""
""fullscreenenter"",""1"",""1807""
","
","","","-1","","","23","16363","6417","&#9752;","elianto","#f73b6a7A"," ","-1","0","-10","[]","0","1","","","16363","14","3","3","lose","go","0"
"pit-trial","135","1289238","0.0-18.0","battery-v0.2","","""event"",""trial"",""time""
""fullscreenenter"",""1"",""1807""
","
","
","""event"",""trial"",""time""
""fullscreenenter"",""1"",""1807""
","
","","","-1","","","23","16363","6417","&#9733;","elianto","#3366ff99","-1","-1","1","+10","[]","0","1","","","16363","15","2","2","win","no-go","0"
"pit-trial","136","1294102","0.0-19.0","battery-v0.2","","""event"",""trial"",""time""
""fullscreenenter"",""1"",""1807""
","
","
","""event"",""trial"",""time""
""fullscreenenter"",""1"",""1807""
","
","","","-1","","","23","16363","6417","&#9728;","elianto","#f73b6a7A","-1","-1","1","0","[]","0","1","","","16363","16","0","4","lose","no-go","0"
"pit-trial","137","1298161","0.0-20.0","battery-v0.2","","""event"",""trial"",""time""
""fullscreenenter"",""1"",""1807""
","
","
","""event"",""trial"",""time""
""fullscreenenter"",""1"",""1807""
","
","","","1192.6000001430511","","","23","16363","6417","&#9752;","elianto","#f73b6a7A"," "," ","1","0","[2049.7000000476837]","1","1","","","16363","17","3","3","lose","go","0"
"pit-trial","138","1303028","0.0-21.0","battery-v0.2","","""event"",""trial"",""time""
""fullscreenenter"",""1"",""1807""
","
","
","""event"",""trial"",""time""
""fullscreenenter"",""1"",""1807""
","
","","","-1","","","23","16363","6417","&#9728;","elianto","#f73b6a7A","-1","-1","1","0","[]","0","1","","","16363","18","0","4","lose","no-go","0"
"pit-trial","139","1306884","0.0-22.0","battery-v0.2","","""event"",""trial"",""time""
""fullscreenenter"",""1"",""1807""
","
","
","""event"",""trial"",""time""
""fullscreenenter"",""1"",""1807""
","
","","","992.7999999523163","","","23","16363","6417","&#9733;","elianto","#3366ff99","-1"," ","0","0","[1843.0999999046326]","1","1","","","16363","19","2","2","win","no-go","0"
"pit-trial","140","1310460","0.0-23.0","battery-v0.2","","""event"",""trial"",""time""
""fullscreenenter"",""1"",""1807""
","
","
","""event"",""trial"",""time""
""fullscreenenter"",""1"",""1807""
","
","","","718.9000000953674","","","23","16363","6417","&#9730;","elianto","#3366ff99"," "," ","1","+10","[1573.7999999523163]","1","1","","","16363","20","1","1","win","go","0"
"pit-instructions","141","1325216","0.0-24.0","battery-v0.2","","""event"",""trial"",""time""
""fullscreenenter"",""1"",""1807""
","
","
","""event"",""trial"",""time""
""fullscreenenter"",""1"",""1807""
","
","","[{""page_index"":0,""viewing_time"":6032.5},{""page_index"":1,""viewing_time"":8720.300000190735}]","14753.100000143051","","","","","","","","","","","","","","","","","","","","","","","",""
"pit-trial","142","1329489","0.0-25.0","battery-v0.2","","""event"",""trial"",""time""
""fullscreenenter"",""1"",""1807""
","
","
","""event"",""trial"",""time""
""fullscreenenter"",""1"",""1807""
","
","","","1407.5999999046326","","","23","16363","6417","n","elianto","#f73b6a7A","-1"," ","0","-10","[2264.2999999523163]","1","2","","","16363","21","0","4","lose","no-go","0"
"pit-trial","143","1333275","0.0-26.0","battery-v0.2","","""event"",""trial"",""time""
""fullscreenenter"",""1"",""1807""
","
","
","""event"",""trial"",""time""
""fullscreenenter"",""1"",""1807""
","
","","","918.2999999523163","","","23","16363","6417","t","elianto","#f73b6a7A","-1"," ","0","-10","[1770.5999999046326]","1","2","","","16363","22","2","4","lose","no-go","0"
"pit-trial","144","1337185","0.0-27.0","battery-v0.2","","""event"",""trial"",""time""
""fullscreenenter"",""1"",""1807""
","
","
","""event"",""trial"",""time""
""fullscreenenter"",""1"",""1807""
","
","","","1047.2999999523163","","","23","16363","6417","b","elianto","#f73b6a7A"," "," ","1","0","[1899.2000000476837]","1","2","","","16363","23","3","3","lose","go","0"
"pit-trial","145","1341150","0.0-28.0","battery-v0.2","","""event"",""trial"",""time""
""fullscreenenter"",""1"",""1807""
","
","
","""event"",""trial"",""time""
""fullscreenenter"",""1"",""1807""
","
","","","1094.2000000476837","","","23","16363","6417","f","elianto","#3366ff99"," "," ","1","+10","[1949.2999999523163]","1","2","","","16363","24","1","1","win","go","0"
"pit-trial","146","1344842","0.0-29.0","battery-v0.2","","""event"",""trial"",""time""
""fullscreenenter"",""1"",""1807""
","
","
","""event"",""trial"",""time""
""fullscreenenter"",""1"",""1807""
","
","","","827.7999999523163","","","23","16363","6417","b","elianto","#f73b6a7A"," "," ","1","0","[1683.1000001430511]","1","2","","","16363","25","3","3","lose","go","0"
"pit-trial","147","1348368","0.0-30.0","battery-v0.2","","""event"",""trial"",""time""
""fullscreenenter"",""1"",""1807""
","
","
","""event"",""trial"",""time""
""fullscreenenter"",""1"",""1807""
","
","","","660.2000000476837","","","23","16363","6417","f","elianto","#3366ff99"," "," ","1","+10","[1511.7999999523163]","1","2","","","16363","26","1","1","win","go","0"
"pit-trial","148","1353229","0.0-31.0","battery-v0.2","","""event"",""trial"",""time""
""fullscreenenter"",""1"",""1807""
","
","
","""event"",""trial"",""time""
""fullscreenenter"",""1"",""1807""
","
","","","-1","","","23","16363","6417","n","elianto","#f73b6a7A","-1","-1","1","0","[]","0","2","","","16363","27","0","4","lose","no-go","0"
"pit-trial","149","1358095","0.0-32.0","battery-v0.2","","""event"",""trial"",""time""
""fullscreenenter"",""1"",""1807""
","
","
","""event"",""trial"",""time""
""fullscreenenter"",""1"",""1807""
","
","","","-1","","","23","16363","6417","t","elianto","#f73b6a7A","-1","-1","1","0","[]","0","2","","","16363","28","2","4","lose","no-go","0"
"pit-trial","150","1362954","0.0-33.0","battery-v0.2","","""event"",""trial"",""time""
""fullscreenenter"",""1"",""1807""
","
","
","""event"",""trial"",""time""
""fullscreenenter"",""1"",""1807""
","
","","","-1","","","23","16363","6417","n","elianto","#f73b6a7A","-1","-1","1","0","[]","0","2","","","16363","29","0","4","lose","no-go","0"
"pit-trial","151","1366331","0.0-34.0","battery-v0.2","","""event"",""trial"",""time""
""fullscreenenter"",""1"",""1807""
","
","
","""event"",""trial"",""time""
""fullscreenenter"",""1"",""1807""
","
","","","519.2999999523163","","","23","16363","6417","f","elianto","#3366ff99"," "," ","1","+10","[1371.2999999523163]","1","2","","","16363","30","1","1","win","go","0"
"pit-trial","152","1369788","0.0-35.0","battery-v0.2","","""event"",""trial"",""time""
""fullscreenenter"",""1"",""1807""
","
","
","""event"",""trial"",""time""
""fullscreenenter"",""1"",""1807""
","
","","","596.6999998092651","","","23","16363","6417","b","elianto","#f73b6a7A"," "," ","1","0","[1452.7000000476837]","1","2","","","16363","31","3","3","lose","go","0"
"pit-trial","153","1374668","0.0-36.0","battery-v0.2","","""event"",""trial"",""time""
""fullscreenenter"",""1"",""1807""
","
","
","""event"",""trial"",""time""
""fullscreenenter"",""1"",""1807""
","
","","","-1","","","23","16363","6417","t","elianto","#f73b6a7A","-1","-1","1","0","[]","0","2","","","16363","32","2","4","lose","no-go","0"
"pit-trial","154","1378090","0.0-37.0","battery-v0.2","","""event"",""trial"",""time""
""fullscreenenter"",""1"",""1807""
","
","
","""event"",""trial"",""time""
""fullscreenenter"",""1"",""1807""
","
","","","561.5","","","23","16363","6417","b","elianto","#f73b6a7A"," "," ","1","0","[1413]","1","2","","","16363","33","3","3","lose","go","0"
"pit-trial","155","1382957","0.0-38.0","battery-v0.2","","""event"",""trial"",""time""
""fullscreenenter"",""1"",""1807""
","
","
","""event"",""trial"",""time""
""fullscreenenter"",""1"",""1807""
","
","","","-1","","","23","16363","6417","n","elianto","#f73b6a7A","-1","-1","1","0","[]","0","2","","","16363","34","0","4","lose","no-go","0"
"pit-trial","156","1387824","0.0-39.0","battery-v0.2","","""event"",""trial"",""time""
""fullscreenenter"",""1"",""1807""
","
","
","""event"",""trial"",""time""
""fullscreenenter"",""1"",""1807""
","
","","","-1","","","23","16363","6417","t","elianto","#f73b6a7A","-1","-1","1","0","[]","0","2","","","16363","35","2","4","lose","no-go","0"
"pit-trial","157","1391210","0.0-40.0","battery-v0.2","","""event"",""trial"",""time""
""fullscreenenter"",""1"",""1807""
","
","
","""event"",""trial"",""time""
""fullscreenenter"",""1"",""1807""
","
","","","527.9000000953674","","","23","16363","6417","f","elianto","#3366ff99"," "," ","1","0","[1377.8999998569489]","1","2","","","16363","36","1","1","win","go","1"
"pit-trial","158","1396072","0.0-41.0","battery-v0.2","","""event"",""trial"",""time""
""fullscreenenter"",""1"",""1807""
","
","
","""event"",""trial"",""time""
""fullscreenenter"",""1"",""1807""
","
","","","-1","","","23","16363","6417","n","elianto","#f73b6a7A","-1","-1","1","0","[]","0","2","","","16363","37","0","4","lose","no-go","0"
"pit-trial","159","1399500","0.0-42.0","battery-v0.2","","""event"",""trial"",""time""
""fullscreenenter"",""1"",""1807""
","
","
","""event"",""trial"",""time""
""fullscreenenter"",""1"",""1807""
","
","","","559.3999998569489","","","23","16363","6417","b","elianto","#f73b6a7A"," "," ","1","0","[1410.0999999046326]","1","2","","","16363","38","3","3","lose","go","0"
"pit-trial","160","1403101","0.0-43.0","battery-v0.2","","""event"",""trial"",""time""
""fullscreenenter"",""1"",""1807""
","
","
","""event"",""trial"",""time""
""fullscreenenter"",""1"",""1807""
","
","","","737.3999998569489","","","23","16363","6417","f","elianto","#3366ff99"," "," ","1","+10","[1589.8999998569489]","1","2","","","16363","39","1","1","win","go","0"
"pit-trial","161","1407969","0.0-44.0","battery-v0.2","","""event"",""trial"",""time""
""fullscreenenter"",""1"",""1807""
","
","
","""event"",""trial"",""time""
""fullscreenenter"",""1"",""1807""
","
","","","-1","","","23","16363","6417","t","elianto","#f73b6a7A","-1","-1","1","0","[]","0","2","","","16363","40","2","4","lose","no-go","0"
"pit-trial","162","1412840","0.0-45.0","battery-v0.2","","""event"",""trial"",""time""
""fullscreenenter"",""1"",""1807""
","
","
","""event"",""trial"",""time""
""fullscreenenter"",""1"",""1807""
","
","","","-1","","","23","16363","6417","n","elianto","#f73b6a7A","-1","-1","1","0","[]","0","2","","","16363","41","0","4","lose","no-go","0"
"pit-trial","163","1416194","0.0-46.0","battery-v0.2","","""event"",""trial"",""time""
""fullscreenenter"",""1"",""1807""
","
","
","""event"",""trial"",""time""
""fullscreenenter"",""1"",""1807""
","
","","","498.40000009536743","","","23","16363","6417","f","elianto","#3366ff99"," "," ","1","+10","[1349]","1","2","","","16363","42","1","1","win","go","0"
"pit-trial","164","1419604","0.0-47.0","battery-v0.2","","""event"",""trial"",""time""
""fullscreenenter"",""1"",""1807""
","
","
","""event"",""trial"",""time""
""fullscreenenter"",""1"",""1807""
","
","","","543.5","","","23","16363","6417","b","elianto","#f73b6a7A"," "," ","1","0","[1397.5999999046326]","1","2","","","16363","43","3","3","lose","go","0"
"pit-trial","165","1424470","0.0-48.0","battery-v0.2","","""event"",""trial"",""time""
""fullscreenenter"",""1"",""1807""
","
","
","""event"",""trial"",""time""
""fullscreenenter"",""1"",""1807""
","
","","","-1","","","23","16363","6417","t","elianto","#f73b6a7A","-1","-1","1","0","[]","0","2","","","16363","44","2","4","lose","no-go","0"
"pit-trial","166","1428062","0.0-49.0","battery-v0.2","","""event"",""trial"",""time""
""fullscreenenter"",""1"",""1807""
","
","
","""event"",""trial"",""time""
""fullscreenenter"",""1"",""1807""
","
","","","731.3000001907349","","","23","16363","6417","b","elianto","#f73b6a7A"," "," ","1","0","[1582.4000000953674]","1","2","","","16363","45","3","3","lose","go","0"
"pit-trial","167","1432291","0.0-50.0","battery-v0.2","","""event"",""trial"",""time""
""fullscreenenter"",""1"",""1807""
","
","
","""event"",""trial"",""time""
""fullscreenenter"",""1"",""1807""
","
","","","1361.4000000953674","","","23","16363","6417","c","elianto","#3366ff99","-1"," ","0","0","[2215.100000143051]","1","2","","","16363","46","4","2","win","no-go","0"
"pit-trial","168","1437162","0.0-51.0","battery-v0.2","","""event"",""trial"",""time""
""fullscreenenter"",""1"",""1807""
","
","
","""event"",""trial"",""time""
""fullscreenenter"",""1"",""1807""
","
","","","-1","","","23","16363","6417","t","elianto","#f73b6a7A","-1","-1","1","-10","[]","0","2","","","16363","47","2","4","lose","no-go","1"
"pit-trial","169","1442020","0.0-52.0","battery-v0.2","","""event"",""trial"",""time""
""fullscreenenter"",""1"",""1807""
","
","
","""event"",""trial"",""time""
""fullscreenenter"",""1"",""1807""
","
","","","-1","","","23","16363","6417","n","elianto","#f73b6a7A","-1","-1","1","0","[]","0","2","","","16363","48","0","4","lose","no-go","0"
"pit-trial","170","1445411","0.0-53.0","battery-v0.2","","""event"",""trial"",""time""
""fullscreenenter"",""1"",""1807""
","
","
","""event"",""trial"",""time""
""fullscreenenter"",""1"",""1807""
","
","","","537.8999998569489","","","23","16363","6417","f","elianto","#3366ff99"," "," ","1","+10","[1388.0999999046326]","1","2","","","16363","49","1","1","win","go","0"
"pit-trial","171","1450285","0.0-54.0","battery-v0.2","","""event"",""trial"",""time""
""fullscreenenter"",""1"",""1807""
","
","
","""event"",""trial"",""time""
""fullscreenenter"",""1"",""1807""
","
","","","-1","","","23","16363","6417","n","elianto","#f73b6a7A","-1","-1","1","0","[]","0","2","","","16363","50","0","4","lose","no-go","0"
"pit-trial","172","1453778","0.0-55.0","battery-v0.2","","""event"",""trial"",""time""
""fullscreenenter"",""1"",""1807""
","
","
","""event"",""trial"",""time""
""fullscreenenter"",""1"",""1807""
","
","","","631.3000001907349","","","23","16363","6417","b","elianto","#f73b6a7A"," "," ","1","0","[1482.3000001907349]","1","2","","","16363","51","3","3","lose","go","0"
"pit-trial","173","1458640","0.0-56.0","battery-v0.2","","""event"",""trial"",""time""
""fullscreenenter"",""1"",""1807""
","
","
","""event"",""trial"",""time""
""fullscreenenter"",""1"",""1807""
","
","","","-1","","","23","16363","6417","c","elianto","#3366ff99","-1","-1","1","+10","[]","0","2","","","16363","52","4","2","win","no-go","0"
"pit-trial","174","1463505","0.0-57.0","battery-v0.2","","""event"",""trial"",""time""
""fullscreenenter"",""1"",""1807""
","
","
","""event"",""trial"",""time""
""fullscreenenter"",""1"",""1807""
","
","","","-1","","","23","16363","6417","n","elianto","#f73b6a7A","-1","-1","1","0","[]","0","2","","","16363","53","0","4","lose","no-go","0"
"pit-trial","175","1467072","0.0-58.0","battery-v0.2","","""event"",""trial"",""time""
""fullscreenenter"",""1"",""1807""
","
","
","""event"",""trial"",""time""
""fullscreenenter"",""1"",""1807""
","
","","","711.2999999523163","","","23","16363","6417","f","elianto","#3366ff99"," "," ","1","0","[1561.7000000476837]","1","2","","","16363","54","1","1","win","go","1"
"pit-trial","176","1471953","0.0-59.0","battery-v0.2","","""event"",""trial"",""time""
""fullscreenenter"",""1"",""1807""
","
","
","""event"",""trial"",""time""
""fullscreenenter"",""1"",""1807""
","
","","","-1","","","23","16363","6417","t","elianto","#f73b6a7A","-1","-1","1","0","[]","0","2","","","16363","55","2","4","lose","no-go","0"
"pit-trial","177","1476824","0.0-60.0","battery-v0.2","","""event"",""trial"",""time""
""fullscreenenter"",""1"",""1807""
","
","
","""event"",""trial"",""time""
""fullscreenenter"",""1"",""1807""
","
","","","-1","","","23","16363","6417","c","elianto","#3366ff99","-1","-1","1","+10","[]","0","2","","","16363","56","4","2","win","no-go","0"
"pit-trial","178","1481689","0.0-61.0","battery-v0.2","","""event"",""trial"",""time""
""fullscreenenter"",""1"",""1807""
","
","
","""event"",""trial"",""time""
""fullscreenenter"",""1"",""1807""
","
","","","-1","","","23","16363","6417","c","elianto","#3366ff99","-1","-1","1","0","[]","0","2","","","16363","57","4","2","win","no-go","1"
"pit-trial","179","1485205","0.0-62.0","battery-v0.2","","""event"",""trial"",""time""
""fullscreenenter"",""1"",""1807""
","
","
","""event"",""trial"",""time""
""fullscreenenter"",""1"",""1807""
","
","","","648.2000000476837","","","23","16363","6417","f","elianto","#3366ff99"," "," ","1","+10","[1506]","1","2","","","16363","58","1","1","win","go","0"
"pit-trial","180","1490074","0.0-63.0","battery-v0.2","","""event"",""trial"",""time""
""fullscreenenter"",""1"",""1807""
","
","
","""event"",""trial"",""time""
""fullscreenenter"",""1"",""1807""
","
","","","-1","","","23","16363","6417","n","elianto","#f73b6a7A","-1","-1","1","0","[]","0","2","","","16363","59","0","4","lose","no-go","0"
"pit-trial","181","1493527","0.0-64.0","battery-v0.2","","""event"",""trial"",""time""
""fullscreenenter"",""1"",""1807""
","
","
","""event"",""trial"",""time""
""fullscreenenter"",""1"",""1807""
","
","","","587.8000001907349","","","23","16363","6417","b","elianto","#f73b6a7A"," "," ","1","0","[1441.5999999046326]","1","2","","","16363","60","3","3","lose","go","0"
"pit-trial","182","1498400","0.0-65.0","battery-v0.2","","""event"",""trial"",""time""
""fullscreenenter"",""1"",""1807""
","
","
","""event"",""trial"",""time""
""fullscreenenter"",""1"",""1807""
","
","","","-1","","","23","16363","6417","t","elianto","#f73b6a7A","-1","-1","1","-10","[]","0","2","","","16363","61","2","4","lose","no-go","1"
"pit-trial","183","1501934","0.0-66.0","battery-v0.2","","""event"",""trial"",""time""
""fullscreenenter"",""1"",""1807""
","
","
","""event"",""trial"",""time""
""fullscreenenter"",""1"",""1807""
","
","","","673.2000000476837","","","23","16363","6417","f","elianto","#3366ff99"," "," ","1","0","[1523.2999999523163]","1","2","","","16363","62","1","1","win","go","1"
"pit-trial","184","1505471","0.0-67.0","battery-v0.2","","""event"",""trial"",""time""
""fullscreenenter"",""1"",""1807""
","
","
","""event"",""trial"",""time""
""fullscreenenter"",""1"",""1807""
","
","","","682.6000001430511","","","23","16363","6417","b","elianto","#f73b6a7A"," "," ","1","-10","[1533]","1","2","","","16363","63","3","3","lose","go","1"
"pit-trial","185","1510348","0.0-68.0","battery-v0.2","","""event"",""trial"",""time""
""fullscreenenter"",""1"",""1807""
","
","
","""event"",""trial"",""time""
""fullscreenenter"",""1"",""1807""
","
","","","-1","","","23","16363","6417","c","elianto","#3366ff99","-1","-1","1","+10","[]","0","2","","","16363","64","4","2","win","no-go","0"
"pit-trial","186","1513895","0.0-69.0","battery-v0.2","","""event"",""trial"",""time""
""fullscreenenter"",""1"",""1807""
","
","
","""event"",""trial"",""time""
""fullscreenenter"",""1"",""1807""
","
","","","688","","","23","16363","6417","f","elianto","#3366ff99"," "," ","1","+10","[1540.2999999523163]","1","2","","","16363","65","1","1","win","go","0"
"pit-trial","187","1518762","0.0-70.0","battery-v0.2","","""event"",""trial"",""time""
""fullscreenenter"",""1"",""1807""
","
","
","""event"",""trial"",""time""
""fullscreenenter"",""1"",""1807""
","
","","","-1","","","23","16363","6417","c","elianto","#3366ff99","-1","-1","1","+10","[]","0","2","","","16363","66","4","2","win","no-go","0"
"pit-trial","188","1523630","0.0-71.0","battery-v0.2","","""event"",""trial"",""time""
""fullscreenenter"",""1"",""1807""
","
","
","""event"",""trial"",""time""
""fullscreenenter"",""1"",""1807""
","
","","","-1","","","23","16363","6417","t","elianto","#f73b6a7A","-1","-1","1","-10","[]","0","2","","","16363","67","2","4","lose","no-go","1"
"pit-trial","189","1527088","0.0-72.0","battery-v0.2","","""event"",""trial"",""time""
""fullscreenenter"",""1"",""1807""
","
","
","""event"",""trial"",""time""
""fullscreenenter"",""1"",""1807""
","
","","","601.3999998569489","","","23","16363","6417","b","elianto","#f73b6a7A"," "," ","1","0","[1452.3999998569489]","1","2","","","16363","68","3","3","lose","go","0"
"pit-trial","190","1530527","0.0-73.0","battery-v0.2","","""event"",""trial"",""time""
""fullscreenenter"",""1"",""1807""
","
","
","""event"",""trial"",""time""
""fullscreenenter"",""1"",""1807""
","
","","","581.4000000953674","","","23","16363","6417","f","elianto","#3366ff99"," "," ","1","0","[1434.7000000476837]","1","2","","","16363","69","1","1","win","go","1"
"pit-trial","191","1534430","0.0-74.0","battery-v0.2","","""event"",""trial"",""time""
""fullscreenenter"",""1"",""1807""
","
","
","""event"",""trial"",""time""
""fullscreenenter"",""1"",""1807""
","
","","","1045.4000000953674","","","23","16363","6417","z","elianto","#3366ff99"," "," ","1","+10","[1896.7000000476837]","1","2","","","16363","70","5","1","win","go","0"
"pit-trial","192","1539294","0.0-75.0","battery-v0.2","","""event"",""trial"",""time""
""fullscreenenter"",""1"",""1807""
","
","
","""event"",""trial"",""time""
""fullscreenenter"",""1"",""1807""
","
","","","-1","","","23","16363","6417","c","elianto","#3366ff99","-1","-1","1","+10","[]","0","2","","","16363","71","4","2","win","no-go","0"
"pit-trial","193","1542729","0.0-76.0","battery-v0.2","","""event"",""trial"",""time""
""fullscreenenter"",""1"",""1807""
","
","
","""event"",""trial"",""time""
""fullscreenenter"",""1"",""1807""
","
","","","572.7000000476837","","","23","16363","6417","b","elianto","#f73b6a7A"," "," ","1","0","[1426.4000000953674]","1","2","","","16363","72","3","3","lose","go","0"
"pit-trial","194","1546138","0.0-77.0","battery-v0.2","","""event"",""trial"",""time""
""fullscreenenter"",""1"",""1807""
","
","
","""event"",""trial"",""time""
""fullscreenenter"",""1"",""1807""
","
","","","548.0999999046326","","","23","16363","6417","f","elianto","#3366ff99"," "," ","1","+10","[1400.0999999046326]","1","2","","","16363","73","1","1","win","go","0"
"pit-trial","195","1549638","0.0-78.0","battery-v0.2","","""event"",""trial"",""time""
""fullscreenenter"",""1"",""1807""
","
","
","""event"",""trial"",""time""
""fullscreenenter"",""1"",""1807""
","
","","","635.5999999046326","","","23","16363","6417","b","elianto","#f73b6a7A"," "," ","1","0","[1491.5]","1","2","","","16363","74","3","3","lose","go","0"
"pit-trial","196","1554511","0.0-79.0","battery-v0.2","","""event"",""trial"",""time""
""fullscreenenter"",""1"",""1807""
","
","
","""event"",""trial"",""time""
""fullscreenenter"",""1"",""1807""
","
","","","-1","","","23","16363","6417","z","elianto","#3366ff99"," ","-1","0","+10","[3035.7999999523163]","1","2","","","16363","75","5","1","win","go","1"
"pit-trial","197","1559387","0.0-80.0","battery-v0.2","","""event"",""trial"",""time""
""fullscreenenter"",""1"",""1807""
","
","
","""event"",""trial"",""time""
""fullscreenenter"",""1"",""1807""
","
","","","-1","","","23","16363","6417","c","elianto","#3366ff99","-1","-1","1","+10","[]","0","2","","","16363","76","4","2","win","no-go","0"
"pit-trial","198","1563081","0.0-81.0","battery-v0.2","","""event"",""trial"",""time""
""fullscreenenter"",""1"",""1807""
","
","
","""event"",""trial"",""time""
""fullscreenenter"",""1"",""1807""
","
","","","831.8000001907349","","","23","16363","6417","z","elianto","#3366ff99"," "," ","1","0","[1686.2000000476837]","1","2","","","16363","77","5","1","win","go","1"
"pit-trial","199","1566578","0.0-82.0","battery-v0.2","","""event"",""trial"",""time""
""fullscreenenter"",""1"",""1807""
","
","
","""event"",""trial"",""time""
""fullscreenenter"",""1"",""1807""
","
","","","634.2999999523163","","","23","16363","6417","b","elianto","#f73b6a7A"," "," ","1","0","[1484.7000000476837]","1","2","","","16363","78","3","3","lose","go","0"
"pit-trial","200","1571438","0.0-83.0","battery-v0.2","","""event"",""trial"",""time""
""fullscreenenter"",""1"",""1807""
","
","
","""event"",""trial"",""time""
""fullscreenenter"",""1"",""1807""
","
","","","-1","","","23","16363","6417","h","elianto","#f73b6a7A","-1","-1","1","0","[]","0","2","","","16363","79","6","4","lose","no-go","0"
"pit-trial","201","1575044","0.0-84.0","battery-v0.2","","""event"",""trial"",""time""
""fullscreenenter"",""1"",""1807""
","
","
","""event"",""trial"",""time""
""fullscreenenter"",""1"",""1807""
","
","","","745","","","23","16363","6417","c","elianto","#3366ff99","-1"," ","0","0","[1599.5999999046326]","1","2","","","16363","80","4","2","win","no-go","0"
"pit-trial","202","1579903","0.0-85.0","battery-v0.2","","""event"",""trial"",""time""
""fullscreenenter"",""1"",""1807""
","
","
","""event"",""trial"",""time""
""fullscreenenter"",""1"",""1807""
","
","","","-1","","","23","16363","6417","h","elianto","#f73b6a7A","-1","-1","1","0","[]","0","2","","","16363","81","6","4","lose","no-go","0"
"pit-trial","203","1584140","0.0-86.0","battery-v0.2","","""event"",""trial"",""time""
""fullscreenenter"",""1"",""1807""
","
","
","""event"",""trial"",""time""
""fullscreenenter"",""1"",""1807""
","
","","","1377","","","23","16363","6417","y","elianto","#f73b6a7A"," "," ","1","0","[2232.7999999523163]","1","2","","","16363","82","7","3","lose","go","0"
"pit-trial","204","1589010","0.0-87.0","battery-v0.2","","""event"",""trial"",""time""
""fullscreenenter"",""1"",""1807""
","
","
","""event"",""trial"",""time""
""fullscreenenter"",""1"",""1807""
","
","","","-1","","","23","16363","6417","c","elianto","#3366ff99","-1","-1","1","+10","[]","0","2","","","16363","83","4","2","win","no-go","0"
"pit-trial","205","1593127","0.0-88.0","battery-v0.2","","""event"",""trial"",""time""
""fullscreenenter"",""1"",""1807""
","
","
","""event"",""trial"",""time""
""fullscreenenter"",""1"",""1807""
","
","","","1254.7999999523163","","","23","16363","6417","z","elianto","#3366ff99"," "," ","1","+10","[2106.0999999046326]","1","2","","","16363","84","5","1","win","go","0"
"pit-trial","206","1596634","0.0-89.0","battery-v0.2","","""event"",""trial"",""time""
""fullscreenenter"",""1"",""1807""
","
","
","""event"",""trial"",""time""
""fullscreenenter"",""1"",""1807""
","
","","","641.6000001430511","","","23","16363","6417","z","elianto","#3366ff99"," "," ","1","0","[1492.8999998569489]","1","2","","","16363","85","5","1","win","go","1"
"pit-trial","207","1601498","0.0-90.0","battery-v0.2","","""event"",""trial"",""time""
""fullscreenenter"",""1"",""1807""
","
","
","""event"",""trial"",""time""
""fullscreenenter"",""1"",""1807""
","
","","","-1","","","23","16363","6417","c","elianto","#3366ff99","-1","-1","1","+10","[]","0","2","","","16363","86","4","2","win","no-go","0"
"pit-trial","208","1605640","0.0-91.0","battery-v0.2","","""event"",""trial"",""time""
""fullscreenenter"",""1"",""1807""
","
","
","""event"",""trial"",""time""
""fullscreenenter"",""1"",""1807""
","
","","","1278.5999999046326","","","23","16363","6417","y","elianto","#f73b6a7A"," "," ","1","0","[2135.5]","1","2","","","16363","87","7","3","lose","go","0"
"pit-trial","209","1610509","0.0-92.0","battery-v0.2","","""event"",""trial"",""time""
""fullscreenenter"",""1"",""1807""
","
","
","""event"",""trial"",""time""
""fullscreenenter"",""1"",""1807""
","
","","","-1","","","23","16363","6417","h","elianto","#f73b6a7A","-1","-1","1","0","[]","0","2","","","16363","88","6","4","lose","no-go","0"
"pit-trial","210","1615033","0.0-93.0","battery-v0.2","","""event"",""trial"",""time""
""fullscreenenter"",""1"",""1807""
","
","
","""event"",""trial"",""time""
""fullscreenenter"",""1"",""1807""
","
","","","1666.6999998092651","","","23","16363","6417","h","elianto","#f73b6a7A","-1"," ","0","-10","[2517.899999856949]","1","2","","","16363","89","6","4","lose","no-go","0"
"pit-trial","211","1619909","0.0-94.0","battery-v0.2","","""event"",""trial"",""time""
""fullscreenenter"",""1"",""1807""
","
","
","""event"",""trial"",""time""
""fullscreenenter"",""1"",""1807""
","
","","","-1","","","23","16363","6417","z","elianto","#3366ff99"," ","-1","0","0","[]","0","2","","","16363","90","5","1","win","go","0"
"pit-trial","212","1624770","0.0-95.0","battery-v0.2","","""event"",""trial"",""time""
""fullscreenenter"",""1"",""1807""
","
","
","""event"",""trial"",""time""
""fullscreenenter"",""1"",""1807""
","
","","","-1","","","23","16363","6417","c","elianto","#3366ff99","-1","-1","1","0","[]","0","2","","","16363","91","4","2","win","no-go","1"
"pit-trial","213","1629232","0.0-96.0","battery-v0.2","","""event"",""trial"",""time""
""fullscreenenter"",""1"",""1807""
","
","
","""event"",""trial"",""time""
""fullscreenenter"",""1"",""1807""
","
","","","1592.7000000476837","","","23","16363","6417","y","elianto","#f73b6a7A"," "," ","1","0","[2445.100000143051]","1","2","","","16363","92","7","3","lose","go","0"
"pit-trial","214","1632983","0.0-97.0","battery-v0.2","","""event"",""trial"",""time""
""fullscreenenter"",""1"",""1807""
","
","
","""event"",""trial"",""time""
""fullscreenenter"",""1"",""1807""
","
","","","890.7000000476837","","","23","16363","6417","y","elianto","#f73b6a7A"," "," ","1","0","[1747.5]","1","2","","","16363","93","7","3","lose","go","0"
"pit-trial","215","1637274","0.0-98.0","battery-v0.2","","""event"",""trial"",""time""
""fullscreenenter"",""1"",""1807""
","
","
","""event"",""trial"",""time""
""fullscreenenter"",""1"",""1807""
","
","","","1427.5","","","23","16363","6417","r","elianto","#3366ff99","-1"," ","0","0","[2281.0999999046326]","1","2","","","16363","94","8","2","win","no-go","0"
"pit-trial","216","1641629","0.0-99.0","battery-v0.2","","""event"",""trial"",""time""
""fullscreenenter"",""1"",""1807""
","
","
","""event"",""trial"",""time""
""fullscreenenter"",""1"",""1807""
","
","","","1495.2000000476837","","","23","16363","6417","z","elianto","#3366ff99"," "," ","1","+10","[2346.399999856949]","1","2","","","16363","95","5","1","win","go","0"
"pit-trial","217","1646490","0.0-100.0","battery-v0.2","","""event"",""trial"",""time""
""fullscreenenter"",""1"",""1807""
","
","
","""event"",""trial"",""time""
""fullscreenenter"",""1"",""1807""
","
","","","-1","","","23","16363","6417","h","elianto","#f73b6a7A","-1","-1","1","-10","[]","0","2","","","16363","96","6","4","lose","no-go","1"
"pit-trial","218","1651357","0.0-101.0","battery-v0.2","","""event"",""trial"",""time""
""fullscreenenter"",""1"",""1807""
","
","
","""event"",""trial"",""time""
""fullscreenenter"",""1"",""1807""
","
","","","-1","","","23","16363","6417","z","elianto","#3366ff99"," ","-1","0","0","[]","0","2","","","16363","97","5","1","win","go","0"
"pit-trial","219","1656232","0.0-102.0","battery-v0.2","","""event"",""trial"",""time""
""fullscreenenter"",""1"",""1807""
","
","
","""event"",""trial"",""time""
""fullscreenenter"",""1"",""1807""
","
","","","-1","","","23","16363","6417","r","elianto","#3366ff99","-1","-1","1","+10","[2881]","1","2","","","16363","98","8","2","win","no-go","0"
"pit-trial","220","1660056","0.0-103.0","battery-v0.2","","""event"",""trial"",""time""
""fullscreenenter"",""1"",""1807""
","
","
","""event"",""trial"",""time""
""fullscreenenter"",""1"",""1807""
","
","","","962.7000000476837","","","23","16363","6417","y","elianto","#f73b6a7A"," "," ","1","-10","[1818.6000001430511]","1","2","","","16363","99","7","3","lose","go","1"
"pit-trial","221","1664432","0.0-104.0","battery-v0.2","","""event"",""trial"",""time""
""fullscreenenter"",""1"",""1807""
","
","
","""event"",""trial"",""time""
""fullscreenenter"",""1"",""1807""
","
","","","1505.7000000476837","","","23","16363","6417","h","elianto","#f73b6a7A","-1"," ","0","-10","[2357.0999999046326]","1","2","","","16363","100","6","4","lose","no-go","0"
"pit-trial","222","1669311","0.0-105.0","battery-v0.2","","""event"",""trial"",""time""
""fullscreenenter"",""1"",""1807""
","
","
","""event"",""trial"",""time""
""fullscreenenter"",""1"",""1807""
","
","","","-1","","","23","16363","6417","h","elianto","#f73b6a7A","-1","-1","1","0","[]","0","2","","","16363","101","6","4","lose","no-go","0"
"pit-trial","223","1674065","0.0-106.0","battery-v0.2","","""event"",""trial"",""time""
""fullscreenenter"",""1"",""1807""
","
","
","""event"",""trial"",""time""
""fullscreenenter"",""1"",""1807""
","
","","","1899.1999998092651","","","23","16363","6417","r","elianto","#3366ff99","-1"," ","0","+10","[2750]","1","2","","","16363","102","8","2","win","no-go","1"
"pit-trial","224","1678939","0.0-107.0","battery-v0.2","","""event"",""trial"",""time""
""fullscreenenter"",""1"",""1807""
","
","
","""event"",""trial"",""time""
""fullscreenenter"",""1"",""1807""
","
","","","-1","","","23","16363","6417","m","elianto","#3366ff99","-1","-1","1","0","[]","0","2","","","16363","103","9","2","win","no-go","1"
"pit-trial","225","1683682","0.0-108.0","battery-v0.2","","""event"",""trial"",""time""
""fullscreenenter"",""1"",""1807""
","
","
","""event"",""trial"",""time""
""fullscreenenter"",""1"",""1807""
","
","","","1878.2000000476837","","","23","16363","6417","z","elianto","#3366ff99"," "," ","1","+10","[2728.2999999523163]","1","2","","","16363","104","5","1","win","go","0"
"pit-trial","226","1688547","0.0-109.0","battery-v0.2","","""event"",""trial"",""time""
""fullscreenenter"",""1"",""1807""
","
","
","""event"",""trial"",""time""
""fullscreenenter"",""1"",""1807""
","
","","","-1","","","23","16363","6417","m","elianto","#3366ff99","-1","-1","1","+10","[]","0","2","","","16363","105","9","2","win","no-go","0"
"pit-trial","227","1693418","0.0-110.0","battery-v0.2","","""event"",""trial"",""time""
""fullscreenenter"",""1"",""1807""
","
","
","""event"",""trial"",""time""
""fullscreenenter"",""1"",""1807""
","
","","","-1","","","23","16363","6417","z","elianto","#3366ff99"," ","-1","0","0","[3003.5]","1","2","","","16363","106","5","1","win","go","0"
"pit-trial","228","1698043","0.0-111.0","battery-v0.2","","""event"",""trial"",""time""
""fullscreenenter"",""1"",""1807""
","
","
","""event"",""trial"",""time""
""fullscreenenter"",""1"",""1807""
","
","","","1759.7999999523163","","","23","16363","6417","r","elianto","#3366ff99","-1"," ","0","0","[2611.9000000953674]","1","2","","","16363","107","8","2","win","no-go","0"
"pit-trial","229","1702909","0.0-112.0","battery-v0.2","","""event"",""trial"",""time""
""fullscreenenter"",""1"",""1807""
","
","
","""event"",""trial"",""time""
""fullscreenenter"",""1"",""1807""
","
","","","-1","","","23","16363","6417","h","elianto","#f73b6a7A","-1","-1","1","0","[]","0","2","","","16363","108","6","4","lose","no-go","0"
"pit-trial","230","1707765","0.0-113.0","battery-v0.2","","""event"",""trial"",""time""
""fullscreenenter"",""1"",""1807""
","
","
","""event"",""trial"",""time""
""fullscreenenter"",""1"",""1807""
","
","","","-1","","","23","16363","6417","h","elianto","#f73b6a7A","-1","-1","1","0","[]","0","2","","","16363","109","6","4","lose","no-go","0"
"pit-trial","231","1711664","0.0-114.0","battery-v0.2","","""event"",""trial"",""time""
""fullscreenenter"",""1"",""1807""
","
","
","""event"",""trial"",""time""
""fullscreenenter"",""1"",""1807""
","
","","","1039.5","","","23","16363","6417","z","elianto","#3366ff99"," "," ","1","+10","[1891.1999998092651]","1","2","","","16363","110","5","1","win","go","0"
"pit-trial","232","1716534","0.0-115.0","battery-v0.2","","""event"",""trial"",""time""
""fullscreenenter"",""1"",""1807""
","
","
","""event"",""trial"",""time""
""fullscreenenter"",""1"",""1807""
","
","","","-1","","","23","16363","6417","r","elianto","#3366ff99","-1","-1","1","+10","[]","0","2","","","16363","111","8","2","win","no-go","0"
"pit-trial","233","1720763","0.0-116.0","battery-v0.2","","""event"",""trial"",""time""
""fullscreenenter"",""1"",""1807""
","
","
","""event"",""trial"",""time""
""fullscreenenter"",""1"",""1807""
","
","","","1367.7999999523163","","","23","16363","6417","m","elianto","#3366ff99","-1"," ","0","0","[2219.4000000953674]","1","2","","","16363","112","9","2","win","no-go","0"
"pit-trial","234","1725632","0.0-117.0","battery-v0.2","","""event"",""trial"",""time""
""fullscreenenter"",""1"",""1807""
","
","
","""event"",""trial"",""time""
""fullscreenenter"",""1"",""1807""
","
","","","-1","","","23","16363","6417","m","elianto","#3366ff99","-1","-1","1","0","[]","0","2","","","16363","113","9","2","win","no-go","1"
"pit-trial","235","1730496","0.0-118.0","battery-v0.2","","""event"",""trial"",""time""
""fullscreenenter"",""1"",""1807""
","
","
","""event"",""trial"",""time""
""fullscreenenter"",""1"",""1807""
","
","","","-1","","","23","16363","6417","r","elianto","#3366ff99","-1","-1","1","+10","[]","0","2","","","16363","114","8","2","win","no-go","0"
"pit-trial","236","1735358","0.0-119.0","battery-v0.2","","""event"",""trial"",""time""
""fullscreenenter"",""1"",""1807""
","
","
","""event"",""trial"",""time""
""fullscreenenter"",""1"",""1807""
","
","","","-1","","","23","16363","6417","y","elianto","#f73b6a7A"," ","-1","0","-10","[]","0","2","","","16363","115","7","3","lose","go","0"
"pit-trial","237","1739177","0.0-120.0","battery-v0.2","","""event"",""trial"",""time""
""fullscreenenter"",""1"",""1807""
","
","
","""event"",""trial"",""time""
""fullscreenenter"",""1"",""1807""
","
","","","954.7999999523163","","","23","16363","6417","z","elianto","#3366ff99"," "," ","1","+10","[1810.2999999523163]","1","2","","","16363","116","5","1","win","go","0"
"pit-trial","238","1744046","0.0-121.0","battery-v0.2","","""event"",""trial"",""time""
""fullscreenenter"",""1"",""1807""
","
","
","""event"",""trial"",""time""
""fullscreenenter"",""1"",""1807""
","
","","","-1","","","23","16363","6417","r","elianto","#3366ff99","-1","-1","1","+10","[]","0","2","","","16363","117","8","2","win","no-go","0"
"pit-trial","239","1748903","0.0-122.0","battery-v0.2","","""event"",""trial"",""time""
""fullscreenenter"",""1"",""1807""
","
","
","""event"",""trial"",""time""
""fullscreenenter"",""1"",""1807""
","
","","","-1","","","23","16363","6417","h","elianto","#f73b6a7A","-1","-1","1","-10","[]","0","2","","","16363","118","6","4","lose","no-go","1"
"pit-trial","240","1752450","0.0-123.0","battery-v0.2","","""event"",""trial"",""time""
""fullscreenenter"",""1"",""1807""
","
","
","""event"",""trial"",""time""
""fullscreenenter"",""1"",""1807""
","
","","","689.6999998092651","","","23","16363","6417","m","elianto","#3366ff99","-1"," ","0","0","[1540.2999999523163]","1","2","","","16363","119","9","2","win","no-go","0"
"pit-trial","241","1756007","0.0-124.0","battery-v0.2","","""event"",""trial"",""time""
""fullscreenenter"",""1"",""1807""
","
","
","""event"",""trial"",""time""
""fullscreenenter"",""1"",""1807""
","
","","","702.9000000953674","","","23","16363","6417","z","elianto","#3366ff99"," "," ","1","+10","[1554.7000000476837]","1","2","","","16363","120","5","1","win","go","0"
"pit-trial","242","1760607","0.0-125.0","battery-v0.2","","""event"",""trial"",""time""
""fullscreenenter"",""1"",""1807""
","
","
","""event"",""trial"",""time""
""fullscreenenter"",""1"",""1807""
","
","","","1740","","","23","16363","6417","m","elianto","#3366ff99","-1"," ","0","+10","[2596.600000143051]","1","2","","","16363","121","9","2","win","no-go","1"
"pit-trial","243","1764016","0.0-126.0","battery-v0.2","","""event"",""trial"",""time""
""fullscreenenter"",""1"",""1807""
","
","
","""event"",""trial"",""time""
""fullscreenenter"",""1"",""1807""
","
","","","545.9000000953674","","","23","16363","6417","z","elianto","#3366ff99"," "," ","1","+10","[1399]","1","2","","","16363","122","5","1","win","go","0"
"pit-trial","244","1767905","0.0-127.0","battery-v0.2","","""event"",""trial"",""time""
""fullscreenenter"",""1"",""1807""
","
","
","""event"",""trial"",""time""
""fullscreenenter"",""1"",""1807""
","
","","","1022.6000001430511","","","23","16363","6417","y","elianto","#f73b6a7A"," "," ","1","0","[1874.3000001907349]","1","2","","","16363","123","7","3","lose","go","0"
"pit-trial","245","1772775","0.0-128.0","battery-v0.2","","""event"",""trial"",""time""
""fullscreenenter"",""1"",""1807""
","
","
","""event"",""trial"",""time""
""fullscreenenter"",""1"",""1807""
","
","","","-1","","","23","16363","6417","r","elianto","#3366ff99","-1","-1","1","+10","[]","0","2","","","16363","124","8","2","win","no-go","0"
"pit-trial","246","1777425","0.0-129.0","battery-v0.2","","""event"",""trial"",""time""
""fullscreenenter"",""1"",""1807""
","
","
","""event"",""trial"",""time""
""fullscreenenter"",""1"",""1807""
","
","","","1790.2999999523163","","","23","16363","6417","m","elianto","#3366ff99","-1"," ","0","0","[2642.2999999523163]","1","2","","","16363","125","9","2","win","no-go","0"
"pit-trial","247","1780881","0.0-130.0","battery-v0.2","","""event"",""trial"",""time""
""fullscreenenter"",""1"",""1807""
","
","
","""event"",""trial"",""time""
""fullscreenenter"",""1"",""1807""
","
","","","596.8999998569489","","","23","16363","6417","y","elianto","#f73b6a7A"," "," ","1","0","[1451.5999999046326]","1","2","","","16363","126","7","3","lose","go","0"
"pit-trial","248","1784976","0.0-131.0","battery-v0.2","","""event"",""trial"",""time""
""fullscreenenter"",""1"",""1807""
","
","
","""event"",""trial"",""time""
""fullscreenenter"",""1"",""1807""
","
","","","1237.2999999523163","","","23","16363","6417","r","elianto","#3366ff99","-1"," ","0","0","[2088.9000000953674]","1","2","","","16363","127","8","2","win","no-go","0"
"pit-trial","249","1789837","0.0-132.0","battery-v0.2","","""event"",""trial"",""time""
""fullscreenenter"",""1"",""1807""
","
","
","""event"",""trial"",""time""
""fullscreenenter"",""1"",""1807""
","
","","","-1","","","23","16363","6417","h","elianto","#f73b6a7A","-1","-1","1","0","[]","0","2","","","16363","128","6","4","lose","no-go","0"
"pit-trial","250","1793295","0.0-133.0","battery-v0.2","","""event"",""trial"",""time""
""fullscreenenter"",""1"",""1807""
","
","
","""event"",""trial"",""time""
""fullscreenenter"",""1"",""1807""
","
","","","591.8999998569489","","","23","16363","6417","y","elianto","#f73b6a7A"," "," ","1","0","[1448.2999999523163]","1","2","","","16363","129","7","3","lose","go","0"
"pit-trial","251","1798165","0.0-134.0","battery-v0.2","","""event"",""trial"",""time""
""fullscreenenter"",""1"",""1807""
","
","
","""event"",""trial"",""time""
""fullscreenenter"",""1"",""1807""
","
","","","-1","","","23","16363","6417","h","elianto","#f73b6a7A","-1","-1","1","0","[]","0","2","","","16363","130","6","4","lose","no-go","0"
"pit-trial","252","1803033","0.0-135.0","battery-v0.2","","""event"",""trial"",""time""
""fullscreenenter"",""1"",""1807""
","
","
","""event"",""trial"",""time""
""fullscreenenter"",""1"",""1807""
","
","","","-1","","","23","16363","6417","r","elianto","#3366ff99","-1","-1","1","+10","[]","0","2","","","16363","131","8","2","win","no-go","0"
"pit-trial","253","1807159","0.0-136.0","battery-v0.2","","""event"",""trial"",""time""
""fullscreenenter"",""1"",""1807""
","
","
","""event"",""trial"",""time""
""fullscreenenter"",""1"",""1807""
","
","","","1264","","","23","16363","6417","m","elianto","#3366ff99","-1"," ","0","0","[2118.800000190735]","1","2","","","16363","132","9","2","win","no-go","0"
"pit-trial","254","1811210","0.0-137.0","battery-v0.2","","""event"",""trial"",""time""
""fullscreenenter"",""1"",""1807""
","
","
","""event"",""trial"",""time""
""fullscreenenter"",""1"",""1807""
","
","","","1191.5999999046326","","","23","16363","6417","r","elianto","#3366ff99","-1"," ","0","0","[2044.6999998092651]","1","2","","","16363","133","8","2","win","no-go","0"
"pit-trial","255","1816075","0.0-138.0","battery-v0.2","","""event"",""trial"",""time""
""fullscreenenter"",""1"",""1807""
","
","
","""event"",""trial"",""time""
""fullscreenenter"",""1"",""1807""
","
","","","-1","","","23","16363","6417","h","elianto","#f73b6a7A","-1","-1","1","0","[]","0","2","","","16363","134","6","4","lose","no-go","0"
"pit-trial","256","1819690","0.0-139.0","battery-v0.2","","""event"",""trial"",""time""
""fullscreenenter"",""1"",""1807""
","
","
","""event"",""trial"",""time""
""fullscreenenter"",""1"",""1807""
","
","","","755.0999999046326","","","23","16363","6417","y","elianto","#f73b6a7A"," "," ","1","-10","[1608]","1","2","","","16363","135","7","3","lose","go","1"
"pit-trial","257","1824554","0.0-140.0","battery-v0.2","","""event"",""trial"",""time""
""fullscreenenter"",""1"",""1807""
","
","
","""event"",""trial"",""time""
""fullscreenenter"",""1"",""1807""
","
","","","-1","","","23","16363","6417","m","elianto","#3366ff99","-1","-1","1","+10","[]","0","2","","","16363","136","9","2","win","no-go","0"
"pit-trial","258","1829432","0.0-141.0","battery-v0.2","","""event"",""trial"",""time""
""fullscreenenter"",""1"",""1807""
","
","
","""event"",""trial"",""time""
""fullscreenenter"",""1"",""1807""
","
","","","-1","","","23","16363","6417","r","elianto","#3366ff99","-1","-1","1","0","[]","0","2","","","16363","137","8","2","win","no-go","1"
"pit-trial","259","1834290","0.0-142.0","battery-v0.2","","""event"",""trial"",""time""
""fullscreenenter"",""1"",""1807""
","
","
","""event"",""trial"",""time""
""fullscreenenter"",""1"",""1807""
","
","","","-1","","","23","16363","6417","h","elianto","#f73b6a7A","-1","-1","1","0","[]","0","2","","","16363","138","6","4","lose","no-go","0"
"pit-trial","260","1838687","0.0-143.0","battery-v0.2","","""event"",""trial"",""time""
""fullscreenenter"",""1"",""1807""
","
","
","""event"",""trial"",""time""
""fullscreenenter"",""1"",""1807""
","
","","","1535","","","23","16363","6417","m","elianto","#3366ff99","-1"," ","0","0","[2386.600000143051]","1","2","","","16363","139","9","2","win","no-go","0"
"pit-trial","261","1843560","0.0-144.0","battery-v0.2","","""event"",""trial"",""time""
""fullscreenenter"",""1"",""1807""
","
","
","""event"",""trial"",""time""
""fullscreenenter"",""1"",""1807""
","
","","","-1","","","23","16363","6417","y","elianto","#f73b6a7A"," ","-1","0","0","[]","0","2","","","16363","140","7","3","lose","go","1"
"pit-instructions","262","1967047","0.0-145.0","battery-v0.2","","""event"",""trial"",""time""
""fullscreenenter"",""1"",""1807""
","
","
","""event"",""trial"",""time""
""fullscreenenter"",""1"",""1807""
","
","","[{""page_index"":0,""viewing_time"":113972},{""page_index"":1,""viewing_time"":9512.099999904633}]","123484.5","","","","","","","","","","","","","","","","","","","","","","","",""
"pit-trial","263","1970787","0.0-146.0","battery-v0.2","","""event"",""trial"",""time""
""fullscreenenter"",""1"",""1807""
","
","
","""event"",""trial"",""time""
""fullscreenenter"",""1"",""1807""
","
","","","880.3000001907349","","","23","16363","6417","d","elianto","#3366ff99","-1"," ","0","0","[1734.5]","1","3","","","16363","141","1","2","win","no-go","0"
"pit-trial","264","1975665","0.0-147.0","battery-v0.2","","""event"",""trial"",""time""
""fullscreenenter"",""1"",""1807""
","
","
","""event"",""trial"",""time""
""fullscreenenter"",""1"",""1807""
","
","","","-1","","","23","16363","6417","e","elianto","#f73b6a7A"," ","-1","0","0","[]","0","3","","","16363","142","2","3","lose","go","1"
"pit-trial","265","1979846","0.0-148.0","battery-v0.2","","""event"",""trial"",""time""
""fullscreenenter"",""1"",""1807""
","
","
","""event"",""trial"",""time""
""fullscreenenter"",""1"",""1807""
","
","","","1321.5","","","23","16363","6417","j","elianto","#f73b6a7A"," "," ","1","0","[2174.0999999046326]","1","3","","","16363","143","0","3","lose","go","0"
"pit-trial","266","1984287","0.0-149.0","battery-v0.2","","""event"",""trial"",""time""
""fullscreenenter"",""1"",""1807""
","
","
","""event"",""trial"",""time""
""fullscreenenter"",""1"",""1807""
","
","","","1574.6999998092651","","","23","16363","6417","w","elianto","#f73b6a7A","-1"," ","0","0","[2429.9000000953674]","1","3","","","16363","144","3","4","lose","no-go","1"
"pit-trial","267","1989162","0.0-150.0","battery-v0.2","","""event"",""trial"",""time""
