"trial_type","trial_index","time_elapsed","internal_node_id","task_version","subject_id","interactions","blur_events","focus_events","fullscreenenter_events","fullscreenexit_events","success","view_history","rt","responses","num_errors","age","subject","participantId","rune","rune_set","hex","correct","choice","accuracy","outcome","keys","total_keys","block","practice","value","sub","trial","stimulus","robot","valence","action","sham"
"pavlovia","0","3","0.0-0.0","battery-v0.2","","""event"",""trial"",""time""
""fullscreenenter"",""1"",""2874""
","
","
","""event"",""trial"",""time""
""fullscreenenter"",""1"",""2874""
","
","","","","","","","","","","","","","","","","","","","","","","","","","","",""
"fullscreen","1","3861","0.0-1.0","battery-v0.2","","""event"",""trial"",""time""
""fullscreenenter"",""1"",""2874""
","
","
","""event"",""trial"",""time""
""fullscreenenter"",""1"",""2874""
","
","true","","","","","","","","","","","","","","","","","","","","","","","","","",""
"pit-instructions","2","6937","0.0-2.0-0.0","battery-v0.2","","""event"",""trial"",""time""
""fullscreenenter"",""1"",""2874""
","
","
","""event"",""trial"",""time""
""fullscreenenter"",""1"",""2874""
","
","","[{""page_index"":0,""viewing_time"":3068.800000000745}]","3069.2000000011176","","","","","","","","","","","","","","","","","","","","","","","",""
"pit-comprehension","3","10025","0.0-2.0-1.0-0.0","battery-v0.2","","""event"",""trial"",""time""
""fullscreenenter"",""1"",""2874""
","
","
","""event"",""trial"",""time""
""fullscreenenter"",""1"",""2874""
","
","","","3085.0999999996275","[""shark""]","0","11","3561","2287","","","","","","","","","","","","","","","","","","",""
"pit-instructions","4","11711","0.0-2.0-1.0-1.0","battery-v0.2","","""event"",""trial"",""time""
""fullscreenenter"",""1"",""2874""
","
","
","""event"",""trial"",""time""
""fullscreenenter"",""1"",""2874""
","
","","[{""page_index"":0,""viewing_time"":1675.5999999996275}]","1676.199999999255","","","","","","","","","","","","","","","","","","","","","","","",""
"pit-comprehension","5","14481","0.0-2.0-2.0-0.0","battery-v0.2","","""event"",""trial"",""time""
""fullscreenenter"",""1"",""2874""
","
","
","""event"",""trial"",""time""
""fullscreenenter"",""1"",""2874""
","
","","","2764.4000000003725","[""tiger""]","0","11","3561","2287","","","","","","","","","","","","","","","","","","",""
"pit-instructions","6","17521","0.0-2.0-2.0-1.0","battery-v0.2","","""event"",""trial"",""time""
""fullscreenenter"",""1"",""2874""
","
","
","""event"",""trial"",""time""
""fullscreenenter"",""1"",""2874""
","
","","[{""page_index"":0,""viewing_time"":3035.2000000011176}]","3036","","","","","","","","","","","","","","","","","","","","","","","",""
"pit-instructions","7","116036","0.0-2.0-3.0","battery-v0.2","","""event"",""trial"",""time""
""fullscreenenter"",""1"",""2874""
","
","
","""event"",""trial"",""time""
""fullscreenenter"",""1"",""2874""
","
","","[{""page_index"":0,""viewing_time"":7967},{""page_index"":1,""viewing_time"":7163.5},{""page_index"":2,""viewing_time"":6517.39999999851},{""page_index"":3,""viewing_time"":7790.4000000003725},{""page_index"":4,""viewing_time"":6254.4000000003725},{""page_index"":5,""viewing_time"":5991.5999999996275},{""page_index"":6,""viewing_time"":6951.800000000745},{""page_index"":7,""viewing_time"":7466.9000000003725},{""page_index"":8,""viewing_time"":6295.199999999255},{""page_index"":9,""viewing_time"":8911.699999999255},{""page_index"":10,""viewing_time"":8072.700000001118},{""page_index"":11,""viewing_time"":7831.199999999255},{""page_index"":12,""viewing_time"":6143.0999999996275},{""page_index"":13,""viewing_time"":5153.300000000745}]","98510.89999999851","","","","","","","","","","","","","","","","","","","","","","","",""
"pit-trial","8","119453","0.0-2.0-4.0-0.0","battery-v0.2","","""event"",""trial"",""time""
""fullscreenenter"",""1"",""2874""
","
","
","""event"",""trial"",""time""
""fullscreenenter"",""1"",""2874""
","
","","","555.4000000003725","","","11","3561","2287","&#9784;","elianto","#FFFFF080"," "," ","1","&#10004","[1405.5]","1","0","0","","","","","","","",""
"pit-trial","9","122693","0.0-2.0-4.1-0.1","battery-v0.2","","""event"",""trial"",""time""
""fullscreenenter"",""1"",""2874""
","
","
","""event"",""trial"",""time""
""fullscreenenter"",""1"",""2874""
","
","","","383.5","","","11","3561","2287","&#9784;","elianto","#FFFFF080"," "," ","1","&#10004","[1234.9000000003725]","1","0","0","","","","","","","",""
"pit-trial","10","125933","0.0-2.0-4.2-0.2","battery-v0.2","","""event"",""trial"",""time""
""fullscreenenter"",""1"",""2874""
","
","
","""event"",""trial"",""time""
""fullscreenenter"",""1"",""2874""
","
","","","375.6000000014901","","","11","3561","2287","&#9784;","elianto","#FFFFF080"," "," ","1","&#10004","[1227.8999999985099]","1","0","0","","","","","","","",""
"pit-trial","11","129117","0.0-2.0-4.3-0.3","battery-v0.2","","""event"",""trial"",""time""
""fullscreenenter"",""1"",""2874""
","
","
","""event"",""trial"",""time""
""fullscreenenter"",""1"",""2874""
","
","","","326.5","","","11","3561","2287","&#9784;","elianto","#FFFFF080"," "," ","1","&#10004","[1178.0999999996275]","1","0","0","","","","","","","",""
"pit-trial","12","132365","0.0-2.0-4.4-0.4","battery-v0.2","","""event"",""trial"",""time""
""fullscreenenter"",""1"",""2874""
","
","
","""event"",""trial"",""time""
""fullscreenenter"",""1"",""2874""
","
","","","390.5","","","11","3561","2287","&#9784;","elianto","#FFFFF080"," "," ","1","&#10004","[1240.7999999988824]","1","0","0","","","","","","","",""
"pit-instructions","13","153886","0.0-2.0-5.0","battery-v0.2","","""event"",""trial"",""time""
""fullscreenenter"",""1"",""2874""
","
","
","""event"",""trial"",""time""
""fullscreenenter"",""1"",""2874""
","
","","[{""page_index"":0,""viewing_time"":5026.9000000003725},{""page_index"":1,""viewing_time"":5768.9000000003725},{""page_index"":2,""viewing_time"":4617.5},{""page_index"":3,""viewing_time"":6102.699999999255}]","21516.5","","","","","","","","","","","","","","","","","","","","","","","",""
"pit-trial","14","158749","0.0-2.0-6.0-0.0","battery-v0.2","","""event"",""trial"",""time""
""fullscreenenter"",""1"",""2874""
","
","
","""event"",""trial"",""time""
""fullscreenenter"",""1"",""2874""
","
","","","-1","","","11","3561","2287","&#9854;","elianto","#FFFFF080","-1","-1","1","&#10004","[]","0","0","1","","","","","","","",""
"pit-trial","15","163613","0.0-2.0-6.1-0.1","battery-v0.2","","""event"",""trial"",""time""
""fullscreenenter"",""1"",""2874""
","
","
","""event"",""trial"",""time""
""fullscreenenter"",""1"",""2874""
","
","","","-1","","","11","3561","2287","&#9854;","elianto","#FFFFF080","-1","-1","1","&#10004","[]","0","0","1","","","","","","","",""
"pit-trial","16","168477","0.0-2.0-6.2-0.2","battery-v0.2","","""event"",""trial"",""time""
""fullscreenenter"",""1"",""2874""
","
","
","""event"",""trial"",""time""
""fullscreenenter"",""1"",""2874""
","
","","","-1","","","11","3561","2287","&#9854;","elianto","#FFFFF080","-1","-1","1","&#10004","[]","0","0","1","","","","","","","",""
"pit-trial","17","173341","0.0-2.0-6.3-0.3","battery-v0.2","","""event"",""trial"",""time""
""fullscreenenter"",""1"",""2874""
","
","
","""event"",""trial"",""time""
""fullscreenenter"",""1"",""2874""
","
","","","-1","","","11","3561","2287","&#9854;","elianto","#FFFFF080","-1","-1","1","&#10004","[]","0","0","1","","","","","","","",""
"pit-trial","18","178205","0.0-2.0-6.4-0.4","battery-v0.2","","""event"",""trial"",""time""
""fullscreenenter"",""1"",""2874""
","
","
","""event"",""trial"",""time""
""fullscreenenter"",""1"",""2874""
","
","","","-1","","","11","3561","2287","&#9854;","elianto","#FFFFF080","-1","-1","1","&#10004","[]","0","0","1","","","","","","","",""
"pit-instructions","19","290309","0.0-2.0-7.0","battery-v0.2","","""event"",""trial"",""time""
""fullscreenenter"",""1"",""2874""
","
","
","""event"",""trial"",""time""
""fullscreenenter"",""1"",""2874""
","
","","[{""page_index"":0,""viewing_time"":5604.300000000745},{""page_index"":1,""viewing_time"":6908.4000000003725},{""page_index"":2,""viewing_time"":5806.39999999851},{""page_index"":3,""viewing_time"":5954.10000000149},{""page_index"":4,""viewing_time"":5510.199999999255},{""page_index"":5,""viewing_time"":5521.0999999996275},{""page_index"":6,""viewing_time"":4448.200000001118},{""page_index"":7,""viewing_time"":7577.5},{""page_index"":8,""viewing_time"":6612.89999999851},{""page_index"":9,""viewing_time"":5894},{""page_index"":10,""viewing_time"":6120.60000000149},{""page_index"":11,""viewing_time"":4418.299999998882},{""page_index"":12,""viewing_time"":6613.200000001118},{""page_index"":13,""viewing_time"":6986.799999998882},{""page_index"":14,""viewing_time"":6888.700000001118},{""page_index"":15,""viewing_time"":6808.799999998882},{""page_index"":16,""viewing_time"":6504.700000001118},{""page_index"":17,""viewing_time"":7921.199999999255}]","112100.30000000075","","","","","","","","","","","","","","","","","","","","","","","",""
"pit-trial","20","293669","0.0-2.0-8.0-0.0","battery-v0.2","","""event"",""trial"",""time""
""fullscreenenter"",""1"",""2874""
","
","
","""event"",""trial"",""time""
""fullscreenenter"",""1"",""2874""
","
","","","498.5","","","11","3561","2287","&#9776;","elianto","#3366ff99"," "," ","1","+10","[1351.5999999996275]","1","0","1","","","","","","","",""
"pit-trial","21","296885","0.0-2.0-8.0-1.0","battery-v0.2","","""event"",""trial"",""time""
""fullscreenenter"",""1"",""2874""
","
","
","""event"",""trial"",""time""
""fullscreenenter"",""1"",""2874""
","
","","","352.80000000074506","","","11","3561","2287","&#9776;","elianto","#3366ff99"," "," ","1","+10","[1206.300000000745]","1","0","1","","","","","","","",""
"pit-trial","22","299933","0.0-2.0-8.0-2.0","battery-v0.2","","""event"",""trial"",""time""
""fullscreenenter"",""1"",""2874""
","
","
","""event"",""trial"",""time""
""fullscreenenter"",""1"",""2874""
","
","","","188.2000000011176","","","11","3561","2287","&#9776;","elianto","#3366ff99"," "," ","1","+10","[1042]","1","0","1","","","","","","","",""
"pit-trial","23","303221","0.0-2.0-8.0-3.0","battery-v0.2","","""event"",""trial"",""time""
""fullscreenenter"",""1"",""2874""
","
","
","""event"",""trial"",""time""
""fullscreenenter"",""1"",""2874""
","
","","","426.69999999925494","","","11","3561","2287","&#9776;","elianto","#3366ff99"," "," ","1","0","[1278.199999999255]","1","0","1","","","","","","","",""
"pit-trial","24","306469","0.0-2.0-8.0-4.0","battery-v0.2","","""event"",""trial"",""time""
""fullscreenenter"",""1"",""2874""
","
","
","""event"",""trial"",""time""
""fullscreenenter"",""1"",""2874""
","
","","","390.5","","","11","3561","2287","&#9776;","elianto","#3366ff99"," "," ","1","+10","[1244.4000000003725]","1","0","1","","","","","","","",""
"pit-trial","25","309773","0.0-2.0-8.1-0.1","battery-v0.2","","""event"",""trial"",""time""
""fullscreenenter"",""1"",""2874""
","
","
","""event"",""trial"",""time""
""fullscreenenter"",""1"",""2874""
","
","","","441.40000000037253","","","11","3561","2287","&#9776;","elianto","#3366ff99"," "," ","1","+10","[1294.199999999255]","1","0","1","","","","","","","",""
"pit-trial","26","313061","0.0-2.0-8.1-1.1","battery-v0.2","","""event"",""trial"",""time""
""fullscreenenter"",""1"",""2874""
","
","
","""event"",""trial"",""time""
""fullscreenenter"",""1"",""2874""
","
","","","427.69999999925494","","","11","3561","2287","&#9776;","elianto","#3366ff99"," "," ","1","+10","[1281.5999999996275]","1","0","1","","","","","","","",""
"pit-trial","27","316349","0.0-2.0-8.1-2.1","battery-v0.2","","""event"",""trial"",""time""
""fullscreenenter"",""1"",""2874""
","
","
","""event"",""trial"",""time""
""fullscreenenter"",""1"",""2874""
","
","","","428.6000000014901","","","11","3561","2287","&#9776;","elianto","#3366ff99"," "," ","1","+10","[1282.0999999996275]","1","0","1","","","","","","","",""
"pit-trial","28","319797","0.0-2.0-8.1-3.1","battery-v0.2","","""event"",""trial"",""time""
""fullscreenenter"",""1"",""2874""
","
","
","""event"",""trial"",""time""
""fullscreenenter"",""1"",""2874""
","
","","","590.6999999992549","","","11","3561","2287","&#9776;","elianto","#3366ff99"," "," ","1","0","[1442.4000000003725]","1","0","1","","","","","","","",""
"pit-trial","29","322917","0.0-2.0-8.1-4.1","battery-v0.2","","""event"",""trial"",""time""
""fullscreenenter"",""1"",""2874""
","
","
","""event"",""trial"",""time""
""fullscreenenter"",""1"",""2874""
","
","","","263.7999999988824","","","11","3561","2287","&#9776;","elianto","#3366ff99"," "," ","1","+10","[1114.699999999255]","1","0","1","","","","","","","",""
"pit-trial","30","326309","0.0-2.0-8.2-0.2","battery-v0.2","","""event"",""trial"",""time""
""fullscreenenter"",""1"",""2874""
","
","
","""event"",""trial"",""time""
""fullscreenenter"",""1"",""2874""
","
","","","530.8000000007451","","","11","3561","2287","&#9776;","elianto","#3366ff99"," "," ","1","+10","[1383.7000000011176]","1","0","1","","","","","","","",""
"pit-trial","31","329677","0.0-2.0-8.2-1.2","battery-v0.2","","""event"",""trial"",""time""
""fullscreenenter"",""1"",""2874""
","
","
","""event"",""trial"",""time""
""fullscreenenter"",""1"",""2874""
","
","","","510","","","11","3561","2287","&#9776;","elianto","#3366ff99"," "," ","1","+10","[1363.5]","1","0","1","","","","","","","",""
"pit-trial","32","332997","0.0-2.0-8.2-2.2","battery-v0.2","","""event"",""trial"",""time""
""fullscreenenter"",""1"",""2874""
","
","
","""event"",""trial"",""time""
""fullscreenenter"",""1"",""2874""
","
","","","459.59999999962747","","","11","3561","2287","&#9776;","elianto","#3366ff99"," "," ","1","+10","[1313.300000000745]","1","0","1","","","","","","","",""
"pit-trial","33","336285","0.0-2.0-8.2-3.2","battery-v0.2","","""event"",""trial"",""time""
""fullscreenenter"",""1"",""2874""
","
","
","""event"",""trial"",""time""
""fullscreenenter"",""1"",""2874""
","
","","","431.90000000037253","","","11","3561","2287","&#9776;","elianto","#3366ff99"," "," ","1","0","[1282.4000000003725]","1","0","1","","","","","","","",""
"pit-trial","34","339589","0.0-2.0-8.2-4.2","battery-v0.2","","""event"",""trial"",""time""
""fullscreenenter"",""1"",""2874""
","
","
","""event"",""trial"",""time""
""fullscreenenter"",""1"",""2874""
","
","","","441.30000000074506","","","11","3561","2287","&#9776;","elianto","#3366ff99"," "," ","1","+10","[1294.5]","1","0","1","","","","","","","",""
"call-function","35","339592","0.0-2.0-9.0","battery-v0.2","","""event"",""trial"",""time""
""fullscreenenter"",""1"",""2874""
","
","
","""event"",""trial"",""time""
""fullscreenenter"",""1"",""2874""
","
","","","","","","","","","","","","","","","","","","","","","","","","","","",""
"pit-instructions","36","378547","0.0-2.0-10.0","battery-v0.2","","""event"",""trial"",""time""
""fullscreenenter"",""1"",""2874""
","
","
","""event"",""trial"",""time""
""fullscreenenter"",""1"",""2874""
","
","","[{""page_index"":0,""viewing_time"":6122.699999999255},{""page_index"":1,""viewing_time"":6857.200000001118},{""page_index"":2,""viewing_time"":9396},{""page_index"":3,""viewing_time"":8903.89999999851},{""page_index"":4,""viewing_time"":7674}]","38954.79999999888","","","","","","","","","","","","","","","","","","","","","","","",""
"pit-trial","37","383413","0.0-2.0-11.0-0.0","battery-v0.2","","""event"",""trial"",""time""
""fullscreenenter"",""1"",""2874""
","
","
","""event"",""trial"",""time""
""fullscreenenter"",""1"",""2874""
","
","","","-1","","","11","3561","2287","&#9761;","elianto","#3366ff99","-1","-1","1","+10","[]","0","0","2","","","","","","","",""
"pit-trial","38","388277","0.0-2.0-11.0-1.0","battery-v0.2","","""event"",""trial"",""time""
""fullscreenenter"",""1"",""2874""
","
","
","""event"",""trial"",""time""
""fullscreenenter"",""1"",""2874""
","
","","","-1","","","11","3561","2287","&#9761;","elianto","#3366ff99","-1","-1","1","+10","[]","0","0","2","","","","","","","",""
"pit-trial","39","393141","0.0-2.0-11.0-2.0","battery-v0.2","","""event"",""trial"",""time""
""fullscreenenter"",""1"",""2874""
","
","
","""event"",""trial"",""time""
""fullscreenenter"",""1"",""2874""
","
","","","-1","","","11","3561","2287","&#9761;","elianto","#3366ff99","-1","-1","1","+10","[]","0","0","2","","","","","","","",""
"pit-trial","40","398005","0.0-2.0-11.0-3.0","battery-v0.2","","""event"",""trial"",""time""
""fullscreenenter"",""1"",""2874""
","
","
","""event"",""trial"",""time""
""fullscreenenter"",""1"",""2874""
","
","","","-1","","","11","3561","2287","&#9761;","elianto","#3366ff99","-1","-1","1","0","[]","0","0","2","","","","","","","",""
"pit-trial","41","402869","0.0-2.0-11.0-4.0","battery-v0.2","","""event"",""trial"",""time""
""fullscreenenter"",""1"",""2874""
","
","
","""event"",""trial"",""time""
""fullscreenenter"",""1"",""2874""
","
","","","-1","","","11","3561","2287","&#9761;","elianto","#3366ff99","-1","-1","1","+10","[]","0","0","2","","","","","","","",""
"pit-trial","42","407733","0.0-2.0-11.1-0.1","battery-v0.2","","""event"",""trial"",""time""
""fullscreenenter"",""1"",""2874""
","
","
","""event"",""trial"",""time""
""fullscreenenter"",""1"",""2874""
","
","","","-1","","","11","3561","2287","&#9761;","elianto","#3366ff99","-1","-1","1","+10","[]","0","0","2","","","","","","","",""
"pit-trial","43","412597","0.0-2.0-11.1-1.1","battery-v0.2","","""event"",""trial"",""time""
""fullscreenenter"",""1"",""2874""
","
","
","""event"",""trial"",""time""
""fullscreenenter"",""1"",""2874""
","
","","","-1","","","11","3561","2287","&#9761;","elianto","#3366ff99","-1","-1","1","+10","[]","0","0","2","","","","","","","",""
"pit-trial","44","417461","0.0-2.0-11.1-2.1","battery-v0.2","","""event"",""trial"",""time""
""fullscreenenter"",""1"",""2874""
","
","
","""event"",""trial"",""time""
""fullscreenenter"",""1"",""2874""
","
","","","-1","","","11","3561","2287","&#9761;","elianto","#3366ff99","-1","-1","1","+10","[]","0","0","2","","","","","","","",""
"pit-trial","45","422325","0.0-2.0-11.1-3.1","battery-v0.2","","""event"",""trial"",""time""
""fullscreenenter"",""1"",""2874""
","
","
","""event"",""trial"",""time""
""fullscreenenter"",""1"",""2874""
","
","","","-1","","","11","3561","2287","&#9761;","elianto","#3366ff99","-1","-1","1","0","[]","0","0","2","","","","","","","",""
"pit-trial","46","427189","0.0-2.0-11.1-4.1","battery-v0.2","","""event"",""trial"",""time""
""fullscreenenter"",""1"",""2874""
","
","
","""event"",""trial"",""time""
""fullscreenenter"",""1"",""2874""
","
","","","-1","","","11","3561","2287","&#9761;","elianto","#3366ff99","-1","-1","1","+10","[]","0","0","2","","","","","","","",""
"pit-trial","47","432053","0.0-2.0-11.2-0.2","battery-v0.2","","""event"",""trial"",""time""
""fullscreenenter"",""1"",""2874""
","
","
","""event"",""trial"",""time""
""fullscreenenter"",""1"",""2874""
","
","","","-1","","","11","3561","2287","&#9761;","elianto","#3366ff99","-1","-1","1","+10","[]","0","0","2","","","","","","","",""
"pit-trial","48","436917","0.0-2.0-11.2-1.2","battery-v0.2","","""event"",""trial"",""time""
""fullscreenenter"",""1"",""2874""
","
","
","""event"",""trial"",""time""
""fullscreenenter"",""1"",""2874""
","
","","","-1","","","11","3561","2287","&#9761;","elianto","#3366ff99","-1","-1","1","+10","[]","0","0","2","","","","","","","",""
"pit-trial","49","441781","0.0-2.0-11.2-2.2","battery-v0.2","","""event"",""trial"",""time""
""fullscreenenter"",""1"",""2874""
","
","
","""event"",""trial"",""time""
""fullscreenenter"",""1"",""2874""
","
","","","-1","","","11","3561","2287","&#9761;","elianto","#3366ff99","-1","-1","1","+10","[]","0","0","2","","","","","","","",""
"pit-trial","50","446645","0.0-2.0-11.2-3.2","battery-v0.2","","""event"",""trial"",""time""
""fullscreenenter"",""1"",""2874""
","
","
","""event"",""trial"",""time""
""fullscreenenter"",""1"",""2874""
","
","","","-1","","","11","3561","2287","&#9761;","elianto","#3366ff99","-1","-1","1","0","[]","0","0","2","","","","","","","",""
"pit-trial","51","451509","0.0-2.0-11.2-4.2","battery-v0.2","","""event"",""trial"",""time""
""fullscreenenter"",""1"",""2874""
","
","
","""event"",""trial"",""time""
""fullscreenenter"",""1"",""2874""
","
","","","-1","","","11","3561","2287","&#9761;","elianto","#3366ff99","-1","-1","1","+10","[]","0","0","2","","","","","","","",""
"pit-trial","52","456373","0.0-2.0-11.3-0.3","battery-v0.2","","""event"",""trial"",""time""
""fullscreenenter"",""1"",""2874""
","
","
","""event"",""trial"",""time""
""fullscreenenter"",""1"",""2874""
","
","","","-1","","","11","3561","2287","&#9761;","elianto","#3366ff99","-1","-1","1","+10","[]","0","0","2","","","","","","","",""
"pit-trial","53","461237","0.0-2.0-11.3-1.3","battery-v0.2","","""event"",""trial"",""time""
""fullscreenenter"",""1"",""2874""
","
","
","""event"",""trial"",""time""
""fullscreenenter"",""1"",""2874""
","
","","","-1","","","11","3561","2287","&#9761;","elianto","#3366ff99","-1","-1","1","+10","[]","0","0","2","","","","","","","",""
"pit-trial","54","466101","0.0-2.0-11.3-2.3","battery-v0.2","","""event"",""trial"",""time""
""fullscreenenter"",""1"",""2874""
","
","
","""event"",""trial"",""time""
""fullscreenenter"",""1"",""2874""
","
","","","-1","","","11","3561","2287","&#9761;","elianto","#3366ff99","-1","-1","1","+10","[]","0","0","2","","","","","","","",""
"pit-trial","55","470965","0.0-2.0-11.3-3.3","battery-v0.2","","""event"",""trial"",""time""
""fullscreenenter"",""1"",""2874""
","
","
","""event"",""trial"",""time""
""fullscreenenter"",""1"",""2874""
","
","","","-1","","","11","3561","2287","&#9761;","elianto","#3366ff99","-1","-1","1","0","[]","0","0","2","","","","","","","",""
"pit-trial","56","475829","0.0-2.0-11.3-4.3","battery-v0.2","","""event"",""trial"",""time""
""fullscreenenter"",""1"",""2874""
","
","
","""event"",""trial"",""time""
""fullscreenenter"",""1"",""2874""
","
","","","-1","","","11","3561","2287","&#9761;","elianto","#3366ff99","-1","-1","1","+10","[]","0","0","2","","","","","","","",""
"call-function","57","475831","0.0-2.0-12.0","battery-v0.2","","""event"",""trial"",""time""
""fullscreenenter"",""1"",""2874""
","
","
","""event"",""trial"",""time""
""fullscreenenter"",""1"",""2874""
","
","","","","","","","","","","","","","","","","","","","","","","","","","","",""
"pit-instructions","58","505240","0.0-2.0-13.0","battery-v0.2","","""event"",""trial"",""time""
""fullscreenenter"",""1"",""2874""
","
","
","""event"",""trial"",""time""
""fullscreenenter"",""1"",""2874""
","
","","[{""page_index"":0,""viewing_time"":5087.9000000003725},{""page_index"":1,""viewing_time"":6259.300000000745},{""page_index"":2,""viewing_time"":3562.5999999996275},{""page_index"":3,""viewing_time"":10175.5},{""page_index"":4,""viewing_time"":4321.199999999255}]","29407.300000000745","","","","","","","","","","","","","","","","","","","","","","","",""
"pit-trial","59","508581","0.0-2.0-14.0-0.0","battery-v0.2","","""event"",""trial"",""time""
""fullscreenenter"",""1"",""2874""
","
","
","""event"",""trial"",""time""
""fullscreenenter"",""1"",""2874""
","
","","","486.30000000074506","","","11","3561","2287","&#9826;","elianto","#f73b6a7A","-1"," ","0","-10","[1336.5]","1","0","3","","","","","","","",""
"pit-trial","60","513445","0.0-2.0-14.0-1.0","battery-v0.2","","""event"",""trial"",""time""
""fullscreenenter"",""1"",""2874""
","
","
","""event"",""trial"",""time""
""fullscreenenter"",""1"",""2874""
","
","","","-1","","","11","3561","2287","&#9826;","elianto","#f73b6a7A","-1","-1","1","0","[]","0","0","3","","","","","","","",""
"pit-trial","61","518309","0.0-2.0-14.0-2.0","battery-v0.2","","""event"",""trial"",""time""
""fullscreenenter"",""1"",""2874""
","
","
","""event"",""trial"",""time""
""fullscreenenter"",""1"",""2874""
","
","","","-1","","","11","3561","2287","&#9826;","elianto","#f73b6a7A","-1","-1","1","0","[]","0","0","3","","","","","","","",""
"pit-trial","62","523174","0.0-2.0-14.0-3.0","battery-v0.2","","""event"",""trial"",""time""
""fullscreenenter"",""1"",""2874""
","
","
","""event"",""trial"",""time""
""fullscreenenter"",""1"",""2874""
","
","","","-1","","","11","3561","2287","&#9826;","elianto","#f73b6a7A","-1","-1","1","-10","[]","0","0","3","","","","","","","",""
"pit-trial","63","528037","0.0-2.0-14.0-4.0","battery-v0.2","","""event"",""trial"",""time""
""fullscreenenter"",""1"",""2874""
","
","
","""event"",""trial"",""time""
""fullscreenenter"",""1"",""2874""
","
","","","-1","","","11","3561","2287","&#9826;","elianto","#f73b6a7A","-1","-1","1","0","[]","0","0","3","","","","","","","",""
"pit-trial","64","532901","0.0-2.0-14.1-0.1","battery-v0.2","","""event"",""trial"",""time""
""fullscreenenter"",""1"",""2874""
","
","
","""event"",""trial"",""time""
""fullscreenenter"",""1"",""2874""
","
","","","-1","","","11","3561","2287","&#9826;","elianto","#f73b6a7A","-1","-1","1","0","[]","0","0","3","","","","","","","",""
"pit-trial","65","537765","0.0-2.0-14.1-1.1","battery-v0.2","","""event"",""trial"",""time""
""fullscreenenter"",""1"",""2874""
","
","
","""event"",""trial"",""time""
""fullscreenenter"",""1"",""2874""
","
","","","-1","","","11","3561","2287","&#9826;","elianto","#f73b6a7A","-1","-1","1","0","[]","0","0","3","","","","","","","",""
"pit-trial","66","542629","0.0-2.0-14.1-2.1","battery-v0.2","","""event"",""trial"",""time""
""fullscreenenter"",""1"",""2874""
","
","
","""event"",""trial"",""time""
""fullscreenenter"",""1"",""2874""
","
","","","-1","","","11","3561","2287","&#9826;","elianto","#f73b6a7A","-1","-1","1","0","[]","0","0","3","","","","","","","",""
"pit-trial","67","547493","0.0-2.0-14.1-3.1","battery-v0.2","","""event"",""trial"",""time""
""fullscreenenter"",""1"",""2874""
","
","
","""event"",""trial"",""time""
""fullscreenenter"",""1"",""2874""
","
","","","-1","","","11","3561","2287","&#9826;","elianto","#f73b6a7A","-1","-1","1","-10","[]","0","0","3","","","","","","","",""
"pit-trial","68","552357","0.0-2.0-14.1-4.1","battery-v0.2","","""event"",""trial"",""time""
""fullscreenenter"",""1"",""2874""
","
","
","""event"",""trial"",""time""
""fullscreenenter"",""1"",""2874""
","
","","","-1","","","11","3561","2287","&#9826;","elianto","#f73b6a7A","-1","-1","1","0","[]","0","0","3","","","","","","","",""
"pit-trial","69","557221","0.0-2.0-14.2-0.2","battery-v0.2","","""event"",""trial"",""time""
""fullscreenenter"",""1"",""2874""
","
","
","""event"",""trial"",""time""
""fullscreenenter"",""1"",""2874""
","
","","","-1","","","11","3561","2287","&#9826;","elianto","#f73b6a7A","-1","-1","1","0","[]","0","0","3","","","","","","","",""
"pit-trial","70","562085","0.0-2.0-14.2-1.2","battery-v0.2","","""event"",""trial"",""time""
""fullscreenenter"",""1"",""2874""
","
","
","""event"",""trial"",""time""
""fullscreenenter"",""1"",""2874""
","
","","","-1","","","11","3561","2287","&#9826;","elianto","#f73b6a7A","-1","-1","1","0","[]","0","0","3","","","","","","","",""
"pit-trial","71","566949","0.0-2.0-14.2-2.2","battery-v0.2","","""event"",""trial"",""time""
""fullscreenenter"",""1"",""2874""
","
","
","""event"",""trial"",""time""
""fullscreenenter"",""1"",""2874""
","
","","","-1","","","11","3561","2287","&#9826;","elianto","#f73b6a7A","-1","-1","1","0","[]","0","0","3","","","","","","","",""
"pit-trial","72","571813","0.0-2.0-14.2-3.2","battery-v0.2","","""event"",""trial"",""time""
""fullscreenenter"",""1"",""2874""
","
","
","""event"",""trial"",""time""
""fullscreenenter"",""1"",""2874""
","
","","","-1","","","11","3561","2287","&#9826;","elianto","#f73b6a7A","-1","-1","1","-10","[]","0","0","3","","","","","","","",""
"pit-trial","73","576677","0.0-2.0-14.2-4.2","battery-v0.2","","""event"",""trial"",""time""
""fullscreenenter"",""1"",""2874""
","
","
","""event"",""trial"",""time""
""fullscreenenter"",""1"",""2874""
","
","","","-1","","","11","3561","2287","&#9826;","elianto","#f73b6a7A","-1","-1","1","0","[]","0","0","3","","","","","","","",""
"pit-trial","74","581541","0.0-2.0-14.3-0.3","battery-v0.2","","""event"",""trial"",""time""
""fullscreenenter"",""1"",""2874""
","
","
","""event"",""trial"",""time""
""fullscreenenter"",""1"",""2874""
","
","","","-1","","","11","3561","2287","&#9826;","elianto","#f73b6a7A","-1","-1","1","0","[]","0","0","3","","","","","","","",""
"pit-trial","75","586405","0.0-2.0-14.3-1.3","battery-v0.2","","""event"",""trial"",""time""
""fullscreenenter"",""1"",""2874""
","
","
","""event"",""trial"",""time""
""fullscreenenter"",""1"",""2874""
","
","","","-1","","","11","3561","2287","&#9826;","elianto","#f73b6a7A","-1","-1","1","0","[]","0","0","3","","","","","","","",""
"pit-trial","76","591269","0.0-2.0-14.3-2.3","battery-v0.2","","""event"",""trial"",""time""
""fullscreenenter"",""1"",""2874""
","
","
","""event"",""trial"",""time""
""fullscreenenter"",""1"",""2874""
","
","","","-1","","","11","3561","2287","&#9826;","elianto","#f73b6a7A","-1","-1","1","0","[]","0","0","3","","","","","","","",""
"pit-trial","77","596133","0.0-2.0-14.3-3.3","battery-v0.2","","""event"",""trial"",""time""
""fullscreenenter"",""1"",""2874""
","
","
","""event"",""trial"",""time""
""fullscreenenter"",""1"",""2874""
","
","","","-1","","","11","3561","2287","&#9826;","elianto","#f73b6a7A","-1","-1","1","-10","[]","0","0","3","","","","","","","",""
"pit-trial","78","600997","0.0-2.0-14.3-4.3","battery-v0.2","","""event"",""trial"",""time""
""fullscreenenter"",""1"",""2874""
","
","
","""event"",""trial"",""time""
""fullscreenenter"",""1"",""2874""
","
","","","-1","","","11","3561","2287","&#9826;","elianto","#f73b6a7A","-1","-1","1","0","[]","0","0","3","","","","","","","",""
"call-function","79","600999","0.0-2.0-15.0","battery-v0.2","","""event"",""trial"",""time""
""fullscreenenter"",""1"",""2874""
","
","
","""event"",""trial"",""time""
""fullscreenenter"",""1"",""2874""
","
","","","","","","","","","","","","","","","","","","","","","","","","","","",""
"pit-instructions","80","625364","0.0-2.0-16.0","battery-v0.2","","""event"",""trial"",""time""
""fullscreenenter"",""1"",""2874""
","
","
","""event"",""trial"",""time""
""fullscreenenter"",""1"",""2874""
","
","","[{""page_index"":0,""viewing_time"":6520.9000000003725},{""page_index"":1,""viewing_time"":8463.400000000373},{""page_index"":2,""viewing_time"":4428},{""page_index"":3,""viewing_time"":4950}]","24363.5","","","","","","","","","","","","","","","","","","","","","","","",""
"pit-trial","81","628661","0.0-2.0-17.0-0.0","battery-v0.2","","""event"",""trial"",""time""
""fullscreenenter"",""1"",""2874""
","
","
","""event"",""trial"",""time""
""fullscreenenter"",""1"",""2874""
","
","","","438.5","","","11","3561","2287","&#9789;","elianto","#f73b6a7A"," "," ","1","0","[1293]","1","0","4","","","","","","","",""
"pit-trial","82","631917","0.0-2.0-17.0-1.0","battery-v0.2","","""event"",""trial"",""time""
""fullscreenenter"",""1"",""2874""
","
","
","""event"",""trial"",""time""
""fullscreenenter"",""1"",""2874""
","
","","","394.90000000037253","","","11","3561","2287","&#9789;","elianto","#f73b6a7A"," "," ","1","0","[1245.5]","1","0","4","","","","","","","",""
"pit-trial","83","635141","0.0-2.0-17.0-2.0","battery-v0.2","","""event"",""trial"",""time""
""fullscreenenter"",""1"",""2874""
","
","
","""event"",""trial"",""time""
""fullscreenenter"",""1"",""2874""
","
","","","361.19999999925494","","","11","3561","2287","&#9789;","elianto","#f73b6a7A"," "," ","1","0","[1214.699999999255]","1","0","4","","","","","","","",""
"pit-trial","84","638445","0.0-2.0-17.0-3.0","battery-v0.2","","""event"",""trial"",""time""
""fullscreenenter"",""1"",""2874""
","
","
","""event"",""trial"",""time""
""fullscreenenter"",""1"",""2874""
","
","","","441","","","11","3561","2287","&#9789;","elianto","#f73b6a7A"," "," ","1","-10","[1292.300000000745]","1","0","4","","","","","","","",""
"pit-trial","85","641853","0.0-2.0-17.0-4.0","battery-v0.2","","""event"",""trial"",""time""
""fullscreenenter"",""1"",""2874""
","
","
","""event"",""trial"",""time""
""fullscreenenter"",""1"",""2874""
","
","","","553.5","","","11","3561","2287","&#9789;","elianto","#f73b6a7A"," "," ","1","0","[1403.5999999996275]","1","0","4","","","","","","","",""
"pit-trial","86","645077","0.0-2.0-17.1-0.1","battery-v0.2","","""event"",""trial"",""time""
""fullscreenenter"",""1"",""2874""
","
","
","""event"",""trial"",""time""
""fullscreenenter"",""1"",""2874""
","
","","","366.80000000074506","","","11","3561","2287","&#9789;","elianto","#f73b6a7A"," "," ","1","0","[1218.5999999996275]","1","0","4","","","","","","","",""
"pit-trial","87","648357","0.0-2.0-17.1-1.1","battery-v0.2","","""event"",""trial"",""time""
""fullscreenenter"",""1"",""2874""
","
","
","""event"",""trial"",""time""
""fullscreenenter"",""1"",""2874""
","
","","","425.5","","","11","3561","2287","&#9789;","elianto","#f73b6a7A"," "," ","1","0","[1276.0999999996275]","1","0","4","","","","","","","",""
"pit-trial","88","651725","0.0-2.0-17.1-2.1","battery-v0.2","","""event"",""trial"",""time""
""fullscreenenter"",""1"",""2874""
","
","
","""event"",""trial"",""time""
""fullscreenenter"",""1"",""2874""
","
","","","509.69999999925494","","","11","3561","2287","&#9789;","elianto","#f73b6a7A"," "," ","1","0","[1361.5]","1","0","4","","","","","","","",""
"pit-trial","89","654989","0.0-2.0-17.1-3.1","battery-v0.2","","""event"",""trial"",""time""
""fullscreenenter"",""1"",""2874""
","
","
","""event"",""trial"",""time""
""fullscreenenter"",""1"",""2874""
","
","","","404.40000000037253","","","11","3561","2287","&#9789;","elianto","#f73b6a7A"," "," ","1","-10","[1254.800000000745]","1","0","4","","","","","","","",""
"pit-trial","90","658173","0.0-2.0-17.1-4.1","battery-v0.2","","""event"",""trial"",""time""
""fullscreenenter"",""1"",""2874""
","
","
","""event"",""trial"",""time""
""fullscreenenter"",""1"",""2874""
","
","","","327.5","","","11","3561","2287","&#9789;","elianto","#f73b6a7A"," "," ","1","0","[1181]","1","0","4","","","","","","","",""
"pit-trial","91","661557","0.0-2.0-17.2-0.2","battery-v0.2","","""event"",""trial"",""time""
""fullscreenenter"",""1"",""2874""
","
","
","""event"",""trial"",""time""
""fullscreenenter"",""1"",""2874""
","
","","","524.5999999996275","","","11","3561","2287","&#9789;","elianto","#f73b6a7A"," "," ","1","0","[1377.199999999255]","1","0","4","","","","","","","",""
"pit-trial","92","665069","0.0-2.0-17.2-1.2","battery-v0.2","","""event"",""trial"",""time""
""fullscreenenter"",""1"",""2874""
","
","
","""event"",""trial"",""time""
""fullscreenenter"",""1"",""2874""
","
","","","654.6000000014901","","","11","3561","2287","&#9789;","elianto","#f73b6a7A"," "," ","1","0","[1506.800000000745]","1","0","4","","","","","","","",""
"pit-trial","93","668405","0.0-2.0-17.2-2.2","battery-v0.2","","""event"",""trial"",""time""
""fullscreenenter"",""1"",""2874""
","
","
","""event"",""trial"",""time""
""fullscreenenter"",""1"",""2874""
","
","","","476.59999999962747","","","11","3561","2287","&#9789;","elianto","#f73b6a7A"," "," ","1","0","[1330.0999999996275]","1","0","4","","","","","","","",""
"pit-trial","94","671629","0.0-2.0-17.2-3.2","battery-v0.2","","""event"",""trial"",""time""
""fullscreenenter"",""1"",""2874""
","
","
","""event"",""trial"",""time""
""fullscreenenter"",""1"",""2874""
","
","","","359.6000000014901","","","11","3561","2287","&#9789;","elianto","#f73b6a7A"," "," ","1","-10","[1213]","1","0","4","","","","","","","",""
"pit-trial","95","674957","0.0-2.0-17.2-4.2","battery-v0.2","","""event"",""trial"",""time""
""fullscreenenter"",""1"",""2874""
","
","
","""event"",""trial"",""time""
""fullscreenenter"",""1"",""2874""
","
","","","467.2000000011176","","","11","3561","2287","&#9789;","elianto","#f73b6a7A"," "," ","1","0","[1320.6000000014901]","1","0","4","","","","","","","",""
"pit-trial","96","678629","0.0-2.0-17.3-0.3","battery-v0.2","","""event"",""trial"",""time""
""fullscreenenter"",""1"",""2874""
","
","
","""event"",""trial"",""time""
""fullscreenenter"",""1"",""2874""
","
","","","816.5999999996275","","","11","3561","2287","&#9789;","elianto","#f73b6a7A"," "," ","1","0","[1667.5999999996275]","1","0","4","","","","","","","",""
"pit-trial","97","681965","0.0-2.0-17.3-1.3","battery-v0.2","","""event"",""trial"",""time""
""fullscreenenter"",""1"",""2874""
","
","
","""event"",""trial"",""time""
""fullscreenenter"",""1"",""2874""
","
","","","477.3999999985099","","","11","3561","2287","&#9789;","elianto","#f73b6a7A"," "," ","1","0","[1330.9000000003725]","1","0","4","","","","","","","",""
"pit-trial","98","685269","0.0-2.0-17.3-2.3","battery-v0.2","","""event"",""trial"",""time""
""fullscreenenter"",""1"",""2874""
","
","
","""event"",""trial"",""time""
""fullscreenenter"",""1"",""2874""
","
","","","445.69999999925494","","","11","3561","2287","&#9789;","elianto","#f73b6a7A"," "," ","1","0","[1299.4000000003725]","1","0","4","","","","","","","",""
"pit-trial","99","688773","0.0-2.0-17.3-3.3","battery-v0.2","","""event"",""trial"",""time""
""fullscreenenter"",""1"",""2874""
","
","
","""event"",""trial"",""time""
""fullscreenenter"",""1"",""2874""
","
","","","644.0999999996275","","","11","3561","2287","&#9789;","elianto","#f73b6a7A"," "," ","1","-10","[1497.7000000011176]","1","0","4","","","","","","","",""
"pit-trial","100","691941","0.0-2.0-17.3-4.3","battery-v0.2","","""event"",""trial"",""time""
""fullscreenenter"",""1"",""2874""
","
","
","""event"",""trial"",""time""
""fullscreenenter"",""1"",""2874""
","
","","","311.2999999988824","","","11","3561","2287","&#9789;","elianto","#f73b6a7A"," "," ","1","0","[1163.2999999988824]","1","0","4","","","","","","","",""
"call-function","101","691943","0.0-2.0-18.0","battery-v0.2","","""event"",""trial"",""time""
""fullscreenenter"",""1"",""2874""
","
","
","""event"",""trial"",""time""
""fullscreenenter"",""1"",""2874""
","
","","","","","","","","","","","","","","","","","","","","","","","","","","",""
"pit-instructions","102","760749","0.0-2.0-19.0","battery-v0.2","","""event"",""trial"",""time""
""fullscreenenter"",""1"",""2874""
","
","
","""event"",""trial"",""time""
""fullscreenenter"",""1"",""2874""
","
","","[{""page_index"":0,""viewing_time"":6438.800000000745},{""page_index"":1,""viewing_time"":5776.5},{""page_index"":2,""viewing_time"":13707.199999999255},{""page_index"":3,""viewing_time"":7714.199999999255},{""page_index"":4,""viewing_time"":8127.5},{""page_index"":5,""viewing_time"":8364.400000000373},{""page_index"":6,""viewing_time"":8235.599999999627},{""page_index"":7,""viewing_time"":6198.800000000745},{""page_index"":8,""viewing_time"":4241.0999999996275}]","68805.09999999963","","","","","","","","","","","","","","","","","","","","","","","",""
"pit-comprehension","103","765751","0.0-2.0-20.0-0.0","battery-v0.2","","""event"",""trial"",""time""
""fullscreenenter"",""1"",""2874""
","
","
","""event"",""trial"",""time""
""fullscreenenter"",""1"",""2874""
","
","","","4996.5","[""SPACE""]","0","11","3561","2287","","","","","","","","","","","","","","","","","","",""
"pit-instructions","104","770153","0.0-2.0-20.0-1.0","battery-v0.2","","""event"",""trial"",""time""
""fullscreenenter"",""1"",""2874""
","
","
","""event"",""trial"",""time""
""fullscreenenter"",""1"",""2874""
","
","","[{""page_index"":0,""viewing_time"":4376.0999999996275}]","4376.9000000003725","","","","","","","","","","","","","","","","","","","","","","","",""
"pit-comprehension","105","774690","0.0-2.0-21.0-0.0","battery-v0.2","","""event"",""trial"",""time""
""fullscreenenter"",""1"",""2874""
","
","
","""event"",""trial"",""time""
""fullscreenenter"",""1"",""2874""
","
","","","4531","[""10""]","0","11","3561","2287","","","","","","","","","","","","","","","","","","",""
"pit-instructions","106","776396","0.0-2.0-21.0-1.0","battery-v0.2","","""event"",""trial"",""time""
""fullscreenenter"",""1"",""2874""
","
","
","""event"",""trial"",""time""
""fullscreenenter"",""1"",""2874""
","
","","[{""page_index"":0,""viewing_time"":1690}]","1690.300000000745","","","","","","","","","","","","","","","","","","","","","","","",""
"pit-comprehension","107","782510","0.0-2.0-22.0-0.0","battery-v0.2","","""event"",""trial"",""time""
""fullscreenenter"",""1"",""2874""
","
","
","""event"",""trial"",""time""
""fullscreenenter"",""1"",""2874""
","
","","","6108.9000000003725","[""0""]","0","11","3561","2287","","","","","","","","","","","","","","","","","","",""
"pit-instructions","108","783722","0.0-2.0-22.0-1.0","battery-v0.2","","""event"",""trial"",""time""
""fullscreenenter"",""1"",""2874""
","
","
","""event"",""trial"",""time""
""fullscreenenter"",""1"",""2874""
","
","","[{""page_index"":0,""viewing_time"":1187.2000000011176}]","1187.9000000003725","","","","","","","","","","","","","","","","","","","","","","","",""
"pit-comprehension","109","791805","0.0-2.0-23.0-0.0","battery-v0.2","","""event"",""trial"",""time""
""fullscreenenter"",""1"",""2874""
","
","
","""event"",""trial"",""time""
""fullscreenenter"",""1"",""2874""
","
","","","8079","[""True""]","0","11","3561","2287","","","","","","","","","","","","","","","","","","",""
"pit-instructions","110","792876","0.0-2.0-23.0-1.0","battery-v0.2","","""event"",""trial"",""time""
""fullscreenenter"",""1"",""2874""
","
","
","""event"",""trial"",""time""
""fullscreenenter"",""1"",""2874""
","
","","[{""page_index"":0,""viewing_time"":1046.9000000003725}]","1047.4000000003725","","","","","","","","","","","","","","","","","","","","","","","",""
"pit-comprehension","111","800040","0.0-2.0-24.0-0.0","battery-v0.2","","""event"",""trial"",""time""
""fullscreenenter"",""1"",""2874""
","
","
","""event"",""trial"",""time""
""fullscreenenter"",""1"",""2874""
","
","","","7159.199999999255","[""True""]","0","11","3561","2287","","","","","","","","","","","","","","","","","","",""
"pit-instructions","112","801212","0.0-2.0-24.0-1.0","battery-v0.2","","""event"",""trial"",""time""
""fullscreenenter"",""1"",""2874""
","
","
","""event"",""trial"",""time""
""fullscreenenter"",""1"",""2874""
","
","","[{""page_index"":0,""viewing_time"":1148.199999999255}]","1148.699999999255","","","","","","","","","","","","","","","","","","","","","","","",""
"pit-comprehension","113","807234","0.0-2.0-25.0-0.0","battery-v0.2","","""event"",""trial"",""time""
""fullscreenenter"",""1"",""2874""
","
","
","""event"",""trial"",""time""
""fullscreenenter"",""1"",""2874""
","
","","","6017.300000000745","[""True""]","0","11","3561","2287","","","","","","","","","","","","","","","","","","",""
"pit-instructions","114","808326","0.0-2.0-25.0-1.0","battery-v0.2","","""event"",""trial"",""time""
""fullscreenenter"",""1"",""2874""
","
","
","""event"",""trial"",""time""
""fullscreenenter"",""1"",""2874""
","
","","[{""page_index"":0,""viewing_time"":1066.5}]","1066.9000000003725","","","","","","","","","","","","","","","","","","","","","","","",""
"pit-comprehension","115","812479","0.0-2.0-26.0-0.0","battery-v0.2","","""event"",""trial"",""time""
""fullscreenenter"",""1"",""2874""
","
","
","""event"",""trial"",""time""
""fullscreenenter"",""1"",""2874""
","
","","","4148.800000000745","[""False""]","0","11","3561","2287","","","","","","","","","","","","","","","","","","",""
"pit-instructions","116","813547","0.0-2.0-26.0-1.0","battery-v0.2","","""event"",""trial"",""time""
""fullscreenenter"",""1"",""2874""
","
","
","""event"",""trial"",""time""
""fullscreenenter"",""1"",""2874""
","
","","[{""page_index"":0,""viewing_time"":1044}]","1044.199999999255","","","","","","","","","","","","","","","","","","","","","","","",""
"pit-instructions","117","831881","0.0-3.0","battery-v0.2","","""event"",""trial"",""time""
""fullscreenenter"",""1"",""2874""
","
","
","""event"",""trial"",""time""
""fullscreenenter"",""1"",""2874""
","
","","[{""page_index"":0,""viewing_time"":3649.699999999255},{""page_index"":1,""viewing_time"":6268.5},{""page_index"":2,""viewing_time"":8414}]","18332.900000000373","","","","","","","","","","","","","","","","","","","","","","","",""
"pit-trial","118","835461","0.0-4.0","battery-v0.2","","""event"",""trial"",""time""
""fullscreenenter"",""1"",""2874""
","
","
","""event"",""trial"",""time""
""fullscreenenter"",""1"",""2874""
","
","","","712.6999999992549","","","11","3561","2287","&#9733;","elianto","#3366ff99","-1"," ","0","0","[1567.0999999996275]","1","1","","","3561","1","2","2","win","no-go","0"
"pit-trial","119","839509","0.0-5.0","battery-v0.2","","""event"",""trial"",""time""
""fullscreenenter"",""1"",""2874""
","
","
","""event"",""trial"",""time""
""fullscreenenter"",""1"",""2874""
","
","","","1184.5","","","11","3561","2287","&#9752;","elianto","#f73b6a7A"," "," ","1","0","[2037.8999999985099]","1","1","","","3561","2","3","3","lose","go","0"
"pit-trial","120","843205","0.0-6.0","battery-v0.2","","""event"",""trial"",""time""
""fullscreenenter"",""1"",""2874""
","
","
","""event"",""trial"",""time""
""fullscreenenter"",""1"",""2874""
","
","","","831.7000000011176","","","11","3561","2287","&#9728;","elianto","#f73b6a7A","-1"," ","0","-10","[1685.0999999996275]","1","1","","","3561","3","0","4","lose","no-go","0"
"pit-trial","121","846973","0.0-7.0","battery-v0.2","","""event"",""trial"",""time""
""fullscreenenter"",""1"",""2874""
","
","
","""event"",""trial"",""time""
""fullscreenenter"",""1"",""2874""
","
","","","910.8000000007451","","","11","3561","2287","&#9730;","elianto","#3366ff99"," "," ","1","0","[1761.7000000011176]","1","1","","","3561","4","1","1","win","go","1"
"pit-trial","122","851837","0.0-8.0","battery-v0.2","","""event"",""trial"",""time""
""fullscreenenter"",""1"",""2874""
","
","
","""event"",""trial"",""time""
""fullscreenenter"",""1"",""2874""
","
","","","-1","","","11","3561","2287","&#9728;","elianto","#f73b6a7A","-1","-1","1","0","[]","0","1","","","3561","5","0","4","lose","no-go","0"
"pit-trial","123","855253","0.0-9.0","battery-v0.2","","""event"",""trial"",""time""
""fullscreenenter"",""1"",""2874""
","
","
","""event"",""trial"",""time""
""fullscreenenter"",""1"",""2874""
","
","","","558.7000000011176","","","11","3561","2287","&#9752;","elianto","#f73b6a7A"," "," ","1","0","[1410.9000000003725]","1","1","","","3561","6","3","3","lose","go","0"
"pit-trial","124","860117","0.0-10.0","battery-v0.2","","""event"",""trial"",""time""
""fullscreenenter"",""1"",""2874""
","
","
","""event"",""trial"",""time""
""fullscreenenter"",""1"",""2874""
","
","","","-1","","","11","3561","2287","&#9730;","elianto","#3366ff99"," ","-1","0","+10","[]","0","1","","","3561","7","1","1","win","go","1"
"pit-trial","125","864981","0.0-11.0","battery-v0.2","","""event"",""trial"",""time""
""fullscreenenter"",""1"",""2874""
","
","
","""event"",""trial"",""time""
""fullscreenenter"",""1"",""2874""
","
","","","-1","","","11","3561","2287","&#9733;","elianto","#3366ff99","-1","-1","1","+10","[]","0","1","","","3561","8","2","2","win","no-go","0"
"pit-trial","126","868893","0.0-12.0","battery-v0.2","","""event"",""trial"",""time""
""fullscreenenter"",""1"",""2874""
","
","
","""event"",""trial"",""time""
""fullscreenenter"",""1"",""2874""
","
","","","1054.699999999255","","","11","3561","2287","&#9752;","elianto","#f73b6a7A"," "," ","1","0","[1908]","1","1","","","3561","9","3","3","lose","go","0"
"pit-trial","127","873757","0.0-13.0","battery-v0.2","","""event"",""trial"",""time""
""fullscreenenter"",""1"",""2874""
","
","
","""event"",""trial"",""time""
""fullscreenenter"",""1"",""2874""
","
","","","-1","","","11","3561","2287","&#9728;","elianto","#f73b6a7A","-1","-1","1","0","[]","0","1","","","3561","10","0","4","lose","no-go","0"
"pit-trial","128","878621","0.0-14.0","battery-v0.2","","""event"",""trial"",""time""
""fullscreenenter"",""1"",""2874""
","
","
","""event"",""trial"",""time""
""fullscreenenter"",""1"",""2874""
","
","","","-1","","","11","3561","2287","&#9733;","elianto","#3366ff99","-1","-1","1","0","[]","0","1","","","3561","11","2","2","win","no-go","1"
"pit-trial","129","883485","0.0-15.0","battery-v0.2","","""event"",""trial"",""time""
""fullscreenenter"",""1"",""2874""
","
","
","""event"",""trial"",""time""
""fullscreenenter"",""1"",""2874""
","
","","","-1","","","11","3561","2287","&#9730;","elianto","#3366ff99"," ","-1","0","0","[]","0","1","","","3561","12","1","1","win","go","0"
"pit-trial","130","888349","0.0-16.0","battery-v0.2","","""event"",""trial"",""time""
""fullscreenenter"",""1"",""2874""
","
","
","""event"",""trial"",""time""
""fullscreenenter"",""1"",""2874""
","
","","","-1","","","11","3561","2287","&#9728;","elianto","#f73b6a7A","-1","-1","1","-10","[]","0","1","","","3561","13","0","4","lose","no-go","1"
"pit-trial","131","891973","0.0-17.0","battery-v0.2","","""event"",""trial"",""time""
""fullscreenenter"",""1"",""2874""
","
","
","""event"",""trial"",""time""
""fullscreenenter"",""1"",""2874""
","
","","","765","","","11","3561","2287","&#9730;","elianto","#3366ff99"," "," ","1","+10","[1618.1000000014901]","1","1","","","3561","14","1","1","win","go","0"
"pit-trial","132","895397","0.0-18.0","battery-v0.2","","""event"",""trial"",""time""
""fullscreenenter"",""1"",""2874""
","
","
","""event"",""trial"",""time""
""fullscreenenter"",""1"",""2874""
","
","","","565","","","11","3561","2287","&#9752;","elianto","#f73b6a7A"," "," ","1","0","[1415]","1","1","","","3561","15","3","3","lose","go","0"
"pit-trial","133","900261","0.0-19.0","battery-v0.2","","""event"",""trial"",""time""
""fullscreenenter"",""1"",""2874""
","
","
","""event"",""trial"",""time""
""fullscreenenter"",""1"",""2874""
","
","","","-1","","","11","3561","2287","&#9733;","elianto","#3366ff99","-1","-1","1","+10","[]","0","1","","","3561","16","2","2","win","no-go","0"
"pit-trial","134","903805","0.0-20.0","battery-v0.2","","""event"",""trial"",""time""
""fullscreenenter"",""1"",""2874""
","
","
","""event"",""trial"",""time""
""fullscreenenter"",""1"",""2874""
","
","","","679.6999999992549","","","11","3561","2287","&#9752;","elianto","#f73b6a7A"," "," ","1","0","[1533.4000000003725]","1","1","","","3561","17","3","3","lose","go","0"
"pit-trial","135","908669","0.0-21.0","battery-v0.2","","""event"",""trial"",""time""
""fullscreenenter"",""1"",""2874""
","
","
","""event"",""trial"",""time""
""fullscreenenter"",""1"",""2874""
","
","","","-1","","","11","3561","2287","&#9728;","elianto","#f73b6a7A","-1","-1","1","0","[]","0","1","","","3561","18","0","4","lose","no-go","0"
"pit-trial","136","912213","0.0-22.0","battery-v0.2","","""event"",""trial"",""time""
""fullscreenenter"",""1"",""2874""
","
","
","""event"",""trial"",""time""
""fullscreenenter"",""1"",""2874""
","
","","","681","","","11","3561","2287","&#9730;","elianto","#3366ff99"," "," ","1","+10","[1533.4000000003725]","1","1","","","3561","19","1","1","win","go","0"
"pit-trial","137","917077","0.0-23.0","battery-v0.2","","""event"",""trial"",""time""
""fullscreenenter"",""1"",""2874""
""fullscreenexit"",""138"",""930341""
""blur"",""138"",""934348""
""focus"",""138"",""1110628""
","""event"",""trial"",""time""
""blur"",""138"",""934348""
","""event"",""trial"",""time""
""focus"",""138"",""1110628""
","""event"",""trial"",""time""
""fullscreenenter"",""1"",""2874""
","""event"",""trial"",""time""
""fullscreenexit"",""138"",""930341""
","","","-1","","","11","3561","2287","&#9733;","elianto","#3366ff99","-1","-1","1","0","[]","0","1","","","3561","20","2","2","win","no-go","1"
"pit-instructions","138","1112695","0.0-24.0","battery-v0.2","","""event"",""trial"",""time""
""fullscreenenter"",""1"",""2874""
""fullscreenexit"",""138"",""930341""
""blur"",""138"",""934348""
""focus"",""138"",""1110628""
","""event"",""trial"",""time""
""blur"",""138"",""934348""
","""event"",""trial"",""time""
""focus"",""138"",""1110628""
","""event"",""trial"",""time""
""fullscreenenter"",""1"",""2874""
","""event"",""trial"",""time""
""fullscreenexit"",""138"",""930341""
","","[{""page_index"":0,""viewing_time"":6422.0999999996275},{""page_index"":1,""viewing_time"":189192.70000000112}]","195615.90000000037","","","","","","","","","","","","","","","","","","","","","","","",""
"pit-trial","139","1116949","0.0-25.0","battery-v0.2","","""event"",""trial"",""time""
""fullscreenenter"",""1"",""2874""
""fullscreenexit"",""138"",""930341""
""blur"",""138"",""934348""
""focus"",""138"",""1110628""
","""event"",""trial"",""time""
""blur"",""138"",""934348""
","""event"",""trial"",""time""
""focus"",""138"",""1110628""
","""event"",""trial"",""time""
""fullscreenenter"",""1"",""2874""
","""event"",""trial"",""time""
""fullscreenexit"",""138"",""930341""
","","","1392.7999999988824","","","11","3561","2287","j","elianto","#f73b6a7A","-1"," ","0","-10","[2247.2999999988824]","1","2","","","3561","21","0","4","lose","no-go","0"
"pit-trial","140","1120974","0.0-26.0","battery-v0.2","","""event"",""trial"",""time""
""fullscreenenter"",""1"",""2874""
""fullscreenexit"",""138"",""930341""
""blur"",""138"",""934348""
""focus"",""138"",""1110628""
","""event"",""trial"",""time""
""blur"",""138"",""934348""
","""event"",""trial"",""time""
""focus"",""138"",""1110628""
","""event"",""trial"",""time""
""fullscreenenter"",""1"",""2874""
","""event"",""trial"",""time""
""fullscreenexit"",""138"",""930341""
","","","1161.5","","","11","3561","2287","w","elianto","#f73b6a7A"," "," ","1","0","[2013.2999999988824]","1","2","","","3561","22","3","3","lose","go","0"
"pit-trial","141","1125189","0.0-27.0","battery-v0.2","","""event"",""trial"",""time""
""fullscreenenter"",""1"",""2874""
""fullscreenexit"",""138"",""930341""
""blur"",""138"",""934348""
""focus"",""138"",""1110628""
","""event"",""trial"",""time""
""blur"",""138"",""934348""
","""event"",""trial"",""time""
""focus"",""138"",""1110628""
","""event"",""trial"",""time""
""fullscreenenter"",""1"",""2874""
","""event"",""trial"",""time""
""fullscreenexit"",""138"",""930341""
","","","1353.5","","","11","3561","2287","e","elianto","#f73b6a7A","-1"," ","0","-10","[2206.5]","1","2","","","3561","23","2","4","lose","no-go","0"
"pit-trial","142","1128957","0.0-28.0","battery-v0.2","","""event"",""trial"",""time""
""fullscreenenter"",""1"",""2874""
""fullscreenexit"",""138"",""930341""
""blur"",""138"",""934348""
""focus"",""138"",""1110628""
","""event"",""trial"",""time""
""blur"",""138"",""934348""
","""event"",""trial"",""time""
""focus"",""138"",""1110628""
","""event"",""trial"",""time""
""fullscreenenter"",""1"",""2874""
","""event"",""trial"",""time""
""fullscreenexit"",""138"",""930341""
","","","904.5","","","11","3561","2287","d","elianto","#3366ff99"," "," ","1","+10","[1757.800000000745]","1","2","","","3561","24","1","1","win","go","0"
"pit-trial","143","1132845","0.0-29.0","battery-v0.2","","""event"",""trial"",""time""
""fullscreenenter"",""1"",""2874""
""fullscreenexit"",""138"",""930341""
""blur"",""138"",""934348""
""focus"",""138"",""1110628""
","""event"",""trial"",""time""
""blur"",""138"",""934348""
","""event"",""trial"",""time""
""focus"",""138"",""1110628""
","""event"",""trial"",""time""
""fullscreenenter"",""1"",""2874""
","""event"",""trial"",""time""
""fullscreenexit"",""138"",""930341""
","","","1028","","","11","3561","2287","d","elianto","#3366ff99"," "," ","1","0","[1880.7999999988824]","1","2","","","3561","25","1","1","win","go","1"
"pit-trial","144","1137709","0.0-30.0","battery-v0.2","","""event"",""trial"",""time""
""fullscreenenter"",""1"",""2874""
""fullscreenexit"",""138"",""930341""
""blur"",""138"",""934348""
""focus"",""138"",""1110628""
","""event"",""trial"",""time""
""blur"",""138"",""934348""
","""event"",""trial"",""time""
""focus"",""138"",""1110628""
","""event"",""trial"",""time""
""fullscreenenter"",""1"",""2874""
","""event"",""trial"",""time""
""fullscreenexit"",""138"",""930341""
","","","-1","","","11","3561","2287","e","elianto","#f73b6a7A","-1","-1","1","-10","[]","0","2","","","3561","26","2","4","lose","no-go","1"
"pit-trial","145","1142037","0.0-31.0","battery-v0.2","","""event"",""trial"",""time""
""fullscreenenter"",""1"",""2874""
""fullscreenexit"",""138"",""930341""
""blur"",""138"",""934348""
""focus"",""138"",""1110628""
","""event"",""trial"",""time""
""blur"",""138"",""934348""
","""event"",""trial"",""time""
""focus"",""138"",""1110628""
","""event"",""trial"",""time""
""fullscreenenter"",""1"",""2874""
","""event"",""trial"",""time""
""fullscreenexit"",""138"",""930341""
","","","1468.8999999985099","","","11","3561","2287","w","elianto","#f73b6a7A"," "," ","1","0","[2322.0999999996275]","1","2","","","3561","27","3","3","lose","go","0"
"pit-trial","146","1146901","0.0-32.0","battery-v0.2","","""event"",""trial"",""time""
""fullscreenenter"",""1"",""2874""
""fullscreenexit"",""138"",""930341""
""blur"",""138"",""934348""
""focus"",""138"",""1110628""
","""event"",""trial"",""time""
""blur"",""138"",""934348""
","""event"",""trial"",""time""
""focus"",""138"",""1110628""
","""event"",""trial"",""time""
""fullscreenenter"",""1"",""2874""
","""event"",""trial"",""time""
""fullscreenexit"",""138"",""930341""
","","","-1","","","11","3561","2287","j","elianto","#f73b6a7A","-1","-1","1","0","[]","0","2","","","3561","28","0","4","lose","no-go","0"
"pit-trial","147","1150293","0.0-33.0","battery-v0.2","","""event"",""trial"",""time""
""fullscreenenter"",""1"",""2874""
""fullscreenexit"",""138"",""930341""
""blur"",""138"",""934348""
""focus"",""138"",""1110628""
","""event"",""trial"",""time""
""blur"",""138"",""934348""
","""event"",""trial"",""time""
""focus"",""138"",""1110628""
","""event"",""trial"",""time""
""fullscreenenter"",""1"",""2874""
","""event"",""trial"",""time""
""fullscreenexit"",""138"",""930341""
","","","531.4000000003725","","","11","3561","2287","d","elianto","#3366ff99"," "," ","1","+10","[1383.0999999996275]","1","2","","","3561","29","1","1","win","go","0"
"pit-trial","148","1155157","0.0-34.0","battery-v0.2","","""event"",""trial"",""time""
""fullscreenenter"",""1"",""2874""
""fullscreenexit"",""138"",""930341""
""blur"",""138"",""934348""
""focus"",""138"",""1110628""
","""event"",""trial"",""time""
""blur"",""138"",""934348""
","""event"",""trial"",""time""
""focus"",""138"",""1110628""
","""event"",""trial"",""time""
""fullscreenenter"",""1"",""2874""
","""event"",""trial"",""time""
""fullscreenexit"",""138"",""930341""
","","","-1","","","11","3561","2287","j","elianto","#f73b6a7A","-1","-1","1","0","[]","0","2","","","3561","30","0","4","lose","no-go","0"
"pit-trial","149","1158589","0.0-35.0","battery-v0.2","","""event"",""trial"",""time""
""fullscreenenter"",""1"",""2874""
""fullscreenexit"",""138"",""930341""
""blur"",""138"",""934348""
""focus"",""138"",""1110628""
","""event"",""trial"",""time""
""blur"",""138"",""934348""
","""event"",""trial"",""time""
""focus"",""138"",""1110628""
","""event"",""trial"",""time""
""fullscreenenter"",""1"",""2874""
","""event"",""trial"",""time""
""fullscreenexit"",""138"",""930341""
","","","571.1999999992549","","","11","3561","2287","e","elianto","#f73b6a7A","-1"," ","0","-10","[1424.2000000011176]","1","2","","","3561","31","2","4","lose","no-go","0"
"pit-trial","150","1162045","0.0-36.0","battery-v0.2","","""event"",""trial"",""time""
""fullscreenenter"",""1"",""2874""
""fullscreenexit"",""138"",""930341""
""blur"",""138"",""934348""
""focus"",""138"",""1110628""
","""event"",""trial"",""time""
""blur"",""138"",""934348""
","""event"",""trial"",""time""
""focus"",""138"",""1110628""
","""event"",""trial"",""time""
""fullscreenenter"",""1"",""2874""
","""event"",""trial"",""time""
""fullscreenexit"",""138"",""930341""
","","","595.1999999992549","","","11","3561","2287","w","elianto","#f73b6a7A"," "," ","1","0","[1448.199999999255]","1","2","","","3561","32","3","3","lose","go","0"
"pit-trial","151","1166909","0.0-37.0","battery-v0.2","","""event"",""trial"",""time""
""fullscreenenter"",""1"",""2874""
""fullscreenexit"",""138"",""930341""
""blur"",""138"",""934348""
""focus"",""138"",""1110628""
","""event"",""trial"",""time""
""blur"",""138"",""934348""
","""event"",""trial"",""time""
""focus"",""138"",""1110628""
","""event"",""trial"",""time""
""fullscreenenter"",""1"",""2874""
","""event"",""trial"",""time""
""fullscreenexit"",""138"",""930341""
","","","-1","","","11","3561","2287","j","elianto","#f73b6a7A","-1","-1","1","0","[]","0","2","","","3561","33","0","4","lose","no-go","0"
"pit-trial","152","1171774","0.0-38.0","battery-v0.2","","""event"",""trial"",""time""
""fullscreenenter"",""1"",""2874""
""fullscreenexit"",""138"",""930341""
""blur"",""138"",""934348""
""focus"",""138"",""1110628""
","""event"",""trial"",""time""
""blur"",""138"",""934348""
","""event"",""trial"",""time""
""focus"",""138"",""1110628""
","""event"",""trial"",""time""
""fullscreenenter"",""1"",""2874""
","""event"",""trial"",""time""
""fullscreenexit"",""138"",""930341""
","","","-1","","","11","3561","2287","e","elianto","#f73b6a7A","-1","-1","1","0","[]","0","2","","","3561","34","2","4","lose","no-go","0"
"pit-trial","153","1175541","0.0-39.0","battery-v0.2","","""event"",""trial"",""time""
""fullscreenenter"",""1"",""2874""
""fullscreenexit"",""138"",""930341""
""blur"",""138"",""934348""
""focus"",""138"",""1110628""
","""event"",""trial"",""time""
""blur"",""138"",""934348""
","""event"",""trial"",""time""
""focus"",""138"",""1110628""
","""event"",""trial"",""time""
""fullscreenenter"",""1"",""2874""
","""event"",""trial"",""time""
""fullscreenexit"",""138"",""930341""
","","","907.5","","","11","3561","2287","d","elianto","#3366ff99"," "," ","1","+10","[1758.8999999985099]","1","2","","","3561","35","1","1","win","go","0"
"pit-trial","154","1179165","0.0-40.0","battery-v0.2","","""event"",""trial"",""time""
""fullscreenenter"",""1"",""2874""
""fullscreenexit"",""138"",""930341""
""blur"",""138"",""934348""
""focus"",""138"",""1110628""
","""event"",""trial"",""time""
""blur"",""138"",""934348""
","""event"",""trial"",""time""
""focus"",""138"",""1110628""
","""event"",""trial"",""time""
""fullscreenenter"",""1"",""2874""
","""event"",""trial"",""time""
""fullscreenexit"",""138"",""930341""
","","","764.2999999988824","","","11","3561","2287","w","elianto","#f73b6a7A"," "," ","1","-10","[1617.5999999996275]","1","2","","","3561","36","3","3","lose","go","1"
"pit-trial","155","1182725","0.0-41.0","battery-v0.2","","""event"",""trial"",""time""
""fullscreenenter"",""1"",""2874""
""fullscreenexit"",""138"",""930341""
""blur"",""138"",""934348""
""focus"",""138"",""1110628""
","""event"",""trial"",""time""
""blur"",""138"",""934348""
","""event"",""trial"",""time""
""focus"",""138"",""1110628""
","""event"",""trial"",""time""
""fullscreenenter"",""1"",""2874""
","""event"",""trial"",""time""
""fullscreenexit"",""138"",""930341""
","","","700.3000000007451","","","11","3561","2287","d","elianto","#3366ff99"," "," ","1","+10","[1552.300000000745]","1","2","","","3561","37","1","1","win","go","0"
"pit-trial","156","1187589","0.0-42.0","battery-v0.2","","""event"",""trial"",""time""
""fullscreenenter"",""1"",""2874""
""fullscreenexit"",""138"",""930341""
""blur"",""138"",""934348""
""focus"",""138"",""1110628""
","""event"",""trial"",""time""
""blur"",""138"",""934348""
","""event"",""trial"",""time""
""focus"",""138"",""1110628""
","""event"",""trial"",""time""
""fullscreenenter"",""1"",""2874""
","""event"",""trial"",""time""
""fullscreenexit"",""138"",""930341""
","","","-1","","","11","3561","2287","j","elianto","#f73b6a7A","-1","-1","1","0","[]","0","2","","","3561","38","0","4","lose","no-go","0"
"pit-trial","157","1191637","0.0-43.0","battery-v0.2","","""event"",""trial"",""time""
""fullscreenenter"",""1"",""2874""
""fullscreenexit"",""138"",""930341""
""blur"",""138"",""934348""
""focus"",""138"",""1110628""
","""event"",""trial"",""time""
""blur"",""138"",""934348""
","""event"",""trial"",""time""
""focus"",""138"",""1110628""
","""event"",""trial"",""time""
""fullscreenenter"",""1"",""2874""
","""event"",""trial"",""time""
""fullscreenexit"",""138"",""930341""
","","","1189.800000000745","","","11","3561","2287","e","elianto","#f73b6a7A","-1"," ","0","-10","[2043.9000000003725]","1","2","","","3561","39","2","4","lose","no-go","0"
"pit-trial","158","1196501","0.0-44.0","battery-v0.2","","""event"",""trial"",""time""
""fullscreenenter"",""1"",""2874""
""fullscreenexit"",""138"",""930341""
""blur"",""138"",""934348""
""focus"",""138"",""1110628""
","""event"",""trial"",""time""
""blur"",""138"",""934348""
","""event"",""trial"",""time""
""focus"",""138"",""1110628""
","""event"",""trial"",""time""
""fullscreenenter"",""1"",""2874""
","""event"",""trial"",""time""
""fullscreenexit"",""138"",""930341""
","","","-1","","","11","3561","2287","w","elianto","#f73b6a7A"," ","-1","0","-10","[]","0","2","","","3561","40","3","3","lose","go","0"
"pit-trial","159","1200277","0.0-45.0","battery-v0.2","","""event"",""trial"",""time""
""fullscreenenter"",""1"",""2874""
""fullscreenexit"",""138"",""930341""
""blur"",""138"",""934348""
""focus"",""138"",""1110628""
","""event"",""trial"",""time""
""blur"",""138"",""934348""
","""event"",""trial"",""time""
""focus"",""138"",""1110628""
","""event"",""trial"",""time""
""fullscreenenter"",""1"",""2874""
","""event"",""trial"",""time""
""fullscreenexit"",""138"",""930341""
","","","921.2000000011176","","","11","3561","2287","w","elianto","#f73b6a7A"," "," ","1","0","[1772.6000000014901]","1","2","","","3561","41","3","3","lose","go","0"
"pit-trial","160","1203917","0.0-46.0","battery-v0.2","","""event"",""trial"",""time""
""fullscreenenter"",""1"",""2874""
""fullscreenexit"",""138"",""930341""
""blur"",""138"",""934348""
""focus"",""138"",""1110628""
","""event"",""trial"",""time""
""blur"",""138"",""934348""
","""event"",""trial"",""time""
""focus"",""138"",""1110628""
","""event"",""trial"",""time""
""fullscreenenter"",""1"",""2874""
","""event"",""trial"",""time""
""fullscreenexit"",""138"",""930341""
","","","782.7000000011176","","","11","3561","2287","d","elianto","#3366ff99"," "," ","1","+10","[1636.0999999996275]","1","2","","","3561","42","1","1","win","go","0"
"pit-trial","161","1208781","0.0-47.0","battery-v0.2","","""event"",""trial"",""time""
""fullscreenenter"",""1"",""2874""
""fullscreenexit"",""138"",""930341""
""blur"",""138"",""934348""
""focus"",""138"",""1110628""
","""event"",""trial"",""time""
""blur"",""138"",""934348""
","""event"",""trial"",""time""
""focus"",""138"",""1110628""
","""event"",""trial"",""time""
""fullscreenenter"",""1"",""2874""
","""event"",""trial"",""time""
""fullscreenexit"",""138"",""930341""
","","","-1","","","11","3561","2287","j","elianto","#f73b6a7A","-1","-1","1","0","[]","0","2","","","3561","43","0","4","lose","no-go","0"
"pit-trial","162","1212493","0.0-48.0","battery-v0.2","","""event"",""trial"",""time""
""fullscreenenter"",""1"",""2874""
""fullscreenexit"",""138"",""930341""
""blur"",""138"",""934348""
""focus"",""138"",""1110628""
","""event"",""trial"",""time""
""blur"",""138"",""934348""
","""event"",""trial"",""time""
""focus"",""138"",""1110628""
","""event"",""trial"",""time""
""fullscreenenter"",""1"",""2874""
","""event"",""trial"",""time""
""fullscreenexit"",""138"",""930341""
","","","854","","","11","3561","2287","e","elianto","#f73b6a7A","-1"," ","0","-10","[1705.7999999988824]","1","2","","","3561","44","2","4","lose","no-go","0"
"pit-trial","163","1215981","0.0-49.0","battery-v0.2","","""event"",""trial"",""time""
""fullscreenenter"",""1"",""2874""
""fullscreenexit"",""138"",""930341""
""blur"",""138"",""934348""
""focus"",""138"",""1110628""
","""event"",""trial"",""time""
""blur"",""138"",""934348""
","""event"",""trial"",""time""
""focus"",""138"",""1110628""
","""event"",""trial"",""time""
""fullscreenenter"",""1"",""2874""
","""event"",""trial"",""time""
""fullscreenexit"",""138"",""930341""
","","","624.6999999992549","","","11","3561","2287","w","elianto","#f73b6a7A"," "," ","1","0","[1477.9000000003725]","1","2","","","3561","45","3","3","lose","go","0"
"pit-trial","164","1219933","0.0-50.0","battery-v0.2","","""event"",""trial"",""time""
""fullscreenenter"",""1"",""2874""
""fullscreenexit"",""138"",""930341""
""blur"",""138"",""934348""
""focus"",""138"",""1110628""
","""event"",""trial"",""time""
""blur"",""138"",""934348""
","""event"",""trial"",""time""
""focus"",""138"",""1110628""
","""event"",""trial"",""time""
""fullscreenenter"",""1"",""2874""
","""event"",""trial"",""time""
""fullscreenexit"",""138"",""930341""
","","","1094.699999999255","","","11","3561","2287","s","elianto","#3366ff99","-1"," ","0","+10","[1946]","1","2","","","3561","46","4","2","win","no-go","1"
"pit-trial","165","1224797","0.0-51.0","battery-v0.2","","""event"",""trial"",""time""
""fullscreenenter"",""1"",""2874""
""fullscreenexit"",""138"",""930341""
""blur"",""138"",""934348""
""focus"",""138"",""1110628""
","""event"",""trial"",""time""
""blur"",""138"",""934348""
","""event"",""trial"",""time""
""focus"",""138"",""1110628""
","""event"",""trial"",""time""
""fullscreenenter"",""1"",""2874""
","""event"",""trial"",""time""
""fullscreenexit"",""138"",""930341""
","","","-1","","","11","3561","2287","e","elianto","#f73b6a7A","-1","-1","1","-10","[]","0","2","","","3561","47","2","4","lose","no-go","1"
"pit-trial","166","1229661","0.0-52.0","battery-v0.2","","""event"",""trial"",""time""
""fullscreenenter"",""1"",""2874""
""fullscreenexit"",""138"",""930341""
""blur"",""138"",""934348""
""focus"",""138"",""1110628""
","""event"",""trial"",""time""
""blur"",""138"",""934348""
","""event"",""trial"",""time""
""focus"",""138"",""1110628""
","""event"",""trial"",""time""
""fullscreenenter"",""1"",""2874""
","""event"",""trial"",""time""
""fullscreenexit"",""138"",""930341""
","","","-1","","","11","3561","2287","j","elianto","#f73b6a7A","-1","-1","1","0","[]","0","2","","","3561","48","0","4","lose","no-go","0"
"pit-trial","167","1233661","0.0-53.0","battery-v0.2","","""event"",""trial"",""time""
""fullscreenenter"",""1"",""2874""
""fullscreenexit"",""138"",""930341""
""blur"",""138"",""934348""
""focus"",""138"",""1110628""
","""event"",""trial"",""time""
""blur"",""138"",""934348""
","""event"",""trial"",""time""
""focus"",""138"",""1110628""
","""event"",""trial"",""time""
""fullscreenenter"",""1"",""2874""
","""event"",""trial"",""time""
""fullscreenexit"",""138"",""930341""
","","","1137","","","11","3561","2287","s","elianto","#3366ff99","-1"," ","0","0","[1990.300000000745]","1","2","","","3561","49","4","2","win","no-go","0"
"pit-trial","168","1237133","0.0-54.0","battery-v0.2","","""event"",""trial"",""time""
""fullscreenenter"",""1"",""2874""
""fullscreenexit"",""138"",""930341""
""blur"",""138"",""934348""
""focus"",""138"",""1110628""
","""event"",""trial"",""time""
""blur"",""138"",""934348""
","""event"",""trial"",""time""
""focus"",""138"",""1110628""
","""event"",""trial"",""time""
""fullscreenenter"",""1"",""2874""
","""event"",""trial"",""time""
""fullscreenexit"",""138"",""930341""
","","","607.2999999988824","","","11","3561","2287","w","elianto","#f73b6a7A"," "," ","1","0","[1460.5999999996275]","1","2","","","3561","50","3","3","lose","go","0"
"pit-trial","169","1241997","0.0-55.0","battery-v0.2","","""event"",""trial"",""time""
""fullscreenenter"",""1"",""2874""
""fullscreenexit"",""138"",""930341""
""blur"",""138"",""934348""
""focus"",""138"",""1110628""
","""event"",""trial"",""time""
""blur"",""138"",""934348""
","""event"",""trial"",""time""
""focus"",""138"",""1110628""
","""event"",""trial"",""time""
""fullscreenenter"",""1"",""2874""
","""event"",""trial"",""time""
""fullscreenexit"",""138"",""930341""
","","","-1","","","11","3561","2287","j","elianto","#f73b6a7A","-1","-1","1","0","[]","0","2","","","3561","51","0","4","lose","no-go","0"
"pit-trial","170","1245941","0.0-56.0","battery-v0.2","","""event"",""trial"",""time""
""fullscreenenter"",""1"",""2874""
""fullscreenexit"",""138"",""930341""
""blur"",""138"",""934348""
""focus"",""138"",""1110628""
","""event"",""trial"",""time""
""blur"",""138"",""934348""
","""event"",""trial"",""time""
""focus"",""138"",""1110628""
","""event"",""trial"",""time""
""fullscreenenter"",""1"",""2874""
","""event"",""trial"",""time""
""fullscreenexit"",""138"",""930341""
","","","1085","","","11","3561","2287","d","elianto","#3366ff99"," "," ","1","+10","[1936.9000000003725]","1","2","","","3561","52","1","1","win","go","0"
"pit-trial","171","1249845","0.0-57.0","battery-v0.2","","""event"",""trial"",""time""
""fullscreenenter"",""1"",""2874""
""fullscreenexit"",""138"",""930341""
""blur"",""138"",""934348""
""focus"",""138"",""1110628""
","""event"",""trial"",""time""
""blur"",""138"",""934348""
","""event"",""trial"",""time""
""focus"",""138"",""1110628""
","""event"",""trial"",""time""
""fullscreenenter"",""1"",""2874""
","""event"",""trial"",""time""
""fullscreenexit"",""138"",""930341""
","","","1043","","","11","3561","2287","d","elianto","#3366ff99"," "," ","1","+10","[1895.9000000003725]","1","2","","","3561","53","1","1","win","go","0"
"pit-trial","172","1253861","0.0-58.0","battery-v0.2","","""event"",""trial"",""time""
""fullscreenenter"",""1"",""2874""
""fullscreenexit"",""138"",""930341""
""blur"",""138"",""934348""
""focus"",""138"",""1110628""
","""event"",""trial"",""time""
""blur"",""138"",""934348""
","""event"",""trial"",""time""
""focus"",""138"",""1110628""
","""event"",""trial"",""time""
""fullscreenenter"",""1"",""2874""
","""event"",""trial"",""time""
""fullscreenexit"",""138"",""930341""
","","","1157.6000000014901","","","11","3561","2287","s","elianto","#3366ff99","-1"," ","0","+10","[2010.7000000011176]","1","2","","","3561","54","4","2","win","no-go","1"
"pit-trial","173","1258725","0.0-59.0","battery-v0.2","","""event"",""trial"",""time""
""fullscreenenter"",""1"",""2874""
""fullscreenexit"",""138"",""930341""
""blur"",""138"",""934348""
""focus"",""138"",""1110628""
","""event"",""trial"",""time""
""blur"",""138"",""934348""
","""event"",""trial"",""time""
""focus"",""138"",""1110628""
","""event"",""trial"",""time""
""fullscreenenter"",""1"",""2874""
","""event"",""trial"",""time""
""fullscreenexit"",""138"",""930341""
","","","-1","","","11","3561","2287","e","elianto","#f73b6a7A","-1","-1","1","0","[]","0","2","","","3561","55","2","4","lose","no-go","0"
"pit-trial","174","1263589","0.0-60.0","battery-v0.2","","""event"",""trial"",""time""
""fullscreenenter"",""1"",""2874""
""fullscreenexit"",""138"",""930341""
""blur"",""138"",""934348""
""focus"",""138"",""1110628""
","""event"",""trial"",""time""
""blur"",""138"",""934348""
","""event"",""trial"",""time""
""focus"",""138"",""1110628""
","""event"",""trial"",""time""
""fullscreenenter"",""1"",""2874""
","""event"",""trial"",""time""
""fullscreenexit"",""138"",""930341""
","","","-1","","","11","3561","2287","j","elianto","#f73b6a7A","-1","-1","1","0","[]","0","2","","","3561","56","0","4","lose","no-go","0"
"pit-trial","175","1268453","0.0-61.0","battery-v0.2","","""event"",""trial"",""time""
""fullscreenenter"",""1"",""2874""
""fullscreenexit"",""138"",""930341""
""blur"",""138"",""934348""
""focus"",""138"",""1110628""
","""event"",""trial"",""time""
""blur"",""138"",""934348""
","""event"",""trial"",""time""
""focus"",""138"",""1110628""
","""event"",""trial"",""time""
""fullscreenenter"",""1"",""2874""
","""event"",""trial"",""time""
""fullscreenexit"",""138"",""930341""
","","","-1","","","11","3561","2287","j","elianto","#f73b6a7A","-1","-1","1","0","[]","0","2","","","3561","57","0","4","lose","no-go","0"
"pit-trial","176","1272365","0.0-62.0","battery-v0.2","","""event"",""trial"",""time""
""fullscreenenter"",""1"",""2874""
""fullscreenexit"",""138"",""930341""
""blur"",""138"",""934348""
""focus"",""138"",""1110628""
","""event"",""trial"",""time""
""blur"",""138"",""934348""
","""event"",""trial"",""time""
""focus"",""138"",""1110628""
","""event"",""trial"",""time""
""fullscreenenter"",""1"",""2874""
","""event"",""trial"",""time""
""fullscreenexit"",""138"",""930341""
","","","1048.3999999985099","","","11","3561","2287","d","elianto","#3366ff99"," "," ","1","0","[1901.2999999988824]","1","2","","","3561","58","1","1","win","go","1"
"pit-trial","177","1276254","0.0-63.0","battery-v0.2","","""event"",""trial"",""time""
""fullscreenenter"",""1"",""2874""
""fullscreenexit"",""138"",""930341""
""blur"",""138"",""934348""
""focus"",""138"",""1110628""
","""event"",""trial"",""time""
""blur"",""138"",""934348""
","""event"",""trial"",""time""
""focus"",""138"",""1110628""
","""event"",""trial"",""time""
""fullscreenenter"",""1"",""2874""
","""event"",""trial"",""time""
""fullscreenexit"",""138"",""930341""
","","","1029.0999999996275","","","11","3561","2287","w","elianto","#f73b6a7A"," "," ","1","0","[1880.5999999996275]","1","2","","","3561","59","3","3","lose","go","0"
"pit-trial","178","1279701","0.0-64.0","battery-v0.2","","""event"",""trial"",""time""
""fullscreenenter"",""1"",""2874""
""fullscreenexit"",""138"",""930341""
""blur"",""138"",""934348""
""focus"",""138"",""1110628""
","""event"",""trial"",""time""
""blur"",""138"",""934348""
","""event"",""trial"",""time""
""focus"",""138"",""1110628""
","""event"",""trial"",""time""
""fullscreenenter"",""1"",""2874""
","""event"",""trial"",""time""
""fullscreenexit"",""138"",""930341""
","","","589.3000000007451","","","11","3561","2287","s","elianto","#3366ff99","-1"," ","0","0","[1441.5999999996275]","1","2","","","3561","60","4","2","win","no-go","0"
"pit-trial","179","1283445","0.0-65.0","battery-v0.2","","""event"",""trial"",""time""
""fullscreenenter"",""1"",""2874""
""fullscreenexit"",""138"",""930341""
""blur"",""138"",""934348""
""focus"",""138"",""1110628""
","""event"",""trial"",""time""
""blur"",""138"",""934348""
","""event"",""trial"",""time""
""focus"",""138"",""1110628""
","""event"",""trial"",""time""
""fullscreenenter"",""1"",""2874""
","""event"",""trial"",""time""
""fullscreenexit"",""138"",""930341""
","","","885.2000000011176","","","11","3561","2287","w","elianto","#f73b6a7A"," "," ","1","-10","[1738.2999999988824]","1","2","","","3561","61","3","3","lose","go","1"
"pit-trial","180","1286973","0.0-66.0","battery-v0.2","","""event"",""trial"",""time""
""fullscreenenter"",""1"",""2874""
""fullscreenexit"",""138"",""930341""
""blur"",""138"",""934348""
""focus"",""138"",""1110628""
","""event"",""trial"",""time""
""blur"",""138"",""934348""
","""event"",""trial"",""time""
""focus"",""138"",""1110628""
","""event"",""trial"",""time""
""fullscreenenter"",""1"",""2874""
","""event"",""trial"",""time""
""fullscreenexit"",""138"",""930341""
","","","668.9000000003725","","","11","3561","2287","s","elianto","#3366ff99","-1"," ","0","0","[1522.2000000011176]","1","2","","","3561","62","4","2","win","no-go","0"
"pit-trial","181","1291837","0.0-67.0","battery-v0.2","","""event"",""trial"",""time""
""fullscreenenter"",""1"",""2874""
""fullscreenexit"",""138"",""930341""
""blur"",""138"",""934348""
""focus"",""138"",""1110628""
","""event"",""trial"",""time""
""blur"",""138"",""934348""
","""event"",""trial"",""time""
""focus"",""138"",""1110628""
","""event"",""trial"",""time""
""fullscreenenter"",""1"",""2874""
","""event"",""trial"",""time""
""fullscreenexit"",""138"",""930341""
","","","-1","","","11","3561","2287","e","elianto","#f73b6a7A","-1","-1","1","-10","[]","0","2","","","3561","63","2","4","lose","no-go","1"
"pit-trial","182","1295533","0.0-68.0","battery-v0.2","","""event"",""trial"",""time""
""fullscreenenter"",""1"",""2874""
""fullscreenexit"",""138"",""930341""
""blur"",""138"",""934348""
""focus"",""138"",""1110628""
","""event"",""trial"",""time""
""blur"",""138"",""934348""
","""event"",""trial"",""time""
""focus"",""138"",""1110628""
","""event"",""trial"",""time""
""fullscreenenter"",""1"",""2874""
","""event"",""trial"",""time""
""fullscreenexit"",""138"",""930341""
","","","838","","","11","3561","2287","d","elianto","#3366ff99"," "," ","1","0","[1691.2999999988824]","1","2","","","3561","64","1","1","win","go","1"
"pit-trial","183","1299861","0.0-69.0","battery-v0.2","","""event"",""trial"",""time""
""fullscreenenter"",""1"",""2874""
""fullscreenexit"",""138"",""930341""
""blur"",""138"",""934348""
""focus"",""138"",""1110628""
","""event"",""trial"",""time""
""blur"",""138"",""934348""
","""event"",""trial"",""time""
""focus"",""138"",""1110628""
","""event"",""trial"",""time""
""fullscreenenter"",""1"",""2874""
","""event"",""trial"",""time""
""fullscreenexit"",""138"",""930341""
","","","1467.2000000011176","","","11","3561","2287","w","elianto","#f73b6a7A"," "," ","1","0","[2317.7000000011176]","1","2","","","3561","65","3","3","lose","go","0"
"pit-trial","184","1304725","0.0-70.0","battery-v0.2","","""event"",""trial"",""time""
""fullscreenenter"",""1"",""2874""
""fullscreenexit"",""138"",""930341""
""blur"",""138"",""934348""
""focus"",""138"",""1110628""
","""event"",""trial"",""time""
""blur"",""138"",""934348""
","""event"",""trial"",""time""
""focus"",""138"",""1110628""
","""event"",""trial"",""time""
""fullscreenenter"",""1"",""2874""
","""event"",""trial"",""time""
""fullscreenexit"",""138"",""930341""
","","","-1","","","11","3561","2287","e","elianto","#f73b6a7A","-1","-1","1","0","[]","0","2","","","3561","66","2","4","lose","no-go","0"
"pit-trial","185","1309589","0.0-71.0","battery-v0.2","","""event"",""trial"",""time""
""fullscreenenter"",""1"",""2874""
""fullscreenexit"",""138"",""930341""
""blur"",""138"",""934348""
""focus"",""138"",""1110628""
","""event"",""trial"",""time""
""blur"",""138"",""934348""
","""event"",""trial"",""time""
""focus"",""138"",""1110628""
","""event"",""trial"",""time""
""fullscreenenter"",""1"",""2874""
","""event"",""trial"",""time""
""fullscreenexit"",""138"",""930341""
","","","-1","","","11","3561","2287","s","elianto","#3366ff99","-1","-1","1","+10","[]","0","2","","","3561","67","4","2","win","no-go","0"
"pit-trial","186","1313053","0.0-72.0","battery-v0.2","","""event"",""trial"",""time""
""fullscreenenter"",""1"",""2874""
""fullscreenexit"",""138"",""930341""
""blur"",""138"",""934348""
""focus"",""138"",""1110628""
","""event"",""trial"",""time""
""blur"",""138"",""934348""
","""event"",""trial"",""time""
""focus"",""138"",""1110628""
","""event"",""trial"",""time""
""fullscreenenter"",""1"",""2874""
","""event"",""trial"",""time""
""fullscreenexit"",""138"",""930341""
","","","603.1999999992549","","","11","3561","2287","d","elianto","#3366ff99"," "," ","1","+10","[1456.4000000003725]","1","2","","","3561","68","1","1","win","go","0"
"pit-trial","187","1316589","0.0-73.0","battery-v0.2","","""event"",""trial"",""time""
""fullscreenenter"",""1"",""2874""
""fullscreenexit"",""138"",""930341""
""blur"",""138"",""934348""
""focus"",""138"",""1110628""
","""event"",""trial"",""time""
""blur"",""138"",""934348""
","""event"",""trial"",""time""
""focus"",""138"",""1110628""
","""event"",""trial"",""time""
""fullscreenenter"",""1"",""2874""
","""event"",""trial"",""time""
""fullscreenexit"",""138"",""930341""
","","","675.0999999996275","","","11","3561","2287","s","elianto","#3366ff99","-1"," ","0","0","[1528.300000000745]","1","2","","","3561","69","4","2","win","no-go","0"
"pit-trial","188","1320893","0.0-74.0","battery-v0.2","","""event"",""trial"",""time""
""fullscreenenter"",""1"",""2874""
""fullscreenexit"",""138"",""930341""
""blur"",""138"",""934348""
""focus"",""138"",""1110628""
","""event"",""trial"",""time""
""blur"",""138"",""934348""
","""event"",""trial"",""time""
""focus"",""138"",""1110628""
","""event"",""trial"",""time""
""fullscreenenter"",""1"",""2874""
","""event"",""trial"",""time""
""fullscreenexit"",""138"",""930341""
","","","1439.9000000003725","","","11","3561","2287","w","elianto","#f73b6a7A"," "," ","1","0","[2292.199999999255]","1","2","","","3561","70","3","3","lose","go","0"
"pit-trial","189","1324749","0.0-75.0","battery-v0.2","","""event"",""trial"",""time""
""fullscreenenter"",""1"",""2874""
""fullscreenexit"",""138"",""930341""
""blur"",""138"",""934348""
""focus"",""138"",""1110628""
","""event"",""trial"",""time""
""blur"",""138"",""934348""
","""event"",""trial"",""time""
""focus"",""138"",""1110628""
","""event"",""trial"",""time""
""fullscreenenter"",""1"",""2874""
","""event"",""trial"",""time""
""fullscreenexit"",""138"",""930341""
","","","994.5","","","11","3561","2287","d","elianto","#3366ff99"," "," ","1","+10","[1847.699999999255]","1","2","","","3561","71","1","1","win","go","0"
"pit-trial","190","1328517","0.0-76.0","battery-v0.2","","""event"",""trial"",""time""
""fullscreenenter"",""1"",""2874""
""fullscreenexit"",""138"",""930341""
""blur"",""138"",""934348""
""focus"",""138"",""1110628""
","""event"",""trial"",""time""
""blur"",""138"",""934348""
","""event"",""trial"",""time""
""focus"",""138"",""1110628""
","""event"",""trial"",""time""
""fullscreenenter"",""1"",""2874""
","""event"",""trial"",""time""
""fullscreenexit"",""138"",""930341""
","","","912.6999999992549","","","11","3561","2287","p","elianto","#3366ff99"," "," ","1","+10","[1763.5]","1","2","","","3561","72","5","1","win","go","0"
"pit-trial","191","1332317","0.0-77.0","battery-v0.2","","""event"",""trial"",""time""
""fullscreenenter"",""1"",""2874""
""fullscreenexit"",""138"",""930341""
""blur"",""138"",""934348""
""focus"",""138"",""1110628""
","""event"",""trial"",""time""
""blur"",""138"",""934348""
","""event"",""trial"",""time""
""focus"",""138"",""1110628""
","""event"",""trial"",""time""
""fullscreenenter"",""1"",""2874""
","""event"",""trial"",""time""
""fullscreenexit"",""138"",""930341""
","","","938.2000000011176","","","11","3561","2287","d","elianto","#3366ff99"," "," ","1","+10","[1791.300000000745]","1","2","","","3561","73","1","1","win","go","0"
"pit-trial","192","1337181","0.0-78.0","battery-v0.2","","""event"",""trial"",""time""
""fullscreenenter"",""1"",""2874""
""fullscreenexit"",""138"",""930341""
""blur"",""138"",""934348""
""focus"",""138"",""1110628""
","""event"",""trial"",""time""
""blur"",""138"",""934348""
","""event"",""trial"",""time""
""focus"",""138"",""1110628""
","""event"",""trial"",""time""
""fullscreenenter"",""1"",""2874""
","""event"",""trial"",""time""
""fullscreenexit"",""138"",""930341""
","","","-1","","","11","3561","2287","p","elianto","#3366ff99"," ","-1","0","0","[3063]","1","2","","","3561","74","5","1","win","go","0"
"pit-trial","193","1342045","0.0-79.0","battery-v0.2","","""event"",""trial"",""time""
""fullscreenenter"",""1"",""2874""
""fullscreenexit"",""138"",""930341""
""blur"",""138"",""934348""
""focus"",""138"",""1110628""
","""event"",""trial"",""time""
""blur"",""138"",""934348""
","""event"",""trial"",""time""
""focus"",""138"",""1110628""
","""event"",""trial"",""time""
""fullscreenenter"",""1"",""2874""
","""event"",""trial"",""time""
""fullscreenexit"",""138"",""930341""
","","","-1","","","11","3561","2287","s","elianto","#3366ff99","-1","-1","1","+10","[]","0","2","","","3561","75","4","2","win","no-go","0"
"pit-trial","194","1346189","0.0-80.0","battery-v0.2","","""event"",""trial"",""time""
""fullscreenenter"",""1"",""2874""
""fullscreenexit"",""138"",""930341""
""blur"",""138"",""934348""
""focus"",""138"",""1110628""
","""event"",""trial"",""time""
""blur"",""138"",""934348""
","""event"",""trial"",""time""
""focus"",""138"",""1110628""
","""event"",""trial"",""time""
""fullscreenenter"",""1"",""2874""
","""event"",""trial"",""time""
""fullscreenexit"",""138"",""930341""
","","","1285","","","11","3561","2287","w","elianto","#f73b6a7A"," "," ","1","0","[2136.5999999996275]","1","2","","","3561","76","3","3","lose","go","0"
"pit-trial","195","1351053","0.0-81.0","battery-v0.2","","""event"",""trial"",""time""
""fullscreenenter"",""1"",""2874""
""fullscreenexit"",""138"",""930341""
""blur"",""138"",""934348""
""focus"",""138"",""1110628""
","""event"",""trial"",""time""
""blur"",""138"",""934348""
","""event"",""trial"",""time""
""focus"",""138"",""1110628""
","""event"",""trial"",""time""
""fullscreenenter"",""1"",""2874""
","""event"",""trial"",""time""
""fullscreenexit"",""138"",""930341""
","","","-1","","","11","3561","2287","s","elianto","#3366ff99","-1","-1","1","+10","[]","0","2","","","3561","77","4","2","win","no-go","0"
"pit-trial","196","1355861","0.0-82.0","battery-v0.2","","""event"",""trial"",""time""
""fullscreenenter"",""1"",""2874""
""fullscreenexit"",""138"",""930341""
""blur"",""138"",""934348""
""focus"",""138"",""1110628""
","""event"",""trial"",""time""
""blur"",""138"",""934348""
","""event"",""trial"",""time""
""focus"",""138"",""1110628""
","""event"",""trial"",""time""
""fullscreenenter"",""1"",""2874""
","""event"",""trial"",""time""
""fullscreenexit"",""138"",""930341""
","","","1948.9000000003725","","","11","3561","2287","g","elianto","#f73b6a7A","-1"," ","0","-10","[2801.7999999988824]","1","2","","","3561","78","6","4","lose","no-go","0"
"pit-trial","197","1360149","0.0-83.0","battery-v0.2","","""event"",""trial"",""time""
""fullscreenenter"",""1"",""2874""
""fullscreenexit"",""138"",""930341""
""blur"",""138"",""934348""
""focus"",""138"",""1110628""
","""event"",""trial"",""time""
""blur"",""138"",""934348""
","""event"",""trial"",""time""
""focus"",""138"",""1110628""
","""event"",""trial"",""time""
""fullscreenenter"",""1"",""2874""
","""event"",""trial"",""time""
""fullscreenexit"",""138"",""930341""
","","","1431.0999999996275","","","11","3561","2287","w","elianto","#f73b6a7A"," "," ","1","0","[2283.699999999255]","1","2","","","3561","79","3","3","lose","go","0"
"pit-trial","198","1364069","0.0-84.0","battery-v0.2","","""event"",""trial"",""time""
""fullscreenenter"",""1"",""2874""
""fullscreenexit"",""138"",""930341""
""blur"",""138"",""934348""
""focus"",""138"",""1110628""
","""event"",""trial"",""time""
""blur"",""138"",""934348""
","""event"",""trial"",""time""
""focus"",""138"",""1110628""
","""event"",""trial"",""time""
""fullscreenenter"",""1"",""2874""
","""event"",""trial"",""time""
""fullscreenexit"",""138"",""930341""
","","","1063.800000000745","","","11","3561","2287","p","elianto","#3366ff99"," "," ","1","+10","[1913.800000000745]","1","2","","","3561","80","5","1","win","go","0"
"pit-trial","199","1368933","0.0-85.0","battery-v0.2","","""event"",""trial"",""time""
""fullscreenenter"",""1"",""2874""
""fullscreenexit"",""138"",""930341""
""blur"",""138"",""934348""
""focus"",""138"",""1110628""
","""event"",""trial"",""time""
""blur"",""138"",""934348""
","""event"",""trial"",""time""
""focus"",""138"",""1110628""
","""event"",""trial"",""time""
""fullscreenenter"",""1"",""2874""
","""event"",""trial"",""time""
""fullscreenexit"",""138"",""930341""
","","","-1","","","11","3561","2287","g","elianto","#f73b6a7A","-1","-1","1","-10","[]","0","2","","","3561","81","6","4","lose","no-go","1"
"pit-trial","200","1373741","0.0-86.0","battery-v0.2","","""event"",""trial"",""time""
""fullscreenenter"",""1"",""2874""
""fullscreenexit"",""138"",""930341""
""blur"",""138"",""934348""
""focus"",""138"",""1110628""
","""event"",""trial"",""time""
""blur"",""138"",""934348""
","""event"",""trial"",""time""
""focus"",""138"",""1110628""
","""event"",""trial"",""time""
""fullscreenenter"",""1"",""2874""
","""event"",""trial"",""time""
""fullscreenexit"",""138"",""930341""
","","","1944.300000000745","","","11","3561","2287","a","elianto","#f73b6a7A"," "," ","1","0","[2797]","1","2","","","3561","82","7","3","lose","go","0"
"pit-trial","201","1377581","0.0-87.0","battery-v0.2","","""event"",""trial"",""time""
""fullscreenenter"",""1"",""2874""
""fullscreenexit"",""138"",""930341""
""blur"",""138"",""934348""
""focus"",""138"",""1110628""
","""event"",""trial"",""time""
""blur"",""138"",""934348""
","""event"",""trial"",""time""
""focus"",""138"",""1110628""
","""event"",""trial"",""time""
""fullscreenenter"",""1"",""2874""
","""event"",""trial"",""time""
""fullscreenexit"",""138"",""930341""
","","","982.1999999992549","","","11","3561","2287","s","elianto","#3366ff99","-1"," ","0","0","[1835]","1","2","","","3561","83","4","2","win","no-go","0"
"pit-trial","202","1381389","0.0-88.0","battery-v0.2","","""event"",""trial"",""time""
""fullscreenenter"",""1"",""2874""
""fullscreenexit"",""138"",""930341""
""blur"",""138"",""934348""
""focus"",""138"",""1110628""
","""event"",""trial"",""time""
""blur"",""138"",""934348""
","""event"",""trial"",""time""
""focus"",""138"",""1110628""
","""event"",""trial"",""time""
""fullscreenenter"",""1"",""2874""
","""event"",""trial"",""time""
""fullscreenexit"",""138"",""930341""
","","","950.0999999996275","","","11","3561","2287","p","elianto","#3366ff99"," "," ","1","+10","[1801.2999999988824]","1","2","","","3561","84","5","1","win","go","0"
"pit-trial","203","1386253","0.0-89.0","battery-v0.2","","""event"",""trial"",""time""
""fullscreenenter"",""1"",""2874""
""fullscreenexit"",""138"",""930341""
""blur"",""138"",""934348""
""focus"",""138"",""1110628""
","""event"",""trial"",""time""
""blur"",""138"",""934348""
","""event"",""trial"",""time""
""focus"",""138"",""1110628""
","""event"",""trial"",""time""
""fullscreenenter"",""1"",""2874""
","""event"",""trial"",""time""
""fullscreenexit"",""138"",""930341""
","","","-1","","","11","3561","2287","s","elianto","#3366ff99","-1","-1","1","+10","[]","0","2","","","3561","85","4","2","win","no-go","0"
"pit-trial","204","1391117","0.0-90.0","battery-v0.2","","""event"",""trial"",""time""
""fullscreenenter"",""1"",""2874""
""fullscreenexit"",""138"",""930341""
""blur"",""138"",""934348""
""focus"",""138"",""1110628""
","""event"",""trial"",""time""
""blur"",""138"",""934348""
","""event"",""trial"",""time""
""focus"",""138"",""1110628""
","""event"",""trial"",""time""
""fullscreenenter"",""1"",""2874""
","""event"",""trial"",""time""
""fullscreenexit"",""138"",""930341""
","","","-1","","","11","3561","2287","a","elianto","#f73b6a7A"," ","-1","0","-10","[]","0","2","","","3561","86","7","3","lose","go","0"
"pit-trial","205","1395093","0.0-91.0","battery-v0.2","","""event"",""trial"",""time""
""fullscreenenter"",""1"",""2874""
""fullscreenexit"",""138"",""930341""
""blur"",""138"",""934348""
""focus"",""138"",""1110628""
","""event"",""trial"",""time""
""blur"",""138"",""934348""
","""event"",""trial"",""time""
""focus"",""138"",""1110628""
","""event"",""trial"",""time""
""fullscreenenter"",""1"",""2874""
","""event"",""trial"",""time""
""fullscreenexit"",""138"",""930341""
","","","1116.800000000745","","","11","3561","2287","p","elianto","#3366ff99"," "," ","1","0","[1970.199999999255]","1","2","","","3561","87","5","1","win","go","1"
"pit-trial","206","1399549","0.0-92.0","battery-v0.2","","""event"",""trial"",""time""
""fullscreenenter"",""1"",""2874""
""fullscreenexit"",""138"",""930341""
""blur"",""138"",""934348""
""focus"",""138"",""1110628""
","""event"",""trial"",""time""
""blur"",""138"",""934348""
","""event"",""trial"",""time""
""focus"",""138"",""1110628""
","""event"",""trial"",""time""
""fullscreenenter"",""1"",""2874""
","""event"",""trial"",""time""
""fullscreenexit"",""138"",""930341""
","","","1594","","","11","3561","2287","g","elianto","#f73b6a7A","-1"," ","0","0","[2447.5]","1","2","","","3561","88","6","4","lose","no-go","1"
"pit-trial","207","1403405","0.0-93.0","battery-v0.2","","""event"",""trial"",""time""
""fullscreenenter"",""1"",""2874""
""fullscreenexit"",""138"",""930341""
""blur"",""138"",""934348""
""focus"",""138"",""1110628""
","""event"",""trial"",""time""
""blur"",""138"",""934348""
","""event"",""trial"",""time""
""focus"",""138"",""1110628""
","""event"",""trial"",""time""
""fullscreenenter"",""1"",""2874""
","""event"",""trial"",""time""
""fullscreenexit"",""138"",""930341""
","","","996.4000000003725","","","11","3561","2287","g","elianto","#f73b6a7A","-1"," ","0","-10","[1849.699999999255]","1","2","","","3561","89","6","4","lose","no-go","0"
"pit-trial","208","1407093","0.0-94.0","battery-v0.2","","""event"",""trial"",""time""
""fullscreenenter"",""1"",""2874""
""fullscreenexit"",""138"",""930341""
""blur"",""138"",""934348""
""focus"",""138"",""1110628""
","""event"",""trial"",""time""
""blur"",""138"",""934348""
","""event"",""trial"",""time""
""focus"",""138"",""1110628""
","""event"",""trial"",""time""
""fullscreenenter"",""1"",""2874""
","""event"",""trial"",""time""
""fullscreenexit"",""138"",""930341""
","","","826.0999999996275","","","11","3561","2287","a","elianto","#f73b6a7A"," "," ","1","0","[1679.6000000014901]","1","2","","","3561","90","7","3","lose","go","0"
"pit-trial","209","1410653","0.0-95.0","battery-v0.2","","""event"",""trial"",""time""
""fullscreenenter"",""1"",""2874""
""fullscreenexit"",""138"",""930341""
""blur"",""138"",""934348""
""focus"",""138"",""1110628""
","""event"",""trial"",""time""
""blur"",""138"",""934348""
","""event"",""trial"",""time""
""focus"",""138"",""1110628""
","""event"",""trial"",""time""
""fullscreenenter"",""1"",""2874""
","""event"",""trial"",""time""
""fullscreenexit"",""138"",""930341""
","","","697.8000000007451","","","11","3561","2287","p","elianto","#3366ff99"," "," ","1","+10","[1551]","1","2","","","3561","91","5","1","win","go","0"
"pit-trial","210","1415517","0.0-96.0","battery-v0.2","","""event"",""trial"",""time""
""fullscreenenter"",""1"",""2874""
""fullscreenexit"",""138"",""930341""
""blur"",""138"",""934348""
""focus"",""138"",""1110628""
","""event"",""trial"",""time""
""blur"",""138"",""934348""
","""event"",""trial"",""time""
""focus"",""138"",""1110628""
","""event"",""trial"",""time""
""fullscreenenter"",""1"",""2874""
","""event"",""trial"",""time""
""fullscreenexit"",""138"",""930341""
","","","-1","","","11","3561","2287","s","elianto","#3366ff99","-1","-1","1","+10","[]","0","2","","","3561","92","4","2","win","no-go","0"
