"trial_type","trial_index","time_elapsed","internal_node_id","task_version","subject_id","interactions","blur_events","focus_events","fullscreenenter_events","fullscreenexit_events","success","view_history","rt","responses","num_errors","age","subject","participantId","rune","rune_set","hex","correct","choice","accuracy","outcome","keys","total_keys","block","practice","value","sub","trial","stimulus","robot","valence","action","sham"
"pavlovia","0","24","0.0-0.0","battery-v0.2","","""event"",""trial"",""time""
""fullscreenenter"",""1"",""4317""
","
","
","""event"",""trial"",""time""
""fullscreenenter"",""1"",""4317""
","
","","","","","","","","","","","","","","","","","","","","","","","","","","",""
"fullscreen","1","5304","0.0-1.0","battery-v0.2","","""event"",""trial"",""time""
""fullscreenenter"",""1"",""4317""
","
","
","""event"",""trial"",""time""
""fullscreenenter"",""1"",""4317""
","
","true","","","","","","","","","","","","","","","","","","","","","","","","","",""
"pit-instructions","2","14270","0.0-2.0-0.0","battery-v0.2","","""event"",""trial"",""time""
""fullscreenenter"",""1"",""4317""
","
","
","""event"",""trial"",""time""
""fullscreenenter"",""1"",""4317""
","
","","[{""page_index"":0,""viewing_time"":8961.299999982119}]","8962.09999999404","","","","","","","","","","","","","","","","","","","","","","","",""
"pit-comprehension","3","18386","0.0-2.0-1.0-0.0","battery-v0.2","","""event"",""trial"",""time""
""fullscreenenter"",""1"",""4317""
","
","
","""event"",""trial"",""time""
""fullscreenenter"",""1"",""4317""
","
","","","4108.299999982119","[""shark""]","0","22","4637","3055","","","","","","","","","","","","","","","","","","",""
"pit-instructions","4","20335","0.0-2.0-1.0-1.0","battery-v0.2","","""event"",""trial"",""time""
""fullscreenenter"",""1"",""4317""
","
","
","""event"",""trial"",""time""
""fullscreenenter"",""1"",""4317""
","
","","[{""page_index"":0,""viewing_time"":1928.5999999940395}]","1928.800000011921","","","","","","","","","","","","","","","","","","","","","","","",""
"pit-comprehension","5","23854","0.0-2.0-2.0-0.0","battery-v0.2","","""event"",""trial"",""time""
""fullscreenenter"",""1"",""4317""
","
","
","""event"",""trial"",""time""
""fullscreenenter"",""1"",""4317""
","
","","","3511.2000000178814","[""tiger""]","0","22","4637","3055","","","","","","","","","","","","","","","","","","",""
"pit-instructions","6","25319","0.0-2.0-2.0-1.0","battery-v0.2","","""event"",""trial"",""time""
""fullscreenenter"",""1"",""4317""
","
","
","""event"",""trial"",""time""
""fullscreenenter"",""1"",""4317""
","
","","[{""page_index"":0,""viewing_time"":1459.2000000178814}]","1459.4000000059605","","","","","","","","","","","","","","","","","","","","","","","",""
"pit-instructions","7","185632","0.0-2.0-3.0","battery-v0.2","","""event"",""trial"",""time""
""fullscreenenter"",""1"",""4317""
","
","
","""event"",""trial"",""time""
""fullscreenenter"",""1"",""4317""
","
","","[{""page_index"":0,""viewing_time"":12978.5},{""page_index"":1,""viewing_time"":9300.5},{""page_index"":2,""viewing_time"":22034.80000001192},{""page_index"":3,""viewing_time"":7401.5},{""page_index"":4,""viewing_time"":13984.399999976158},{""page_index"":5,""viewing_time"":5816.700000017881},{""page_index"":6,""viewing_time"":16184.799999982119},{""page_index"":7,""viewing_time"":10867.40000000596},{""page_index"":8,""viewing_time"":19834.80000001192},{""page_index"":9,""viewing_time"":7961.5},{""page_index"":10,""viewing_time"":8272.799999982119},{""page_index"":11,""viewing_time"":11317.700000017881},{""page_index"":12,""viewing_time"":7550.0999999940395},{""page_index"":13,""viewing_time"":6801.199999988079}]","160307.5","","","","","","","","","","","","","","","","","","","","","","","",""
"pit-trial","8","189271","0.0-2.0-4.0-0.0","battery-v0.2","","""event"",""trial"",""time""
""fullscreenenter"",""1"",""4317""
","
","
","""event"",""trial"",""time""
""fullscreenenter"",""1"",""4317""
","
","","","778.6000000238419","","","22","4637","3055","&#9784;","elianto","#FFFFF080"," "," ","1","&#10004","[1629.5999999940395]","1","0","0","","","","","","","",""
"pit-trial","9","192955","0.0-2.0-4.1-0.1","battery-v0.2","","""event"",""trial"",""time""
""fullscreenenter"",""1"",""4317""
","
","
","""event"",""trial"",""time""
""fullscreenenter"",""1"",""4317""
","
","","","820.9000000059605","","","22","4637","3055","&#9784;","elianto","#FFFFF080"," "," ","1","&#10004","[1671.7999999821186]","1","0","0","","","","","","","",""
"pit-trial","10","196591","0.0-2.0-4.2-0.2","battery-v0.2","","""event"",""trial"",""time""
""fullscreenenter"",""1"",""4317""
","
","
","""event"",""trial"",""time""
""fullscreenenter"",""1"",""4317""
","
","","","775.3000000119209","","","22","4637","3055","&#9784;","elianto","#FFFFF080"," "," ","1","&#10004","[1626.2999999821186]","1","0","0","","","","","","","",""
"pit-trial","11","200381","0.0-2.0-4.3-0.3","battery-v0.2","","""event"",""trial"",""time""
""fullscreenenter"",""1"",""4317""
","
","
","""event"",""trial"",""time""
""fullscreenenter"",""1"",""4317""
","
","","","924.4000000059605","","","22","4637","3055","&#9784;","elianto","#FFFFF080"," "," ","1","&#10004","[1778.800000011921]","1","0","0","","","","","","","",""
"pit-trial","12","204027","0.0-2.0-4.4-0.4","battery-v0.2","","""event"",""trial"",""time""
""fullscreenenter"",""1"",""4317""
","
","
","""event"",""trial"",""time""
""fullscreenenter"",""1"",""4317""
","
","","","785.9000000059605","","","22","4637","3055","&#9784;","elianto","#FFFFF080"," "," ","1","&#10004","[1636.5]","1","0","0","","","","","","","",""
"pit-instructions","13","235301","0.0-2.0-5.0","battery-v0.2","","""event"",""trial"",""time""
""fullscreenenter"",""1"",""4317""
","
","
","""event"",""trial"",""time""
""fullscreenenter"",""1"",""4317""
","
","","[{""page_index"":0,""viewing_time"":5431.9000000059605},{""page_index"":1,""viewing_time"":11958.799999982119},{""page_index"":2,""viewing_time"":7359},{""page_index"":3,""viewing_time"":6517}]","31267","","","","","","","","","","","","","","","","","","","","","","","",""
"pit-trial","14","240163","0.0-2.0-6.0-0.0","battery-v0.2","","""event"",""trial"",""time""
""fullscreenenter"",""1"",""4317""
","
","
","""event"",""trial"",""time""
""fullscreenenter"",""1"",""4317""
","
","","","-1","","","22","4637","3055","&#9854;","elianto","#FFFFF080","-1","-1","1","&#10004","[]","0","0","1","","","","","","","",""
"pit-trial","15","245028","0.0-2.0-6.1-0.1","battery-v0.2","","""event"",""trial"",""time""
""fullscreenenter"",""1"",""4317""
","
","
","""event"",""trial"",""time""
""fullscreenenter"",""1"",""4317""
","
","","","-1","","","22","4637","3055","&#9854;","elianto","#FFFFF080","-1","-1","1","&#10004","[]","0","0","1","","","","","","","",""
"pit-trial","16","249886","0.0-2.0-6.2-0.2","battery-v0.2","","""event"",""trial"",""time""
""fullscreenenter"",""1"",""4317""
","
","
","""event"",""trial"",""time""
""fullscreenenter"",""1"",""4317""
","
","","","-1","","","22","4637","3055","&#9854;","elianto","#FFFFF080","-1","-1","1","&#10004","[]","0","0","1","","","","","","","",""
"pit-trial","17","254745","0.0-2.0-6.3-0.3","battery-v0.2","","""event"",""trial"",""time""
""fullscreenenter"",""1"",""4317""
","
","
","""event"",""trial"",""time""
""fullscreenenter"",""1"",""4317""
","
","","","-1","","","22","4637","3055","&#9854;","elianto","#FFFFF080","-1","-1","1","&#10004","[]","0","0","1","","","","","","","",""
"pit-trial","18","259606","0.0-2.0-6.4-0.4","battery-v0.2","","""event"",""trial"",""time""
""fullscreenenter"",""1"",""4317""
","
","
","""event"",""trial"",""time""
""fullscreenenter"",""1"",""4317""
","
","","","-1","","","22","4637","3055","&#9854;","elianto","#FFFFF080","-1","-1","1","&#10004","[]","0","0","1","","","","","","","",""
"pit-instructions","19","417931","0.0-2.0-7.0","battery-v0.2","","""event"",""trial"",""time""
""fullscreenenter"",""1"",""4317""
","
","
","""event"",""trial"",""time""
""fullscreenenter"",""1"",""4317""
","
","","[{""page_index"":0,""viewing_time"":7139.200000017881},{""page_index"":1,""viewing_time"":13084.399999976158},{""page_index"":2,""viewing_time"":6833.800000011921},{""page_index"":3,""viewing_time"":7417.0999999940395},{""page_index"":4,""viewing_time"":6683.300000011921},{""page_index"":5,""viewing_time"":8351.09999999404},{""page_index"":6,""viewing_time"":8000.5999999940395},{""page_index"":7,""viewing_time"":10166.90000000596},{""page_index"":8,""viewing_time"":9634.699999988079},{""page_index"":9,""viewing_time"":7866},{""page_index"":10,""viewing_time"":8834.700000017881},{""page_index"":11,""viewing_time"":6817.199999988079},{""page_index"":12,""viewing_time"":10367.800000011921},{""page_index"":13,""viewing_time"":13800.5},{""page_index"":14,""viewing_time"":9368},{""page_index"":15,""viewing_time"":7267},{""page_index"":16,""viewing_time"":6816.799999982119},{""page_index"":17,""viewing_time"":9867.300000011921}]","158316.70000001788","","","","","","","","","","","","","","","","","","","","","","","",""
"pit-trial","20","421517","0.0-2.0-8.0-0.0","battery-v0.2","","""event"",""trial"",""time""
""fullscreenenter"",""1"",""4317""
","
","
","""event"",""trial"",""time""
""fullscreenenter"",""1"",""4317""
","
","","","724.6999999880791","","","22","4637","3055","&#9776;","elianto","#3366ff99"," "," ","1","+10","[1575.9000000059605]","1","0","1","","","","","","","",""
"pit-trial","21","424814","0.0-2.0-8.0-1.0","battery-v0.2","","""event"",""trial"",""time""
""fullscreenenter"",""1"",""4317""
","
","
","""event"",""trial"",""time""
""fullscreenenter"",""1"",""4317""
","
","","","441.2999999821186","","","22","4637","3055","&#9776;","elianto","#3366ff99"," "," ","1","+10","[1291.699999988079]","1","0","1","","","","","","","",""
"pit-trial","22","428082","0.0-2.0-8.0-2.0","battery-v0.2","","""event"",""trial"",""time""
""fullscreenenter"",""1"",""4317""
","
","
","""event"",""trial"",""time""
""fullscreenenter"",""1"",""4317""
","
","","","407","","","22","4637","3055","&#9776;","elianto","#3366ff99"," "," ","1","+10","[1258.5]","1","0","1","","","","","","","",""
"pit-trial","23","431608","0.0-2.0-8.0-3.0","battery-v0.2","","""event"",""trial"",""time""
""fullscreenenter"",""1"",""4317""
","
","
","""event"",""trial"",""time""
""fullscreenenter"",""1"",""4317""
","
","","","665.3000000119209","","","22","4637","3055","&#9776;","elianto","#3366ff99"," "," ","1","0","[1515.800000011921]","1","0","1","","","","","","","",""
"pit-trial","24","434894","0.0-2.0-8.0-4.0","battery-v0.2","","""event"",""trial"",""time""
""fullscreenenter"",""1"",""4317""
","
","
","""event"",""trial"",""time""
""fullscreenenter"",""1"",""4317""
","
","","","423.69999998807907","","","22","4637","3055","&#9776;","elianto","#3366ff99"," "," ","1","+10","[1276.199999988079]","1","0","1","","","","","","","",""
"pit-trial","25","438282","0.0-2.0-8.1-0.1","battery-v0.2","","""event"",""trial"",""time""
""fullscreenenter"",""1"",""4317""
","
","
","""event"",""trial"",""time""
""fullscreenenter"",""1"",""4317""
","
","","","529.9000000059605","","","22","4637","3055","&#9776;","elianto","#3366ff99"," "," ","1","+10","[1381]","1","0","1","","","","","","","",""
"pit-trial","26","441649","0.0-2.0-8.1-1.1","battery-v0.2","","""event"",""trial"",""time""
""fullscreenenter"",""1"",""4317""
","
","
","""event"",""trial"",""time""
""fullscreenenter"",""1"",""4317""
","
","","","509.5","","","22","4637","3055","&#9776;","elianto","#3366ff99"," "," ","1","+10","[1360.5999999940395]","1","0","1","","","","","","","",""
"pit-trial","27","445063","0.0-2.0-8.1-2.1","battery-v0.2","","""event"",""trial"",""time""
""fullscreenenter"",""1"",""4317""
","
","
","""event"",""trial"",""time""
""fullscreenenter"",""1"",""4317""
","
","","","554.2000000178814","","","22","4637","3055","&#9776;","elianto","#3366ff99"," "," ","1","+10","[1404.800000011921]","1","0","1","","","","","","","",""
"pit-trial","28","448436","0.0-2.0-8.1-3.1","battery-v0.2","","""event"",""trial"",""time""
""fullscreenenter"",""1"",""4317""
","
","
","""event"",""trial"",""time""
""fullscreenenter"",""1"",""4317""
","
","","","516.5","","","22","4637","3055","&#9776;","elianto","#3366ff99"," "," ","1","0","[1366.8999999761581]","1","0","1","","","","","","","",""
"pit-trial","29","451861","0.0-2.0-8.1-4.1","battery-v0.2","","""event"",""trial"",""time""
""fullscreenenter"",""1"",""4317""
","
","
","""event"",""trial"",""time""
""fullscreenenter"",""1"",""4317""
","
","","","564","","","22","4637","3055","&#9776;","elianto","#3366ff99"," "," ","1","+10","[1415]","1","0","1","","","","","","","",""
"pit-trial","30","455146","0.0-2.0-8.2-0.2","battery-v0.2","","""event"",""trial"",""time""
""fullscreenenter"",""1"",""4317""
","
","
","""event"",""trial"",""time""
""fullscreenenter"",""1"",""4317""
","
","","","426.5","","","22","4637","3055","&#9776;","elianto","#3366ff99"," "," ","1","+10","[1278.4000000059605]","1","0","1","","","","","","","",""
"pit-trial","31","458519","0.0-2.0-8.2-1.2","battery-v0.2","","""event"",""trial"",""time""
""fullscreenenter"",""1"",""4317""
","
","
","""event"",""trial"",""time""
""fullscreenenter"",""1"",""4317""
","
","","","516","","","22","4637","3055","&#9776;","elianto","#3366ff99"," "," ","1","+10","[1366.199999988079]","1","0","1","","","","","","","",""
"pit-trial","32","462008","0.0-2.0-8.2-2.2","battery-v0.2","","""event"",""trial"",""time""
""fullscreenenter"",""1"",""4317""
","
","
","""event"",""trial"",""time""
""fullscreenenter"",""1"",""4317""
","
","","","628.5999999940395","","","22","4637","3055","&#9776;","elianto","#3366ff99"," "," ","1","+10","[1479.8999999761581]","1","0","1","","","","","","","",""
"pit-trial","33","465537","0.0-2.0-8.2-3.2","battery-v0.2","","""event"",""trial"",""time""
""fullscreenenter"",""1"",""4317""
","
","
","""event"",""trial"",""time""
""fullscreenenter"",""1"",""4317""
","
","","","669.4000000059605","","","22","4637","3055","&#9776;","elianto","#3366ff99"," "," ","1","0","[1521.6000000238419]","1","0","1","","","","","","","",""
"pit-trial","34","468962","0.0-2.0-8.2-4.2","battery-v0.2","","""event"",""trial"",""time""
""fullscreenenter"",""1"",""4317""
","
","
","""event"",""trial"",""time""
""fullscreenenter"",""1"",""4317""
","
","","","566.6999999880791","","","22","4637","3055","&#9776;","elianto","#3366ff99"," "," ","1","+10","[1418.699999988079]","1","0","1","","","","","","","",""
"call-function","35","468967","0.0-2.0-9.0","battery-v0.2","","""event"",""trial"",""time""
""fullscreenenter"",""1"",""4317""
","
","
","""event"",""trial"",""time""
""fullscreenenter"",""1"",""4317""
","
","","","","","","","","","","","","","","","","","","","","","","","","","","",""
"pit-instructions","36","526272","0.0-2.0-10.0","battery-v0.2","","""event"",""trial"",""time""
""fullscreenenter"",""1"",""4317""
","
","
","""event"",""trial"",""time""
""fullscreenenter"",""1"",""4317""
","
","","[{""page_index"":0,""viewing_time"":11383.199999988079},{""page_index"":1,""viewing_time"":13267.699999988079},{""page_index"":2,""viewing_time"":10967.300000011921},{""page_index"":3,""viewing_time"":12817.699999988079},{""page_index"":4,""viewing_time"":8867.300000011921}]","57303.5","","","","","","","","","","","","","","","","","","","","","","","",""
"pit-trial","37","529944","0.0-2.0-11.0-0.0","battery-v0.2","","""event"",""trial"",""time""
""fullscreenenter"",""1"",""4317""
","
","
","""event"",""trial"",""time""
""fullscreenenter"",""1"",""4317""
","
","","","813.8000000119209","","","22","4637","3055","&#9761;","elianto","#3366ff99","-1"," ","0","0","[1665]","1","0","2","","","","","","","",""
"pit-trial","38","534804","0.0-2.0-11.0-1.0","battery-v0.2","","""event"",""trial"",""time""
""fullscreenenter"",""1"",""4317""
","
","
","""event"",""trial"",""time""
""fullscreenenter"",""1"",""4317""
","
","","","-1","","","22","4637","3055","&#9761;","elianto","#3366ff99","-1","-1","1","+10","[]","0","0","2","","","","","","","",""
"pit-trial","39","539663","0.0-2.0-11.0-2.0","battery-v0.2","","""event"",""trial"",""time""
""fullscreenenter"",""1"",""4317""
","
","
","""event"",""trial"",""time""
""fullscreenenter"",""1"",""4317""
","
","","","-1","","","22","4637","3055","&#9761;","elianto","#3366ff99","-1","-1","1","+10","[]","0","0","2","","","","","","","",""
"pit-trial","40","542629","0.0-2.0-11.0-3.0","battery-v0.2","","""event"",""trial"",""time""
""fullscreenenter"",""1"",""4317""
","
","
","""event"",""trial"",""time""
""fullscreenenter"",""1"",""4317""
","
","","","108","","","22","4637","3055","&#9761;","elianto","#3366ff99","-1"," ","0","+10","[959.8000000119209]","1","0","2","","","","","","","",""
"pit-trial","41","545677","0.0-2.0-11.0-4.0","battery-v0.2","","""event"",""trial"",""time""
""fullscreenenter"",""1"",""4317""
","
","
","""event"",""trial"",""time""
""fullscreenenter"",""1"",""4317""
","
","","","184.69999998807907","","","22","4637","3055","&#9761;","elianto","#3366ff99","-1"," ","0","0","[1036.0999999940395]","1","0","2","","","","","","","",""
"pit-trial","42","548887","0.0-2.0-11.1-0.1","battery-v0.2","","""event"",""trial"",""time""
""fullscreenenter"",""1"",""4317""
","
","
","""event"",""trial"",""time""
""fullscreenenter"",""1"",""4317""
","
","","","347.30000001192093","","","22","4637","3055","&#9761;","elianto","#3366ff99","-1"," ","0","0","[1199.0999999940395]","1","0","2","","","","","","","",""
"pit-trial","43","552532","0.0-2.0-11.1-1.1","battery-v0.2","","""event"",""trial"",""time""
""fullscreenenter"",""1"",""4317""
","
","
","""event"",""trial"",""time""
""fullscreenenter"",""1"",""4317""
","
","","","786.6000000238419","","","22","4637","3055","&#9761;","elianto","#3366ff99","-1"," ","0","0","[1636.9000000059605]","1","0","2","","","","","","","",""
"pit-trial","44","557392","0.0-2.0-11.1-2.1","battery-v0.2","","""event"",""trial"",""time""
""fullscreenenter"",""1"",""4317""
","
","
","""event"",""trial"",""time""
""fullscreenenter"",""1"",""4317""
","
","","","-1","","","22","4637","3055","&#9761;","elianto","#3366ff99","-1","-1","1","+10","[]","0","0","2","","","","","","","",""
"pit-trial","45","562251","0.0-2.0-11.1-3.1","battery-v0.2","","""event"",""trial"",""time""
""fullscreenenter"",""1"",""4317""
","
","
","""event"",""trial"",""time""
""fullscreenenter"",""1"",""4317""
","
","","","-1","","","22","4637","3055","&#9761;","elianto","#3366ff99","-1","-1","1","0","[]","0","0","2","","","","","","","",""
"pit-trial","46","567110","0.0-2.0-11.1-4.1","battery-v0.2","","""event"",""trial"",""time""
""fullscreenenter"",""1"",""4317""
","
","
","""event"",""trial"",""time""
""fullscreenenter"",""1"",""4317""
","
","","","-1","","","22","4637","3055","&#9761;","elianto","#3366ff99","-1","-1","1","+10","[]","0","0","2","","","","","","","",""
"pit-trial","47","571573","0.0-2.0-11.2-0.2","battery-v0.2","","""event"",""trial"",""time""
""fullscreenenter"",""1"",""4317""
","
","
","""event"",""trial"",""time""
""fullscreenenter"",""1"",""4317""
","
","","","1603.0999999940395","","","22","4637","3055","&#9761;","elianto","#3366ff99","-1"," ","0","0","[2454.7000000178814]","1","0","2","","","","","","","",""
"pit-trial","48","576433","0.0-2.0-11.2-1.2","battery-v0.2","","""event"",""trial"",""time""
""fullscreenenter"",""1"",""4317""
","
","
","""event"",""trial"",""time""
""fullscreenenter"",""1"",""4317""
","
","","","-1","","","22","4637","3055","&#9761;","elianto","#3366ff99","-1","-1","1","+10","[]","0","0","2","","","","","","","",""
"pit-trial","49","581291","0.0-2.0-11.2-2.2","battery-v0.2","","""event"",""trial"",""time""
""fullscreenenter"",""1"",""4317""
","
","
","""event"",""trial"",""time""
""fullscreenenter"",""1"",""4317""
","
","","","-1","","","22","4637","3055","&#9761;","elianto","#3366ff99","-1","-1","1","+10","[]","0","0","2","","","","","","","",""
"pit-trial","50","586150","0.0-2.0-11.2-3.2","battery-v0.2","","""event"",""trial"",""time""
""fullscreenenter"",""1"",""4317""
","
","
","""event"",""trial"",""time""
""fullscreenenter"",""1"",""4317""
","
","","","-1","","","22","4637","3055","&#9761;","elianto","#3366ff99","-1","-1","1","0","[]","0","0","2","","","","","","","",""
"pit-trial","51","591009","0.0-2.0-11.2-4.2","battery-v0.2","","""event"",""trial"",""time""
""fullscreenenter"",""1"",""4317""
","
","
","""event"",""trial"",""time""
""fullscreenenter"",""1"",""4317""
","
","","","-1","","","22","4637","3055","&#9761;","elianto","#3366ff99","-1","-1","1","+10","[]","0","0","2","","","","","","","",""
"pit-trial","52","595870","0.0-2.0-11.3-0.3","battery-v0.2","","""event"",""trial"",""time""
""fullscreenenter"",""1"",""4317""
","
","
","""event"",""trial"",""time""
""fullscreenenter"",""1"",""4317""
","
","","","-1","","","22","4637","3055","&#9761;","elianto","#3366ff99","-1","-1","1","+10","[]","0","0","2","","","","","","","",""
"pit-trial","53","600732","0.0-2.0-11.3-1.3","battery-v0.2","","""event"",""trial"",""time""
""fullscreenenter"",""1"",""4317""
","
","
","""event"",""trial"",""time""
""fullscreenenter"",""1"",""4317""
","
","","","-1","","","22","4637","3055","&#9761;","elianto","#3366ff99","-1","-1","1","+10","[]","0","0","2","","","","","","","",""
"pit-trial","54","605591","0.0-2.0-11.3-2.3","battery-v0.2","","""event"",""trial"",""time""
""fullscreenenter"",""1"",""4317""
","
","
","""event"",""trial"",""time""
""fullscreenenter"",""1"",""4317""
","
","","","-1","","","22","4637","3055","&#9761;","elianto","#3366ff99","-1","-1","1","+10","[]","0","0","2","","","","","","","",""
"pit-trial","55","609091","0.0-2.0-11.3-3.3","battery-v0.2","","""event"",""trial"",""time""
""fullscreenenter"",""1"",""4317""
","
","
","""event"",""trial"",""time""
""fullscreenenter"",""1"",""4317""
","
","","","640.3000000119209","","","22","4637","3055","&#9761;","elianto","#3366ff99","-1"," ","0","+10","[1490.7999999821186]","1","0","2","","","","","","","",""
"pit-trial","56","612615","0.0-2.0-11.3-4.3","battery-v0.2","","""event"",""trial"",""time""
""fullscreenenter"",""1"",""4317""
","
","
","""event"",""trial"",""time""
""fullscreenenter"",""1"",""4317""
","
","","","664.6999999880791","","","22","4637","3055","&#9761;","elianto","#3366ff99","-1"," ","0","0","[1515]","1","0","2","","","","","","","",""
"call-function","57","612620","0.0-2.0-12.0","battery-v0.2","","""event"",""trial"",""time""
""fullscreenenter"",""1"",""4317""
","
","
","""event"",""trial"",""time""
""fullscreenenter"",""1"",""4317""
","
","","","","","","","","","","","","","","","","","","","","","","","","","","",""
"pit-instructions","58","659798","0.0-2.0-13.0","battery-v0.2","","""event"",""trial"",""time""
""fullscreenenter"",""1"",""4317""
","
","
","""event"",""trial"",""time""
""fullscreenenter"",""1"",""4317""
","
","","[{""page_index"":0,""viewing_time"":12906.899999976158},{""page_index"":1,""viewing_time"":11034.100000023842},{""page_index"":2,""viewing_time"":5950.0999999940395},{""page_index"":3,""viewing_time"":12001.299999982119},{""page_index"":4,""viewing_time"":5283.700000017881}]","47176.39999997616","","","","","","","","","","","","","","","","","","","","","","","",""
"pit-trial","59","664661","0.0-2.0-14.0-0.0","battery-v0.2","","""event"",""trial"",""time""
""fullscreenenter"",""1"",""4317""
","
","
","""event"",""trial"",""time""
""fullscreenenter"",""1"",""4317""
","
","","","-1","","","22","4637","3055","&#9826;","elianto","#f73b6a7A","-1","-1","1","0","[]","0","0","3","","","","","","","",""
"pit-trial","60","669520","0.0-2.0-14.0-1.0","battery-v0.2","","""event"",""trial"",""time""
""fullscreenenter"",""1"",""4317""
","
","
","""event"",""trial"",""time""
""fullscreenenter"",""1"",""4317""
","
","","","-1","","","22","4637","3055","&#9826;","elianto","#f73b6a7A","-1","-1","1","0","[]","0","0","3","","","","","","","",""
"pit-trial","61","674378","0.0-2.0-14.0-2.0","battery-v0.2","","""event"",""trial"",""time""
""fullscreenenter"",""1"",""4317""
","
","
","""event"",""trial"",""time""
""fullscreenenter"",""1"",""4317""
","
","","","-1","","","22","4637","3055","&#9826;","elianto","#f73b6a7A","-1","-1","1","0","[]","0","0","3","","","","","","","",""
"pit-trial","62","677856","0.0-2.0-14.0-3.0","battery-v0.2","","""event"",""trial"",""time""
""fullscreenenter"",""1"",""4317""
","
","
","""event"",""trial"",""time""
""fullscreenenter"",""1"",""4317""
","
","","","618.7000000178814","","","22","4637","3055","&#9826;","elianto","#f73b6a7A","-1"," ","0","0","[1469]","1","0","3","","","","","","","",""
"pit-trial","63","682715","0.0-2.0-14.0-4.0","battery-v0.2","","""event"",""trial"",""time""
""fullscreenenter"",""1"",""4317""
","
","
","""event"",""trial"",""time""
""fullscreenenter"",""1"",""4317""
","
","","","-1","","","22","4637","3055","&#9826;","elianto","#f73b6a7A","-1","-1","1","0","[]","0","0","3","","","","","","","",""
"pit-trial","64","687576","0.0-2.0-14.1-0.1","battery-v0.2","","""event"",""trial"",""time""
""fullscreenenter"",""1"",""4317""
","
","
","""event"",""trial"",""time""
""fullscreenenter"",""1"",""4317""
","
","","","-1","","","22","4637","3055","&#9826;","elianto","#f73b6a7A","-1","-1","1","0","[]","0","0","3","","","","","","","",""
"pit-trial","65","692434","0.0-2.0-14.1-1.1","battery-v0.2","","""event"",""trial"",""time""
""fullscreenenter"",""1"",""4317""
","
","
","""event"",""trial"",""time""
""fullscreenenter"",""1"",""4317""
","
","","","-1","","","22","4637","3055","&#9826;","elianto","#f73b6a7A","-1","-1","1","0","[]","0","0","3","","","","","","","",""
"pit-trial","66","697292","0.0-2.0-14.1-2.1","battery-v0.2","","""event"",""trial"",""time""
""fullscreenenter"",""1"",""4317""
","
","
","""event"",""trial"",""time""
""fullscreenenter"",""1"",""4317""
","
","","","-1","","","22","4637","3055","&#9826;","elianto","#f73b6a7A","-1","-1","1","0","[]","0","0","3","","","","","","","",""
"pit-trial","67","702151","0.0-2.0-14.1-3.1","battery-v0.2","","""event"",""trial"",""time""
""fullscreenenter"",""1"",""4317""
","
","
","""event"",""trial"",""time""
""fullscreenenter"",""1"",""4317""
","
","","","-1","","","22","4637","3055","&#9826;","elianto","#f73b6a7A","-1","-1","1","-10","[]","0","0","3","","","","","","","",""
"pit-trial","68","707010","0.0-2.0-14.1-4.1","battery-v0.2","","""event"",""trial"",""time""
""fullscreenenter"",""1"",""4317""
","
","
","""event"",""trial"",""time""
""fullscreenenter"",""1"",""4317""
","
","","","-1","","","22","4637","3055","&#9826;","elianto","#f73b6a7A","-1","-1","1","0","[]","0","0","3","","","","","","","",""
"pit-trial","69","711869","0.0-2.0-14.2-0.2","battery-v0.2","","""event"",""trial"",""time""
""fullscreenenter"",""1"",""4317""
","
","
","""event"",""trial"",""time""
""fullscreenenter"",""1"",""4317""
","
","","","-1","","","22","4637","3055","&#9826;","elianto","#f73b6a7A","-1","-1","1","0","[]","0","0","3","","","","","","","",""
"pit-trial","70","716728","0.0-2.0-14.2-1.2","battery-v0.2","","""event"",""trial"",""time""
""fullscreenenter"",""1"",""4317""
","
","
","""event"",""trial"",""time""
""fullscreenenter"",""1"",""4317""
","
","","","-1","","","22","4637","3055","&#9826;","elianto","#f73b6a7A","-1","-1","1","0","[]","0","0","3","","","","","","","",""
"pit-trial","71","721586","0.0-2.0-14.2-2.2","battery-v0.2","","""event"",""trial"",""time""
""fullscreenenter"",""1"",""4317""
","
","
","""event"",""trial"",""time""
""fullscreenenter"",""1"",""4317""
","
","","","-1","","","22","4637","3055","&#9826;","elianto","#f73b6a7A","-1","-1","1","0","[]","0","0","3","","","","","","","",""
"pit-trial","72","726445","0.0-2.0-14.2-3.2","battery-v0.2","","""event"",""trial"",""time""
""fullscreenenter"",""1"",""4317""
","
","
","""event"",""trial"",""time""
""fullscreenenter"",""1"",""4317""
","
","","","-1","","","22","4637","3055","&#9826;","elianto","#f73b6a7A","-1","-1","1","-10","[]","0","0","3","","","","","","","",""
"pit-trial","73","731304","0.0-2.0-14.2-4.2","battery-v0.2","","""event"",""trial"",""time""
""fullscreenenter"",""1"",""4317""
","
","
","""event"",""trial"",""time""
""fullscreenenter"",""1"",""4317""
","
","","","-1","","","22","4637","3055","&#9826;","elianto","#f73b6a7A","-1","-1","1","0","[]","0","0","3","","","","","","","",""
"pit-trial","74","736163","0.0-2.0-14.3-0.3","battery-v0.2","","""event"",""trial"",""time""
""fullscreenenter"",""1"",""4317""
","
","
","""event"",""trial"",""time""
""fullscreenenter"",""1"",""4317""
","
","","","-1","","","22","4637","3055","&#9826;","elianto","#f73b6a7A","-1","-1","1","0","[]","0","0","3","","","","","","","",""
"pit-trial","75","741021","0.0-2.0-14.3-1.3","battery-v0.2","","""event"",""trial"",""time""
""fullscreenenter"",""1"",""4317""
","
","
","""event"",""trial"",""time""
""fullscreenenter"",""1"",""4317""
","
","","","-1","","","22","4637","3055","&#9826;","elianto","#f73b6a7A","-1","-1","1","0","[]","0","0","3","","","","","","","",""
"pit-trial","76","745880","0.0-2.0-14.3-2.3","battery-v0.2","","""event"",""trial"",""time""
""fullscreenenter"",""1"",""4317""
","
","
","""event"",""trial"",""time""
""fullscreenenter"",""1"",""4317""
","
","","","-1","","","22","4637","3055","&#9826;","elianto","#f73b6a7A","-1","-1","1","0","[]","0","0","3","","","","","","","",""
"pit-trial","77","750739","0.0-2.0-14.3-3.3","battery-v0.2","","""event"",""trial"",""time""
""fullscreenenter"",""1"",""4317""
","
","
","""event"",""trial"",""time""
""fullscreenenter"",""1"",""4317""
","
","","","-1","","","22","4637","3055","&#9826;","elianto","#f73b6a7A","-1","-1","1","-10","[]","0","0","3","","","","","","","",""
"pit-trial","78","755598","0.0-2.0-14.3-4.3","battery-v0.2","","""event"",""trial"",""time""
""fullscreenenter"",""1"",""4317""
","
","
","""event"",""trial"",""time""
""fullscreenenter"",""1"",""4317""
","
","","","-1","","","22","4637","3055","&#9826;","elianto","#f73b6a7A","-1","-1","1","0","[]","0","0","3","","","","","","","",""
"call-function","79","755603","0.0-2.0-15.0","battery-v0.2","","""event"",""trial"",""time""
""fullscreenenter"",""1"",""4317""
","
","
","""event"",""trial"",""time""
""fullscreenenter"",""1"",""4317""
","
","","","","","","","","","","","","","","","","","","","","","","","","","","",""
"pit-instructions","80","784923","0.0-2.0-16.0","battery-v0.2","","""event"",""trial"",""time""
""fullscreenenter"",""1"",""4317""
","
","
","""event"",""trial"",""time""
""fullscreenenter"",""1"",""4317""
","
","","[{""page_index"":0,""viewing_time"":8583.40000000596},{""page_index"":1,""viewing_time"":11051.699999988079},{""page_index"":2,""viewing_time"":4550},{""page_index"":3,""viewing_time"":5133.9000000059605}]","29319.40000000596","","","","","","","","","","","","","","","","","","","","","","","",""
"pit-trial","81","789786","0.0-2.0-17.0-0.0","battery-v0.2","","""event"",""trial"",""time""
""fullscreenenter"",""1"",""4317""
","
","
","""event"",""trial"",""time""
""fullscreenenter"",""1"",""4317""
","
","","","-1","","","22","4637","3055","&#9789;","elianto","#f73b6a7A"," ","-1","0","-10","[]","0","0","4","","","","","","","",""
"pit-trial","82","794645","0.0-2.0-17.0-1.0","battery-v0.2","","""event"",""trial"",""time""
""fullscreenenter"",""1"",""4317""
","
","
","""event"",""trial"",""time""
""fullscreenenter"",""1"",""4317""
","
","","","-1","","","22","4637","3055","&#9789;","elianto","#f73b6a7A"," ","-1","0","-10","[]","0","0","4","","","","","","","",""
"pit-trial","83","799504","0.0-2.0-17.0-2.0","battery-v0.2","","""event"",""trial"",""time""
""fullscreenenter"",""1"",""4317""
","
","
","""event"",""trial"",""time""
""fullscreenenter"",""1"",""4317""
","
","","","-1","","","22","4637","3055","&#9789;","elianto","#f73b6a7A"," ","-1","0","-10","[]","0","0","4","","","","","","","",""
"pit-trial","84","804363","0.0-2.0-17.0-3.0","battery-v0.2","","""event"",""trial"",""time""
""fullscreenenter"",""1"",""4317""
","
","
","""event"",""trial"",""time""
""fullscreenenter"",""1"",""4317""
","
","","","-1","","","22","4637","3055","&#9789;","elianto","#f73b6a7A"," ","-1","0","0","[]","0","0","4","","","","","","","",""
"pit-trial","85","809221","0.0-2.0-17.0-4.0","battery-v0.2","","""event"",""trial"",""time""
""fullscreenenter"",""1"",""4317""
","
","
","""event"",""trial"",""time""
""fullscreenenter"",""1"",""4317""
","
","","","-1","","","22","4637","3055","&#9789;","elianto","#f73b6a7A"," ","-1","0","-10","[]","0","0","4","","","","","","","",""
"pit-trial","86","814080","0.0-2.0-17.1-0.1","battery-v0.2","","""event"",""trial"",""time""
""fullscreenenter"",""1"",""4317""
","
","
","""event"",""trial"",""time""
""fullscreenenter"",""1"",""4317""
","
","","","-1","","","22","4637","3055","&#9789;","elianto","#f73b6a7A"," ","-1","0","-10","[]","0","0","4","","","","","","","",""
"pit-trial","87","818940","0.0-2.0-17.1-1.1","battery-v0.2","","""event"",""trial"",""time""
""fullscreenenter"",""1"",""4317""
","
","
","""event"",""trial"",""time""
""fullscreenenter"",""1"",""4317""
","
","","","-1","","","22","4637","3055","&#9789;","elianto","#f73b6a7A"," ","-1","0","-10","[]","0","0","4","","","","","","","",""
"pit-trial","88","823799","0.0-2.0-17.1-2.1","battery-v0.2","","""event"",""trial"",""time""
""fullscreenenter"",""1"",""4317""
","
","
","""event"",""trial"",""time""
""fullscreenenter"",""1"",""4317""
","
","","","-1","","","22","4637","3055","&#9789;","elianto","#f73b6a7A"," ","-1","0","-10","[]","0","0","4","","","","","","","",""
"pit-trial","89","828658","0.0-2.0-17.1-3.1","battery-v0.2","","""event"",""trial"",""time""
""fullscreenenter"",""1"",""4317""
","
","
","""event"",""trial"",""time""
""fullscreenenter"",""1"",""4317""
","
","","","-1","","","22","4637","3055","&#9789;","elianto","#f73b6a7A"," ","-1","0","0","[]","0","0","4","","","","","","","",""
"pit-trial","90","833516","0.0-2.0-17.1-4.1","battery-v0.2","","""event"",""trial"",""time""
""fullscreenenter"",""1"",""4317""
","
","
","""event"",""trial"",""time""
""fullscreenenter"",""1"",""4317""
","
","","","-1","","","22","4637","3055","&#9789;","elianto","#f73b6a7A"," ","-1","0","-10","[]","0","0","4","","","","","","","",""
"pit-trial","91","838375","0.0-2.0-17.2-0.2","battery-v0.2","","""event"",""trial"",""time""
""fullscreenenter"",""1"",""4317""
","
","
","""event"",""trial"",""time""
""fullscreenenter"",""1"",""4317""
","
","","","-1","","","22","4637","3055","&#9789;","elianto","#f73b6a7A"," ","-1","0","-10","[]","0","0","4","","","","","","","",""
"pit-trial","92","843234","0.0-2.0-17.2-1.2","battery-v0.2","","""event"",""trial"",""time""
""fullscreenenter"",""1"",""4317""
","
","
","""event"",""trial"",""time""
""fullscreenenter"",""1"",""4317""
","
","","","-1","","","22","4637","3055","&#9789;","elianto","#f73b6a7A"," ","-1","0","-10","[]","0","0","4","","","","","","","",""
"pit-trial","93","848093","0.0-2.0-17.2-2.2","battery-v0.2","","""event"",""trial"",""time""
""fullscreenenter"",""1"",""4317""
","
","
","""event"",""trial"",""time""
""fullscreenenter"",""1"",""4317""
","
","","","-1","","","22","4637","3055","&#9789;","elianto","#f73b6a7A"," ","-1","0","-10","[]","0","0","4","","","","","","","",""
"pit-trial","94","852951","0.0-2.0-17.2-3.2","battery-v0.2","","""event"",""trial"",""time""
""fullscreenenter"",""1"",""4317""
","
","
","""event"",""trial"",""time""
""fullscreenenter"",""1"",""4317""
","
","","","-1","","","22","4637","3055","&#9789;","elianto","#f73b6a7A"," ","-1","0","0","[]","0","0","4","","","","","","","",""
"pit-trial","95","857810","0.0-2.0-17.2-4.2","battery-v0.2","","""event"",""trial"",""time""
""fullscreenenter"",""1"",""4317""
","
","
","""event"",""trial"",""time""
""fullscreenenter"",""1"",""4317""
","
","","","-1","","","22","4637","3055","&#9789;","elianto","#f73b6a7A"," ","-1","0","-10","[]","0","0","4","","","","","","","",""
"pit-trial","96","862669","0.0-2.0-17.3-0.3","battery-v0.2","","""event"",""trial"",""time""
""fullscreenenter"",""1"",""4317""
","
","
","""event"",""trial"",""time""
""fullscreenenter"",""1"",""4317""
","
","","","-1","","","22","4637","3055","&#9789;","elianto","#f73b6a7A"," ","-1","0","-10","[]","0","0","4","","","","","","","",""
"pit-trial","97","867528","0.0-2.0-17.3-1.3","battery-v0.2","","""event"",""trial"",""time""
""fullscreenenter"",""1"",""4317""
","
","
","""event"",""trial"",""time""
""fullscreenenter"",""1"",""4317""
","
","","","-1","","","22","4637","3055","&#9789;","elianto","#f73b6a7A"," ","-1","0","-10","[]","0","0","4","","","","","","","",""
"pit-trial","98","872387","0.0-2.0-17.3-2.3","battery-v0.2","","""event"",""trial"",""time""
""fullscreenenter"",""1"",""4317""
","
","
","""event"",""trial"",""time""
""fullscreenenter"",""1"",""4317""
","
","","","-1","","","22","4637","3055","&#9789;","elianto","#f73b6a7A"," ","-1","0","-10","[]","0","0","4","","","","","","","",""
"pit-trial","99","877245","0.0-2.0-17.3-3.3","battery-v0.2","","""event"",""trial"",""time""
""fullscreenenter"",""1"",""4317""
","
","
","""event"",""trial"",""time""
""fullscreenenter"",""1"",""4317""
","
","","","-1","","","22","4637","3055","&#9789;","elianto","#f73b6a7A"," ","-1","0","0","[]","0","0","4","","","","","","","",""
"pit-trial","100","882104","0.0-2.0-17.3-4.3","battery-v0.2","","""event"",""trial"",""time""
""fullscreenenter"",""1"",""4317""
","
","
","""event"",""trial"",""time""
""fullscreenenter"",""1"",""4317""
","
","","","-1","","","22","4637","3055","&#9789;","elianto","#f73b6a7A"," ","-1","0","-10","[]","0","0","4","","","","","","","",""
"call-function","101","882109","0.0-2.0-18.0","battery-v0.2","","""event"",""trial"",""time""
""fullscreenenter"",""1"",""4317""
","
","
","""event"",""trial"",""time""
""fullscreenenter"",""1"",""4317""
","
","","","","","","","","","","","","","","","","","","","","","","","","","","",""
"pit-instructions","102","955635","0.0-2.0-19.0","battery-v0.2","","""event"",""trial"",""time""
""fullscreenenter"",""1"",""4317""
","
","
","""event"",""trial"",""time""
""fullscreenenter"",""1"",""4317""
","
","","[{""page_index"":0,""viewing_time"":6886.5999999940395},{""page_index"":1,""viewing_time"":6117.0999999940395},{""page_index"":2,""viewing_time"":13834.5},{""page_index"":3,""viewing_time"":8100.200000017881},{""page_index"":4,""viewing_time"":8950.59999999404},{""page_index"":5,""viewing_time"":9517.799999982119},{""page_index"":6,""viewing_time"":9348.800000011921},{""page_index"":7,""viewing_time"":6651.699999988079},{""page_index"":8,""viewing_time"":4116.9000000059605}]","73524.79999998212","","","","","","","","","","","","","","","","","","","","","","","",""
"pit-comprehension","103","960403","0.0-2.0-20.0-0.0","battery-v0.2","","""event"",""trial"",""time""
""fullscreenenter"",""1"",""4317""
","
","
","""event"",""trial"",""time""
""fullscreenenter"",""1"",""4317""
","
","","","4759.600000023842","[""SPACE""]","0","22","4637","3055","","","","","","","","","","","","","","","","","","",""
"pit-instructions","104","964020","0.0-2.0-20.0-1.0","battery-v0.2","","""event"",""trial"",""time""
""fullscreenenter"",""1"",""4317""
","
","
","""event"",""trial"",""time""
""fullscreenenter"",""1"",""4317""
","
","","[{""page_index"":0,""viewing_time"":3578.2000000178814}]","3578.9000000059605","","","","","","","","","","","","","","","","","","","","","","","",""
"pit-comprehension","105","969570","0.0-2.0-21.0-0.0","battery-v0.2","","""event"",""trial"",""time""
""fullscreenenter"",""1"",""4317""
","
","
","""event"",""trial"",""time""
""fullscreenenter"",""1"",""4317""
","
","","","5542.200000017881","[""10""]","0","22","4637","3055","","","","","","","","","","","","","","","","","","",""
"pit-instructions","106","971087","0.0-2.0-21.0-1.0","battery-v0.2","","""event"",""trial"",""time""
""fullscreenenter"",""1"",""4317""
","
","
","""event"",""trial"",""time""
""fullscreenenter"",""1"",""4317""
","
","","[{""page_index"":0,""viewing_time"":1478.0999999940395}]","1478.699999988079","","","","","","","","","","","","","","","","","","","","","","","",""
"pit-comprehension","107","980261","0.0-2.0-22.0-0.0","battery-v0.2","","""event"",""trial"",""time""
""fullscreenenter"",""1"",""4317""
","
","
","""event"",""trial"",""time""
""fullscreenenter"",""1"",""4317""
","
","","","9110.09999999404","[""10""]","1","22","4637","3055","","","","","","","","","","","","","","","","","","",""
"pit-instructions","108","986895","0.0-2.0-22.0-1.0","battery-v0.2","","""event"",""trial"",""time""
""fullscreenenter"",""1"",""4317""
","
","
","""event"",""trial"",""time""
""fullscreenenter"",""1"",""4317""
","
","","[{""page_index"":0,""viewing_time"":6581.799999982119}]","6582.5","","","","","","","","","","","","","","","","","","","","","","","",""
"pit-instructions","109","987894","0.0-2.0-22.0-2.0-0.0","battery-v0.2","","""event"",""trial"",""time""
""fullscreenenter"",""1"",""4317""
","
","
","""event"",""trial"",""time""
""fullscreenenter"",""1"",""4317""
","
","","[{""page_index"":0,""viewing_time"":993.1000000238419}]","993.5","","","","","","","","","","","","","","","","","","","","","","","",""
"pit-comprehension","110","994463","0.0-2.0-22.1-0.1","battery-v0.2","","""event"",""trial"",""time""
""fullscreenenter"",""1"",""4317""
","
","
","""event"",""trial"",""time""
""fullscreenenter"",""1"",""4317""
","
","","","6560.4000000059605","[""0""]","0","22","4637","3055","","","","","","","","","","","","","","","","","","",""
"pit-instructions","111","996078","0.0-2.0-22.1-1.1","battery-v0.2","","""event"",""trial"",""time""
""fullscreenenter"",""1"",""4317""
","
","
","""event"",""trial"",""time""
""fullscreenenter"",""1"",""4317""
","
","","[{""page_index"":0,""viewing_time"":1576.1000000238419}]","1576.5","","","","","","","","","","","","","","","","","","","","","","","",""
"pit-comprehension","112","1004713","0.0-2.0-23.0-0.0","battery-v0.2","","""event"",""trial"",""time""
""fullscreenenter"",""1"",""4317""
","
","
","""event"",""trial"",""time""
""fullscreenenter"",""1"",""4317""
","
","","","8627.199999988079","[""True""]","0","22","4637","3055","","","","","","","","","","","","","","","","","","",""
"pit-instructions","113","1006329","0.0-2.0-23.0-1.0","battery-v0.2","","""event"",""trial"",""time""
""fullscreenenter"",""1"",""4317""
","
","
","""event"",""trial"",""time""
""fullscreenenter"",""1"",""4317""
","
","","[{""page_index"":0,""viewing_time"":1573.699999988079}]","1574.0999999940395","","","","","","","","","","","","","","","","","","","","","","","",""
"pit-comprehension","114","1014247","0.0-2.0-24.0-0.0","battery-v0.2","","""event"",""trial"",""time""
""fullscreenenter"",""1"",""4317""
","
","
","""event"",""trial"",""time""
""fullscreenenter"",""1"",""4317""
","
","","","7909.899999976158","[""True""]","0","22","4637","3055","","","","","","","","","","","","","","","","","","",""
"pit-instructions","115","1021881","0.0-2.0-24.0-1.0","battery-v0.2","","""event"",""trial"",""time""
""fullscreenenter"",""1"",""4317""
","
","
","""event"",""trial"",""time""
""fullscreenenter"",""1"",""4317""
","
","","[{""page_index"":0,""viewing_time"":7591.299999982119}]","7591.699999988079","","","","","","","","","","","","","","","","","","","","","","","",""
"pit-comprehension","116","1028499","0.0-2.0-25.0-0.0","battery-v0.2","","""event"",""trial"",""time""
""fullscreenenter"",""1"",""4317""
","
","
","""event"",""trial"",""time""
""fullscreenenter"",""1"",""4317""
","
","","","6607.799999982119","[""True""]","0","22","4637","3055","","","","","","","","","","","","","","","","","","",""
"pit-instructions","117","1030133","0.0-2.0-25.0-1.0","battery-v0.2","","""event"",""trial"",""time""
""fullscreenenter"",""1"",""4317""
","
","
","""event"",""trial"",""time""
""fullscreenenter"",""1"",""4317""
","
","","[{""page_index"":0,""viewing_time"":1593}]","1593.2999999821186","","","","","","","","","","","","","","","","","","","","","","","",""
"pit-comprehension","118","1034834","0.0-2.0-26.0-0.0","battery-v0.2","","""event"",""trial"",""time""
""fullscreenenter"",""1"",""4317""
","
","
","""event"",""trial"",""time""
""fullscreenenter"",""1"",""4317""
","
","","","4696.100000023842","[""False""]","0","22","4637","3055","","","","","","","","","","","","","","","","","","",""
"pit-instructions","119","1036950","0.0-2.0-26.0-1.0","battery-v0.2","","""event"",""trial"",""time""
""fullscreenenter"",""1"",""4317""
","
","
","""event"",""trial"",""time""
""fullscreenenter"",""1"",""4317""
","
","","[{""page_index"":0,""viewing_time"":2072.800000011921}]","2073.5","","","","","","","","","","","","","","","","","","","","","","","",""
"pit-instructions","120","1054935","0.0-3.0","battery-v0.2","","""event"",""trial"",""time""
""fullscreenenter"",""1"",""4317""
","
","
","""event"",""trial"",""time""
""fullscreenenter"",""1"",""4317""
","
","","[{""page_index"":0,""viewing_time"":4059.7999999821186},{""page_index"":1,""viewing_time"":6466.9000000059605},{""page_index"":2,""viewing_time"":7451.0999999940395}]","17978.09999999404","","","","","","","","","","","","","","","","","","","","","","","",""
"pit-trial","121","1058757","0.0-4.0","battery-v0.2","","""event"",""trial"",""time""
""fullscreenenter"",""1"",""4317""
","
","
","""event"",""trial"",""time""
""fullscreenenter"",""1"",""4317""
","
","","","955.5999999940395","","","22","4637","3055","&#9733;","elianto","#3366ff99","-1"," ","0","0","[1807.5]","1","1","","","4637","1","2","2","win","no-go","0"
"pit-trial","122","1063616","0.0-5.0","battery-v0.2","","""event"",""trial"",""time""
""fullscreenenter"",""1"",""4317""
","
","
","""event"",""trial"",""time""
""fullscreenenter"",""1"",""4317""
","
","","","-1","","","22","4637","3055","&#9728;","elianto","#f73b6a7A","-1","-1","1","0","[]","0","1","","","4637","2","0","4","lose","no-go","0"
"pit-trial","123","1067456","0.0-6.0","battery-v0.2","","""event"",""trial"",""time""
""fullscreenenter"",""1"",""4317""
","
","
","""event"",""trial"",""time""
""fullscreenenter"",""1"",""4317""
","
","","","981.4000000059605","","","22","4637","3055","&#9730;","elianto","#3366ff99"," "," ","1","+10","[1832]","1","1","","","4637","3","1","1","win","go","0"
"pit-trial","124","1072318","0.0-7.0","battery-v0.2","","""event"",""trial"",""time""
""fullscreenenter"",""1"",""4317""
","
","
","""event"",""trial"",""time""
""fullscreenenter"",""1"",""4317""
","
","","","-1","","","22","4637","3055","&#9752;","elianto","#f73b6a7A"," ","-1","0","-10","[]","0","1","","","4637","4","3","3","lose","go","0"
"pit-trial","125","1075941","0.0-8.0","battery-v0.2","","""event"",""trial"",""time""
""fullscreenenter"",""1"",""4317""
","
","
","""event"",""trial"",""time""
""fullscreenenter"",""1"",""4317""
","
","","","761.1000000238419","","","22","4637","3055","&#9733;","elianto","#3366ff99","-1"," ","0","0","[1612]","1","1","","","4637","5","2","2","win","no-go","0"
"pit-trial","126","1079693","0.0-9.0","battery-v0.2","","""event"",""trial"",""time""
""fullscreenenter"",""1"",""4317""
","
","
","""event"",""trial"",""time""
""fullscreenenter"",""1"",""4317""
","
","","","893.2000000178814","","","22","4637","3055","&#9730;","elianto","#3366ff99"," "," ","1","+10","[1743.6000000238419]","1","1","","","4637","6","1","1","win","go","0"
"pit-trial","127","1084556","0.0-10.0","battery-v0.2","","""event"",""trial"",""time""
""fullscreenenter"",""1"",""4317""
","
","
","""event"",""trial"",""time""
""fullscreenenter"",""1"",""4317""
","
","","","-1","","","22","4637","3055","&#9728;","elianto","#f73b6a7A","-1","-1","1","-10","[]","0","1","","","4637","7","0","4","lose","no-go","1"
"pit-trial","128","1089416","0.0-11.0","battery-v0.2","","""event"",""trial"",""time""
""fullscreenenter"",""1"",""4317""
","
","
","""event"",""trial"",""time""
""fullscreenenter"",""1"",""4317""
","
","","","-1","","","22","4637","3055","&#9752;","elianto","#f73b6a7A"," ","-1","0","-10","[]","0","1","","","4637","8","3","3","lose","go","0"
"pit-trial","129","1093526","0.0-12.0","battery-v0.2","","""event"",""trial"",""time""
""fullscreenenter"",""1"",""4317""
","
","
","""event"",""trial"",""time""
""fullscreenenter"",""1"",""4317""
","
","","","1251.1000000238419","","","22","4637","3055","&#9752;","elianto","#f73b6a7A"," "," ","1","-10","[2101.699999988079]","1","1","","","4637","9","3","3","lose","go","1"
"pit-trial","130","1098385","0.0-13.0","battery-v0.2","","""event"",""trial"",""time""
""fullscreenenter"",""1"",""4317""
","
","
","""event"",""trial"",""time""
""fullscreenenter"",""1"",""4317""
","
","","","-1","","","22","4637","3055","&#9733;","elianto","#3366ff99","-1","-1","1","+10","[]","0","1","","","4637","10","2","2","win","no-go","0"
"pit-trial","131","1102159","0.0-14.0","battery-v0.2","","""event"",""trial"",""time""
""fullscreenenter"",""1"",""4317""
","
","
","""event"",""trial"",""time""
""fullscreenenter"",""1"",""4317""
","
","","","916.7999999821186","","","22","4637","3055","&#9730;","elianto","#3366ff99"," "," ","1","0","[1767]","1","1","","","4637","11","1","1","win","go","1"
"pit-trial","132","1107018","0.0-15.0","battery-v0.2","","""event"",""trial"",""time""
""fullscreenenter"",""1"",""4317""
","
","
","""event"",""trial"",""time""
""fullscreenenter"",""1"",""4317""
","
","","","-1","","","22","4637","3055","&#9728;","elianto","#f73b6a7A","-1","-1","1","0","[]","0","1","","","4637","12","0","4","lose","no-go","0"
"pit-trial","133","1111879","0.0-16.0","battery-v0.2","","""event"",""trial"",""time""
""fullscreenenter"",""1"",""4317""
","
","
","""event"",""trial"",""time""
""fullscreenenter"",""1"",""4317""
","
","","","-1","","","22","4637","3055","&#9733;","elianto","#3366ff99","-1","-1","1","+10","[]","0","1","","","4637","13","2","2","win","no-go","0"
"pit-trial","134","1116741","0.0-17.0","battery-v0.2","","""event"",""trial"",""time""
""fullscreenenter"",""1"",""4317""
","
","
","""event"",""trial"",""time""
""fullscreenenter"",""1"",""4317""
","
","","","-1","","","22","4637","3055","&#9728;","elianto","#f73b6a7A","-1","-1","1","0","[]","0","1","","","4637","14","0","4","lose","no-go","0"
"pit-trial","135","1121600","0.0-18.0","battery-v0.2","","""event"",""trial"",""time""
""fullscreenenter"",""1"",""4317""
","
","
","""event"",""trial"",""time""
""fullscreenenter"",""1"",""4317""
","
","","","-1","","","22","4637","3055","&#9752;","elianto","#f73b6a7A"," ","-1","0","0","[]","0","1","","","4637","15","3","3","lose","go","1"
"pit-trial","136","1125966","0.0-19.0","battery-v0.2","","""event"",""trial"",""time""
""fullscreenenter"",""1"",""4317""
","
","
","""event"",""trial"",""time""
""fullscreenenter"",""1"",""4317""
","
","","","1503.5","","","22","4637","3055","&#9730;","elianto","#3366ff99"," "," ","1","+10","[2354.5]","1","1","","","4637","16","1","1","win","go","0"
"pit-trial","137","1130830","0.0-20.0","battery-v0.2","","""event"",""trial"",""time""
""fullscreenenter"",""1"",""4317""
","
","
","""event"",""trial"",""time""
""fullscreenenter"",""1"",""4317""
","
","","","-1","","","22","4637","3055","&#9730;","elianto","#3366ff99"," ","-1","0","0","[]","0","1","","","4637","17","1","1","win","go","0"
"pit-trial","138","1135689","0.0-21.0","battery-v0.2","","""event"",""trial"",""time""
""fullscreenenter"",""1"",""4317""
","
","
","""event"",""trial"",""time""
""fullscreenenter"",""1"",""4317""
","
","","","-1","","","22","4637","3055","&#9728;","elianto","#f73b6a7A","-1","-1","1","0","[]","0","1","","","4637","18","0","4","lose","no-go","0"
"pit-trial","139","1140548","0.0-22.0","battery-v0.2","","""event"",""trial"",""time""
""fullscreenenter"",""1"",""4317""
","
","
","""event"",""trial"",""time""
""fullscreenenter"",""1"",""4317""
","
","","","-1","","","22","4637","3055","&#9752;","elianto","#f73b6a7A"," ","-1","0","-10","[]","0","1","","","4637","19","3","3","lose","go","0"
"pit-trial","140","1145407","0.0-23.0","battery-v0.2","","""event"",""trial"",""time""
""fullscreenenter"",""1"",""4317""
""blur"",""141"",""1287273""
""focus"",""141"",""1399826""
","""event"",""trial"",""time""
""blur"",""141"",""1287273""
","""event"",""trial"",""time""
""focus"",""141"",""1399826""
","""event"",""trial"",""time""
""fullscreenenter"",""1"",""4317""
","
","","","-1","","","22","4637","3055","&#9733;","elianto","#3366ff99","-1","-1","1","+10","[]","0","1","","","4637","20","2","2","win","no-go","0"
"pit-instructions","141","1604999","0.0-24.0","battery-v0.2","","""event"",""trial"",""time""
""fullscreenenter"",""1"",""4317""
""blur"",""141"",""1287273""
""focus"",""141"",""1399826""
","""event"",""trial"",""time""
""blur"",""141"",""1287273""
","""event"",""trial"",""time""
""focus"",""141"",""1399826""
","""event"",""trial"",""time""
""fullscreenenter"",""1"",""4317""
","
","","[{""page_index"":0,""viewing_time"":6948},{""page_index"":1,""viewing_time"":374871.5}]","381820","","","","","","","","","","","","","","","","","","","","","","","",""
"pit-trial","142","1609863","0.0-25.0","battery-v0.2","","""event"",""trial"",""time""
""fullscreenenter"",""1"",""4317""
""blur"",""141"",""1287273""
""focus"",""141"",""1399826""
","""event"",""trial"",""time""
""blur"",""141"",""1287273""
","""event"",""trial"",""time""
""focus"",""141"",""1399826""
","""event"",""trial"",""time""
""fullscreenenter"",""1"",""4317""
","
","","","-1","","","22","4637","3055","y","elianto","#f73b6a7A"," ","-1","0","-10","[]","0","2","","","4637","21","2","3","lose","go","0"
"pit-trial","143","1614023","0.0-26.0","battery-v0.2","","""event"",""trial"",""time""
""fullscreenenter"",""1"",""4317""
""blur"",""141"",""1287273""
""focus"",""141"",""1399826""
","""event"",""trial"",""time""
""blur"",""141"",""1287273""
","""event"",""trial"",""time""
""focus"",""141"",""1399826""
","""event"",""trial"",""time""
""fullscreenenter"",""1"",""4317""
","
","","","1301.199999988079","","","22","4637","3055","r","elianto","#3366ff99","-1"," ","0","0","[2151.699999988079]","1","2","","","4637","22","1","2","win","no-go","0"
"pit-trial","144","1618221","0.0-27.0","battery-v0.2","","""event"",""trial"",""time""
""fullscreenenter"",""1"",""4317""
""blur"",""141"",""1287273""
""focus"",""141"",""1399826""
","""event"",""trial"",""time""
""blur"",""141"",""1287273""
","""event"",""trial"",""time""
""focus"",""141"",""1399826""
","""event"",""trial"",""time""
""fullscreenenter"",""1"",""4317""
","
","","","1337.800000011921","","","22","4637","3055","m","elianto","#f73b6a7A"," "," ","1","0","[2189.7000000178814]","1","2","","","4637","23","0","3","lose","go","0"
"pit-trial","145","1622324","0.0-28.0","battery-v0.2","","""event"",""trial"",""time""
""fullscreenenter"",""1"",""4317""
""blur"",""141"",""1287273""
""focus"",""141"",""1399826""
","""event"",""trial"",""time""
""blur"",""141"",""1287273""
","""event"",""trial"",""time""
""focus"",""141"",""1399826""
","""event"",""trial"",""time""
""fullscreenenter"",""1"",""4317""
","
","","","1246.5999999940395","","","22","4637","3055","h","elianto","#f73b6a7A","-1"," ","0","-10","[2097.5]","1","2","","","4637","24","3","4","lose","no-go","0"
"pit-trial","146","1627184","0.0-29.0","battery-v0.2","","""event"",""trial"",""time""
""fullscreenenter"",""1"",""4317""
""blur"",""141"",""1287273""
""focus"",""141"",""1399826""
","""event"",""trial"",""time""
""blur"",""141"",""1287273""
","""event"",""trial"",""time""
""focus"",""141"",""1399826""
","""event"",""trial"",""time""
""fullscreenenter"",""1"",""4317""
","
","","","-1","","","22","4637","3055","m","elianto","#f73b6a7A"," ","-1","0","-10","[]","0","2","","","4637","25","0","3","lose","go","0"
"pit-trial","147","1630986","0.0-30.0","battery-v0.2","","""event"",""trial"",""time""
""fullscreenenter"",""1"",""4317""
""blur"",""141"",""1287273""
""focus"",""141"",""1399826""
","""event"",""trial"",""time""
""blur"",""141"",""1287273""
","""event"",""trial"",""time""
""focus"",""141"",""1399826""
","""event"",""trial"",""time""
""fullscreenenter"",""1"",""4317""
","
","","","943.9000000059605","","","22","4637","3055","r","elianto","#3366ff99","-1"," ","0","0","[1794]","1","2","","","4637","26","1","2","win","no-go","0"
"pit-trial","148","1634794","0.0-31.0","battery-v0.2","","""event"",""trial"",""time""
""fullscreenenter"",""1"",""4317""
""blur"",""141"",""1287273""
""focus"",""141"",""1399826""
","""event"",""trial"",""time""
""blur"",""141"",""1287273""
","""event"",""trial"",""time""
""focus"",""141"",""1399826""
","""event"",""trial"",""time""
""fullscreenenter"",""1"",""4317""
","
","","","949.9000000059605","","","22","4637","3055","y","elianto","#f73b6a7A"," "," ","1","-10","[1800.5]","1","2","","","4637","27","2","3","lose","go","1"
"pit-trial","149","1639653","0.0-32.0","battery-v0.2","","""event"",""trial"",""time""
""fullscreenenter"",""1"",""4317""
""blur"",""141"",""1287273""
""focus"",""141"",""1399826""
","""event"",""trial"",""time""
""blur"",""141"",""1287273""
","""event"",""trial"",""time""
""focus"",""141"",""1399826""
","""event"",""trial"",""time""
""fullscreenenter"",""1"",""4317""
","
","","","-1","","","22","4637","3055","h","elianto","#f73b6a7A","-1","-1","1","0","[]","0","2","","","4637","28","3","4","lose","no-go","0"
"pit-trial","150","1644512","0.0-33.0","battery-v0.2","","""event"",""trial"",""time""
""fullscreenenter"",""1"",""4317""
""blur"",""141"",""1287273""
""focus"",""141"",""1399826""
","""event"",""trial"",""time""
""blur"",""141"",""1287273""
","""event"",""trial"",""time""
""focus"",""141"",""1399826""
","""event"",""trial"",""time""
""fullscreenenter"",""1"",""4317""
","
","","","-1","","","22","4637","3055","r","elianto","#3366ff99","-1","-1","1","+10","[]","0","2","","","4637","29","1","2","win","no-go","0"
"pit-trial","151","1649373","0.0-34.0","battery-v0.2","","""event"",""trial"",""time""
""fullscreenenter"",""1"",""4317""
""blur"",""141"",""1287273""
""focus"",""141"",""1399826""
","""event"",""trial"",""time""
""blur"",""141"",""1287273""
","""event"",""trial"",""time""
""focus"",""141"",""1399826""
","""event"",""trial"",""time""
""fullscreenenter"",""1"",""4317""
","
","","","-1","","","22","4637","3055","y","elianto","#f73b6a7A"," ","-1","0","0","[]","0","2","","","4637","30","2","3","lose","go","1"
"pit-trial","152","1653278","0.0-35.0","battery-v0.2","","""event"",""trial"",""time""
""fullscreenenter"",""1"",""4317""
""blur"",""141"",""1287273""
""focus"",""141"",""1399826""
","""event"",""trial"",""time""
""blur"",""141"",""1287273""
","""event"",""trial"",""time""
""focus"",""141"",""1399826""
","""event"",""trial"",""time""
""fullscreenenter"",""1"",""4317""
","
","","","1042.4000000059605","","","22","4637","3055","h","elianto","#f73b6a7A","-1"," ","0","-10","[1893.7000000178814]","1","2","","","4637","31","3","4","lose","no-go","0"
"pit-trial","153","1658143","0.0-36.0","battery-v0.2","","""event"",""trial"",""time""
""fullscreenenter"",""1"",""4317""
""blur"",""141"",""1287273""
""focus"",""141"",""1399826""
","""event"",""trial"",""time""
""blur"",""141"",""1287273""
","""event"",""trial"",""time""
""focus"",""141"",""1399826""
","""event"",""trial"",""time""
""fullscreenenter"",""1"",""4317""
","
","","","-1","","","22","4637","3055","m","elianto","#f73b6a7A"," ","-1","0","0","[]","0","2","","","4637","32","0","3","lose","go","1"
"pit-trial","154","1663001","0.0-37.0","battery-v0.2","","""event"",""trial"",""time""
""fullscreenenter"",""1"",""4317""
""blur"",""141"",""1287273""
""focus"",""141"",""1399826""
","""event"",""trial"",""time""
""blur"",""141"",""1287273""
","""event"",""trial"",""time""
""focus"",""141"",""1399826""
","""event"",""trial"",""time""
""fullscreenenter"",""1"",""4317""
","
","","","-1","","","22","4637","3055","m","elianto","#f73b6a7A"," ","-1","0","-10","[]","0","2","","","4637","33","0","3","lose","go","0"
"pit-trial","155","1667860","0.0-38.0","battery-v0.2","","""event"",""trial"",""time""
""fullscreenenter"",""1"",""4317""
""blur"",""141"",""1287273""
""focus"",""141"",""1399826""
","""event"",""trial"",""time""
""blur"",""141"",""1287273""
","""event"",""trial"",""time""
""focus"",""141"",""1399826""
","""event"",""trial"",""time""
""fullscreenenter"",""1"",""4317""
","
","","","-1","","","22","4637","3055","y","elianto","#f73b6a7A"," ","-1","0","-10","[]","0","2","","","4637","34","2","3","lose","go","0"
"pit-trial","156","1672719","0.0-39.0","battery-v0.2","","""event"",""trial"",""time""
""fullscreenenter"",""1"",""4317""
""blur"",""141"",""1287273""
""focus"",""141"",""1399826""
","""event"",""trial"",""time""
""blur"",""141"",""1287273""
","""event"",""trial"",""time""
""focus"",""141"",""1399826""
","""event"",""trial"",""time""
""fullscreenenter"",""1"",""4317""
","
","","","-1","","","22","4637","3055","h","elianto","#f73b6a7A","-1","-1","1","0","[]","0","2","","","4637","35","3","4","lose","no-go","0"
"pit-trial","157","1677578","0.0-40.0","battery-v0.2","","""event"",""trial"",""time""
""fullscreenenter"",""1"",""4317""
""blur"",""141"",""1287273""
""focus"",""141"",""1399826""
","""event"",""trial"",""time""
""blur"",""141"",""1287273""
","""event"",""trial"",""time""
""focus"",""141"",""1399826""
","""event"",""trial"",""time""
""fullscreenenter"",""1"",""4317""
","
","","","-1","","","22","4637","3055","r","elianto","#3366ff99","-1","-1","1","+10","[]","0","2","","","4637","36","1","2","win","no-go","0"
"pit-trial","158","1682437","0.0-41.0","battery-v0.2","","""event"",""trial"",""time""
""fullscreenenter"",""1"",""4317""
""blur"",""141"",""1287273""
""focus"",""141"",""1399826""
","""event"",""trial"",""time""
""blur"",""141"",""1287273""
","""event"",""trial"",""time""
""focus"",""141"",""1399826""
","""event"",""trial"",""time""
""fullscreenenter"",""1"",""4317""
","
","","","-1","","","22","4637","3055","y","elianto","#f73b6a7A"," ","-1","0","-10","[]","0","2","","","4637","37","2","3","lose","go","0"
"pit-trial","159","1686907","0.0-42.0","battery-v0.2","","""event"",""trial"",""time""
""fullscreenenter"",""1"",""4317""
""blur"",""141"",""1287273""
""focus"",""141"",""1399826""
","""event"",""trial"",""time""
""blur"",""141"",""1287273""
","""event"",""trial"",""time""
""focus"",""141"",""1399826""
","""event"",""trial"",""time""
""fullscreenenter"",""1"",""4317""
","
","","","1606.8999999761581","","","22","4637","3055","r","elianto","#3366ff99","-1"," ","0","0","[2459.699999988079]","1","2","","","4637","38","1","2","win","no-go","0"
"pit-trial","160","1691766","0.0-43.0","battery-v0.2","","""event"",""trial"",""time""
""fullscreenenter"",""1"",""4317""
""blur"",""141"",""1287273""
""focus"",""141"",""1399826""
","""event"",""trial"",""time""
""blur"",""141"",""1287273""
","""event"",""trial"",""time""
""focus"",""141"",""1399826""
","""event"",""trial"",""time""
""fullscreenenter"",""1"",""4317""
","
","","","-1","","","22","4637","3055","m","elianto","#f73b6a7A"," ","-1","0","0","[]","0","2","","","4637","39","0","3","lose","go","1"
"pit-trial","161","1696625","0.0-44.0","battery-v0.2","","""event"",""trial"",""time""
""fullscreenenter"",""1"",""4317""
""blur"",""141"",""1287273""
""focus"",""141"",""1399826""
","""event"",""trial"",""time""
""blur"",""141"",""1287273""
","""event"",""trial"",""time""
""focus"",""141"",""1399826""
","""event"",""trial"",""time""
""fullscreenenter"",""1"",""4317""
","
","","","-1","","","22","4637","3055","h","elianto","#f73b6a7A","-1","-1","1","0","[]","0","2","","","4637","40","3","4","lose","no-go","0"
"pit-trial","162","1701484","0.0-45.0","battery-v0.2","","""event"",""trial"",""time""
""fullscreenenter"",""1"",""4317""
""blur"",""141"",""1287273""
""focus"",""141"",""1399826""
","""event"",""trial"",""time""
""blur"",""141"",""1287273""
","""event"",""trial"",""time""
""focus"",""141"",""1399826""
","""event"",""trial"",""time""
""fullscreenenter"",""1"",""4317""
","
","","","-1","","","22","4637","3055","y","elianto","#f73b6a7A"," ","-1","0","-10","[]","0","2","","","4637","41","2","3","lose","go","0"
"pit-trial","163","1706343","0.0-46.0","battery-v0.2","","""event"",""trial"",""time""
""fullscreenenter"",""1"",""4317""
""blur"",""141"",""1287273""
""focus"",""141"",""1399826""
","""event"",""trial"",""time""
""blur"",""141"",""1287273""
","""event"",""trial"",""time""
""focus"",""141"",""1399826""
","""event"",""trial"",""time""
""fullscreenenter"",""1"",""4317""
","
","","","-1","","","22","4637","3055","r","elianto","#3366ff99","-1","-1","1","+10","[]","0","2","","","4637","42","1","2","win","no-go","0"
"pit-trial","164","1711202","0.0-47.0","battery-v0.2","","""event"",""trial"",""time""
""fullscreenenter"",""1"",""4317""
""blur"",""141"",""1287273""
""focus"",""141"",""1399826""
","""event"",""trial"",""time""
""blur"",""141"",""1287273""
","""event"",""trial"",""time""
""focus"",""141"",""1399826""
","""event"",""trial"",""time""
""fullscreenenter"",""1"",""4317""
","
","","","-1","","","22","4637","3055","h","elianto","#f73b6a7A","-1","-1","1","0","[]","0","2","","","4637","43","3","4","lose","no-go","0"
"pit-trial","165","1716061","0.0-48.0","battery-v0.2","","""event"",""trial"",""time""
""fullscreenenter"",""1"",""4317""
""blur"",""141"",""1287273""
""focus"",""141"",""1399826""
","""event"",""trial"",""time""
""blur"",""141"",""1287273""
","""event"",""trial"",""time""
""focus"",""141"",""1399826""
","""event"",""trial"",""time""
""fullscreenenter"",""1"",""4317""
","
","","","-1","","","22","4637","3055","m","elianto","#f73b6a7A"," ","-1","0","-10","[]","0","2","","","4637","44","0","3","lose","go","0"
"pit-trial","166","1720920","0.0-49.0","battery-v0.2","","""event"",""trial"",""time""
""fullscreenenter"",""1"",""4317""
""blur"",""141"",""1287273""
""focus"",""141"",""1399826""
","""event"",""trial"",""time""
""blur"",""141"",""1287273""
","""event"",""trial"",""time""
""focus"",""141"",""1399826""
","""event"",""trial"",""time""
""fullscreenenter"",""1"",""4317""
","
","","","-1","","","22","4637","3055","y","elianto","#f73b6a7A"," ","-1","0","-10","[]","0","2","","","4637","45","2","3","lose","go","0"
"pit-trial","167","1725779","0.0-50.0","battery-v0.2","","""event"",""trial"",""time""
""fullscreenenter"",""1"",""4317""
""blur"",""141"",""1287273""
""focus"",""141"",""1399826""
","""event"",""trial"",""time""
""blur"",""141"",""1287273""
","""event"",""trial"",""time""
""focus"",""141"",""1399826""
","""event"",""trial"",""time""
""fullscreenenter"",""1"",""4317""
","
","","","-1","","","22","4637","3055","h","elianto","#f73b6a7A","-1","-1","1","0","[]","0","2","","","4637","46","3","4","lose","no-go","0"
"pit-trial","168","1730638","0.0-51.0","battery-v0.2","","""event"",""trial"",""time""
""fullscreenenter"",""1"",""4317""
""blur"",""141"",""1287273""
""focus"",""141"",""1399826""
","""event"",""trial"",""time""
""blur"",""141"",""1287273""
","""event"",""trial"",""time""
""focus"",""141"",""1399826""
","""event"",""trial"",""time""
""fullscreenenter"",""1"",""4317""
","
","","","-1","","","22","4637","3055","m","elianto","#f73b6a7A"," ","-1","0","-10","[]","0","2","","","4637","47","0","3","lose","go","0"
"pit-trial","169","1735497","0.0-52.0","battery-v0.2","","""event"",""trial"",""time""
""fullscreenenter"",""1"",""4317""
""blur"",""141"",""1287273""
""focus"",""141"",""1399826""
","""event"",""trial"",""time""
""blur"",""141"",""1287273""
","""event"",""trial"",""time""
""focus"",""141"",""1399826""
","""event"",""trial"",""time""
""fullscreenenter"",""1"",""4317""
","
","","","-1","","","22","4637","3055","r","elianto","#3366ff99","-1","-1","1","+10","[]","0","2","","","4637","48","1","2","win","no-go","0"
"pit-trial","170","1740355","0.0-53.0","battery-v0.2","","""event"",""trial"",""time""
""fullscreenenter"",""1"",""4317""
""blur"",""141"",""1287273""
""focus"",""141"",""1399826""
","""event"",""trial"",""time""
""blur"",""141"",""1287273""
","""event"",""trial"",""time""
""focus"",""141"",""1399826""
","""event"",""trial"",""time""
""fullscreenenter"",""1"",""4317""
","
","","","-1","","","22","4637","3055","y","elianto","#f73b6a7A"," ","-1","0","-10","[]","0","2","","","4637","49","2","3","lose","go","0"
"pit-trial","171","1745214","0.0-54.0","battery-v0.2","","""event"",""trial"",""time""
""fullscreenenter"",""1"",""4317""
""blur"",""141"",""1287273""
""focus"",""141"",""1399826""
","""event"",""trial"",""time""
""blur"",""141"",""1287273""
","""event"",""trial"",""time""
""focus"",""141"",""1399826""
","""event"",""trial"",""time""
""fullscreenenter"",""1"",""4317""
","
","","","-1","","","22","4637","3055","h","elianto","#f73b6a7A","-1","-1","1","0","[]","0","2","","","4637","50","3","4","lose","no-go","0"
"pit-trial","172","1750073","0.0-55.0","battery-v0.2","","""event"",""trial"",""time""
""fullscreenenter"",""1"",""4317""
""blur"",""141"",""1287273""
""focus"",""141"",""1399826""
","""event"",""trial"",""time""
""blur"",""141"",""1287273""
","""event"",""trial"",""time""
""focus"",""141"",""1399826""
","""event"",""trial"",""time""
""fullscreenenter"",""1"",""4317""
","
","","","-1","","","22","4637","3055","r","elianto","#3366ff99","-1","-1","1","+10","[]","0","2","","","4637","51","1","2","win","no-go","0"
"pit-trial","173","1754932","0.0-56.0","battery-v0.2","","""event"",""trial"",""time""
""fullscreenenter"",""1"",""4317""
""blur"",""141"",""1287273""
""focus"",""141"",""1399826""
","""event"",""trial"",""time""
""blur"",""141"",""1287273""
","""event"",""trial"",""time""
""focus"",""141"",""1399826""
","""event"",""trial"",""time""
""fullscreenenter"",""1"",""4317""
","
","","","-1","","","22","4637","3055","m","elianto","#f73b6a7A"," ","-1","0","0","[]","0","2","","","4637","52","0","3","lose","go","1"
"pit-trial","174","1759791","0.0-57.0","battery-v0.2","","""event"",""trial"",""time""
""fullscreenenter"",""1"",""4317""
""blur"",""141"",""1287273""
""focus"",""141"",""1399826""
","""event"",""trial"",""time""
""blur"",""141"",""1287273""
","""event"",""trial"",""time""
""focus"",""141"",""1399826""
","""event"",""trial"",""time""
""fullscreenenter"",""1"",""4317""
","
","","","-1","","","22","4637","3055","y","elianto","#f73b6a7A"," ","-1","0","0","[]","0","2","","","4637","53","2","3","lose","go","1"
"pit-trial","175","1764650","0.0-58.0","battery-v0.2","","""event"",""trial"",""time""
""fullscreenenter"",""1"",""4317""
""blur"",""141"",""1287273""
""focus"",""141"",""1399826""
","""event"",""trial"",""time""
""blur"",""141"",""1287273""
","""event"",""trial"",""time""
""focus"",""141"",""1399826""
","""event"",""trial"",""time""
""fullscreenenter"",""1"",""4317""
","
","","","-1","","","22","4637","3055","h","elianto","#f73b6a7A","-1","-1","1","0","[]","0","2","","","4637","54","3","4","lose","no-go","0"
"pit-trial","176","1769509","0.0-59.0","battery-v0.2","","""event"",""trial"",""time""
""fullscreenenter"",""1"",""4317""
""blur"",""141"",""1287273""
""focus"",""141"",""1399826""
","""event"",""trial"",""time""
""blur"",""141"",""1287273""
","""event"",""trial"",""time""
""focus"",""141"",""1399826""
","""event"",""trial"",""time""
""fullscreenenter"",""1"",""4317""
","
","","","-1","","","22","4637","3055","r","elianto","#3366ff99","-1","-1","1","+10","[]","0","2","","","4637","55","1","2","win","no-go","0"
"pit-trial","177","1774368","0.0-60.0","battery-v0.2","","""event"",""trial"",""time""
""fullscreenenter"",""1"",""4317""
""blur"",""141"",""1287273""
""focus"",""141"",""1399826""
","""event"",""trial"",""time""
""blur"",""141"",""1287273""
","""event"",""trial"",""time""
""focus"",""141"",""1399826""
","""event"",""trial"",""time""
""fullscreenenter"",""1"",""4317""
","
","","","-1","","","22","4637","3055","m","elianto","#f73b6a7A"," ","-1","0","0","[]","0","2","","","4637","56","0","3","lose","go","1"
"pit-trial","178","1778019","0.0-61.0","battery-v0.2","","""event"",""trial"",""time""
""fullscreenenter"",""1"",""4317""
""blur"",""141"",""1287273""
""focus"",""141"",""1399826""
","""event"",""trial"",""time""
""blur"",""141"",""1287273""
","""event"",""trial"",""time""
""focus"",""141"",""1399826""
","""event"",""trial"",""time""
""fullscreenenter"",""1"",""4317""
","
","","","793","","","22","4637","3055","z","elianto","#3366ff99"," "," ","1","+10","[1643.6000000238419]","1","2","","","4637","57","4","1","win","go","0"
"pit-trial","179","1782878","0.0-62.0","battery-v0.2","","""event"",""trial"",""time""
""fullscreenenter"",""1"",""4317""
""blur"",""141"",""1287273""
""focus"",""141"",""1399826""
","""event"",""trial"",""time""
""blur"",""141"",""1287273""
","""event"",""trial"",""time""
""focus"",""141"",""1399826""
","""event"",""trial"",""time""
""fullscreenenter"",""1"",""4317""
","
","","","-1","","","22","4637","3055","y","elianto","#f73b6a7A"," ","-1","0","0","[]","0","2","","","4637","58","2","3","lose","go","1"
"pit-trial","180","1787737","0.0-63.0","battery-v0.2","","""event"",""trial"",""time""
""fullscreenenter"",""1"",""4317""
""blur"",""141"",""1287273""
""focus"",""141"",""1399826""
","""event"",""trial"",""time""
""blur"",""141"",""1287273""
","""event"",""trial"",""time""
""focus"",""141"",""1399826""
","""event"",""trial"",""time""
""fullscreenenter"",""1"",""4317""
","
","","","-1","","","22","4637","3055","m","elianto","#f73b6a7A"," ","-1","0","-10","[]","0","2","","","4637","59","0","3","lose","go","0"
"pit-trial","181","1792596","0.0-64.0","battery-v0.2","","""event"",""trial"",""time""
""fullscreenenter"",""1"",""4317""
""blur"",""141"",""1287273""
""focus"",""141"",""1399826""
","""event"",""trial"",""time""
""blur"",""141"",""1287273""
","""event"",""trial"",""time""
""focus"",""141"",""1399826""
","""event"",""trial"",""time""
""fullscreenenter"",""1"",""4317""
","
","","","-1","","","22","4637","3055","h","elianto","#f73b6a7A","-1","-1","1","0","[]","0","2","","","4637","60","3","4","lose","no-go","0"
"pit-trial","182","1796427","0.0-65.0","battery-v0.2","","""event"",""trial"",""time""
""fullscreenenter"",""1"",""4317""
""blur"",""141"",""1287273""
""focus"",""141"",""1399826""
","""event"",""trial"",""time""
""blur"",""141"",""1287273""
","""event"",""trial"",""time""
""focus"",""141"",""1399826""
","""event"",""trial"",""time""
""fullscreenenter"",""1"",""4317""
","
","","","967.5999999940395","","","22","4637","3055","h","elianto","#f73b6a7A","-1"," ","0","-10","[1821.5]","1","2","","","4637","61","3","4","lose","no-go","0"
"pit-trial","183","1800503","0.0-66.0","battery-v0.2","","""event"",""trial"",""time""
""fullscreenenter"",""1"",""4317""
""blur"",""141"",""1287273""
""focus"",""141"",""1399826""
","""event"",""trial"",""time""
""blur"",""141"",""1287273""
","""event"",""trial"",""time""
""focus"",""141"",""1399826""
","""event"",""trial"",""time""
""fullscreenenter"",""1"",""4317""
","
","","","1214.300000011921","","","22","4637","3055","r","elianto","#3366ff99","-1"," ","0","0","[2064.5]","1","2","","","4637","62","1","2","win","no-go","0"
"pit-trial","184","1805362","0.0-67.0","battery-v0.2","","""event"",""trial"",""time""
""fullscreenenter"",""1"",""4317""
""blur"",""141"",""1287273""
""focus"",""141"",""1399826""
","""event"",""trial"",""time""
""blur"",""141"",""1287273""
","""event"",""trial"",""time""
""focus"",""141"",""1399826""
","""event"",""trial"",""time""
""fullscreenenter"",""1"",""4317""
","
","","","-1","","","22","4637","3055","y","elianto","#f73b6a7A"," ","-1","0","0","[]","0","2","","","4637","63","2","3","lose","go","1"
"pit-trial","185","1810221","0.0-68.0","battery-v0.2","","""event"",""trial"",""time""
""fullscreenenter"",""1"",""4317""
""blur"",""141"",""1287273""
""focus"",""141"",""1399826""
","""event"",""trial"",""time""
""blur"",""141"",""1287273""
","""event"",""trial"",""time""
""focus"",""141"",""1399826""
","""event"",""trial"",""time""
""fullscreenenter"",""1"",""4317""
","
","","","-1","","","22","4637","3055","z","elianto","#3366ff99"," ","-1","0","0","[]","0","2","","","4637","64","4","1","win","go","0"
"pit-trial","186","1815079","0.0-69.0","battery-v0.2","","""event"",""trial"",""time""
""fullscreenenter"",""1"",""4317""
""blur"",""141"",""1287273""
""focus"",""141"",""1399826""
","""event"",""trial"",""time""
""blur"",""141"",""1287273""
","""event"",""trial"",""time""
""focus"",""141"",""1399826""
","""event"",""trial"",""time""
""fullscreenenter"",""1"",""4317""
","
","","","-1","","","22","4637","3055","c","elianto","#3366ff99","-1","-1","1","0","[]","0","2","","","4637","65","5","2","win","no-go","1"
"pit-trial","187","1819938","0.0-70.0","battery-v0.2","","""event"",""trial"",""time""
""fullscreenenter"",""1"",""4317""
""blur"",""141"",""1287273""
""focus"",""141"",""1399826""
","""event"",""trial"",""time""
""blur"",""141"",""1287273""
","""event"",""trial"",""time""
""focus"",""141"",""1399826""
","""event"",""trial"",""time""
""fullscreenenter"",""1"",""4317""
","
","","","-1","","","22","4637","3055","h","elianto","#f73b6a7A","-1","-1","1","0","[]","0","2","","","4637","66","3","4","lose","no-go","0"
"pit-trial","188","1824797","0.0-71.0","battery-v0.2","","""event"",""trial"",""time""
""fullscreenenter"",""1"",""4317""
""blur"",""141"",""1287273""
""focus"",""141"",""1399826""
","""event"",""trial"",""time""
""blur"",""141"",""1287273""
","""event"",""trial"",""time""
""focus"",""141"",""1399826""
","""event"",""trial"",""time""
""fullscreenenter"",""1"",""4317""
","
","","","-1","","","22","4637","3055","r","elianto","#3366ff99","-1","-1","1","+10","[]","0","2","","","4637","67","1","2","win","no-go","0"
"pit-trial","189","1829656","0.0-72.0","battery-v0.2","","""event"",""trial"",""time""
""fullscreenenter"",""1"",""4317""
""blur"",""141"",""1287273""
""focus"",""141"",""1399826""
","""event"",""trial"",""time""
""blur"",""141"",""1287273""
","""event"",""trial"",""time""
""focus"",""141"",""1399826""
","""event"",""trial"",""time""
""fullscreenenter"",""1"",""4317""
","
","","","-1","","","22","4637","3055","z","elianto","#3366ff99"," ","-1","0","0","[]","0","2","","","4637","68","4","1","win","go","0"
"pit-trial","190","1834515","0.0-73.0","battery-v0.2","","""event"",""trial"",""time""
""fullscreenenter"",""1"",""4317""
""blur"",""141"",""1287273""
""focus"",""141"",""1399826""
","""event"",""trial"",""time""
""blur"",""141"",""1287273""
","""event"",""trial"",""time""
""focus"",""141"",""1399826""
","""event"",""trial"",""time""
""fullscreenenter"",""1"",""4317""
","
","","","-1","","","22","4637","3055","y","elianto","#f73b6a7A"," ","-1","0","-10","[]","0","2","","","4637","69","2","3","lose","go","0"
"pit-trial","191","1839374","0.0-74.0","battery-v0.2","","""event"",""trial"",""time""
""fullscreenenter"",""1"",""4317""
""blur"",""141"",""1287273""
""focus"",""141"",""1399826""
","""event"",""trial"",""time""
""blur"",""141"",""1287273""
","""event"",""trial"",""time""
""focus"",""141"",""1399826""
","""event"",""trial"",""time""
""fullscreenenter"",""1"",""4317""
","
","","","-1","","","22","4637","3055","z","elianto","#3366ff99"," ","-1","0","0","[]","0","2","","","4637","70","4","1","win","go","0"
"pit-trial","192","1844233","0.0-75.0","battery-v0.2","","""event"",""trial"",""time""
""fullscreenenter"",""1"",""4317""
""blur"",""141"",""1287273""
""focus"",""141"",""1399826""
","""event"",""trial"",""time""
""blur"",""141"",""1287273""
","""event"",""trial"",""time""
""focus"",""141"",""1399826""
","""event"",""trial"",""time""
""fullscreenenter"",""1"",""4317""
","
","","","-1","","","22","4637","3055","c","elianto","#3366ff99","-1","-1","1","0","[]","0","2","","","4637","71","5","2","win","no-go","1"
"pit-trial","193","1849092","0.0-76.0","battery-v0.2","","""event"",""trial"",""time""
""fullscreenenter"",""1"",""4317""
""blur"",""141"",""1287273""
""focus"",""141"",""1399826""
","""event"",""trial"",""time""
""blur"",""141"",""1287273""
","""event"",""trial"",""time""
""focus"",""141"",""1399826""
","""event"",""trial"",""time""
""fullscreenenter"",""1"",""4317""
","
","","","-1","","","22","4637","3055","r","elianto","#3366ff99","-1","-1","1","0","[]","0","2","","","4637","72","1","2","win","no-go","1"
"pit-trial","194","1852750","0.0-77.0","battery-v0.2","","""event"",""trial"",""time""
""fullscreenenter"",""1"",""4317""
""blur"",""141"",""1287273""
""focus"",""141"",""1399826""
","""event"",""trial"",""time""
""blur"",""141"",""1287273""
","""event"",""trial"",""time""
""focus"",""141"",""1399826""
","""event"",""trial"",""time""
""fullscreenenter"",""1"",""4317""
","
","","","801","","","22","4637","3055","h","elianto","#f73b6a7A","-1"," ","0","-10","[1651.300000011921]","1","2","","","4637","73","3","4","lose","no-go","0"
"pit-trial","195","1856824","0.0-78.0","battery-v0.2","","""event"",""trial"",""time""
""fullscreenenter"",""1"",""4317""
""blur"",""141"",""1287273""
""focus"",""141"",""1399826""
","""event"",""trial"",""time""
""blur"",""141"",""1287273""
","""event"",""trial"",""time""
""focus"",""141"",""1399826""
","""event"",""trial"",""time""
""fullscreenenter"",""1"",""4317""
","
","","","1207.699999988079","","","22","4637","3055","z","elianto","#3366ff99"," "," ","1","+10","[2063.5999999940395]","1","2","","","4637","74","4","1","win","go","0"
"pit-trial","196","1860969","0.0-79.0","battery-v0.2","","""event"",""trial"",""time""
""fullscreenenter"",""1"",""4317""
""blur"",""141"",""1287273""
""focus"",""141"",""1399826""
","""event"",""trial"",""time""
""blur"",""141"",""1287273""
","""event"",""trial"",""time""
""focus"",""141"",""1399826""
","""event"",""trial"",""time""
""fullscreenenter"",""1"",""4317""
","
","","","1288","","","22","4637","3055","c","elianto","#3366ff99","-1"," ","0","+10","[2138.100000023842]","1","2","","","4637","75","5","2","win","no-go","1"
"pit-trial","197","1865828","0.0-80.0","battery-v0.2","","""event"",""trial"",""time""
""fullscreenenter"",""1"",""4317""
""blur"",""141"",""1287273""
""focus"",""141"",""1399826""
","""event"",""trial"",""time""
""blur"",""141"",""1287273""
","""event"",""trial"",""time""
""focus"",""141"",""1399826""
","""event"",""trial"",""time""
""fullscreenenter"",""1"",""4317""
","
","","","-1","","","22","4637","3055","r","elianto","#3366ff99","-1","-1","1","0","[]","0","2","","","4637","76","1","2","win","no-go","1"
"pit-trial","198","1869601","0.0-81.0","battery-v0.2","","""event"",""trial"",""time""
""fullscreenenter"",""1"",""4317""
""blur"",""141"",""1287273""
""focus"",""141"",""1399826""
","""event"",""trial"",""time""
""blur"",""141"",""1287273""
","""event"",""trial"",""time""
""focus"",""141"",""1399826""
","""event"",""trial"",""time""
""fullscreenenter"",""1"",""4317""
","
","","","914","","","22","4637","3055","z","elianto","#3366ff99"," "," ","1","+10","[1765.199999988079]","1","2","","","4637","77","4","1","win","go","0"
"pit-trial","199","1874460","0.0-82.0","battery-v0.2","","""event"",""trial"",""time""
""fullscreenenter"",""1"",""4317""
""blur"",""141"",""1287273""
""focus"",""141"",""1399826""
","""event"",""trial"",""time""
""blur"",""141"",""1287273""
","""event"",""trial"",""time""
""focus"",""141"",""1399826""
","""event"",""trial"",""time""
""fullscreenenter"",""1"",""4317""
","
","","","-1","","","22","4637","3055","h","elianto","#f73b6a7A","-1","-1","1","0","[]","0","2","","","4637","78","3","4","lose","no-go","0"
"pit-trial","200","1878094","0.0-83.0","battery-v0.2","","""event"",""trial"",""time""
""fullscreenenter"",""1"",""4317""
""blur"",""141"",""1287273""
""focus"",""141"",""1399826""
","""event"",""trial"",""time""
""blur"",""141"",""1287273""
","""event"",""trial"",""time""
""focus"",""141"",""1399826""
","""event"",""trial"",""time""
""fullscreenenter"",""1"",""4317""
","
","","","773.2999999821186","","","22","4637","3055","c","elianto","#3366ff99","-1"," ","0","0","[1623.7999999821186]","1","2","","","4637","79","5","2","win","no-go","0"
"pit-trial","201","1882953","0.0-84.0","battery-v0.2","","""event"",""trial"",""time""
""fullscreenenter"",""1"",""4317""
""blur"",""141"",""1287273""
""focus"",""141"",""1399826""
","""event"",""trial"",""time""
""blur"",""141"",""1287273""
","""event"",""trial"",""time""
""focus"",""141"",""1399826""
","""event"",""trial"",""time""
""fullscreenenter"",""1"",""4317""
","
","","","-1","","","22","4637","3055","z","elianto","#3366ff99"," ","-1","0","+10","[]","0","2","","","4637","80","4","1","win","go","1"
"pit-trial","202","1887812","0.0-85.0","battery-v0.2","","""event"",""trial"",""time""
""fullscreenenter"",""1"",""4317""
""blur"",""141"",""1287273""
""focus"",""141"",""1399826""
","""event"",""trial"",""time""
""blur"",""141"",""1287273""
","""event"",""trial"",""time""
""focus"",""141"",""1399826""
","""event"",""trial"",""time""
""fullscreenenter"",""1"",""4317""
","
","","","-1","","","22","4637","3055","h","elianto","#f73b6a7A","-1","-1","1","0","[]","0","2","","","4637","81","3","4","lose","no-go","0"
"pit-trial","203","1891644","0.0-86.0","battery-v0.2","","""event"",""trial"",""time""
""fullscreenenter"",""1"",""4317""
""blur"",""141"",""1287273""
""focus"",""141"",""1399826""
","""event"",""trial"",""time""
""blur"",""141"",""1287273""
","""event"",""trial"",""time""
""focus"",""141"",""1399826""
","""event"",""trial"",""time""
""fullscreenenter"",""1"",""4317""
","
","","","973.3000000119209","","","22","4637","3055","c","elianto","#3366ff99","-1"," ","0","0","[1823.9000000059605]","1","2","","","4637","82","5","2","win","no-go","0"
"pit-trial","204","1896504","0.0-87.0","battery-v0.2","","""event"",""trial"",""time""
""fullscreenenter"",""1"",""4317""
""blur"",""141"",""1287273""
""focus"",""141"",""1399826""
","""event"",""trial"",""time""
""blur"",""141"",""1287273""
","""event"",""trial"",""time""
""focus"",""141"",""1399826""
","""event"",""trial"",""time""
""fullscreenenter"",""1"",""4317""
","
","","","-1","","","22","4637","3055","z","elianto","#3366ff99"," ","-1","0","0","[]","0","2","","","4637","83","4","1","win","go","0"
"pit-trial","205","1901367","0.0-88.0","battery-v0.2","","""event"",""trial"",""time""
""fullscreenenter"",""1"",""4317""
""blur"",""141"",""1287273""
""focus"",""141"",""1399826""
","""event"",""trial"",""time""
""blur"",""141"",""1287273""
","""event"",""trial"",""time""
""focus"",""141"",""1399826""
","""event"",""trial"",""time""
""fullscreenenter"",""1"",""4317""
","
","","","-1","","","22","4637","3055","t","elianto","#f73b6a7A","-1","-1","1","0","[]","0","2","","","4637","84","7","4","lose","no-go","0"
"pit-trial","206","1905190","0.0-89.0","battery-v0.2","","""event"",""trial"",""time""
""fullscreenenter"",""1"",""4317""
""blur"",""141"",""1287273""
""focus"",""141"",""1399826""
","""event"",""trial"",""time""
""blur"",""141"",""1287273""
","""event"",""trial"",""time""
""focus"",""141"",""1399826""
","""event"",""trial"",""time""
""fullscreenenter"",""1"",""4317""
","
","","","961.1999999880791","","","22","4637","3055","z","elianto","#3366ff99"," "," ","1","+10","[1812.7999999821186]","1","2","","","4637","85","4","1","win","go","0"
"pit-trial","207","1910052","0.0-90.0","battery-v0.2","","""event"",""trial"",""time""
""fullscreenenter"",""1"",""4317""
""blur"",""141"",""1287273""
""focus"",""141"",""1399826""
","""event"",""trial"",""time""
""blur"",""141"",""1287273""
","""event"",""trial"",""time""
""focus"",""141"",""1399826""
","""event"",""trial"",""time""
""fullscreenenter"",""1"",""4317""
","
","","","-1","","","22","4637","3055","t","elianto","#f73b6a7A","-1","-1","1","0","[]","0","2","","","4637","86","7","4","lose","no-go","0"
"pit-trial","208","1914911","0.0-91.0","battery-v0.2","","""event"",""trial"",""time""
""fullscreenenter"",""1"",""4317""
""blur"",""141"",""1287273""
""focus"",""141"",""1399826""
","""event"",""trial"",""time""
""blur"",""141"",""1287273""
","""event"",""trial"",""time""
""focus"",""141"",""1399826""
","""event"",""trial"",""time""
""fullscreenenter"",""1"",""4317""
","
","","","-1","","","22","4637","3055","c","elianto","#3366ff99","-1","-1","1","+10","[]","0","2","","","4637","87","5","2","win","no-go","0"
"pit-trial","209","1919770","0.0-92.0","battery-v0.2","","""event"",""trial"",""time""
""fullscreenenter"",""1"",""4317""
""blur"",""141"",""1287273""
""focus"",""141"",""1399826""
","""event"",""trial"",""time""
""blur"",""141"",""1287273""
","""event"",""trial"",""time""
""focus"",""141"",""1399826""
","""event"",""trial"",""time""
""fullscreenenter"",""1"",""4317""
","
","","","-1","","","22","4637","3055","b","elianto","#f73b6a7A"," ","-1","0","-10","[]","0","2","","","4637","88","6","3","lose","go","0"
"pit-trial","210","1924629","0.0-93.0","battery-v0.2","","""event"",""trial"",""time""
""fullscreenenter"",""1"",""4317""
""blur"",""141"",""1287273""
""focus"",""141"",""1399826""
","""event"",""trial"",""time""
""blur"",""141"",""1287273""
","""event"",""trial"",""time""
""focus"",""141"",""1399826""
","""event"",""trial"",""time""
""fullscreenenter"",""1"",""4317""
","
","","","-1","","","22","4637","3055","b","elianto","#f73b6a7A"," ","-1","0","-10","[]","0","2","","","4637","89","6","3","lose","go","0"
"pit-trial","211","1928378","0.0-94.0","battery-v0.2","","""event"",""trial"",""time""
""fullscreenenter"",""1"",""4317""
""blur"",""141"",""1287273""
""focus"",""141"",""1399826""
","""event"",""trial"",""time""
""blur"",""141"",""1287273""
","""event"",""trial"",""time""
""focus"",""141"",""1399826""
","""event"",""trial"",""time""
""fullscreenenter"",""1"",""4317""
","
","","","889","","","22","4637","3055","c","elianto","#3366ff99","-1"," ","0","0","[1740.9000000059605]","1","2","","","4637","90","5","2","win","no-go","0"
"pit-trial","212","1933238","0.0-95.0","battery-v0.2","","""event"",""trial"",""time""
""fullscreenenter"",""1"",""4317""
""blur"",""141"",""1287273""
""focus"",""141"",""1399826""
","""event"",""trial"",""time""
""blur"",""141"",""1287273""
","""event"",""trial"",""time""
""focus"",""141"",""1399826""
","""event"",""trial"",""time""
""fullscreenenter"",""1"",""4317""
","
","","","-1","","","22","4637","3055","z","elianto","#3366ff99"," ","-1","0","0","[]","0","2","","","4637","91","4","1","win","go","0"
"pit-trial","213","1938097","0.0-96.0","battery-v0.2","","""event"",""trial"",""time""
""fullscreenenter"",""1"",""4317""
""blur"",""141"",""1287273""
""focus"",""141"",""1399826""
","""event"",""trial"",""time""
""blur"",""141"",""1287273""
","""event"",""trial"",""time""
""focus"",""141"",""1399826""
","""event"",""trial"",""time""
""fullscreenenter"",""1"",""4317""
","
","","","-1","","","22","4637","3055","t","elianto","#f73b6a7A","-1","-1","1","-10","[]","0","2","","","4637","92","7","4","lose","no-go","1"
"pit-trial","214","1941777","0.0-97.0","battery-v0.2","","""event"",""trial"",""time""
""fullscreenenter"",""1"",""4317""
""blur"",""141"",""1287273""
""focus"",""141"",""1399826""
","""event"",""trial"",""time""
""blur"",""141"",""1287273""
","""event"",""trial"",""time""
""focus"",""141"",""1399826""
","""event"",""trial"",""time""
""fullscreenenter"",""1"",""4317""
","
","","","820.5","","","22","4637","3055","f","elianto","#3366ff99"," "," ","1","+10","[1672.800000011921]","1","2","","","4637","93","8","1","win","go","0"
"pit-trial","215","1946636","0.0-98.0","battery-v0.2","","""event"",""trial"",""time""
""fullscreenenter"",""1"",""4317""
""blur"",""141"",""1287273""
""focus"",""141"",""1399826""
","""event"",""trial"",""time""
""blur"",""141"",""1287273""
","""event"",""trial"",""time""
""focus"",""141"",""1399826""
","""event"",""trial"",""time""
""fullscreenenter"",""1"",""4317""
","
","","","-1","","","22","4637","3055","c","elianto","#3366ff99","-1","-1","1","+10","[]","0","2","","","4637","94","5","2","win","no-go","0"
"pit-trial","216","1950583","0.0-99.0","battery-v0.2","","""event"",""trial"",""time""
""fullscreenenter"",""1"",""4317""
""blur"",""141"",""1287273""
""focus"",""141"",""1399826""
","""event"",""trial"",""time""
""blur"",""141"",""1287273""
","""event"",""trial"",""time""
""focus"",""141"",""1399826""
","""event"",""trial"",""time""
""fullscreenenter"",""1"",""4317""
","
","","","1087.4000000059605","","","22","4637","3055","t","elianto","#f73b6a7A","-1"," ","0","-10","[1937.5999999940395]","1","2","","","4637","95","7","4","lose","no-go","0"
"pit-trial","217","1955442","0.0-100.0","battery-v0.2","","""event"",""trial"",""time""
""fullscreenenter"",""1"",""4317""
""blur"",""141"",""1287273""
""focus"",""141"",""1399826""
","""event"",""trial"",""time""
""blur"",""141"",""1287273""
","""event"",""trial"",""time""
""focus"",""141"",""1399826""
","""event"",""trial"",""time""
""fullscreenenter"",""1"",""4317""
","
","","","-1","","","22","4637","3055","b","elianto","#f73b6a7A"," ","-1","0","-10","[]","0","2","","","4637","96","6","3","lose","go","0"
"pit-trial","218","1959158","0.0-101.0","battery-v0.2","","""event"",""trial"",""time""
""fullscreenenter"",""1"",""4317""
""blur"",""141"",""1287273""
""focus"",""141"",""1399826""
","""event"",""trial"",""time""
""blur"",""141"",""1287273""
","""event"",""trial"",""time""
""focus"",""141"",""1399826""
","""event"",""trial"",""time""
""fullscreenenter"",""1"",""4317""
","
","","","857.5","","","22","4637","3055","t","elianto","#f73b6a7A","-1"," ","0","0","[1708.800000011921]","1","2","","","4637","97","7","4","lose","no-go","1"
"pit-trial","219","1964023","0.0-102.0","battery-v0.2","","""event"",""trial"",""time""
""fullscreenenter"",""1"",""4317""
""blur"",""141"",""1287273""
""focus"",""141"",""1399826""
","""event"",""trial"",""time""
""blur"",""141"",""1287273""
","""event"",""trial"",""time""
""focus"",""141"",""1399826""
","""event"",""trial"",""time""
""fullscreenenter"",""1"",""4317""
","
","","","-1","","","22","4637","3055","c","elianto","#3366ff99","-1","-1","1","+10","[]","0","2","","","4637","98","5","2","win","no-go","0"
"pit-trial","220","1968882","0.0-103.0","battery-v0.2","","""event"",""trial"",""time""
""fullscreenenter"",""1"",""4317""
""blur"",""141"",""1287273""
""focus"",""141"",""1399826""
","""event"",""trial"",""time""
""blur"",""141"",""1287273""
","""event"",""trial"",""time""
""focus"",""141"",""1399826""
","""event"",""trial"",""time""
""fullscreenenter"",""1"",""4317""
","
","","","-1","","","22","4637","3055","f","elianto","#3366ff99"," ","-1","0","0","[]","0","2","","","4637","99","8","1","win","go","0"
"pit-trial","221","1973743","0.0-104.0","battery-v0.2","","""event"",""trial"",""time""
""fullscreenenter"",""1"",""4317""
""blur"",""141"",""1287273""
""focus"",""141"",""1399826""
","""event"",""trial"",""time""
""blur"",""141"",""1287273""
","""event"",""trial"",""time""
""focus"",""141"",""1399826""
","""event"",""trial"",""time""
""fullscreenenter"",""1"",""4317""
","
","","","-1","","","22","4637","3055","b","elianto","#f73b6a7A"," ","-1","0","-10","[]","0","2","","","4637","100","6","3","lose","go","0"
"pit-trial","222","1978605","0.0-105.0","battery-v0.2","","""event"",""trial"",""time""
""fullscreenenter"",""1"",""4317""
""blur"",""141"",""1287273""
""focus"",""141"",""1399826""
","""event"",""trial"",""time""
""blur"",""141"",""1287273""
","""event"",""trial"",""time""
""focus"",""141"",""1399826""
","""event"",""trial"",""time""
""fullscreenenter"",""1"",""4317""
","
","","","-1","","","22","4637","3055","c","elianto","#3366ff99","-1","-1","1","+10","[]","0","2","","","4637","101","5","2","win","no-go","0"
"pit-trial","223","1983464","0.0-106.0","battery-v0.2","","""event"",""trial"",""time""
""fullscreenenter"",""1"",""4317""
""blur"",""141"",""1287273""
""focus"",""141"",""1399826""
","""event"",""trial"",""time""
""blur"",""141"",""1287273""
","""event"",""trial"",""time""
""focus"",""141"",""1399826""
","""event"",""trial"",""time""
""fullscreenenter"",""1"",""4317""
","
","","","-1","","","22","4637","3055","f","elianto","#3366ff99"," ","-1","0","0","[]","0","2","","","4637","102","8","1","win","go","0"
"pit-trial","224","1988323","0.0-107.0","battery-v0.2","","""event"",""trial"",""time""
""fullscreenenter"",""1"",""4317""
""blur"",""141"",""1287273""
""focus"",""141"",""1399826""
","""event"",""trial"",""time""
""blur"",""141"",""1287273""
","""event"",""trial"",""time""
""focus"",""141"",""1399826""
","""event"",""trial"",""time""
""fullscreenenter"",""1"",""4317""
","
","","","-1","","","22","4637","3055","t","elianto","#f73b6a7A","-1","-1","1","0","[]","0","2","","","4637","103","7","4","lose","no-go","0"
"pit-trial","225","1993182","0.0-108.0","battery-v0.2","","""event"",""trial"",""time""
""fullscreenenter"",""1"",""4317""
""blur"",""141"",""1287273""
""focus"",""141"",""1399826""
","""event"",""trial"",""time""
""blur"",""141"",""1287273""
","""event"",""trial"",""time""
""focus"",""141"",""1399826""
","""event"",""trial"",""time""
""fullscreenenter"",""1"",""4317""
","
","","","-1","","","22","4637","3055","n","elianto","#3366ff99"," ","-1","0","0","[]","0","2","","","4637","104","9","1","win","go","0"
"pit-trial","226","1998041","0.0-109.0","battery-v0.2","","""event"",""trial"",""time""
""fullscreenenter"",""1"",""4317""
""blur"",""141"",""1287273""
""focus"",""141"",""1399826""
","""event"",""trial"",""time""
""blur"",""141"",""1287273""
","""event"",""trial"",""time""
""focus"",""141"",""1399826""
","""event"",""trial"",""time""
""fullscreenenter"",""1"",""4317""
","
","","","-1","","","22","4637","3055","n","elianto","#3366ff99"," ","-1","0","0","[]","0","2","","","4637","105","9","1","win","go","0"
"pit-trial","227","2002082","0.0-110.0","battery-v0.2","","""event"",""trial"",""time""
""fullscreenenter"",""1"",""4317""
""blur"",""141"",""1287273""
""focus"",""141"",""1399826""
","""event"",""trial"",""time""
""blur"",""141"",""1287273""
","""event"",""trial"",""time""
""focus"",""141"",""1399826""
","""event"",""trial"",""time""
""fullscreenenter"",""1"",""4317""
","
","","","1183.9000000059605","","","22","4637","3055","f","elianto","#3366ff99"," "," ","1","+10","[2035.2000000178814]","1","2","","","4637","106","8","1","win","go","0"
"pit-trial","228","2006946","0.0-111.0","battery-v0.2","","""event"",""trial"",""time""
""fullscreenenter"",""1"",""4317""
""blur"",""141"",""1287273""
""focus"",""141"",""1399826""
","""event"",""trial"",""time""
""blur"",""141"",""1287273""
","""event"",""trial"",""time""
""focus"",""141"",""1399826""
