"trial_type","trial_index","time_elapsed","internal_node_id","task_version","subject_id","interactions","blur_events","focus_events","fullscreenenter_events","fullscreenexit_events","success","view_history","rt","responses","num_errors","age","subject","participantId","rune","rune_set","hex","correct","choice","accuracy","outcome","keys","total_keys","block","practice","value","sub","trial","stimulus","robot","valence","action","sham"
"pavlovia","0","10","0.0-0.0","battery-v0.2","","""event"",""trial"",""time""
""fullscreenenter"",""1"",""4244""
","
","
","""event"",""trial"",""time""
""fullscreenenter"",""1"",""4244""
","
","","","","","","","","","","","","","","","","","","","","","","","","","","",""
"fullscreen","1","5118","0.0-1.0","battery-v0.2","","""event"",""trial"",""time""
""fullscreenenter"",""1"",""4244""
","
","
","""event"",""trial"",""time""
""fullscreenenter"",""1"",""4244""
","
","true","","","","","","","","","","","","","","","","","","","","","","","","","",""
"pit-instructions","2","10454","0.0-2.0-0.0","battery-v0.2","","""event"",""trial"",""time""
""fullscreenenter"",""1"",""4244""
","
","
","""event"",""trial"",""time""
""fullscreenenter"",""1"",""4244""
","
","","[{""page_index"":0,""viewing_time"":5330.800000071526}]","5331.100000023842","","","","","","","","","","","","","","","","","","","","","","","",""
"pit-comprehension","3","15142","0.0-2.0-1.0-0.0","battery-v0.2","","""event"",""trial"",""time""
""fullscreenenter"",""1"",""4244""
","
","
","""event"",""trial"",""time""
""fullscreenenter"",""1"",""4244""
","
","","","4685.700000047684","[""shark""]","0","10","13363","5823","","","","","","","","","","","","","","","","","","",""
"pit-instructions","4","18860","0.0-2.0-1.0-1.0","battery-v0.2","","""event"",""trial"",""time""
""fullscreenenter"",""1"",""4244""
","
","
","""event"",""trial"",""time""
""fullscreenenter"",""1"",""4244""
","
","","[{""page_index"":0,""viewing_time"":3699.7999999523163}]","3700.1999999284744","","","","","","","","","","","","","","","","","","","","","","","",""
"pit-comprehension","5","22060","0.0-2.0-2.0-0.0","battery-v0.2","","""event"",""trial"",""time""
""fullscreenenter"",""1"",""4244""
","
","
","""event"",""trial"",""time""
""fullscreenenter"",""1"",""4244""
","
","","","3197.899999976158","[""tiger""]","0","10","13363","5823","","","","","","","","","","","","","","","","","","",""
"pit-instructions","6","28079","0.0-2.0-2.0-1.0","battery-v0.2","","""event"",""trial"",""time""
""fullscreenenter"",""1"",""4244""
","
","
","""event"",""trial"",""time""
""fullscreenenter"",""1"",""4244""
","
","","[{""page_index"":0,""viewing_time"":6015.899999976158}]","6016.100000023842","","","","","","","","","","","","","","","","","","","","","","","",""
"pit-instructions","7","136311","0.0-2.0-3.0","battery-v0.2","","""event"",""trial"",""time""
""fullscreenenter"",""1"",""4244""
","
","
","""event"",""trial"",""time""
""fullscreenenter"",""1"",""4244""
","
","","[{""page_index"":0,""viewing_time"":10312.399999976158},{""page_index"":1,""viewing_time"":6034},{""page_index"":2,""viewing_time"":8562},{""page_index"":3,""viewing_time"":5282.100000023842},{""page_index"":4,""viewing_time"":5776},{""page_index"":5,""viewing_time"":5705.5},{""page_index"":6,""viewing_time"":9040.5},{""page_index"":7,""viewing_time"":6587.799999952316},{""page_index"":8,""viewing_time"":7018.300000071526},{""page_index"":9,""viewing_time"":8308.699999928474},{""page_index"":10,""viewing_time"":12711.100000023842},{""page_index"":11,""viewing_time"":8053.799999952316},{""page_index"":12,""viewing_time"":8804.400000095367},{""page_index"":13,""viewing_time"":6033.899999976158}]","108230.79999995232","","","","","","","","","","","","","","","","","","","","","","","",""
"pit-trial","8","139842","0.0-2.0-4.0-0.0","battery-v0.2","","""event"",""trial"",""time""
""fullscreenenter"",""1"",""4244""
","
","
","""event"",""trial"",""time""
""fullscreenenter"",""1"",""4244""
","
","","","670","","","10","13363","5823","&#9784;","elianto","#FFFFF080"," "," ","1","&#10004","[1524.3000000715256]","1","0","0","","","","","","","",""
"pit-trial","9","143682","0.0-2.0-4.1-0.1","battery-v0.2","","""event"",""trial"",""time""
""fullscreenenter"",""1"",""4244""
","
","
","""event"",""trial"",""time""
""fullscreenenter"",""1"",""4244""
","
","","","974.6000000238419","","","10","13363","5823","&#9784;","elianto","#FFFFF080"," "," ","1","&#10004","[1829.8999999761581]","1","0","0","","","","","","","",""
"pit-trial","10","147239","0.0-2.0-4.2-0.2","battery-v0.2","","""event"",""trial"",""time""
""fullscreenenter"",""1"",""4244""
","
","
","""event"",""trial"",""time""
""fullscreenenter"",""1"",""4244""
","
","","","701","","","10","13363","5823","&#9784;","elianto","#FFFFF080"," "," ","1","&#10004","[1551.8999999761581]","1","0","0","","","","","","","",""
"pit-trial","11","150895","0.0-2.0-4.3-0.3","battery-v0.2","","""event"",""trial"",""time""
""fullscreenenter"",""1"",""4244""
","
","
","""event"",""trial"",""time""
""fullscreenenter"",""1"",""4244""
","
","","","785","","","10","13363","5823","&#9784;","elianto","#FFFFF080"," "," ","1","&#10004","[1644.2000000476837]","1","0","0","","","","","","","",""
"pit-trial","12","154445","0.0-2.0-4.4-0.4","battery-v0.2","","""event"",""trial"",""time""
""fullscreenenter"",""1"",""4244""
","
","
","""event"",""trial"",""time""
""fullscreenenter"",""1"",""4244""
","
","","","678.5","","","10","13363","5823","&#9784;","elianto","#FFFFF080"," "," ","1","&#10004","[1530.5]","1","0","0","","","","","","","",""
"pit-instructions","13","179273","0.0-2.0-5.0","battery-v0.2","","""event"",""trial"",""time""
""fullscreenenter"",""1"",""4244""
","
","
","""event"",""trial"",""time""
""fullscreenenter"",""1"",""4244""
","
","","[{""page_index"":0,""viewing_time"":5539.5},{""page_index"":1,""viewing_time"":7332.100000023842},{""page_index"":2,""viewing_time"":6135.899999976158},{""page_index"":3,""viewing_time"":5815.899999976158}]","24823.699999928474","","","","","","","","","","","","","","","","","","","","","","","",""
"pit-trial","14","184133","0.0-2.0-6.0-0.0","battery-v0.2","","""event"",""trial"",""time""
""fullscreenenter"",""1"",""4244""
","
","
","""event"",""trial"",""time""
""fullscreenenter"",""1"",""4244""
","
","","","-1","","","10","13363","5823","&#9854;","elianto","#FFFFF080","-1","-1","1","&#10004","[]","0","0","1","","","","","","","",""
"pit-trial","15","189013","0.0-2.0-6.1-0.1","battery-v0.2","","""event"",""trial"",""time""
""fullscreenenter"",""1"",""4244""
","
","
","""event"",""trial"",""time""
""fullscreenenter"",""1"",""4244""
","
","","","-1","","","10","13363","5823","&#9854;","elianto","#FFFFF080","-1","-1","1","&#10004","[]","0","0","1","","","","","","","",""
"pit-trial","16","193891","0.0-2.0-6.2-0.2","battery-v0.2","","""event"",""trial"",""time""
""fullscreenenter"",""1"",""4244""
","
","
","""event"",""trial"",""time""
""fullscreenenter"",""1"",""4244""
","
","","","-1","","","10","13363","5823","&#9854;","elianto","#FFFFF080","-1","-1","1","&#10004","[]","0","0","1","","","","","","","",""
"pit-trial","17","198765","0.0-2.0-6.3-0.3","battery-v0.2","","""event"",""trial"",""time""
""fullscreenenter"",""1"",""4244""
","
","
","""event"",""trial"",""time""
""fullscreenenter"",""1"",""4244""
","
","","","-1","","","10","13363","5823","&#9854;","elianto","#FFFFF080","-1","-1","1","&#10004","[]","0","0","1","","","","","","","",""
"pit-trial","18","203629","0.0-2.0-6.4-0.4","battery-v0.2","","""event"",""trial"",""time""
""fullscreenenter"",""1"",""4244""
","
","
","""event"",""trial"",""time""
""fullscreenenter"",""1"",""4244""
","
","","","-1","","","10","13363","5823","&#9854;","elianto","#FFFFF080","-1","-1","1","&#10004","[]","0","0","1","","","","","","","",""
"pit-instructions","19","345155","0.0-2.0-7.0","battery-v0.2","","""event"",""trial"",""time""
""fullscreenenter"",""1"",""4244""
","
","
","""event"",""trial"",""time""
""fullscreenenter"",""1"",""4244""
","
","","[{""page_index"":0,""viewing_time"":9805},{""page_index"":1,""viewing_time"":10963.800000071526},{""page_index"":2,""viewing_time"":6802.199999928474},{""page_index"":3,""viewing_time"":7635.900000095367},{""page_index"":4,""viewing_time"":6925.699999928474},{""page_index"":5,""viewing_time"":5744.800000071526},{""page_index"":6,""viewing_time"":6927.5},{""page_index"":7,""viewing_time"":10618.099999904633},{""page_index"":8,""viewing_time"":6379.600000023842},{""page_index"":9,""viewing_time"":7302.399999976158},{""page_index"":10,""viewing_time"":7691.700000047684},{""page_index"":11,""viewing_time"":4312},{""page_index"":12,""viewing_time"":10073.799999952316},{""page_index"":13,""viewing_time"":9352.5},{""page_index"":14,""viewing_time"":8334},{""page_index"":15,""viewing_time"":7020.200000047684},{""page_index"":16,""viewing_time"":7845.700000047684},{""page_index"":17,""viewing_time"":7787.699999928474}]","141522.90000009537","","","","","","","","","","","","","","","","","","","","","","","",""
"pit-trial","20","350035","0.0-2.0-8.0-0.0","battery-v0.2","","""event"",""trial"",""time""
""fullscreenenter"",""1"",""4244""
","
","
","""event"",""trial"",""time""
""fullscreenenter"",""1"",""4244""
","
","","","-1","","","10","13363","5823","&#9776;","elianto","#3366ff99"," ","-1","0","0","[2960.6999999284744]","1","0","1","","","","","","","",""
"pit-trial","21","353576","0.0-2.0-8.0-1.0","battery-v0.2","","""event"",""trial"",""time""
""fullscreenenter"",""1"",""4244""
","
","
","""event"",""trial"",""time""
""fullscreenenter"",""1"",""4244""
","
","","","670.6000000238419","","","10","13363","5823","&#9776;","elianto","#3366ff99"," "," ","1","+10","[1528.3000000715256]","1","0","1","","","","","","","",""
"pit-trial","22","356986","0.0-2.0-8.0-2.0","battery-v0.2","","""event"",""trial"",""time""
""fullscreenenter"",""1"",""4244""
","
","
","""event"",""trial"",""time""
""fullscreenenter"",""1"",""4244""
","
","","","538.5","","","10","13363","5823","&#9776;","elianto","#3366ff99"," "," ","1","+10","[1394.5]","1","0","1","","","","","","","",""
"pit-trial","23","360332","0.0-2.0-8.0-3.0","battery-v0.2","","""event"",""trial"",""time""
""fullscreenenter"",""1"",""4244""
","
","
","""event"",""trial"",""time""
""fullscreenenter"",""1"",""4244""
","
","","","475.3000000715256","","","10","13363","5823","&#9776;","elianto","#3366ff99"," "," ","1","0","[1338]","1","0","1","","","","","","","",""
"pit-trial","24","363735","0.0-2.0-8.0-4.0","battery-v0.2","","""event"",""trial"",""time""
""fullscreenenter"",""1"",""4244""
","
","
","""event"",""trial"",""time""
""fullscreenenter"",""1"",""4244""
","
","","","545.7000000476837","","","10","13363","5823","&#9776;","elianto","#3366ff99"," "," ","1","+10","[1397]","1","0","1","","","","","","","",""
"pit-trial","25","366901","0.0-2.0-8.1-0.1","battery-v0.2","","""event"",""trial"",""time""
""fullscreenenter"",""1"",""4244""
","
","
","""event"",""trial"",""time""
""fullscreenenter"",""1"",""4244""
","
","","","311.40000009536743","","","10","13363","5823","&#9776;","elianto","#3366ff99"," "," ","1","+10","[1162.3000000715256]","1","0","1","","","","","","","",""
"pit-trial","26","370498","0.0-2.0-8.1-1.1","battery-v0.2","","""event"",""trial"",""time""
""fullscreenenter"",""1"",""4244""
","
","
","""event"",""trial"",""time""
""fullscreenenter"",""1"",""4244""
","
","","","729.7999999523163","","","10","13363","5823","&#9776;","elianto","#3366ff99"," "," ","1","+10","[1580.5]","1","0","1","","","","","","","",""
"pit-trial","27","373866","0.0-2.0-8.1-2.1","battery-v0.2","","""event"",""trial"",""time""
""fullscreenenter"",""1"",""4244""
","
","
","""event"",""trial"",""time""
""fullscreenenter"",""1"",""4244""
","
","","","498.6999999284744","","","10","13363","5823","&#9776;","elianto","#3366ff99"," "," ","1","+10","[1351]","1","0","1","","","","","","","",""
"pit-trial","28","377253","0.0-2.0-8.1-3.1","battery-v0.2","","""event"",""trial"",""time""
""fullscreenenter"",""1"",""4244""
","
","
","""event"",""trial"",""time""
""fullscreenenter"",""1"",""4244""
","
","","","532.5999999046326","","","10","13363","5823","&#9776;","elianto","#3366ff99"," "," ","1","0","[1382.7999999523163]","1","0","1","","","","","","","",""
"pit-trial","29","380678","0.0-2.0-8.1-4.1","battery-v0.2","","""event"",""trial"",""time""
""fullscreenenter"",""1"",""4244""
","
","
","""event"",""trial"",""time""
""fullscreenenter"",""1"",""4244""
","
","","","571.2000000476837","","","10","13363","5823","&#9776;","elianto","#3366ff99"," "," ","1","+10","[1422]","1","0","1","","","","","","","",""
"pit-trial","30","383732","0.0-2.0-8.2-0.2","battery-v0.2","","""event"",""trial"",""time""
""fullscreenenter"",""1"",""4244""
","
","
","""event"",""trial"",""time""
""fullscreenenter"",""1"",""4244""
","
","","","200.79999995231628","","","10","13363","5823","&#9776;","elianto","#3366ff99"," "," ","1","+10","[1051.1999999284744]","1","0","1","","","","","","","",""
"pit-trial","31","386756","0.0-2.0-8.2-1.2","battery-v0.2","","""event"",""trial"",""time""
""fullscreenenter"",""1"",""4244""
","
","
","""event"",""trial"",""time""
""fullscreenenter"",""1"",""4244""
","
","","","168.80000007152557","","","10","13363","5823","&#9776;","elianto","#3366ff99"," "," ","1","+10","[1021.1000000238419]","1","0","1","","","","","","","",""
"pit-trial","32","389782","0.0-2.0-8.2-2.2","battery-v0.2","","""event"",""trial"",""time""
""fullscreenenter"",""1"",""4244""
","
","
","""event"",""trial"",""time""
""fullscreenenter"",""1"",""4244""
","
","","","172.19999992847443","","","10","13363","5823","&#9776;","elianto","#3366ff99"," "," ","1","+10","[1022.3000000715256]","1","0","1","","","","","","","",""
"pit-trial","33","393783","0.0-2.0-8.2-3.2","battery-v0.2","","""event"",""trial"",""time""
""fullscreenenter"",""1"",""4244""
","
","
","""event"",""trial"",""time""
""fullscreenenter"",""1"",""4244""
","
","","","1145.4000000953674","","","10","13363","5823","&#9776;","elianto","#3366ff99"," "," ","1","0","[1997.3000000715256]","1","0","1","","","","","","","",""
"pit-trial","34","396957","0.0-2.0-8.2-4.2","battery-v0.2","","""event"",""trial"",""time""
""fullscreenenter"",""1"",""4244""
","
","
","""event"",""trial"",""time""
""fullscreenenter"",""1"",""4244""
","
","","","320.89999997615814","","","10","13363","5823","&#9776;","elianto","#3366ff99"," "," ","1","+10","[1171]","1","0","1","","","","","","","",""
"call-function","35","396960","0.0-2.0-9.0","battery-v0.2","","""event"",""trial"",""time""
""fullscreenenter"",""1"",""4244""
","
","
","""event"",""trial"",""time""
""fullscreenenter"",""1"",""4244""
","
","","","","","","","","","","","","","","","","","","","","","","","","","","",""
"pit-instructions","36","445239","0.0-2.0-10.0","battery-v0.2","","""event"",""trial"",""time""
""fullscreenenter"",""1"",""4244""
","
","
","""event"",""trial"",""time""
""fullscreenenter"",""1"",""4244""
","
","","[{""page_index"":0,""viewing_time"":8028},{""page_index"":1,""viewing_time"":11685.699999928474},{""page_index"":2,""viewing_time"":11082.600000023842},{""page_index"":3,""viewing_time"":9515.5},{""page_index"":4,""viewing_time"":7966.300000071526}]","48278.39999997616","","","","","","","","","","","","","","","","","","","","","","","",""
"pit-trial","37","450105","0.0-2.0-11.0-0.0","battery-v0.2","","""event"",""trial"",""time""
""fullscreenenter"",""1"",""4244""
","
","
","""event"",""trial"",""time""
""fullscreenenter"",""1"",""4244""
","
","","","-1","","","10","13363","5823","&#9761;","elianto","#3366ff99","-1","-1","1","+10","[]","0","0","2","","","","","","","",""
"pit-trial","38","454965","0.0-2.0-11.0-1.0","battery-v0.2","","""event"",""trial"",""time""
""fullscreenenter"",""1"",""4244""
","
","
","""event"",""trial"",""time""
""fullscreenenter"",""1"",""4244""
","
","","","-1","","","10","13363","5823","&#9761;","elianto","#3366ff99","-1","-1","1","+10","[]","0","0","2","","","","","","","",""
"pit-trial","39","459834","0.0-2.0-11.0-2.0","battery-v0.2","","""event"",""trial"",""time""
""fullscreenenter"",""1"",""4244""
","
","
","""event"",""trial"",""time""
""fullscreenenter"",""1"",""4244""
","
","","","-1","","","10","13363","5823","&#9761;","elianto","#3366ff99","-1","-1","1","+10","[]","0","0","2","","","","","","","",""
"pit-trial","40","464698","0.0-2.0-11.0-3.0","battery-v0.2","","""event"",""trial"",""time""
""fullscreenenter"",""1"",""4244""
","
","
","""event"",""trial"",""time""
""fullscreenenter"",""1"",""4244""
","
","","","-1","","","10","13363","5823","&#9761;","elianto","#3366ff99","-1","-1","1","0","[]","0","0","2","","","","","","","",""
"pit-trial","41","469557","0.0-2.0-11.0-4.0","battery-v0.2","","""event"",""trial"",""time""
""fullscreenenter"",""1"",""4244""
","
","
","""event"",""trial"",""time""
""fullscreenenter"",""1"",""4244""
","
","","","-1","","","10","13363","5823","&#9761;","elianto","#3366ff99","-1","-1","1","+10","[]","0","0","2","","","","","","","",""
"pit-trial","42","474427","0.0-2.0-11.1-0.1","battery-v0.2","","""event"",""trial"",""time""
""fullscreenenter"",""1"",""4244""
","
","
","""event"",""trial"",""time""
""fullscreenenter"",""1"",""4244""
","
","","","-1","","","10","13363","5823","&#9761;","elianto","#3366ff99","-1","-1","1","+10","[]","0","0","2","","","","","","","",""
"pit-trial","43","479281","0.0-2.0-11.1-1.1","battery-v0.2","","""event"",""trial"",""time""
""fullscreenenter"",""1"",""4244""
","
","
","""event"",""trial"",""time""
""fullscreenenter"",""1"",""4244""
","
","","","-1","","","10","13363","5823","&#9761;","elianto","#3366ff99","-1","-1","1","+10","[]","0","0","2","","","","","","","",""
"pit-trial","44","484134","0.0-2.0-11.1-2.1","battery-v0.2","","""event"",""trial"",""time""
""fullscreenenter"",""1"",""4244""
","
","
","""event"",""trial"",""time""
""fullscreenenter"",""1"",""4244""
","
","","","-1","","","10","13363","5823","&#9761;","elianto","#3366ff99","-1","-1","1","+10","[]","0","0","2","","","","","","","",""
"pit-trial","45","488986","0.0-2.0-11.1-3.1","battery-v0.2","","""event"",""trial"",""time""
""fullscreenenter"",""1"",""4244""
","
","
","""event"",""trial"",""time""
""fullscreenenter"",""1"",""4244""
","
","","","-1","","","10","13363","5823","&#9761;","elianto","#3366ff99","-1","-1","1","0","[]","0","0","2","","","","","","","",""
"pit-trial","46","493840","0.0-2.0-11.1-4.1","battery-v0.2","","""event"",""trial"",""time""
""fullscreenenter"",""1"",""4244""
","
","
","""event"",""trial"",""time""
""fullscreenenter"",""1"",""4244""
","
","","","-1","","","10","13363","5823","&#9761;","elianto","#3366ff99","-1","-1","1","+10","[]","0","0","2","","","","","","","",""
"pit-trial","47","498694","0.0-2.0-11.2-0.2","battery-v0.2","","""event"",""trial"",""time""
""fullscreenenter"",""1"",""4244""
","
","
","""event"",""trial"",""time""
""fullscreenenter"",""1"",""4244""
","
","","","-1","","","10","13363","5823","&#9761;","elianto","#3366ff99","-1","-1","1","+10","[]","0","0","2","","","","","","","",""
"pit-trial","48","503547","0.0-2.0-11.2-1.2","battery-v0.2","","""event"",""trial"",""time""
""fullscreenenter"",""1"",""4244""
","
","
","""event"",""trial"",""time""
""fullscreenenter"",""1"",""4244""
","
","","","-1","","","10","13363","5823","&#9761;","elianto","#3366ff99","-1","-1","1","+10","[]","0","0","2","","","","","","","",""
"pit-trial","49","508401","0.0-2.0-11.2-2.2","battery-v0.2","","""event"",""trial"",""time""
""fullscreenenter"",""1"",""4244""
","
","
","""event"",""trial"",""time""
""fullscreenenter"",""1"",""4244""
","
","","","-1","","","10","13363","5823","&#9761;","elianto","#3366ff99","-1","-1","1","+10","[]","0","0","2","","","","","","","",""
"pit-trial","50","513255","0.0-2.0-11.2-3.2","battery-v0.2","","""event"",""trial"",""time""
""fullscreenenter"",""1"",""4244""
","
","
","""event"",""trial"",""time""
""fullscreenenter"",""1"",""4244""
","
","","","-1","","","10","13363","5823","&#9761;","elianto","#3366ff99","-1","-1","1","0","[]","0","0","2","","","","","","","",""
"pit-trial","51","518109","0.0-2.0-11.2-4.2","battery-v0.2","","""event"",""trial"",""time""
""fullscreenenter"",""1"",""4244""
","
","
","""event"",""trial"",""time""
""fullscreenenter"",""1"",""4244""
","
","","","-1","","","10","13363","5823","&#9761;","elianto","#3366ff99","-1","-1","1","+10","[]","0","0","2","","","","","","","",""
"pit-trial","52","522964","0.0-2.0-11.3-0.3","battery-v0.2","","""event"",""trial"",""time""
""fullscreenenter"",""1"",""4244""
","
","
","""event"",""trial"",""time""
""fullscreenenter"",""1"",""4244""
","
","","","-1","","","10","13363","5823","&#9761;","elianto","#3366ff99","-1","-1","1","+10","[]","0","0","2","","","","","","","",""
"pit-trial","53","527817","0.0-2.0-11.3-1.3","battery-v0.2","","""event"",""trial"",""time""
""fullscreenenter"",""1"",""4244""
","
","
","""event"",""trial"",""time""
""fullscreenenter"",""1"",""4244""
","
","","","-1","","","10","13363","5823","&#9761;","elianto","#3366ff99","-1","-1","1","+10","[]","0","0","2","","","","","","","",""
"pit-trial","54","532671","0.0-2.0-11.3-2.3","battery-v0.2","","""event"",""trial"",""time""
""fullscreenenter"",""1"",""4244""
","
","
","""event"",""trial"",""time""
""fullscreenenter"",""1"",""4244""
","
","","","-1","","","10","13363","5823","&#9761;","elianto","#3366ff99","-1","-1","1","+10","[]","0","0","2","","","","","","","",""
"pit-trial","55","537525","0.0-2.0-11.3-3.3","battery-v0.2","","""event"",""trial"",""time""
""fullscreenenter"",""1"",""4244""
","
","
","""event"",""trial"",""time""
""fullscreenenter"",""1"",""4244""
","
","","","-1","","","10","13363","5823","&#9761;","elianto","#3366ff99","-1","-1","1","0","[]","0","0","2","","","","","","","",""
"pit-trial","56","542381","0.0-2.0-11.3-4.3","battery-v0.2","","""event"",""trial"",""time""
""fullscreenenter"",""1"",""4244""
","
","
","""event"",""trial"",""time""
""fullscreenenter"",""1"",""4244""
","
","","","-1","","","10","13363","5823","&#9761;","elianto","#3366ff99","-1","-1","1","+10","[]","0","0","2","","","","","","","",""
"call-function","57","542383","0.0-2.0-12.0","battery-v0.2","","""event"",""trial"",""time""
""fullscreenenter"",""1"",""4244""
","
","
","""event"",""trial"",""time""
""fullscreenenter"",""1"",""4244""
","
","","","","","","","","","","","","","","","","","","","","","","","","","","",""
"pit-instructions","58","577604","0.0-2.0-13.0","battery-v0.2","","""event"",""trial"",""time""
""fullscreenenter"",""1"",""4244""
","
","
","""event"",""trial"",""time""
""fullscreenenter"",""1"",""4244""
","
","","[{""page_index"":0,""viewing_time"":7376.899999976158},{""page_index"":1,""viewing_time"":7442.5},{""page_index"":2,""viewing_time"":3490.100000023842},{""page_index"":3,""viewing_time"":11377.799999952316},{""page_index"":4,""viewing_time"":5532}]","35219.60000002384","","","","","","","","","","","","","","","","","","","","","","","",""
"pit-trial","59","582473","0.0-2.0-14.0-0.0","battery-v0.2","","""event"",""trial"",""time""
""fullscreenenter"",""1"",""4244""
","
","
","""event"",""trial"",""time""
""fullscreenenter"",""1"",""4244""
","
","","","-1","","","10","13363","5823","&#9826;","elianto","#f73b6a7A","-1","-1","1","0","[]","0","0","3","","","","","","","",""
"pit-trial","60","587342","0.0-2.0-14.0-1.0","battery-v0.2","","""event"",""trial"",""time""
""fullscreenenter"",""1"",""4244""
","
","
","""event"",""trial"",""time""
""fullscreenenter"",""1"",""4244""
","
","","","-1","","","10","13363","5823","&#9826;","elianto","#f73b6a7A","-1","-1","1","0","[]","0","0","3","","","","","","","",""
"pit-trial","61","592216","0.0-2.0-14.0-2.0","battery-v0.2","","""event"",""trial"",""time""
""fullscreenenter"",""1"",""4244""
","
","
","""event"",""trial"",""time""
""fullscreenenter"",""1"",""4244""
","
","","","-1","","","10","13363","5823","&#9826;","elianto","#f73b6a7A","-1","-1","1","0","[]","0","0","3","","","","","","","",""
"pit-trial","62","597076","0.0-2.0-14.0-3.0","battery-v0.2","","""event"",""trial"",""time""
""fullscreenenter"",""1"",""4244""
","
","
","""event"",""trial"",""time""
""fullscreenenter"",""1"",""4244""
","
","","","-1","","","10","13363","5823","&#9826;","elianto","#f73b6a7A","-1","-1","1","-10","[]","0","0","3","","","","","","","",""
"pit-trial","63","601945","0.0-2.0-14.0-4.0","battery-v0.2","","""event"",""trial"",""time""
""fullscreenenter"",""1"",""4244""
","
","
","""event"",""trial"",""time""
""fullscreenenter"",""1"",""4244""
","
","","","-1","","","10","13363","5823","&#9826;","elianto","#f73b6a7A","-1","-1","1","0","[]","0","0","3","","","","","","","",""
"pit-trial","64","606819","0.0-2.0-14.1-0.1","battery-v0.2","","""event"",""trial"",""time""
""fullscreenenter"",""1"",""4244""
","
","
","""event"",""trial"",""time""
""fullscreenenter"",""1"",""4244""
","
","","","-1","","","10","13363","5823","&#9826;","elianto","#f73b6a7A","-1","-1","1","0","[]","0","0","3","","","","","","","",""
"pit-trial","65","611674","0.0-2.0-14.1-1.1","battery-v0.2","","""event"",""trial"",""time""
""fullscreenenter"",""1"",""4244""
","
","
","""event"",""trial"",""time""
""fullscreenenter"",""1"",""4244""
","
","","","-1","","","10","13363","5823","&#9826;","elianto","#f73b6a7A","-1","-1","1","0","[]","0","0","3","","","","","","","",""
"pit-trial","66","616530","0.0-2.0-14.1-2.1","battery-v0.2","","""event"",""trial"",""time""
""fullscreenenter"",""1"",""4244""
","
","
","""event"",""trial"",""time""
""fullscreenenter"",""1"",""4244""
","
","","","-1","","","10","13363","5823","&#9826;","elianto","#f73b6a7A","-1","-1","1","0","[]","0","0","3","","","","","","","",""
"pit-trial","67","621383","0.0-2.0-14.1-3.1","battery-v0.2","","""event"",""trial"",""time""
""fullscreenenter"",""1"",""4244""
","
","
","""event"",""trial"",""time""
""fullscreenenter"",""1"",""4244""
","
","","","-1","","","10","13363","5823","&#9826;","elianto","#f73b6a7A","-1","-1","1","-10","[]","0","0","3","","","","","","","",""
"pit-trial","68","626237","0.0-2.0-14.1-4.1","battery-v0.2","","""event"",""trial"",""time""
""fullscreenenter"",""1"",""4244""
","
","
","""event"",""trial"",""time""
""fullscreenenter"",""1"",""4244""
","
","","","-1","","","10","13363","5823","&#9826;","elianto","#f73b6a7A","-1","-1","1","0","[]","0","0","3","","","","","","","",""
"pit-trial","69","631091","0.0-2.0-14.2-0.2","battery-v0.2","","""event"",""trial"",""time""
""fullscreenenter"",""1"",""4244""
","
","
","""event"",""trial"",""time""
""fullscreenenter"",""1"",""4244""
","
","","","-1","","","10","13363","5823","&#9826;","elianto","#f73b6a7A","-1","-1","1","0","[]","0","0","3","","","","","","","",""
"pit-trial","70","635946","0.0-2.0-14.2-1.2","battery-v0.2","","""event"",""trial"",""time""
""fullscreenenter"",""1"",""4244""
","
","
","""event"",""trial"",""time""
""fullscreenenter"",""1"",""4244""
","
","","","-1","","","10","13363","5823","&#9826;","elianto","#f73b6a7A","-1","-1","1","0","[]","0","0","3","","","","","","","",""
"pit-trial","71","640800","0.0-2.0-14.2-2.2","battery-v0.2","","""event"",""trial"",""time""
""fullscreenenter"",""1"",""4244""
","
","
","""event"",""trial"",""time""
""fullscreenenter"",""1"",""4244""
","
","","","-1","","","10","13363","5823","&#9826;","elianto","#f73b6a7A","-1","-1","1","0","[]","0","0","3","","","","","","","",""
"pit-trial","72","645653","0.0-2.0-14.2-3.2","battery-v0.2","","""event"",""trial"",""time""
""fullscreenenter"",""1"",""4244""
","
","
","""event"",""trial"",""time""
""fullscreenenter"",""1"",""4244""
","
","","","-1","","","10","13363","5823","&#9826;","elianto","#f73b6a7A","-1","-1","1","-10","[]","0","0","3","","","","","","","",""
"pit-trial","73","650508","0.0-2.0-14.2-4.2","battery-v0.2","","""event"",""trial"",""time""
""fullscreenenter"",""1"",""4244""
","
","
","""event"",""trial"",""time""
""fullscreenenter"",""1"",""4244""
","
","","","-1","","","10","13363","5823","&#9826;","elianto","#f73b6a7A","-1","-1","1","0","[]","0","0","3","","","","","","","",""
"pit-trial","74","655362","0.0-2.0-14.3-0.3","battery-v0.2","","""event"",""trial"",""time""
""fullscreenenter"",""1"",""4244""
","
","
","""event"",""trial"",""time""
""fullscreenenter"",""1"",""4244""
","
","","","-1","","","10","13363","5823","&#9826;","elianto","#f73b6a7A","-1","-1","1","0","[]","0","0","3","","","","","","","",""
"pit-trial","75","660217","0.0-2.0-14.3-1.3","battery-v0.2","","""event"",""trial"",""time""
""fullscreenenter"",""1"",""4244""
","
","
","""event"",""trial"",""time""
""fullscreenenter"",""1"",""4244""
","
","","","-1","","","10","13363","5823","&#9826;","elianto","#f73b6a7A","-1","-1","1","0","[]","0","0","3","","","","","","","",""
"pit-trial","76","665071","0.0-2.0-14.3-2.3","battery-v0.2","","""event"",""trial"",""time""
""fullscreenenter"",""1"",""4244""
","
","
","""event"",""trial"",""time""
""fullscreenenter"",""1"",""4244""
","
","","","-1","","","10","13363","5823","&#9826;","elianto","#f73b6a7A","-1","-1","1","0","[]","0","0","3","","","","","","","",""
"pit-trial","77","669925","0.0-2.0-14.3-3.3","battery-v0.2","","""event"",""trial"",""time""
""fullscreenenter"",""1"",""4244""
","
","
","""event"",""trial"",""time""
""fullscreenenter"",""1"",""4244""
","
","","","-1","","","10","13363","5823","&#9826;","elianto","#f73b6a7A","-1","-1","1","-10","[]","0","0","3","","","","","","","",""
"pit-trial","78","674778","0.0-2.0-14.3-4.3","battery-v0.2","","""event"",""trial"",""time""
""fullscreenenter"",""1"",""4244""
","
","
","""event"",""trial"",""time""
""fullscreenenter"",""1"",""4244""
","
","","","-1","","","10","13363","5823","&#9826;","elianto","#f73b6a7A","-1","-1","1","0","[]","0","0","3","","","","","","","",""
"call-function","79","674779","0.0-2.0-15.0","battery-v0.2","","""event"",""trial"",""time""
""fullscreenenter"",""1"",""4244""
","
","
","""event"",""trial"",""time""
""fullscreenenter"",""1"",""4244""
","
","","","","","","","","","","","","","","","","","","","","","","","","","","",""
"pit-instructions","80","702377","0.0-2.0-16.0","battery-v0.2","","""event"",""trial"",""time""
""fullscreenenter"",""1"",""4244""
","
","
","""event"",""trial"",""time""
""fullscreenenter"",""1"",""4244""
","
","","[{""page_index"":0,""viewing_time"":6903.200000047684},{""page_index"":1,""viewing_time"":9642.099999904633},{""page_index"":2,""viewing_time"":5486.200000047684},{""page_index"":3,""viewing_time"":5566}]","27597.799999952316","","","","","","","","","","","","","","","","","","","","","","","",""
"pit-trial","81","705499","0.0-2.0-17.0-0.0","battery-v0.2","","""event"",""trial"",""time""
""fullscreenenter"",""1"",""4244""
","
","
","""event"",""trial"",""time""
""fullscreenenter"",""1"",""4244""
","
","","","250.90000009536743","","","10","13363","5823","&#9789;","elianto","#f73b6a7A"," "," ","1","0","[1105.8000000715256]","1","0","4","","","","","","","",""
"pit-trial","82","708571","0.0-2.0-17.0-1.0","battery-v0.2","","""event"",""trial"",""time""
""fullscreenenter"",""1"",""4244""
","
","
","""event"",""trial"",""time""
""fullscreenenter"",""1"",""4244""
","
","","","212.39999997615814","","","10","13363","5823","&#9789;","elianto","#f73b6a7A"," "," ","1","0","[1063.6000000238419]","1","0","4","","","","","","","",""
"pit-trial","83","712256","0.0-2.0-17.0-2.0","battery-v0.2","","""event"",""trial"",""time""
""fullscreenenter"",""1"",""4244""
","
","
","""event"",""trial"",""time""
""fullscreenenter"",""1"",""4244""
","
","","","817","","","10","13363","5823","&#9789;","elianto","#f73b6a7A"," "," ","1","0","[848.2000000476837,1679.8999999761581]","2","0","4","","","","","","","",""
"pit-trial","84","715459","0.0-2.0-17.0-3.0","battery-v0.2","","""event"",""trial"",""time""
""fullscreenenter"",""1"",""4244""
","
","
","""event"",""trial"",""time""
""fullscreenenter"",""1"",""4244""
","
","","","342.39999997615814","","","10","13363","5823","&#9789;","elianto","#f73b6a7A"," "," ","1","-10","[1194.7999999523163]","1","0","4","","","","","","","",""
"pit-trial","85","718446","0.0-2.0-17.0-4.0","battery-v0.2","","""event"",""trial"",""time""
""fullscreenenter"",""1"",""4244""
","
","
","""event"",""trial"",""time""
""fullscreenenter"",""1"",""4244""
","
","","","119.69999992847443","","","10","13363","5823","&#9789;","elianto","#f73b6a7A"," "," ","1","0","[976.7000000476837]","1","0","4","","","","","","","",""
"pit-trial","86","721526","0.0-2.0-17.1-0.1","battery-v0.2","","""event"",""trial"",""time""
""fullscreenenter"",""1"",""4244""
","
","
","""event"",""trial"",""time""
""fullscreenenter"",""1"",""4244""
","
","","","224.69999992847443","","","10","13363","5823","&#9789;","elianto","#f73b6a7A"," "," ","1","0","[1076.4000000953674]","1","0","4","","","","","","","",""
"pit-trial","87","724995","0.0-2.0-17.1-1.1","battery-v0.2","","""event"",""trial"",""time""
""fullscreenenter"",""1"",""4244""
","
","
","""event"",""trial"",""time""
""fullscreenenter"",""1"",""4244""
","
","","","598.7999999523163","","","10","13363","5823","&#9789;","elianto","#f73b6a7A"," "," ","1","0","[1453.0999999046326]","1","0","4","","","","","","","",""
"pit-trial","88","728170","0.0-2.0-17.1-2.1","battery-v0.2","","""event"",""trial"",""time""
""fullscreenenter"",""1"",""4244""
","
","
","""event"",""trial"",""time""
""fullscreenenter"",""1"",""4244""
","
","","","314.2999999523163","","","10","13363","5823","&#9789;","elianto","#f73b6a7A"," "," ","1","0","[1167.8999999761581]","1","0","4","","","","","","","",""
"pit-trial","89","731426","0.0-2.0-17.1-3.1","battery-v0.2","","""event"",""trial"",""time""
""fullscreenenter"",""1"",""4244""
","
","
","""event"",""trial"",""time""
""fullscreenenter"",""1"",""4244""
","
","","","389.89999997615814","","","10","13363","5823","&#9789;","elianto","#f73b6a7A"," "," ","1","-10","[1249.1000000238419,2865.399999976158]","2","0","4","","","","","","","",""
"pit-trial","90","734606","0.0-2.0-17.1-4.1","battery-v0.2","","""event"",""trial"",""time""
""fullscreenenter"",""1"",""4244""
","
","
","""event"",""trial"",""time""
""fullscreenenter"",""1"",""4244""
","
","","","325.7999999523163","","","10","13363","5823","&#9789;","elianto","#f73b6a7A"," "," ","1","0","[1176.6999999284744]","1","0","4","","","","","","","",""
"pit-trial","91","737830","0.0-2.0-17.2-0.2","battery-v0.2","","""event"",""trial"",""time""
""fullscreenenter"",""1"",""4244""
","
","
","""event"",""trial"",""time""
""fullscreenenter"",""1"",""4244""
","
","","","369.60000002384186","","","10","13363","5823","&#9789;","elianto","#f73b6a7A"," "," ","1","0","[1220]","1","0","4","","","","","","","",""
"pit-trial","92","740828","0.0-2.0-17.2-1.2","battery-v0.2","","""event"",""trial"",""time""
""fullscreenenter"",""1"",""4244""
","
","
","""event"",""trial"",""time""
""fullscreenenter"",""1"",""4244""
","
","","","145","","","10","13363","5823","&#9789;","elianto","#f73b6a7A"," "," ","1","0","[995.1000000238419]","1","0","4","","","","","","","",""
"pit-trial","93","743838","0.0-2.0-17.2-2.2","battery-v0.2","","""event"",""trial"",""time""
""fullscreenenter"",""1"",""4244""
","
","
","""event"",""trial"",""time""
""fullscreenenter"",""1"",""4244""
","
","","","156.80000007152557","","","10","13363","5823","&#9789;","elianto","#f73b6a7A"," "," ","1","0","[1007.2000000476837]","1","0","4","","","","","","","",""
"pit-trial","94","747198","0.0-2.0-17.2-3.2","battery-v0.2","","""event"",""trial"",""time""
""fullscreenenter"",""1"",""4244""
","
","
","""event"",""trial"",""time""
""fullscreenenter"",""1"",""4244""
","
","","","506.6999999284744","","","10","13363","5823","&#9789;","elianto","#f73b6a7A"," "," ","1","-10","[1356.9000000953674]","1","0","4","","","","","","","",""
"pit-trial","95","750334","0.0-2.0-17.2-4.2","battery-v0.2","","""event"",""trial"",""time""
""fullscreenenter"",""1"",""4244""
","
","
","""event"",""trial"",""time""
""fullscreenenter"",""1"",""4244""
","
","","","282.89999997615814","","","10","13363","5823","&#9789;","elianto","#f73b6a7A"," "," ","1","0","[1134]","1","0","4","","","","","","","",""
"pit-trial","96","753598","0.0-2.0-17.3-0.3","battery-v0.2","","""event"",""trial"",""time""
""fullscreenenter"",""1"",""4244""
","
","
","""event"",""trial"",""time""
""fullscreenenter"",""1"",""4244""
","
","","","410.5","","","10","13363","5823","&#9789;","elianto","#f73b6a7A"," "," ","1","0","[1261.7000000476837]","1","0","4","","","","","","","",""
"pit-trial","97","756566","0.0-2.0-17.3-1.3","battery-v0.2","","""event"",""trial"",""time""
""fullscreenenter"",""1"",""4244""
","
","
","""event"",""trial"",""time""
""fullscreenenter"",""1"",""4244""
","
","","","115","","","10","13363","5823","&#9789;","elianto","#f73b6a7A"," "," ","1","0","[965.2000000476837]","1","0","4","","","","","","","",""
"pit-trial","98","759631","0.0-2.0-17.3-2.3","battery-v0.2","","""event"",""trial"",""time""
""fullscreenenter"",""1"",""4244""
","
","
","""event"",""trial"",""time""
""fullscreenenter"",""1"",""4244""
","
","","","209.5","","","10","13363","5823","&#9789;","elianto","#f73b6a7A"," "," ","1","0","[1060.3999999761581]","1","0","4","","","","","","","",""
"pit-trial","99","762558","0.0-2.0-17.3-3.3","battery-v0.2","","""event"",""trial"",""time""
""fullscreenenter"",""1"",""4244""
","
","
","""event"",""trial"",""time""
""fullscreenenter"",""1"",""4244""
","
","","","73","","","10","13363","5823","&#9789;","elianto","#f73b6a7A"," "," ","1","-10","[923.3999999761581]","1","0","4","","","","","","","",""
"pit-trial","100","765734","0.0-2.0-17.3-4.3","battery-v0.2","","""event"",""trial"",""time""
""fullscreenenter"",""1"",""4244""
","
","
","""event"",""trial"",""time""
""fullscreenenter"",""1"",""4244""
","
","","","322.2999999523163","","","10","13363","5823","&#9789;","elianto","#f73b6a7A"," "," ","1","0","[1173.1999999284744]","1","0","4","","","","","","","",""
"call-function","101","765736","0.0-2.0-18.0","battery-v0.2","","""event"",""trial"",""time""
""fullscreenenter"",""1"",""4244""
","
","
","""event"",""trial"",""time""
""fullscreenenter"",""1"",""4244""
","
","","","","","","","","","","","","","","","","","","","","","","","","","","",""
"pit-instructions","102","844014","0.0-2.0-19.0","battery-v0.2","","""event"",""trial"",""time""
""fullscreenenter"",""1"",""4244""
","
","
","""event"",""trial"",""time""
""fullscreenenter"",""1"",""4244""
","
","","[{""page_index"":0,""viewing_time"":8113.100000023842},{""page_index"":1,""viewing_time"":6724.200000047684},{""page_index"":2,""viewing_time"":15873.899999976158},{""page_index"":3,""viewing_time"":8430},{""page_index"":4,""viewing_time"":9643.899999976158},{""page_index"":5,""viewing_time"":9563.799999952316},{""page_index"":6,""viewing_time"":8493},{""page_index"":7,""viewing_time"":6800.900000095367},{""page_index"":8,""viewing_time"":4634.399999976158}]","78277.5","","","","","","","","","","","","","","","","","","","","","","","",""
"pit-comprehension","103","852335","0.0-2.0-20.0-0.0","battery-v0.2","","""event"",""trial"",""time""
""fullscreenenter"",""1"",""4244""
","
","
","""event"",""trial"",""time""
""fullscreenenter"",""1"",""4244""
","
","","","8317.899999976158","[""SPACE""]","0","10","13363","5823","","","","","","","","","","","","","","","","","","",""
"pit-instructions","104","858687","0.0-2.0-20.0-1.0","battery-v0.2","","""event"",""trial"",""time""
""fullscreenenter"",""1"",""4244""
","
","
","""event"",""trial"",""time""
""fullscreenenter"",""1"",""4244""
","
","","[{""page_index"":0,""viewing_time"":6316}]","6316.200000047684","","","","","","","","","","","","","","","","","","","","","","","",""
"pit-comprehension","105","866900","0.0-2.0-21.0-0.0","battery-v0.2","","""event"",""trial"",""time""
""fullscreenenter"",""1"",""4244""
","
","
","""event"",""trial"",""time""
""fullscreenenter"",""1"",""4244""
","
","","","8210.799999952316","[""10""]","0","10","13363","5823","","","","","","","","","","","","","","","","","","",""
"pit-instructions","106","879429","0.0-2.0-21.0-1.0","battery-v0.2","","""event"",""trial"",""time""
""fullscreenenter"",""1"",""4244""
","
","
","""event"",""trial"",""time""
""fullscreenenter"",""1"",""4244""
","
","","[{""page_index"":0,""viewing_time"":12491.699999928474}]","12491.899999976158","","","","","","","","","","","","","","","","","","","","","","","",""
"pit-comprehension","107","886552","0.0-2.0-22.0-0.0","battery-v0.2","","""event"",""trial"",""time""
""fullscreenenter"",""1"",""4244""
","
","
","""event"",""trial"",""time""
""fullscreenenter"",""1"",""4244""
","
","","","7120.399999976158","[""0""]","0","10","13363","5823","","","","","","","","","","","","","","","","","","",""
"pit-instructions","108","889829","0.0-2.0-22.0-1.0","battery-v0.2","","""event"",""trial"",""time""
""fullscreenenter"",""1"",""4244""
","
","
","""event"",""trial"",""time""
""fullscreenenter"",""1"",""4244""
","
","","[{""page_index"":0,""viewing_time"":3233.7999999523163}]","3234","","","","","","","","","","","","","","","","","","","","","","","",""
"pit-comprehension","109","902360","0.0-2.0-23.0-0.0","battery-v0.2","","""event"",""trial"",""time""
""fullscreenenter"",""1"",""4244""
","
","
","""event"",""trial"",""time""
""fullscreenenter"",""1"",""4244""
","
","","","12528.899999976158","[""True""]","0","10","13363","5823","","","","","","","","","","","","","","","","","","",""
"pit-instructions","110","908065","0.0-2.0-23.0-1.0","battery-v0.2","","""event"",""trial"",""time""
""fullscreenenter"",""1"",""4244""
","
","
","""event"",""trial"",""time""
""fullscreenenter"",""1"",""4244""
","
","","[{""page_index"":0,""viewing_time"":5665.600000023842}]","5665.899999976158","","","","","","","","","","","","","","","","","","","","","","","",""
"pit-comprehension","111","915186","0.0-2.0-24.0-0.0","battery-v0.2","","""event"",""trial"",""time""
""fullscreenenter"",""1"",""4244""
","
","
","""event"",""trial"",""time""
""fullscreenenter"",""1"",""4244""
","
","","","7117.800000071526","[""True""]","0","10","13363","5823","","","","","","","","","","","","","","","","","","",""
"pit-instructions","112","916329","0.0-2.0-24.0-1.0","battery-v0.2","","""event"",""trial"",""time""
""fullscreenenter"",""1"",""4244""
","
","
","""event"",""trial"",""time""
""fullscreenenter"",""1"",""4244""
","
","","[{""page_index"":0,""viewing_time"":1104.3000000715256}]","1104.5","","","","","","","","","","","","","","","","","","","","","","","",""
"pit-comprehension","113","923301","0.0-2.0-25.0-0.0","battery-v0.2","","""event"",""trial"",""time""
""fullscreenenter"",""1"",""4244""
","
","
","""event"",""trial"",""time""
""fullscreenenter"",""1"",""4244""
","
","","","6970.5","[""True""]","0","10","13363","5823","","","","","","","","","","","","","","","","","","",""
"pit-instructions","114","925517","0.0-2.0-25.0-1.0","battery-v0.2","","""event"",""trial"",""time""
""fullscreenenter"",""1"",""4244""
","
","
","""event"",""trial"",""time""
""fullscreenenter"",""1"",""4244""
","
","","[{""page_index"":0,""viewing_time"":2183.3000000715256}]","2183.600000023842","","","","","","","","","","","","","","","","","","","","","","","",""
"pit-comprehension","115","933253","0.0-2.0-26.0-0.0","battery-v0.2","","""event"",""trial"",""time""
""fullscreenenter"",""1"",""4244""
","
","
","""event"",""trial"",""time""
""fullscreenenter"",""1"",""4244""
","
","","","7734.5","[""False""]","0","10","13363","5823","","","","","","","","","","","","","","","","","","",""
"pit-instructions","116","935657","0.0-2.0-26.0-1.0","battery-v0.2","","""event"",""trial"",""time""
""fullscreenenter"",""1"",""4244""
","
","
","""event"",""trial"",""time""
""fullscreenenter"",""1"",""4244""
","
","","[{""page_index"":0,""viewing_time"":2368.6999999284744}]","2368.899999976158","","","","","","","","","","","","","","","","","","","","","","","",""
"pit-instructions","117","956021","0.0-3.0","battery-v0.2","","""event"",""trial"",""time""
""fullscreenenter"",""1"",""4244""
","
","
","""event"",""trial"",""time""
""fullscreenenter"",""1"",""4244""
","
","","[{""page_index"":0,""viewing_time"":5170.399999976158},{""page_index"":1,""viewing_time"":5688.200000047684},{""page_index"":2,""viewing_time"":9503.899999976158}]","20362.899999976158","","","","","","","","","","","","","","","","","","","","","","","",""
"pit-trial","118","959524","0.0-4.0","battery-v0.2","","""event"",""trial"",""time""
""fullscreenenter"",""1"",""4244""
","
","
","""event"",""trial"",""time""
""fullscreenenter"",""1"",""4244""
","
","","","633.7999999523163","","","10","13363","5823","&#9730;","elianto","#3366ff99"," "," ","1","0","[1493.6999999284744]","1","1","","","13363","1","1","1","win","go","1"
"pit-trial","119","964399","0.0-5.0","battery-v0.2","","""event"",""trial"",""time""
""fullscreenenter"",""1"",""4244""
","
","
","""event"",""trial"",""time""
""fullscreenenter"",""1"",""4244""
","
","","","-1","","","10","13363","5823","&#9752;","elianto","#f73b6a7A"," ","-1","0","-10","[]","0","1","","","13363","2","3","3","lose","go","0"
"pit-trial","120","968305","0.0-6.0","battery-v0.2","","""event"",""trial"",""time""
""fullscreenenter"",""1"",""4244""
","
","
","""event"",""trial"",""time""
""fullscreenenter"",""1"",""4244""
","
","","","1050.2000000476837","","","10","13363","5823","&#9733;","elianto","#3366ff99","-1"," ","0","0","[1901]","1","1","","","13363","3","2","2","win","no-go","0"
"pit-trial","121","972228","0.0-7.0","battery-v0.2","","""event"",""trial"",""time""
""fullscreenenter"",""1"",""4244""
","
","
","""event"",""trial"",""time""
""fullscreenenter"",""1"",""4244""
","
","","","1055.7000000476837","","","10","13363","5823","&#9728;","elianto","#f73b6a7A","-1"," ","0","-10","[1913]","1","1","","","13363","4","0","4","lose","no-go","0"
"pit-trial","122","977103","0.0-8.0","battery-v0.2","","""event"",""trial"",""time""
""fullscreenenter"",""1"",""4244""
","
","
","""event"",""trial"",""time""
""fullscreenenter"",""1"",""4244""
","
","","","-1","","","10","13363","5823","&#9752;","elianto","#f73b6a7A"," ","-1","0","-10","[]","0","1","","","13363","5","3","3","lose","go","0"
"pit-trial","123","980879","0.0-9.0","battery-v0.2","","""event"",""trial"",""time""
""fullscreenenter"",""1"",""4244""
","
","
","""event"",""trial"",""time""
""fullscreenenter"",""1"",""4244""
","
","","","917.5","","","10","13363","5823","&#9730;","elianto","#3366ff99"," "," ","1","0","[1772.5]","1","1","","","13363","6","1","1","win","go","1"
"pit-trial","124","985747","0.0-10.0","battery-v0.2","","""event"",""trial"",""time""
""fullscreenenter"",""1"",""4244""
","
","
","""event"",""trial"",""time""
""fullscreenenter"",""1"",""4244""
","
","","","-1","","","10","13363","5823","&#9733;","elianto","#3366ff99","-1","-1","1","+10","[]","0","1","","","13363","7","2","2","win","no-go","0"
"pit-trial","125","990601","0.0-11.0","battery-v0.2","","""event"",""trial"",""time""
""fullscreenenter"",""1"",""4244""
","
","
","""event"",""trial"",""time""
""fullscreenenter"",""1"",""4244""
","
","","","-1","","","10","13363","5823","&#9728;","elianto","#f73b6a7A","-1","-1","1","0","[]","0","1","","","13363","8","0","4","lose","no-go","0"
"pit-trial","126","994318","0.0-12.0","battery-v0.2","","""event"",""trial"",""time""
""fullscreenenter"",""1"",""4244""
","
","
","""event"",""trial"",""time""
""fullscreenenter"",""1"",""4244""
","
","","","861.6000000238419","","","10","13363","5823","&#9728;","elianto","#f73b6a7A","-1"," ","0","0","[1712.7000000476837]","1","1","","","13363","9","0","4","lose","no-go","1"
"pit-trial","127","999173","0.0-13.0","battery-v0.2","","""event"",""trial"",""time""
""fullscreenenter"",""1"",""4244""
","
","
","""event"",""trial"",""time""
""fullscreenenter"",""1"",""4244""
","
","","","-1","","","10","13363","5823","&#9733;","elianto","#3366ff99","-1","-1","1","+10","[]","0","1","","","13363","10","2","2","win","no-go","0"
"pit-trial","128","1004026","0.0-14.0","battery-v0.2","","""event"",""trial"",""time""
""fullscreenenter"",""1"",""4244""
","
","
","""event"",""trial"",""time""
""fullscreenenter"",""1"",""4244""
","
","","","-1","","","10","13363","5823","&#9730;","elianto","#3366ff99"," ","-1","0","0","[]","0","1","","","13363","11","1","1","win","go","0"
"pit-trial","129","1008881","0.0-15.0","battery-v0.2","","""event"",""trial"",""time""
""fullscreenenter"",""1"",""4244""
","
","
","""event"",""trial"",""time""
""fullscreenenter"",""1"",""4244""
","
","","","-1","","","10","13363","5823","&#9752;","elianto","#f73b6a7A"," ","-1","0","-10","[]","0","1","","","13363","12","3","3","lose","go","0"
"pit-trial","130","1012902","0.0-16.0","battery-v0.2","","""event"",""trial"",""time""
""fullscreenenter"",""1"",""4244""
","
","
","""event"",""trial"",""time""
""fullscreenenter"",""1"",""4244""
","
","","","1167.2999999523163","","","10","13363","5823","&#9730;","elianto","#3366ff99"," "," ","1","+10","[2018]","1","1","","","13363","13","1","1","win","go","0"
"pit-trial","131","1016710","0.0-17.0","battery-v0.2","","""event"",""trial"",""time""
""fullscreenenter"",""1"",""4244""
","
","
","""event"",""trial"",""time""
""fullscreenenter"",""1"",""4244""
","
","","","953.6000000238419","","","10","13363","5823","&#9733;","elianto","#3366ff99","-1"," ","0","0","[1804.9000000953674]","1","1","","","13363","14","2","2","win","no-go","0"
"pit-trial","132","1021565","0.0-18.0","battery-v0.2","","""event"",""trial"",""time""
""fullscreenenter"",""1"",""4244""
","
","
","""event"",""trial"",""time""
""fullscreenenter"",""1"",""4244""
","
","","","-1","","","10","13363","5823","&#9728;","elianto","#f73b6a7A","-1","-1","1","-10","[4516.900000095367]","1","1","","","13363","15","0","4","lose","no-go","1"
"pit-trial","133","1026341","0.0-19.0","battery-v0.2","","""event"",""trial"",""time""
""fullscreenenter"",""1"",""4244""
","
","
","""event"",""trial"",""time""
""fullscreenenter"",""1"",""4244""
","
","","","1922.7000000476837","","","10","13363","5823","&#9752;","elianto","#f73b6a7A"," "," ","1","0","[45.200000047683716,261.7000000476837,2772.8000000715256]","3","1","","","13363","16","3","3","lose","go","0"
"pit-trial","134","1031195","0.0-20.0","battery-v0.2","","""event"",""trial"",""time""
""fullscreenenter"",""1"",""4244""
","
","
","""event"",""trial"",""time""
""fullscreenenter"",""1"",""4244""
","
","","","-1","","","10","13363","5823","&#9730;","elianto","#3366ff99"," ","-1","0","0","[]","0","1","","","13363","17","1","1","win","go","0"
"pit-trial","135","1035086","0.0-21.0","battery-v0.2","","""event"",""trial"",""time""
""fullscreenenter"",""1"",""4244""
","
","
","""event"",""trial"",""time""
""fullscreenenter"",""1"",""4244""
","
","","","1039.3999999761581","","","10","13363","5823","&#9733;","elianto","#3366ff99","-1"," ","0","0","[64.79999995231628,1889.6999999284744]","2","1","","","13363","18","2","2","win","no-go","0"
"pit-trial","136","1039302","0.0-22.0","battery-v0.2","","""event"",""trial"",""time""
""fullscreenenter"",""1"",""4244""
","
","
","""event"",""trial"",""time""
""fullscreenenter"",""1"",""4244""
","
","","","1362.4000000953674","","","10","13363","5823","&#9752;","elianto","#f73b6a7A"," "," ","1","0","[2212.7000000476837]","1","1","","","13363","19","3","3","lose","go","0"
"pit-trial","137","1044157","0.0-23.0","battery-v0.2","","""event"",""trial"",""time""
""fullscreenenter"",""1"",""4244""
","
","
","""event"",""trial"",""time""
""fullscreenenter"",""1"",""4244""
","
","","","-1","","","10","13363","5823","&#9728;","elianto","#f73b6a7A","-1","-1","1","0","[]","0","1","","","13363","20","0","4","lose","no-go","0"
"pit-instructions","138","1059472","0.0-24.0","battery-v0.2","","""event"",""trial"",""time""
""fullscreenenter"",""1"",""4244""
","
","
","""event"",""trial"",""time""
""fullscreenenter"",""1"",""4244""
","
","","[{""page_index"":0,""viewing_time"":5965},{""page_index"":1,""viewing_time"":9347.700000047684}]","15312.899999976158","","","","","","","","","","","","","","","","","","","","","","","",""
"pit-trial","139","1063594","0.0-25.0","battery-v0.2","","""event"",""trial"",""time""
""fullscreenenter"",""1"",""4244""
","
","
","""event"",""trial"",""time""
""fullscreenenter"",""1"",""4244""
","
","","","1255","","","10","13363","5823","e","elianto","#f73b6a7A","-1"," ","0","-10","[2106.9000000953674]","1","2","","","13363","21","2","4","lose","no-go","0"
"pit-trial","140","1068469","0.0-26.0","battery-v0.2","","""event"",""trial"",""time""
""fullscreenenter"",""1"",""4244""
","
","
","""event"",""trial"",""time""
""fullscreenenter"",""1"",""4244""
","
","","","-1","","","10","13363","5823","w","elianto","#f73b6a7A"," ","-1","0","0","[]","0","2","","","13363","22","3","3","lose","go","1"
"pit-trial","141","1073340","0.0-27.0","battery-v0.2","","""event"",""trial"",""time""
""fullscreenenter"",""1"",""4244""
","
","
","""event"",""trial"",""time""
""fullscreenenter"",""1"",""4244""
","
","","","-1","","","10","13363","5823","j","elianto","#f73b6a7A","-1","-1","1","0","[]","0","2","","","13363","23","0","4","lose","no-go","0"
"pit-trial","142","1077335","0.0-28.0","battery-v0.2","","""event"",""trial"",""time""
""fullscreenenter"",""1"",""4244""
","
","
","""event"",""trial"",""time""
""fullscreenenter"",""1"",""4244""
","
","","","1127.1999999284744","","","10","13363","5823","d","elianto","#3366ff99"," "," ","1","+10","[1984.1999999284744]","1","2","","","13363","24","1","1","win","go","0"
"pit-trial","143","1082208","0.0-29.0","battery-v0.2","","""event"",""trial"",""time""
""fullscreenenter"",""1"",""4244""
","
","
","""event"",""trial"",""time""
""fullscreenenter"",""1"",""4244""
","
","","","-1","","","10","13363","5823","j","elianto","#f73b6a7A","-1","-1","1","-10","[]","0","2","","","13363","25","0","4","lose","no-go","1"
"pit-trial","144","1087084","0.0-30.0","battery-v0.2","","""event"",""trial"",""time""
""fullscreenenter"",""1"",""4244""
","
","
","""event"",""trial"",""time""
""fullscreenenter"",""1"",""4244""
","
","","","-1","","","10","13363","5823","d","elianto","#3366ff99"," ","-1","0","0","[3018.899999976158]","1","2","","","13363","26","1","1","win","go","0"
"pit-trial","145","1091938","0.0-31.0","battery-v0.2","","""event"",""trial"",""time""
""fullscreenenter"",""1"",""4244""
","
","
","""event"",""trial"",""time""
""fullscreenenter"",""1"",""4244""
","
","","","-1","","","10","13363","5823","e","elianto","#f73b6a7A","-1","-1","1","0","[]","0","2","","","13363","27","2","4","lose","no-go","0"
"pit-trial","146","1096791","0.0-32.0","battery-v0.2","","""event"",""trial"",""time""
""fullscreenenter"",""1"",""4244""
","
","
","""event"",""trial"",""time""
""fullscreenenter"",""1"",""4244""
","
","","","-1","","","10","13363","5823","w","elianto","#f73b6a7A"," ","-1","0","-10","[]","0","2","","","13363","28","3","3","lose","go","0"
"pit-trial","147","1101031","0.0-33.0","battery-v0.2","","""event"",""trial"",""time""
""fullscreenenter"",""1"",""4244""
","
","
","""event"",""trial"",""time""
""fullscreenenter"",""1"",""4244""
","
","","","1386.6000000238419","","","10","13363","5823","e","elianto","#f73b6a7A","-1"," ","0","-10","[2237]","1","2","","","13363","29","2","4","lose","no-go","0"
"pit-trial","148","1105886","0.0-34.0","battery-v0.2","","""event"",""trial"",""time""
""fullscreenenter"",""1"",""4244""
","
","
","""event"",""trial"",""time""
""fullscreenenter"",""1"",""4244""
","
","","","-1","","","10","13363","5823","j","elianto","#f73b6a7A","-1","-1","1","0","[]","0","2","","","13363","30","0","4","lose","no-go","0"
"pit-trial","149","1110739","0.0-35.0","battery-v0.2","","""event"",""trial"",""time""
""fullscreenenter"",""1"",""4244""
","
","
","""event"",""trial"",""time""
""fullscreenenter"",""1"",""4244""
","
","","","-1","","","10","13363","5823","w","elianto","#f73b6a7A"," ","-1","0","-10","[]","0","2","","","13363","31","3","3","lose","go","0"
"pit-trial","150","1114702","0.0-36.0","battery-v0.2","","""event"",""trial"",""time""
""fullscreenenter"",""1"",""4244""
","
","
","""event"",""trial"",""time""
""fullscreenenter"",""1"",""4244""
","
","","","1110.1000000238419","","","10","13363","5823","d","elianto","#3366ff99"," "," ","1","0","[1960.3000000715256]","1","2","","","13363","32","1","1","win","go","1"
"pit-trial","151","1119555","0.0-37.0","battery-v0.2","","""event"",""trial"",""time""
""fullscreenenter"",""1"",""4244""
","
","
","""event"",""trial"",""time""
""fullscreenenter"",""1"",""4244""
","
","","","-1","","","10","13363","5823","e","elianto","#f73b6a7A","-1","-1","1","0","[]","0","2","","","13363","33","2","4","lose","no-go","0"
"pit-trial","152","1123990","0.0-38.0","battery-v0.2","","""event"",""trial"",""time""
""fullscreenenter"",""1"",""4244""
","
","
","""event"",""trial"",""time""
""fullscreenenter"",""1"",""4244""
","
","","","1581.5","","","10","13363","5823","d","elianto","#3366ff99"," "," ","1","+10","[2431.7000000476837]","1","2","","","13363","34","1","1","win","go","0"
"pit-trial","153","1127806","0.0-39.0","battery-v0.2","","""event"",""trial"",""time""
""fullscreenenter"",""1"",""4244""
","
","
","""event"",""trial"",""time""
""fullscreenenter"",""1"",""4244""
","
","","","963.5999999046326","","","10","13363","5823","w","elianto","#f73b6a7A"," "," ","1","0","[1814.6000000238419]","1","2","","","13363","35","3","3","lose","go","0"
"pit-trial","154","1132660","0.0-40.0","battery-v0.2","","""event"",""trial"",""time""
""fullscreenenter"",""1"",""4244""
","
","
","""event"",""trial"",""time""
""fullscreenenter"",""1"",""4244""
","
","","","-1","","","10","13363","5823","j","elianto","#f73b6a7A","-1","-1","1","-10","[]","0","2","","","13363","36","0","4","lose","no-go","1"
"pit-trial","155","1136566","0.0-41.0","battery-v0.2","","""event"",""trial"",""time""
""fullscreenenter"",""1"",""4244""
","
","
","""event"",""trial"",""time""
""fullscreenenter"",""1"",""4244""
","
","","","1052.5","","","10","13363","5823","e","elianto","#f73b6a7A","-1"," ","0","-10","[1903.1000000238419]","1","2","","","13363","37","2","4","lose","no-go","0"
"pit-trial","156","1140479","0.0-42.0","battery-v0.2","","""event"",""trial"",""time""
""fullscreenenter"",""1"",""4244""
","
","
","""event"",""trial"",""time""
""fullscreenenter"",""1"",""4244""
","
","","","1059.5","","","10","13363","5823","j","elianto","#f73b6a7A","-1"," ","0","-10","[1909.7000000476837]","1","2","","","13363","38","0","4","lose","no-go","0"
"pit-trial","157","1144078","0.0-43.0","battery-v0.2","","""event"",""trial"",""time""
""fullscreenenter"",""1"",""4244""
","
","
","""event"",""trial"",""time""
""fullscreenenter"",""1"",""4244""
","
","","","747","","","10","13363","5823","d","elianto","#3366ff99"," "," ","1","+10","[1597.2999999523163]","1","2","","","13363","39","1","1","win","go","0"
"pit-trial","158","1148589","0.0-44.0","battery-v0.2","","""event"",""trial"",""time""
""fullscreenenter"",""1"",""4244""
","
","
","""event"",""trial"",""time""
""fullscreenenter"",""1"",""4244""
","
","","","1657","","","10","13363","5823","w","elianto","#f73b6a7A"," "," ","1","0","[2507.2999999523163]","1","2","","","13363","40","3","3","lose","go","0"
"pit-trial","159","1153441","0.0-45.0","battery-v0.2","","""event"",""trial"",""time""
""fullscreenenter"",""1"",""4244""
","
","
","""event"",""trial"",""time""
""fullscreenenter"",""1"",""4244""
","
","","","-1","","","10","13363","5823","j","elianto","#f73b6a7A","-1","-1","1","0","[]","0","2","","","13363","41","0","4","lose","no-go","0"
"pit-trial","160","1157189","0.0-46.0","battery-v0.2","","""event"",""trial"",""time""
""fullscreenenter"",""1"",""4244""
","
","
","""event"",""trial"",""time""
""fullscreenenter"",""1"",""4244""
","
","","","895.6999999284744","","","10","13363","5823","d","elianto","#3366ff99"," "," ","1","+10","[1745.7999999523163]","1","2","","","13363","42","1","1","win","go","0"
"pit-trial","161","1162042","0.0-47.0","battery-v0.2","","""event"",""trial"",""time""
""fullscreenenter"",""1"",""4244""
","
","
","""event"",""trial"",""time""
""fullscreenenter"",""1"",""4244""
","
","","","-1","","","10","13363","5823","e","elianto","#f73b6a7A","-1","-1","1","0","[]","0","2","","","13363","43","2","4","lose","no-go","0"
"pit-trial","162","1166897","0.0-48.0","battery-v0.2","","""event"",""trial"",""time""
""fullscreenenter"",""1"",""4244""
","
","
","""event"",""trial"",""time""
""fullscreenenter"",""1"",""4244""
","
","","","-1","","","10","13363","5823","w","elianto","#f73b6a7A"," ","-1","0","-10","[3576.7000000476837]","1","2","","","13363","44","3","3","lose","go","0"
"pit-trial","163","1171754","0.0-49.0","battery-v0.2","","""event"",""trial"",""time""
""fullscreenenter"",""1"",""4244""
","
","
","""event"",""trial"",""time""
""fullscreenenter"",""1"",""4244""
","
","","","-1","","","10","13363","5823","j","elianto","#f73b6a7A","-1","-1","1","0","[]","0","2","","","13363","45","0","4","lose","no-go","0"
"pit-trial","164","1175798","0.0-50.0","battery-v0.2","","""event"",""trial"",""time""
""fullscreenenter"",""1"",""4244""
","
","
","""event"",""trial"",""time""
""fullscreenenter"",""1"",""4244""
","
","","","1191","","","10","13363","5823","w","elianto","#f73b6a7A"," "," ","1","0","[2042.2000000476837]","1","2","","","13363","46","3","3","lose","go","0"
"pit-trial","165","1179407","0.0-51.0","battery-v0.2","","""event"",""trial"",""time""
""fullscreenenter"",""1"",""4244""
","
","
","""event"",""trial"",""time""
""fullscreenenter"",""1"",""4244""
","
","","","756.3999999761581","","","10","13363","5823","s","elianto","#3366ff99","-1"," ","0","0","[1606.8000000715256]","1","2","","","13363","47","4","2","win","no-go","0"
"pit-trial","166","1184274","0.0-52.0","battery-v0.2","","""event"",""trial"",""time""
""fullscreenenter"",""1"",""4244""
","
","
","""event"",""trial"",""time""
""fullscreenenter"",""1"",""4244""
","
","","","-1","","","10","13363","5823","e","elianto","#f73b6a7A","-1","-1","1","0","[]","0","2","","","13363","48","2","4","lose","no-go","0"
"pit-trial","167","1189128","0.0-53.0","battery-v0.2","","""event"",""trial"",""time""
""fullscreenenter"",""1"",""4244""
","
","
","""event"",""trial"",""time""
""fullscreenenter"",""1"",""4244""
","
","","","-1","","","10","13363","5823","j","elianto","#f73b6a7A","-1","-1","1","0","[]","0","2","","","13363","49","0","4","lose","no-go","0"
"pit-trial","168","1193981","0.0-54.0","battery-v0.2","","""event"",""trial"",""time""
""fullscreenenter"",""1"",""4244""
","
","
","""event"",""trial"",""time""
""fullscreenenter"",""1"",""4244""
","
","","","-1","","","10","13363","5823","s","elianto","#3366ff99","-1","-1","1","0","[4420.399999976158]","1","2","","","13363","50","4","2","win","no-go","1"
"pit-trial","169","1197926","0.0-55.0","battery-v0.2","","""event"",""trial"",""time""
""fullscreenenter"",""1"",""4244""
","
","
","""event"",""trial"",""time""
""fullscreenenter"",""1"",""4244""
","
","","","1091.7999999523163","","","10","13363","5823","w","elianto","#f73b6a7A"," "," ","1","0","[1941.8999999761581]","1","2","","","13363","51","3","3","lose","go","0"
"pit-trial","170","1202014","0.0-56.0","battery-v0.2","","""event"",""trial"",""time""
""fullscreenenter"",""1"",""4244""
","
","
","""event"",""trial"",""time""
""fullscreenenter"",""1"",""4244""
","
","","","1234.2000000476837","","","10","13363","5823","d","elianto","#3366ff99"," "," ","1","+10","[2084.5]","1","2","","","13363","52","1","1","win","go","0"
"pit-trial","171","1206868","0.0-57.0","battery-v0.2","","""event"",""trial"",""time""
""fullscreenenter"",""1"",""4244""
","
","
","""event"",""trial"",""time""
""fullscreenenter"",""1"",""4244""
","
","","","-1","","","10","13363","5823","s","elianto","#3366ff99","-1","-1","1","0","[]","0","2","","","13363","53","4","2","win","no-go","1"
"pit-trial","172","1211721","0.0-58.0","battery-v0.2","","""event"",""trial"",""time""
""fullscreenenter"",""1"",""4244""
","
","
","""event"",""trial"",""time""
""fullscreenenter"",""1"",""4244""
","
","","","-1","","","10","13363","5823","j","elianto","#f73b6a7A","-1","-1","1","-10","[4303]","1","2","","","13363","54","0","4","lose","no-go","1"
"pit-trial","173","1216583","0.0-59.0","battery-v0.2","","""event"",""trial"",""time""
""fullscreenenter"",""1"",""4244""
","
","
","""event"",""trial"",""time""
""fullscreenenter"",""1"",""4244""
","
","","","-1","","","10","13363","5823","e","elianto","#f73b6a7A","-1","-1","1","0","[]","0","2","","","13363","55","2","4","lose","no-go","0"
"pit-trial","174","1220240","0.0-60.0","battery-v0.2","","""event"",""trial"",""time""
""fullscreenenter"",""1"",""4244""
","
","
","""event"",""trial"",""time""
""fullscreenenter"",""1"",""4244""
","
","","","793.1000000238419","","","10","13363","5823","d","elianto","#3366ff99"," "," ","1","+10","[1644]","1","2","","","13363","56","1","1","win","go","0"
"pit-trial","175","1224495","0.0-61.0","battery-v0.2","","""event"",""trial"",""time""
""fullscreenenter"",""1"",""4244""
","
","
","""event"",""trial"",""time""
""fullscreenenter"",""1"",""4244""
","
","","","1400.6999999284744","","","10","13363","5823","w","elianto","#f73b6a7A"," "," ","1","0","[2251.899999976158]","1","2","","","13363","57","3","3","lose","go","0"
"pit-trial","176","1229347","0.0-62.0","battery-v0.2","","""event"",""trial"",""time""
""fullscreenenter"",""1"",""4244""
","
","
","""event"",""trial"",""time""
""fullscreenenter"",""1"",""4244""
","
","","","-1","","","10","13363","5823","j","elianto","#f73b6a7A","-1","-1","1","0","[]","0","2","","","13363","58","0","4","lose","no-go","0"
"pit-trial","177","1233422","0.0-63.0","battery-v0.2","","""event"",""trial"",""time""
""fullscreenenter"",""1"",""4244""
","
","
","""event"",""trial"",""time""
""fullscreenenter"",""1"",""4244""
","
","","","1221.3999999761581","","","10","13363","5823","s","elianto","#3366ff99","-1"," ","0","+10","[2072.7000000476837]","1","2","","","13363","59","4","2","win","no-go","1"
"pit-trial","178","1237223","0.0-64.0","battery-v0.2","","""event"",""trial"",""time""
""fullscreenenter"",""1"",""4244""
","
","
","""event"",""trial"",""time""
""fullscreenenter"",""1"",""4244""
","
","","","947.7999999523163","","","10","13363","5823","d","elianto","#3366ff99"," "," ","1","+10","[1798.3000000715256]","1","2","","","13363","60","1","1","win","go","0"
"pit-trial","179","1242077","0.0-65.0","battery-v0.2","","""event"",""trial"",""time""
""fullscreenenter"",""1"",""4244""
","
","
","""event"",""trial"",""time""
""fullscreenenter"",""1"",""4244""
","
","","","-1","","","10","13363","5823","e","elianto","#f73b6a7A","-1","-1","1","0","[]","0","2","","","13363","61","2","4","lose","no-go","0"
"pit-trial","180","1246070","0.0-66.0","battery-v0.2","","""event"",""trial"",""time""
""fullscreenenter"",""1"",""4244""
","
","
","""event"",""trial"",""time""
""fullscreenenter"",""1"",""4244""
","
","","","1139.6999999284744","","","10","13363","5823","s","elianto","#3366ff99","-1"," ","0","0","[1989.6000000238419]","1","2","","","13363","62","4","2","win","no-go","0"
"pit-trial","181","1250527","0.0-67.0","battery-v0.2","","""event"",""trial"",""time""
""fullscreenenter"",""1"",""4244""
","
","
","""event"",""trial"",""time""
""fullscreenenter"",""1"",""4244""
","
","","","1602.7000000476837","","","10","13363","5823","w","elianto","#f73b6a7A"," "," ","1","-10","[2454]","1","2","","","13363","63","3","3","lose","go","1"
"pit-trial","182","1254375","0.0-68.0","battery-v0.2","","""event"",""trial"",""time""
""fullscreenenter"",""1"",""4244""
","
","
","""event"",""trial"",""time""
""fullscreenenter"",""1"",""4244""
","
","","","993","","","10","13363","5823","d","elianto","#3366ff99"," "," ","1","+10","[1843.8000000715256]","1","2","","","13363","64","1","1","win","go","0"
"pit-trial","183","1258207","0.0-69.0","battery-v0.2","","""event"",""trial"",""time""
""fullscreenenter"",""1"",""4244""
","
","
","""event"",""trial"",""time""
""fullscreenenter"",""1"",""4244""
","
","","","977.7999999523163","","","10","13363","5823","s","elianto","#3366ff99","-1"," ","0","0","[1828.3999999761581]","1","2","","","13363","65","4","2","win","no-go","0"
"pit-trial","184","1262423","0.0-70.0","battery-v0.2","","""event"",""trial"",""time""
""fullscreenenter"",""1"",""4244""
","
","
","""event"",""trial"",""time""
""fullscreenenter"",""1"",""4244""
","
","","","1362.3000000715256","","","10","13363","5823","d","elianto","#3366ff99"," "," ","1","+10","[2213.5]","1","2","","","13363","66","1","1","win","go","0"
"pit-trial","185","1266445","0.0-71.0","battery-v0.2","","""event"",""trial"",""time""
""fullscreenenter"",""1"",""4244""
","
","
","""event"",""trial"",""time""
""fullscreenenter"",""1"",""4244""
","
","","","1167.6000000238419","","","10","13363","5823","w","elianto","#f73b6a7A"," "," ","1","0","[2018.3000000715256]","1","2","","","13363","67","3","3","lose","go","0"
"pit-trial","186","1271305","0.0-72.0","battery-v0.2","","""event"",""trial"",""time""
""fullscreenenter"",""1"",""4244""
","
","
","""event"",""trial"",""time""
""fullscreenenter"",""1"",""4244""
","
","","","-1","","","10","13363","5823","e","elianto","#f73b6a7A","-1","-1","1","0","[]","0","2","","","13363","68","2","4","lose","no-go","0"
"pit-trial","187","1275077","0.0-73.0","battery-v0.2","","""event"",""trial"",""time""
""fullscreenenter"",""1"",""4244""
","
","
","""event"",""trial"",""time""
""fullscreenenter"",""1"",""4244""
","
","","","918.5","","","10","13363","5823","s","elianto","#3366ff99","-1"," ","0","+10","[1768.9000000953674]","1","2","","","13363","69","4","2","win","no-go","1"
"pit-trial","188","1278695","0.0-74.0","battery-v0.2","","""event"",""trial"",""time""
""fullscreenenter"",""1"",""4244""
","
","
","""event"",""trial"",""time""
""fullscreenenter"",""1"",""4244""
","
","","","763.6999999284744","","","10","13363","5823","d","elianto","#3366ff99"," "," ","1","+10","[1614.3999999761581]","1","2","","","13363","70","1","1","win","go","0"
"pit-trial","189","1283005","0.0-75.0","battery-v0.2","","""event"",""trial"",""time""
""fullscreenenter"",""1"",""4244""
","
","
","""event"",""trial"",""time""
""fullscreenenter"",""1"",""4244""
","
","","","1456.1000000238419","","","10","13363","5823","w","elianto","#f73b6a7A"," "," ","1","0","[2306.899999976158]","1","2","","","13363","71","3","3","lose","go","0"
"pit-trial","190","1286982","0.0-76.0","battery-v0.2","","""event"",""trial"",""time""
""fullscreenenter"",""1"",""4244""
","
","
","""event"",""trial"",""time""
""fullscreenenter"",""1"",""4244""
","
","","","1122.2000000476837","","","10","13363","5823","p","elianto","#3366ff99"," "," ","1","+10","[1973.3999999761581]","1","2","","","13363","72","5","1","win","go","0"
"pit-trial","191","1290462","0.0-77.0","battery-v0.2","","""event"",""trial"",""time""
""fullscreenenter"",""1"",""4244""
","
","
","""event"",""trial"",""time""
""fullscreenenter"",""1"",""4244""
","
","","","626.9000000953674","","","10","13363","5823","s","elianto","#3366ff99","-1"," ","0","0","[1477.3000000715256]","1","2","","","13363","73","4","2","win","no-go","0"
"pit-trial","192","1294255","0.0-78.0","battery-v0.2","","""event"",""trial"",""time""
""fullscreenenter"",""1"",""4244""
","
","
","""event"",""trial"",""time""
""fullscreenenter"",""1"",""4244""
","
","","","936.6999999284744","","","10","13363","5823","w","elianto","#f73b6a7A"," "," ","1","0","[1788.6999999284744]","1","2","","","13363","74","3","3","lose","go","0"
"pit-trial","193","1298549","0.0-79.0","battery-v0.2","","""event"",""trial"",""time""
""fullscreenenter"",""1"",""4244""
","
","
","""event"",""trial"",""time""
""fullscreenenter"",""1"",""4244""
","
","","","1434.3000000715256","","","10","13363","5823","p","elianto","#3366ff99"," "," ","1","+10","[2285]","1","2","","","13363","75","5","1","win","go","0"
"pit-trial","194","1302351","0.0-80.0","battery-v0.2","","""event"",""trial"",""time""
""fullscreenenter"",""1"",""4244""
","
","
","""event"",""trial"",""time""
""fullscreenenter"",""1"",""4244""
","
","","","948.7999999523163","","","10","13363","5823","d","elianto","#3366ff99"," "," ","1","+10","[1799]","1","2","","","13363","76","1","1","win","go","0"
"pit-trial","195","1306655","0.0-81.0","battery-v0.2","","""event"",""trial"",""time""
""fullscreenenter"",""1"",""4244""
","
","
","""event"",""trial"",""time""
""fullscreenenter"",""1"",""4244""
","
","","","1449.5","","","10","13363","5823","g","elianto","#f73b6a7A","-1"," ","0","-10","[2301.6999999284744]","1","2","","","13363","77","6","4","lose","no-go","0"
"pit-trial","196","1311508","0.0-82.0","battery-v0.2","","""event"",""trial"",""time""
""fullscreenenter"",""1"",""4244""
","
","
","""event"",""trial"",""time""
""fullscreenenter"",""1"",""4244""
","
","","","-1","","","10","13363","5823","s","elianto","#3366ff99","-1","-1","1","+10","[]","0","2","","","13363","78","4","2","win","no-go","0"
"pit-trial","197","1315542","0.0-83.0","battery-v0.2","","""event"",""trial"",""time""
""fullscreenenter"",""1"",""4244""
","
","
","""event"",""trial"",""time""
""fullscreenenter"",""1"",""4244""
","
","","","1179.6000000238419","","","10","13363","5823","p","elianto","#3366ff99"," "," ","1","+10","[2031.5]","1","2","","","13363","79","5","1","win","go","0"
"pit-trial","198","1319389","0.0-84.0","battery-v0.2","","""event"",""trial"",""time""
""fullscreenenter"",""1"",""4244""
","
","
","""event"",""trial"",""time""
""fullscreenenter"",""1"",""4244""
","
","","","992.7999999523163","","","10","13363","5823","w","elianto","#f73b6a7A"," "," ","1","0","[1843.6999999284744]","1","2","","","13363","80","3","3","lose","go","0"
"pit-trial","199","1323087","0.0-85.0","battery-v0.2","","""event"",""trial"",""time""
""fullscreenenter"",""1"",""4244""
","
","
","""event"",""trial"",""time""
""fullscreenenter"",""1"",""4244""
","
","","","843.6000000238419","","","10","13363","5823","s","elianto","#3366ff99","-1"," ","0","0","[1694]","1","2","","","13363","81","4","2","win","no-go","0"
"pit-trial","200","1327423","0.0-86.0","battery-v0.2","","""event"",""trial"",""time""
""fullscreenenter"",""1"",""4244""
","
","
","""event"",""trial"",""time""
""fullscreenenter"",""1"",""4244""
","
","","","1481.2000000476837","","","10","13363","5823","p","elianto","#3366ff99"," "," ","1","+10","[2332.8000000715256]","1","2","","","13363","82","5","1","win","go","0"
"pit-trial","201","1331462","0.0-87.0","battery-v0.2","","""event"",""trial"",""time""
""fullscreenenter"",""1"",""4244""
","
","
","""event"",""trial"",""time""
""fullscreenenter"",""1"",""4244""
","
","","","1185.6999999284744","","","10","13363","5823","a","elianto","#f73b6a7A"," "," ","1","-10","[2035.7000000476837]","1","2","","","13363","83","7","3","lose","go","1"
"pit-trial","202","1336321","0.0-88.0","battery-v0.2","","""event"",""trial"",""time""
""fullscreenenter"",""1"",""4244""
","
","
","""event"",""trial"",""time""
""fullscreenenter"",""1"",""4244""
","
","","","-1","","","10","13363","5823","g","elianto","#f73b6a7A","-1","-1","1","0","[]","0","2","","","13363","84","6","4","lose","no-go","0"
"pit-trial","203","1340703","0.0-89.0","battery-v0.2","","""event"",""trial"",""time""
""fullscreenenter"",""1"",""4244""
","
","
","""event"",""trial"",""time""
""fullscreenenter"",""1"",""4244""
","
","","","1528.8999999761581","","","10","13363","5823","p","elianto","#3366ff99"," "," ","1","+10","[2379.6999999284744]","1","2","","","13363","85","5","1","win","go","0"
"pit-trial","204","1345557","0.0-90.0","battery-v0.2","","""event"",""trial"",""time""
""fullscreenenter"",""1"",""4244""
","
","
","""event"",""trial"",""time""
""fullscreenenter"",""1"",""4244""
","
","","","-1","","","10","13363","5823","a","elianto","#f73b6a7A"," ","-1","0","-10","[]","0","2","","","13363","86","7","3","lose","go","0"
"pit-trial","205","1349270","0.0-91.0","battery-v0.2","","""event"",""trial"",""time""
""fullscreenenter"",""1"",""4244""
","
","
","""event"",""trial"",""time""
""fullscreenenter"",""1"",""4244""
","
","","","860.6999999284744","","","10","13363","5823","s","elianto","#3366ff99","-1"," ","0","0","[1711.6999999284744]","1","2","","","13363","87","4","2","win","no-go","0"
"pit-trial","206","1354125","0.0-92.0","battery-v0.2","","""event"",""trial"",""time""
""fullscreenenter"",""1"",""4244""
","
","
","""event"",""trial"",""time""
""fullscreenenter"",""1"",""4244""
","
","","","-1","","","10","13363","5823","g","elianto","#f73b6a7A","-1","-1","1","0","[]","0","2","","","13363","88","6","4","lose","no-go","0"
"pit-trial","207","1357743","0.0-93.0","battery-v0.2","","""event"",""trial"",""time""
""fullscreenenter"",""1"",""4244""
","
","
","""event"",""trial"",""time""
""fullscreenenter"",""1"",""4244""
","
","","","764.5","","","10","13363","5823","s","elianto","#3366ff99","-1"," ","0","0","[1615.2000000476837]","1","2","","","13363","89","4","2","win","no-go","0"
"pit-trial","208","1362597","0.0-94.0","battery-v0.2","","""event"",""trial"",""time""
""fullscreenenter"",""1"",""4244""
","
","
","""event"",""trial"",""time""
""fullscreenenter"",""1"",""4244""
","
","","","-1","","","10","13363","5823","g","elianto","#f73b6a7A","-1","-1","1","0","[]","0","2","","","13363","90","6","4","lose","no-go","0"
"pit-trial","209","1367458","0.0-95.0","battery-v0.2","","""event"",""trial"",""time""
""fullscreenenter"",""1"",""4244""
","
","
","""event"",""trial"",""time""
""fullscreenenter"",""1"",""4244""
","
","","","-1","","","10","13363","5823","a","elianto","#f73b6a7A"," ","-1","0","0","[]","0","2","","","13363","91","7","3","lose","go","1"
"pit-trial","210","1371182","0.0-96.0","battery-v0.2","","""event"",""trial"",""time""
""fullscreenenter"",""1"",""4244""
","
","
","""event"",""trial"",""time""
""fullscreenenter"",""1"",""4244""
","
","","","870.4000000953674","","","10","13363","5823","p","elianto","#3366ff99"," "," ","1","0","[1721.2000000476837]","1","2","","","13363","92","5","1","win","go","1"
"pit-trial","211","1376036","0.0-97.0","battery-v0.2","","""event"",""trial"",""time""
""fullscreenenter"",""1"",""4244""
","
","
","""event"",""trial"",""time""
""fullscreenenter"",""1"",""4244""
","
","","","-1","","","10","13363","5823","g","elianto","#f73b6a7A","-1","-1","1","0","[]","0","2","","","13363","93","6","4","lose","no-go","0"
"pit-trial","212","1380134","0.0-98.0","battery-v0.2","","""event"",""trial"",""time""
""fullscreenenter"",""1"",""4244""
","
","
","""event"",""trial"",""time""
""fullscreenenter"",""1"",""4244""
","
","","","1243.2000000476837","","","10","13363","5823","p","elianto","#3366ff99"," "," ","1","+10","[2094.5]","1","2","","","13363","94","5","1","win","go","0"
"pit-trial","213","1384125","0.0-99.0","battery-v0.2","","""event"",""trial"",""time""
""fullscreenenter"",""1"",""4244""
","
","
","""event"",""trial"",""time""
""fullscreenenter"",""1"",""4244""
","
","","","1138","","","10","13363","5823","l","elianto","#3366ff99","-1"," ","0","0","[1988.2000000476837]","1","2","","","13363","95","8","2","win","no-go","0"
"pit-trial","214","1387718","0.0-100.0","battery-v0.2","","""event"",""trial"",""time""
""fullscreenenter"",""1"",""4244""
","
","
","""event"",""trial"",""time""
""fullscreenenter"",""1"",""4244""
","
","","","739.7000000476837","","","10","13363","5823","a","elianto","#f73b6a7A"," "," ","1","-10","[1590.7000000476837]","1","2","","","13363","96","7","3","lose","go","1"
"pit-trial","215","1392151","0.0-101.0","battery-v0.2","","""event"",""trial"",""time""
""fullscreenenter"",""1"",""4244""
","
","
","""event"",""trial"",""time""
""fullscreenenter"",""1"",""4244""
","
","","","1579.2000000476837","","","10","13363","5823","p","elianto","#3366ff99"," "," ","1","+10","[2429.399999976158]","1","2","","","13363","97","5","1","win","go","0"
"pit-trial","216","1397004","0.0-102.0","battery-v0.2","","""event"",""trial"",""time""
""fullscreenenter"",""1"",""4244""
","
","
","""event"",""trial"",""time""
""fullscreenenter"",""1"",""4244""
","
","","","-1","","","10","13363","5823","g","elianto","#f73b6a7A","-1","-1","1","0","[]","0","2","","","13363","98","6","4","lose","no-go","0"
"pit-trial","217","1400822","0.0-103.0","battery-v0.2","","""event"",""trial"",""time""
""fullscreenenter"",""1"",""4244""
","
","
","""event"",""trial"",""time""
""fullscreenenter"",""1"",""4244""
","
","","","965.1000000238419","","","10","13363","5823","l","elianto","#3366ff99","-1"," ","0","0","[1815.8000000715256]","1","2","","","13363","99","8","2","win","no-go","0"
"pit-trial","218","1405676","0.0-104.0","battery-v0.2","","""event"",""trial"",""time""
""fullscreenenter"",""1"",""4244""
","
","
","""event"",""trial"",""time""
""fullscreenenter"",""1"",""4244""
","
","","","-1","","","10","13363","5823","a","elianto","#f73b6a7A"," ","-1","0","0","[]","0","2","","","13363","100","7","3","lose","go","1"
"pit-trial","219","1409582","0.0-105.0","battery-v0.2","","""event"",""trial"",""time""
""fullscreenenter"",""1"",""4244""
","
","
","""event"",""trial"",""time""
""fullscreenenter"",""1"",""4244""
","
","","","1051","","","10","13363","5823","u","elianto","#3366ff99","-1"," ","0","0","[1902.6999999284744]","1","2","","","13363","101","9","2","win","no-go","0"
"pit-trial","220","1413503","0.0-106.0","battery-v0.2","","""event"",""trial"",""time""
""fullscreenenter"",""1"",""4244""
","
","
","""event"",""trial"",""time""
""fullscreenenter"",""1"",""4244""
","
","","","1067.1000000238419","","","10","13363","5823","p","elianto","#3366ff99"," "," ","1","+10","[1917.5]","1","2","","","13363","102","5","1","win","go","0"
"pit-trial","221","1418357","0.0-107.0","battery-v0.2","","""event"",""trial"",""time""
""fullscreenenter"",""1"",""4244""
","
","
","""event"",""trial"",""time""
""fullscreenenter"",""1"",""4244""
","
","","","-1","","","10","13363","5823","l","elianto","#3366ff99","-1","-1","1","+10","[]","0","2","","","13363","103","8","2","win","no-go","0"
"pit-trial","222","1423212","0.0-108.0","battery-v0.2","","""event"",""trial"",""time""
""fullscreenenter"",""1"",""4244""
","
","
","""event"",""trial"",""time""
""fullscreenenter"",""1"",""4244""
","
","","","-1","","","10","13363","5823","g","elianto","#f73b6a7A","-1","-1","1","0","[]","0","2","","","13363","104","6","4","lose","no-go","0"
"pit-trial","223","1428066","0.0-109.0","battery-v0.2","","""event"",""trial"",""time""
""fullscreenenter"",""1"",""4244""
","
","
","""event"",""trial"",""time""
""fullscreenenter"",""1"",""4244""
","
","","","-1","","","10","13363","5823","l","elianto","#3366ff99","-1","-1","1","+10","[]","0","2","","","13363","105","8","2","win","no-go","0"
"pit-trial","224","1432923","0.0-110.0","battery-v0.2","","""event"",""trial"",""time""
""fullscreenenter"",""1"",""4244""
","
","
","""event"",""trial"",""time""
""fullscreenenter"",""1"",""4244""
","
","","","-1","","","10","13363","5823","u","elianto","#3366ff99","-1","-1","1","+10","[]","0","2","","","13363","106","9","2","win","no-go","0"
"pit-trial","225","1437566","0.0-111.0","battery-v0.2","","""event"",""trial"",""time""
""fullscreenenter"",""1"",""4244""
","
","
","""event"",""trial"",""time""
""fullscreenenter"",""1"",""4244""
","
","","","1788.1000000238419","","","10","13363","5823","p","elianto","#3366ff99"," "," ","1","+10","[2639.3000000715256]","1","2","","","13363","107","5","1","win","go","0"
"pit-trial","226","1442420","0.0-112.0","battery-v0.2","","""event"",""trial"",""time""
""fullscreenenter"",""1"",""4244""
","
","
","""event"",""trial"",""time""
""fullscreenenter"",""1"",""4244""
","
","","","-1","","","10","13363","5823","g","elianto","#f73b6a7A","-1","-1","1","0","[]","0","2","","","13363","108","6","4","lose","no-go","0"
"pit-trial","227","1447272","0.0-113.0","battery-v0.2","","""event"",""trial"",""time""
""fullscreenenter"",""1"",""4244""
","
","
","""event"",""trial"",""time""
""fullscreenenter"",""1"",""4244""
","
","","","-1","","","10","13363","5823","u","elianto","#3366ff99","-1","-1","1","+10","[]","0","2","","","13363","109","9","2","win","no-go","0"
"pit-trial","228","1452126","0.0-114.0","battery-v0.2","","""event"",""trial"",""time""
""fullscreenenter"",""1"",""4244""
","
","
","""event"",""trial"",""time""
""fullscreenenter"",""1"",""4244""
","
","","","-1","","","10","13363","5823","l","elianto","#3366ff99","-1","-1","1","+10","[]","0","2","","","13363","110","8","2","win","no-go","0"
"pit-trial","229","1456343","0.0-115.0","battery-v0.2","","""event"",""trial"",""time""
""fullscreenenter"",""1"",""4244""
","
","
","""event"",""trial"",""time""
""fullscreenenter"",""1"",""4244""
","
","","","1363.5","","","10","13363","5823","p","elianto","#3366ff99"," "," ","1","+10","[2214.100000023842]","1","2","","","13363","111","5","1","win","go","0"
"pit-trial","230","1461195","0.0-116.0","battery-v0.2","","""event"",""trial"",""time""
""fullscreenenter"",""1"",""4244""
","
","
","""event"",""trial"",""time""
""fullscreenenter"",""1"",""4244""
","
","","","-1","","","10","13363","5823","g","elianto","#f73b6a7A","-1","-1","1","-10","[]","0","2","","","13363","112","6","4","lose","no-go","1"
"pit-trial","231","1466048","0.0-117.0","battery-v0.2","","""event"",""trial"",""time""
""fullscreenenter"",""1"",""4244""
","
","
","""event"",""trial"",""time""
""fullscreenenter"",""1"",""4244""
","
","","","-1","","","10","13363","5823","u","elianto","#3366ff99","-1","-1","1","+10","[]","0","2","","","13363","113","9","2","win","no-go","0"
"pit-trial","232","1470901","0.0-118.0","battery-v0.2","","""event"",""trial"",""time""
""fullscreenenter"",""1"",""4244""
","
","
","""event"",""trial"",""time""
""fullscreenenter"",""1"",""4244""
","
","","","-1","","","10","13363","5823","l","elianto","#3366ff99","-1","-1","1","+10","[]","0","2","","","13363","114","8","2","win","no-go","0"
"pit-trial","233","1475015","0.0-119.0","battery-v0.2","","""event"",""trial"",""time""
""fullscreenenter"",""1"",""4244""
","
","
","""event"",""trial"",""time""
""fullscreenenter"",""1"",""4244""
","
","","","1259.4000000953674","","","10","13363","5823","p","elianto","#3366ff99"," "," ","1","+10","[2110.2000000476837]","1","2","","","13363","115","5","1","win","go","0"
"pit-trial","234","1479868","0.0-120.0","battery-v0.2","","""event"",""trial"",""time""
""fullscreenenter"",""1"",""4244""
","
","
","""event"",""trial"",""time""
""fullscreenenter"",""1"",""4244""
","
","","","-1","","","10","13363","5823","a","elianto","#f73b6a7A"," ","-1","0","-10","[]","0","2","","","13363","116","7","3","lose","go","0"
"pit-trial","235","1484722","0.0-121.0","battery-v0.2","","""event"",""trial"",""time""
""fullscreenenter"",""1"",""4244""
","
","
","""event"",""trial"",""time""
""fullscreenenter"",""1"",""4244""
","
","","","-1","","","10","13363","5823","g","elianto","#f73b6a7A","-1","-1","1","0","[]","0","2","","","13363","117","6","4","lose","no-go","0"
"pit-trial","236","1489577","0.0-122.0","battery-v0.2","","""event"",""trial"",""time""
""fullscreenenter"",""1"",""4244""
","
","
","""event"",""trial"",""time""
""fullscreenenter"",""1"",""4244""
","
","","","-1","","","10","13363","5823","p","elianto","#3366ff99"," ","-1","0","0","[3865.9000000953674,4241.200000047684,4449.100000023842,4656.900000095367]","4","2","","","13363","118","5","1","win","go","0"
"pit-trial","237","1494432","0.0-123.0","battery-v0.2","","""event"",""trial"",""time""
""fullscreenenter"",""1"",""4244""
","
","
","""event"",""trial"",""time""
""fullscreenenter"",""1"",""4244""
","
","","","-1","","","10","13363","5823","l","elianto","#3366ff99","-1","-1","1","0","[]","0","2","","","13363","119","8","2","win","no-go","1"
"pit-trial","238","1499286","0.0-124.0","battery-v0.2","","""event"",""trial"",""time""
""fullscreenenter"",""1"",""4244""
","
","
","""event"",""trial"",""time""
""fullscreenenter"",""1"",""4244""
","
","","","-1","","","10","13363","5823","u","elianto","#3366ff99","-1","-1","1","+10","[]","0","2","","","13363","120","9","2","win","no-go","0"
"pit-trial","239","1504140","0.0-125.0","battery-v0.2","","""event"",""trial"",""time""
""fullscreenenter"",""1"",""4244""
","
","
","""event"",""trial"",""time""
""fullscreenenter"",""1"",""4244""
","
","","","-1","","","10","13363","5823","l","elianto","#3366ff99","-1","-1","1","+10","[]","0","2","","","13363","121","8","2","win","no-go","0"
"pit-trial","240","1508245","0.0-126.0","battery-v0.2","","""event"",""trial"",""time""
""fullscreenenter"",""1"",""4244""
","
","
","""event"",""trial"",""time""
""fullscreenenter"",""1"",""4244""
","
","","","1250.8000000715256","","","10","13363","5823","p","elianto","#3366ff99"," "," ","1","+10","[2101.8000000715256]","1","2","","","13363","122","5","1","win","go","0"
"pit-trial","241","1513098","0.0-127.0","battery-v0.2","","""event"",""trial"",""time""
""fullscreenenter"",""1"",""4244""
","
","
","""event"",""trial"",""time""
""fullscreenenter"",""1"",""4244""
","
","","","-1","","","10","13363","5823","a","elianto","#f73b6a7A"," ","-1","0","-10","[4190.100000023842,4494.200000047684,4702.399999976158]","3","2","","","13363","123","7","3","lose","go","0"
"pit-trial","242","1517952","0.0-128.0","battery-v0.2","","""event"",""trial"",""time""
""fullscreenenter"",""1"",""4244""
","
","
","""event"",""trial"",""time""
""fullscreenenter"",""1"",""4244""
","
","","","-1","","","10","13363","5823","u","elianto","#3366ff99","-1","-1","1","0","[71.89999997615814,319.09999990463257]","2","2","","","13363","124","9","2","win","no-go","1"
"pit-trial","243","1522806","0.0-129.0","battery-v0.2","","""event"",""trial"",""time""
""fullscreenenter"",""1"",""4244""
","
","
","""event"",""trial"",""time""
""fullscreenenter"",""1"",""4244""
","
","","","-1","","","10","13363","5823","l","elianto","#3366ff99","-1","-1","1","+10","[]","0","2","","","13363","125","8","2","win","no-go","0"
"pit-trial","244","1527661","0.0-130.0","battery-v0.2","","""event"",""trial"",""time""
""fullscreenenter"",""1"",""4244""
","
","
","""event"",""trial"",""time""
""fullscreenenter"",""1"",""4244""
","
","","","-1","","","10","13363","5823","g","elianto","#f73b6a7A","-1","-1","1","-10","[4149.700000047684]","1","2","","","13363","126","6","4","lose","no-go","1"
"pit-trial","245","1532514","0.0-131.0","battery-v0.2","","""event"",""trial"",""time""
""fullscreenenter"",""1"",""4244""
","
","
","""event"",""trial"",""time""
""fullscreenenter"",""1"",""4244""
","
","","","-1","","","10","13363","5823","u","elianto","#3366ff99","-1","-1","1","+10","[]","0","2","","","13363","127","9","2","win","no-go","0"
"pit-trial","246","1536599","0.0-132.0","battery-v0.2","","""event"",""trial"",""time""
""fullscreenenter"",""1"",""4244""
","
","
","""event"",""trial"",""time""
""fullscreenenter"",""1"",""4244""
","
","","","1231.6000000238419","","","10","13363","5823","a","elianto","#f73b6a7A"," "," ","1","0","[2081.8000000715256]","1","2","","","13363","128","7","3","lose","go","0"
"pit-trial","247","1540976","0.0-133.0","battery-v0.2","","""event"",""trial"",""time""
""fullscreenenter"",""1"",""4244""
","
","
","""event"",""trial"",""time""
""fullscreenenter"",""1"",""4244""
","
","","","1522.9000000953674","","","10","13363","5823","l","elianto","#3366ff99","-1"," ","0","0","[2373.600000023842]","1","2","","","13363","129","8","2","win","no-go","0"
"pit-trial","248","1545831","0.0-134.0","battery-v0.2","","""event"",""trial"",""time""
""fullscreenenter"",""1"",""4244""
","
","
","""event"",""trial"",""time""
""fullscreenenter"",""1"",""4244""
","
","","","-1","","","10","13363","5823","a","elianto","#f73b6a7A"," ","-1","0","-10","[3075.899999976158]","1","2","","","13363","130","7","3","lose","go","0"
"pit-trial","249","1550686","0.0-135.0","battery-v0.2","","""event"",""trial"",""time""
""fullscreenenter"",""1"",""4244""
","
","
","""event"",""trial"",""time""
""fullscreenenter"",""1"",""4244""
","
","","","-1","","","10","13363","5823","u","elianto","#3366ff99","-1","-1","1","+10","[]","0","2","","","13363","131","9","2","win","no-go","0"
"pit-trial","250","1555539","0.0-136.0","battery-v0.2","","""event"",""trial"",""time""
""fullscreenenter"",""1"",""4244""
","
","
","""event"",""trial"",""time""
""fullscreenenter"",""1"",""4244""
","
","","","-1","","","10","13363","5823","g","elianto","#f73b6a7A","-1","-1","1","0","[]","0","2","","","13363","132","6","4","lose","no-go","0"
"pit-trial","251","1560394","0.0-137.0","battery-v0.2","","""event"",""trial"",""time""
""fullscreenenter"",""1"",""4244""
","
","
","""event"",""trial"",""time""
""fullscreenenter"",""1"",""4244""
","
","","","-1","","","10","13363","5823","u","elianto","#3366ff99","-1","-1","1","+10","[]","0","2","","","13363","133","9","2","win","no-go","0"
"pit-trial","252","1565256","0.0-138.0","battery-v0.2","","""event"",""trial"",""time""
""fullscreenenter"",""1"",""4244""
","
","
","""event"",""trial"",""time""
""fullscreenenter"",""1"",""4244""
","
","","","-1","","","10","13363","5823","l","elianto","#3366ff99","-1","-1","1","+10","[]","0","2","","","13363","134","8","2","win","no-go","0"
"pit-trial","253","1569863","0.0-139.0","battery-v0.2","","""event"",""trial"",""time""
""fullscreenenter"",""1"",""4244""
","
","
","""event"",""trial"",""time""
""fullscreenenter"",""1"",""4244""
","
","","","1754.4000000953674","","","10","13363","5823","a","elianto","#f73b6a7A"," "," ","1","-10","[2605.2000000476837,3587.5,4099.200000047684]","3","2","","","13363","135","7","3","lose","go","1"
"pit-trial","254","1574717","0.0-140.0","battery-v0.2","","""event"",""trial"",""time""
""fullscreenenter"",""1"",""4244""
","
","
","""event"",""trial"",""time""
""fullscreenenter"",""1"",""4244""
","
","","","-1","","","10","13363","5823","g","elianto","#f73b6a7A","-1","-1","1","0","[]","0","2","","","13363","136","6","4","lose","no-go","0"
"pit-trial","255","1579571","0.0-141.0","battery-v0.2","","""event"",""trial"",""time""
""fullscreenenter"",""1"",""4244""
","
","
","""event"",""trial"",""time""
""fullscreenenter"",""1"",""4244""
","
","","","-1","","","10","13363","5823","l","elianto","#3366ff99","-1","-1","1","+10","[]","0","2","","","13363","137","8","2","win","no-go","0"
"pit-trial","256","1584426","0.0-142.0","battery-v0.2","","""event"",""trial"",""time""
""fullscreenenter"",""1"",""4244""
","
","
","""event"",""trial"",""time""
""fullscreenenter"",""1"",""4244""
","
","","","-1","","","10","13363","5823","u","elianto","#3366ff99","-1","-1","1","+10","[]","0","2","","","13363","138","9","2","win","no-go","0"
"pit-trial","257","1589279","0.0-143.0","battery-v0.2","","""event"",""trial"",""time""
""fullscreenenter"",""1"",""4244""
","
","
","""event"",""trial"",""time""
""fullscreenenter"",""1"",""4244""
","
","","","-1","","","10","13363","5823","a","elianto","#f73b6a7A"," ","-1","0","-10","[3547.8000000715256,3667.100000023842]","2","2","","","13363","139","7","3","lose","go","0"
"pit-trial","258","1594133","0.0-144.0","battery-v0.2","","""event"",""trial"",""time""
""fullscreenenter"",""1"",""4244""
","
","
","""event"",""trial"",""time""
""fullscreenenter"",""1"",""4244""
","
","","","-1","","","10","13363","5823","g","elianto","#f73b6a7A","-1","-1","1","0","[]","0","2","","","13363","140","6","4","lose","no-go","0"
"pit-instructions","259","1772715","0.0-145.0","battery-v0.2","","""event"",""trial"",""time""
""fullscreenenter"",""1"",""4244""
","
","
","""event"",""trial"",""time""
""fullscreenenter"",""1"",""4244""
","
","","[{""page_index"":0,""viewing_time"":169253.10000002384},{""page_index"":1,""viewing_time"":9327.699999928474}]","178581","","","","","","","","","","","","","","","","","","","","","","","",""
"pit-trial","260","1777580","0.0-146.0","battery-v0.2","","""event"",""trial"",""time""
""fullscreenenter"",""1"",""4244""
","
","
","""event"",""trial"",""time""
""fullscreenenter"",""1"",""4244""
","
","","","-1","","","10","13363","5823","h","elianto","#f73b6a7A","-1","-1","1","0","[]","0","3","","","13363","141","3","4","lose","no-go","0"
"pit-trial","261","1782442","0.0-147.0","battery-v0.2","","""event"",""trial"",""time""
""fullscreenenter"",""1"",""4244""
","
","
","""event"",""trial"",""time""
""fullscreenenter"",""1"",""4244""
","
","","","-1","","","10","13363","5823","m","elianto","#f73b6a7A"," ","-1","0","-10","[3599.600000023842,4190.700000047684,4470.299999952316,4710.600000023842]","4","3","","","13363","142","0","3","lose","go","0"
"pit-trial","262","1786294","0.0-148.0","battery-v0.2","","""event"",""trial"",""time""
""fullscreenenter"",""1"",""4244""
","
","
","""event"",""trial"",""time""
""fullscreenenter"",""1"",""4244""
","
","","","984.6000000238419","","","10","13363","5823","r","elianto","#3366ff99","-1"," ","0","0","[1840.8000000715256]","1","3","","","13363","143","1","2","win","no-go","0"
"pit-trial","263","1791173","0.0-149.0","battery-v0.2","","""event"",""trial"",""time""
""fullscreenenter"",""1"",""4244""
","
","
","""event"",""trial"",""time""
""fullscreenenter"",""1"",""4244""
","
","","","-1","","","10","13363","5823","y","elianto","#f73b6a7A"," ","-1","0","-10","[628.8000000715256,3437.100000023842,3796.399999976158,4028.7000000476837,4253,4677.100000023842]","6","3","","","13363","144","2","3","lose","go","0"
"pit-trial","264","1796055","0.0-150.0","battery-v0.2","","""event"",""trial"",""time""
""fullscreenenter"",""1"",""4244""
","
","
","""event"",""trial"",""time""
""fullscreenenter"",""1"",""4244""
","
","","","-1","","","10","13363","5823","h","elianto","#f73b6a7A","-1","-1","1","0","[]","0","3","","","13363","145","3","4","lose","no-go","0"
"pit-trial","265","1799345","0.0-151.0","battery-v0.2","","""event"",""trial"",""time""
""fullscreenenter"",""1"",""4244""
","
","
","""event"",""trial"",""time""
""fullscreenenter"",""1"",""4244""
","
","","","427.7000000476837","","","10","13363","5823","m","elianto","#f73b6a7A"," "," ","1","0","[1284.3999999761581]","1","3","","","13363","146","0","3","lose","go","0"
"pit-trial","266","1803349","0.0-152.0","battery-v0.2","","""event"",""trial"",""time""
""fullscreenenter"",""1"",""4244""
","
","
","""event"",""trial"",""time""
""fullscreenenter"",""1"",""4244""
","
