"trial_type","trial_index","time_elapsed","internal_node_id","task_version","subject_id","interactions","blur_events","focus_events","fullscreenenter_events","fullscreenexit_events","success","view_history","rt","responses","num_errors","age","subject","participantId","rune","rune_set","hex","correct","choice","accuracy","outcome","keys","total_keys","block","practice","value","sub","trial","stimulus","robot","valence","action","sham"
"pavlovia","0","8","0.0-0.0","battery-v0.2","","""event"",""trial"",""time""
""fullscreenenter"",""1"",""1279""
","
","
","""event"",""trial"",""time""
""fullscreenenter"",""1"",""1279""
","
","","","","","","","","","","","","","","","","","","","","","","","","","","",""
"fullscreen","1","2256","0.0-1.0","battery-v0.2","","""event"",""trial"",""time""
""fullscreenenter"",""1"",""1279""
","
","
","""event"",""trial"",""time""
""fullscreenenter"",""1"",""1279""
","
","true","","","","","","","","","","","","","","","","","","","","","","","","","",""
"pit-instructions","2","10020","0.0-2.0-0.0","battery-v0.2","","""event"",""trial"",""time""
""fullscreenenter"",""1"",""1279""
","
","
","""event"",""trial"",""time""
""fullscreenenter"",""1"",""1279""
","
","","[{""page_index"":0,""viewing_time"":7759.100000000006}]","7759.5","","","","","","","","","","","","","","","","","","","","","","","",""
"pit-comprehension","3","12892","0.0-2.0-1.0-0.0","battery-v0.2","","""event"",""trial"",""time""
""fullscreenenter"",""1"",""1279""
","
","
","""event"",""trial"",""time""
""fullscreenenter"",""1"",""1279""
","
","","","2868.800000000003","[""shark""]","0","24","17302","6323","","","","","","","","","","","","","","","","","","",""
"pit-instructions","4","13798","0.0-2.0-1.0-1.0","battery-v0.2","","""event"",""trial"",""time""
""fullscreenenter"",""1"",""1279""
","
","
","""event"",""trial"",""time""
""fullscreenenter"",""1"",""1279""
","
","","[{""page_index"":0,""viewing_time"":895.6999999999971}]","896.5","","","","","","","","","","","","","","","","","","","","","","","",""
"pit-comprehension","5","16811","0.0-2.0-2.0-0.0","battery-v0.2","","""event"",""trial"",""time""
""fullscreenenter"",""1"",""1279""
","
","
","""event"",""trial"",""time""
""fullscreenenter"",""1"",""1279""
","
","","","3008.100000000006","[""tiger""]","0","24","17302","6323","","","","","","","","","","","","","","","","","","",""
"pit-instructions","6","17796","0.0-2.0-2.0-1.0","battery-v0.2","","""event"",""trial"",""time""
""fullscreenenter"",""1"",""1279""
""blur"",""7"",""38214""
""focus"",""7"",""40705""
","""event"",""trial"",""time""
""blur"",""7"",""38214""
","""event"",""trial"",""time""
""focus"",""7"",""40705""
","""event"",""trial"",""time""
""fullscreenenter"",""1"",""1279""
","
","","[{""page_index"":0,""viewing_time"":980.3000000000029}]","981.1000000000058","","","","","","","","","","","","","","","","","","","","","","","",""
"pit-instructions","7","139687","0.0-2.0-3.0","battery-v0.2","","""event"",""trial"",""time""
""fullscreenenter"",""1"",""1279""
""blur"",""7"",""38214""
""focus"",""7"",""40705""
","""event"",""trial"",""time""
""blur"",""7"",""38214""
","""event"",""trial"",""time""
""focus"",""7"",""40705""
","""event"",""trial"",""time""
""fullscreenenter"",""1"",""1279""
","
","","[{""page_index"":0,""viewing_time"":10286.900000000009},{""page_index"":1,""viewing_time"":6124.300000000003},{""page_index"":2,""viewing_time"":12115.5},{""page_index"":3,""viewing_time"":5319.299999999988},{""page_index"":4,""viewing_time"":23652.399999999994},{""page_index"":5,""viewing_time"":5149.700000000012},{""page_index"":6,""viewing_time"":6915.600000000006},{""page_index"":7,""viewing_time"":6308},{""page_index"":8,""viewing_time"":7199.799999999988},{""page_index"":9,""viewing_time"":8039.200000000012},{""page_index"":10,""viewing_time"":7933.6999999999825},{""page_index"":11,""viewing_time"":8186.600000000006},{""page_index"":12,""viewing_time"":6094.399999999994},{""page_index"":13,""viewing_time"":8561}]","121887.30000000002","","","","","","","","","","","","","","","","","","","","","","","",""
"pit-trial","8","144545","0.0-2.0-4.0-0.0","battery-v0.2","","""event"",""trial"",""time""
""fullscreenenter"",""1"",""1279""
""blur"",""7"",""38214""
""focus"",""7"",""40705""
","""event"",""trial"",""time""
""blur"",""7"",""38214""
","""event"",""trial"",""time""
""focus"",""7"",""40705""
","""event"",""trial"",""time""
""fullscreenenter"",""1"",""1279""
","
","","","-1","","","24","17302","6323","&#9784;","elianto","#FFFFF080"," ","-1","0","&#10060","[4521.899999999994]","1","0","0","","","","","","","",""
"pit-trial","9","148142","0.0-2.0-4.1-0.1","battery-v0.2","","""event"",""trial"",""time""
""fullscreenenter"",""1"",""1279""
""blur"",""7"",""38214""
""focus"",""7"",""40705""
","""event"",""trial"",""time""
""blur"",""7"",""38214""
","""event"",""trial"",""time""
""focus"",""7"",""40705""
","""event"",""trial"",""time""
""fullscreenenter"",""1"",""1279""
","
","","","738.2999999999884","","","24","17302","6323","&#9784;","elianto","#FFFFF080"," "," ","1","&#10004","[1589.7000000000116]","1","0","0","","","","","","","",""
"pit-trial","10","152998","0.0-2.0-4.2-0.2","battery-v0.2","","""event"",""trial"",""time""
""fullscreenenter"",""1"",""1279""
""blur"",""7"",""38214""
""focus"",""7"",""40705""
","""event"",""trial"",""time""
""blur"",""7"",""38214""
","""event"",""trial"",""time""
""focus"",""7"",""40705""
","""event"",""trial"",""time""
""fullscreenenter"",""1"",""1279""
","
","","","-1","","","24","17302","6323","&#9784;","elianto","#FFFFF080"," ","-1","0","&#10060","[]","0","0","0","","","","","","","",""
"pit-trial","11","156595","0.0-2.0-4.3-0.3","battery-v0.2","","""event"",""trial"",""time""
""fullscreenenter"",""1"",""1279""
""blur"",""7"",""38214""
""focus"",""7"",""40705""
","""event"",""trial"",""time""
""blur"",""7"",""38214""
","""event"",""trial"",""time""
""focus"",""7"",""40705""
","""event"",""trial"",""time""
""fullscreenenter"",""1"",""1279""
","
","","","740.5","","","24","17302","6323","&#9784;","elianto","#FFFFF080"," "," ","1","&#10004","[98,1591.9000000000233]","2","0","0","","","","","","","",""
"pit-trial","12","160003","0.0-2.0-4.4-0.4","battery-v0.2","","""event"",""trial"",""time""
""fullscreenenter"",""1"",""1279""
""blur"",""7"",""38214""
""focus"",""7"",""40705""
","""event"",""trial"",""time""
""blur"",""7"",""38214""
","""event"",""trial"",""time""
""focus"",""7"",""40705""
","""event"",""trial"",""time""
""fullscreenenter"",""1"",""1279""
","
","","","551.5","","","24","17302","6323","&#9784;","elianto","#FFFFF080"," "," ","1","&#10004","[1402.2999999999884]","1","0","0","","","","","","","",""
"pit-trial","13","163351","0.0-2.0-4.5-0.5","battery-v0.2","","""event"",""trial"",""time""
""fullscreenenter"",""1"",""1279""
""blur"",""7"",""38214""
""focus"",""7"",""40705""
","""event"",""trial"",""time""
""blur"",""7"",""38214""
","""event"",""trial"",""time""
""focus"",""7"",""40705""
","""event"",""trial"",""time""
""fullscreenenter"",""1"",""1279""
","
","","","490.6000000000058","","","24","17302","6323","&#9784;","elianto","#FFFFF080"," "," ","1","&#10004","[1342.6000000000058]","1","0","0","","","","","","","",""
"pit-instructions","14","186003","0.0-2.0-5.0","battery-v0.2","","""event"",""trial"",""time""
""fullscreenenter"",""1"",""1279""
""blur"",""7"",""38214""
""focus"",""7"",""40705""
","""event"",""trial"",""time""
""blur"",""7"",""38214""
","""event"",""trial"",""time""
""focus"",""7"",""40705""
","""event"",""trial"",""time""
""fullscreenenter"",""1"",""1279""
","
","","[{""page_index"":0,""viewing_time"":4851.799999999988},{""page_index"":1,""viewing_time"":5816.900000000023},{""page_index"":2,""viewing_time"":6210.599999999977},{""page_index"":3,""viewing_time"":5768}]","22647.599999999977","","","","","","","","","","","","","","","","","","","","","","","",""
"pit-trial","15","190857","0.0-2.0-6.0-0.0","battery-v0.2","","""event"",""trial"",""time""
""fullscreenenter"",""1"",""1279""
""blur"",""7"",""38214""
""focus"",""7"",""40705""
","""event"",""trial"",""time""
""blur"",""7"",""38214""
","""event"",""trial"",""time""
""focus"",""7"",""40705""
","""event"",""trial"",""time""
""fullscreenenter"",""1"",""1279""
","
","","","-1","","","24","17302","6323","&#9854;","elianto","#FFFFF080","-1","-1","1","&#10004","[]","0","0","1","","","","","","","",""
"pit-trial","16","195715","0.0-2.0-6.1-0.1","battery-v0.2","","""event"",""trial"",""time""
""fullscreenenter"",""1"",""1279""
""blur"",""7"",""38214""
""focus"",""7"",""40705""
","""event"",""trial"",""time""
""blur"",""7"",""38214""
","""event"",""trial"",""time""
""focus"",""7"",""40705""
","""event"",""trial"",""time""
""fullscreenenter"",""1"",""1279""
","
","","","-1","","","24","17302","6323","&#9854;","elianto","#FFFFF080","-1","-1","1","&#10004","[]","0","0","1","","","","","","","",""
"pit-trial","17","200572","0.0-2.0-6.2-0.2","battery-v0.2","","""event"",""trial"",""time""
""fullscreenenter"",""1"",""1279""
""blur"",""7"",""38214""
""focus"",""7"",""40705""
","""event"",""trial"",""time""
""blur"",""7"",""38214""
","""event"",""trial"",""time""
""focus"",""7"",""40705""
","""event"",""trial"",""time""
""fullscreenenter"",""1"",""1279""
","
","","","-1","","","24","17302","6323","&#9854;","elianto","#FFFFF080","-1","-1","1","&#10004","[]","0","0","1","","","","","","","",""
"pit-trial","18","205429","0.0-2.0-6.3-0.3","battery-v0.2","","""event"",""trial"",""time""
""fullscreenenter"",""1"",""1279""
""blur"",""7"",""38214""
""focus"",""7"",""40705""
","""event"",""trial"",""time""
""blur"",""7"",""38214""
","""event"",""trial"",""time""
""focus"",""7"",""40705""
","""event"",""trial"",""time""
""fullscreenenter"",""1"",""1279""
","
","","","-1","","","24","17302","6323","&#9854;","elianto","#FFFFF080","-1","-1","1","&#10004","[]","0","0","1","","","","","","","",""
"pit-trial","19","210286","0.0-2.0-6.4-0.4","battery-v0.2","","""event"",""trial"",""time""
""fullscreenenter"",""1"",""1279""
""blur"",""7"",""38214""
""focus"",""7"",""40705""
","""event"",""trial"",""time""
""blur"",""7"",""38214""
","""event"",""trial"",""time""
""focus"",""7"",""40705""
","""event"",""trial"",""time""
""fullscreenenter"",""1"",""1279""
","
","","","-1","","","24","17302","6323","&#9854;","elianto","#FFFFF080","-1","-1","1","&#10004","[]","0","0","1","","","","","","","",""
"pit-instructions","20","344726","0.0-2.0-7.0","battery-v0.2","","""event"",""trial"",""time""
""fullscreenenter"",""1"",""1279""
""blur"",""7"",""38214""
""focus"",""7"",""40705""
","""event"",""trial"",""time""
""blur"",""7"",""38214""
","""event"",""trial"",""time""
""focus"",""7"",""40705""
","""event"",""trial"",""time""
""fullscreenenter"",""1"",""1279""
","
","","[{""page_index"":0,""viewing_time"":24037.20000000001},{""page_index"":1,""viewing_time"":8108.700000000012},{""page_index"":2,""viewing_time"":8655.799999999988},{""page_index"":3,""viewing_time"":5764.299999999988},{""page_index"":4,""viewing_time"":5046.200000000041},{""page_index"":5,""viewing_time"":5096},{""page_index"":6,""viewing_time"":4793},{""page_index"":7,""viewing_time"":7250.699999999953},{""page_index"":8,""viewing_time"":7336.699999999953},{""page_index"":9,""viewing_time"":5108.20000000007},{""page_index"":10,""viewing_time"":6175.900000000023},{""page_index"":11,""viewing_time"":4364.5},{""page_index"":12,""viewing_time"":6406.5},{""page_index"":13,""viewing_time"":9515.099999999977},{""page_index"":14,""viewing_time"":6859.699999999953},{""page_index"":15,""viewing_time"":6527.599999999977},{""page_index"":16,""viewing_time"":6217.600000000093},{""page_index"":17,""viewing_time"":7171.29999999993}]","134435.80000000002","","","","","","","","","","","","","","","","","","","","","","","",""
"pit-trial","21","349582","0.0-2.0-8.0-0.0","battery-v0.2","","""event"",""trial"",""time""
""fullscreenenter"",""1"",""1279""
""blur"",""7"",""38214""
""focus"",""7"",""40705""
","""event"",""trial"",""time""
""blur"",""7"",""38214""
","""event"",""trial"",""time""
""focus"",""7"",""40705""
","""event"",""trial"",""time""
""fullscreenenter"",""1"",""1279""
","
","","","-1","","","24","17302","6323","&#9776;","elianto","#3366ff99"," ","-1","0","0","[3195.5]","1","0","1","","","","","","","",""
"pit-trial","22","352831","0.0-2.0-8.0-1.0","battery-v0.2","","""event"",""trial"",""time""
""fullscreenenter"",""1"",""1279""
""blur"",""7"",""38214""
""focus"",""7"",""40705""
","""event"",""trial"",""time""
""blur"",""7"",""38214""
","""event"",""trial"",""time""
""focus"",""7"",""40705""
","""event"",""trial"",""time""
""fullscreenenter"",""1"",""1279""
","
","","","393.89999999990687","","","24","17302","6323","&#9776;","elianto","#3366ff99"," "," ","1","+10","[1245.0999999999767]","1","0","1","","","","","","","",""
"pit-trial","23","356182","0.0-2.0-8.0-2.0","battery-v0.2","","""event"",""trial"",""time""
""fullscreenenter"",""1"",""1279""
""blur"",""7"",""38214""
""focus"",""7"",""40705""
","""event"",""trial"",""time""
""blur"",""7"",""38214""
","""event"",""trial"",""time""
""focus"",""7"",""40705""
","""event"",""trial"",""time""
""fullscreenenter"",""1"",""1279""
","
","","","494.5","","","24","17302","6323","&#9776;","elianto","#3366ff99"," "," ","1","+10","[1345.9000000000233]","1","0","1","","","","","","","",""
"pit-trial","24","359448","0.0-2.0-8.0-3.0","battery-v0.2","","""event"",""trial"",""time""
""fullscreenenter"",""1"",""1279""
""blur"",""7"",""38214""
""focus"",""7"",""40705""
","""event"",""trial"",""time""
""blur"",""7"",""38214""
","""event"",""trial"",""time""
""focus"",""7"",""40705""
","""event"",""trial"",""time""
""fullscreenenter"",""1"",""1279""
","
","","","410","","","24","17302","6323","&#9776;","elianto","#3366ff99"," "," ","1","0","[1261.1999999999534]","1","0","1","","","","","","","",""
"pit-trial","25","362799","0.0-2.0-8.0-4.0","battery-v0.2","","""event"",""trial"",""time""
""fullscreenenter"",""1"",""1279""
""blur"",""7"",""38214""
""focus"",""7"",""40705""
","""event"",""trial"",""time""
""blur"",""7"",""38214""
","""event"",""trial"",""time""
""focus"",""7"",""40705""
","""event"",""trial"",""time""
""fullscreenenter"",""1"",""1279""
","
","","","496.60000000009313","","","24","17302","6323","&#9776;","elianto","#3366ff99"," "," ","1","+10","[769.7000000000698,1347.5]","2","0","1","","","","","","","",""
"pit-trial","26","365845","0.0-2.0-8.1-0.1","battery-v0.2","","""event"",""trial"",""time""
""fullscreenenter"",""1"",""1279""
""blur"",""7"",""38214""
""focus"",""7"",""40705""
","""event"",""trial"",""time""
""blur"",""7"",""38214""
","""event"",""trial"",""time""
""focus"",""7"",""40705""
","""event"",""trial"",""time""
""fullscreenenter"",""1"",""1279""
","
","","","187.69999999995343","","","24","17302","6323","&#9776;","elianto","#3366ff99"," "," ","1","+10","[1039.8000000000466]","1","0","1","","","","","","","",""
"pit-trial","27","369178","0.0-2.0-8.1-1.1","battery-v0.2","","""event"",""trial"",""time""
""fullscreenenter"",""1"",""1279""
""blur"",""7"",""38214""
""focus"",""7"",""40705""
","""event"",""trial"",""time""
""blur"",""7"",""38214""
","""event"",""trial"",""time""
""focus"",""7"",""40705""
","""event"",""trial"",""time""
""fullscreenenter"",""1"",""1279""
","
","","","476.29999999993015","","","24","17302","6323","&#9776;","elianto","#3366ff99"," "," ","1","+10","[839,1327.7999999999302]","2","0","1","","","","","","","",""
"pit-trial","28","372336","0.0-2.0-8.1-2.1","battery-v0.2","","""event"",""trial"",""time""
""fullscreenenter"",""1"",""1279""
""blur"",""7"",""38214""
""focus"",""7"",""40705""
","""event"",""trial"",""time""
""blur"",""7"",""38214""
","""event"",""trial"",""time""
""focus"",""7"",""40705""
","""event"",""trial"",""time""
""fullscreenenter"",""1"",""1279""
","
","","","303.5","","","24","17302","6323","&#9776;","elianto","#3366ff99"," "," ","1","+10","[1153.7000000000698]","1","0","1","","","","","","","",""
"pit-trial","29","375536","0.0-2.0-8.1-3.1","battery-v0.2","","""event"",""trial"",""time""
""fullscreenenter"",""1"",""1279""
""blur"",""7"",""38214""
""focus"",""7"",""40705""
","""event"",""trial"",""time""
""blur"",""7"",""38214""
","""event"",""trial"",""time""
""focus"",""7"",""40705""
","""event"",""trial"",""time""
""fullscreenenter"",""1"",""1279""
","
","","","344.20000000006985","","","24","17302","6323","&#9776;","elianto","#3366ff99"," "," ","1","0","[1195.1000000000931]","1","0","1","","","","","","","",""
"pit-trial","30","378737","0.0-2.0-8.1-4.1","battery-v0.2","","""event"",""trial"",""time""
""fullscreenenter"",""1"",""1279""
""blur"",""7"",""38214""
""focus"",""7"",""40705""
","""event"",""trial"",""time""
""blur"",""7"",""38214""
","""event"",""trial"",""time""
""focus"",""7"",""40705""
","""event"",""trial"",""time""
""fullscreenenter"",""1"",""1279""
","
","","","345.19999999995343","","","24","17302","6323","&#9776;","elianto","#3366ff99"," "," ","1","+10","[1196]","1","0","1","","","","","","","",""
"pit-trial","31","381965","0.0-2.0-8.2-0.2","battery-v0.2","","""event"",""trial"",""time""
""fullscreenenter"",""1"",""1279""
""blur"",""7"",""38214""
""focus"",""7"",""40705""
","""event"",""trial"",""time""
""blur"",""7"",""38214""
","""event"",""trial"",""time""
""focus"",""7"",""40705""
","""event"",""trial"",""time""
""fullscreenenter"",""1"",""1279""
","
","","","371","","","24","17302","6323","&#9776;","elianto","#3366ff99"," "," ","1","+10","[1222.0999999999767]","1","0","1","","","","","","","",""
"pit-trial","32","385137","0.0-2.0-8.2-1.2","battery-v0.2","","""event"",""trial"",""time""
""fullscreenenter"",""1"",""1279""
""blur"",""7"",""38214""
""focus"",""7"",""40705""
","""event"",""trial"",""time""
""blur"",""7"",""38214""
","""event"",""trial"",""time""
""focus"",""7"",""40705""
","""event"",""trial"",""time""
""fullscreenenter"",""1"",""1279""
","
","","","316.60000000009313","","","24","17302","6323","&#9776;","elianto","#3366ff99"," "," ","1","+10","[1168.0999999999767]","1","0","1","","","","","","","",""
"pit-trial","33","388159","0.0-2.0-8.2-2.2","battery-v0.2","","""event"",""trial"",""time""
""fullscreenenter"",""1"",""1279""
""blur"",""7"",""38214""
""focus"",""7"",""40705""
","""event"",""trial"",""time""
""blur"",""7"",""38214""
","""event"",""trial"",""time""
""focus"",""7"",""40705""
","""event"",""trial"",""time""
""fullscreenenter"",""1"",""1279""
","
","","","166.5","","","24","17302","6323","&#9776;","elianto","#3366ff99"," "," ","1","+10","[1017.5999999999767]","1","0","1","","","","","","","",""
"pit-trial","34","391225","0.0-2.0-8.2-3.2","battery-v0.2","","""event"",""trial"",""time""
""fullscreenenter"",""1"",""1279""
""blur"",""7"",""38214""
""focus"",""7"",""40705""
","""event"",""trial"",""time""
""blur"",""7"",""38214""
","""event"",""trial"",""time""
""focus"",""7"",""40705""
","""event"",""trial"",""time""
""fullscreenenter"",""1"",""1279""
","
","","","209.90000000002328","","","24","17302","6323","&#9776;","elianto","#3366ff99"," "," ","1","0","[1060.8999999999069]","1","0","1","","","","","","","",""
"pit-trial","35","394200","0.0-2.0-8.2-4.2","battery-v0.2","","""event"",""trial"",""time""
""fullscreenenter"",""1"",""1279""
""blur"",""7"",""38214""
""focus"",""7"",""40705""
","""event"",""trial"",""time""
""blur"",""7"",""38214""
","""event"",""trial"",""time""
""focus"",""7"",""40705""
","""event"",""trial"",""time""
""fullscreenenter"",""1"",""1279""
","
","","","118.59999999997672","","","24","17302","6323","&#9776;","elianto","#3366ff99"," "," ","1","+10","[969.3000000000466]","1","0","1","","","","","","","",""
"call-function","36","394203","0.0-2.0-9.0","battery-v0.2","","""event"",""trial"",""time""
""fullscreenenter"",""1"",""1279""
""blur"",""7"",""38214""
""focus"",""7"",""40705""
","""event"",""trial"",""time""
""blur"",""7"",""38214""
","""event"",""trial"",""time""
""focus"",""7"",""40705""
","""event"",""trial"",""time""
""fullscreenenter"",""1"",""1279""
","
","","","","","","","","","","","","","","","","","","","","","","","","","","",""
"pit-instructions","37","457032","0.0-2.0-10.0","battery-v0.2","","""event"",""trial"",""time""
""fullscreenenter"",""1"",""1279""
""blur"",""7"",""38214""
""focus"",""7"",""40705""
","""event"",""trial"",""time""
""blur"",""7"",""38214""
","""event"",""trial"",""time""
""focus"",""7"",""40705""
","""event"",""trial"",""time""
""fullscreenenter"",""1"",""1279""
","
","","[{""page_index"":0,""viewing_time"":5857.900000000023},{""page_index"":1,""viewing_time"":6447.20000000007},{""page_index"":2,""viewing_time"":9516.699999999953},{""page_index"":3,""viewing_time"":12435.699999999953},{""page_index"":4,""viewing_time"":28569.20000000007}]","62827.5","","","","","","","","","","","","","","","","","","","","","","","",""
"pit-trial","38","460761","0.0-2.0-11.0-0.0","battery-v0.2","","""event"",""trial"",""time""
""fullscreenenter"",""1"",""1279""
""blur"",""7"",""38214""
""focus"",""7"",""40705""
","""event"",""trial"",""time""
""blur"",""7"",""38214""
","""event"",""trial"",""time""
""focus"",""7"",""40705""
","""event"",""trial"",""time""
""fullscreenenter"",""1"",""1279""
","
","","","871.7999999999302","","","24","17302","6323","&#9761;","elianto","#3366ff99","-1"," ","0","0","[1723.6999999999534]","1","0","2","","","","","","","",""
"pit-trial","39","464315","0.0-2.0-11.0-1.0","battery-v0.2","","""event"",""trial"",""time""
""fullscreenenter"",""1"",""1279""
""blur"",""7"",""38214""
""focus"",""7"",""40705""
","""event"",""trial"",""time""
""blur"",""7"",""38214""
","""event"",""trial"",""time""
""focus"",""7"",""40705""
","""event"",""trial"",""time""
""fullscreenenter"",""1"",""1279""
","
","","","696.9000000000233","","","24","17302","6323","&#9761;","elianto","#3366ff99","-1"," ","0","0","[1548.4000000000233]","1","0","2","","","","","","","",""
"pit-trial","40","467475","0.0-2.0-11.0-2.0","battery-v0.2","","""event"",""trial"",""time""
""fullscreenenter"",""1"",""1279""
""blur"",""7"",""38214""
""focus"",""7"",""40705""
","""event"",""trial"",""time""
""blur"",""7"",""38214""
","""event"",""trial"",""time""
""focus"",""7"",""40705""
","""event"",""trial"",""time""
""fullscreenenter"",""1"",""1279""
","
","","","304.10000000009313","","","24","17302","6323","&#9761;","elianto","#3366ff99","-1"," ","0","0","[1155.3000000000466]","1","0","2","","","","","","","",""
"pit-trial","41","472331","0.0-2.0-11.0-3.0","battery-v0.2","","""event"",""trial"",""time""
""fullscreenenter"",""1"",""1279""
""blur"",""7"",""38214""
""focus"",""7"",""40705""
","""event"",""trial"",""time""
""blur"",""7"",""38214""
","""event"",""trial"",""time""
""focus"",""7"",""40705""
","""event"",""trial"",""time""
""fullscreenenter"",""1"",""1279""
","
","","","-1","","","24","17302","6323","&#9761;","elianto","#3366ff99","-1","-1","1","0","[]","0","0","2","","","","","","","",""
"pit-trial","42","477188","0.0-2.0-11.0-4.0","battery-v0.2","","""event"",""trial"",""time""
""fullscreenenter"",""1"",""1279""
""blur"",""7"",""38214""
""focus"",""7"",""40705""
","""event"",""trial"",""time""
""blur"",""7"",""38214""
","""event"",""trial"",""time""
""focus"",""7"",""40705""
","""event"",""trial"",""time""
""fullscreenenter"",""1"",""1279""
","
","","","-1","","","24","17302","6323","&#9761;","elianto","#3366ff99","-1","-1","1","+10","[]","0","0","2","","","","","","","",""
"pit-trial","43","482045","0.0-2.0-11.1-0.1","battery-v0.2","","""event"",""trial"",""time""
""fullscreenenter"",""1"",""1279""
""blur"",""7"",""38214""
""focus"",""7"",""40705""
","""event"",""trial"",""time""
""blur"",""7"",""38214""
","""event"",""trial"",""time""
""focus"",""7"",""40705""
","""event"",""trial"",""time""
""fullscreenenter"",""1"",""1279""
","
","","","-1","","","24","17302","6323","&#9761;","elianto","#3366ff99","-1","-1","1","+10","[]","0","0","2","","","","","","","",""
"pit-trial","44","486903","0.0-2.0-11.1-1.1","battery-v0.2","","""event"",""trial"",""time""
""fullscreenenter"",""1"",""1279""
""blur"",""7"",""38214""
""focus"",""7"",""40705""
","""event"",""trial"",""time""
""blur"",""7"",""38214""
","""event"",""trial"",""time""
""focus"",""7"",""40705""
","""event"",""trial"",""time""
""fullscreenenter"",""1"",""1279""
","
","","","-1","","","24","17302","6323","&#9761;","elianto","#3366ff99","-1","-1","1","+10","[]","0","0","2","","","","","","","",""
"pit-trial","45","491760","0.0-2.0-11.1-2.1","battery-v0.2","","""event"",""trial"",""time""
""fullscreenenter"",""1"",""1279""
""blur"",""7"",""38214""
""focus"",""7"",""40705""
","""event"",""trial"",""time""
""blur"",""7"",""38214""
","""event"",""trial"",""time""
""focus"",""7"",""40705""
","""event"",""trial"",""time""
""fullscreenenter"",""1"",""1279""
","
","","","-1","","","24","17302","6323","&#9761;","elianto","#3366ff99","-1","-1","1","+10","[]","0","0","2","","","","","","","",""
"pit-trial","46","496616","0.0-2.0-11.1-3.1","battery-v0.2","","""event"",""trial"",""time""
""fullscreenenter"",""1"",""1279""
""blur"",""7"",""38214""
""focus"",""7"",""40705""
","""event"",""trial"",""time""
""blur"",""7"",""38214""
","""event"",""trial"",""time""
""focus"",""7"",""40705""
","""event"",""trial"",""time""
""fullscreenenter"",""1"",""1279""
","
","","","-1","","","24","17302","6323","&#9761;","elianto","#3366ff99","-1","-1","1","0","[]","0","0","2","","","","","","","",""
"pit-trial","47","501473","0.0-2.0-11.1-4.1","battery-v0.2","","""event"",""trial"",""time""
""fullscreenenter"",""1"",""1279""
""blur"",""7"",""38214""
""focus"",""7"",""40705""
","""event"",""trial"",""time""
""blur"",""7"",""38214""
","""event"",""trial"",""time""
""focus"",""7"",""40705""
","""event"",""trial"",""time""
""fullscreenenter"",""1"",""1279""
","
","","","-1","","","24","17302","6323","&#9761;","elianto","#3366ff99","-1","-1","1","+10","[]","0","0","2","","","","","","","",""
"pit-trial","48","506330","0.0-2.0-11.2-0.2","battery-v0.2","","""event"",""trial"",""time""
""fullscreenenter"",""1"",""1279""
""blur"",""7"",""38214""
""focus"",""7"",""40705""
","""event"",""trial"",""time""
""blur"",""7"",""38214""
","""event"",""trial"",""time""
""focus"",""7"",""40705""
","""event"",""trial"",""time""
""fullscreenenter"",""1"",""1279""
","
","","","-1","","","24","17302","6323","&#9761;","elianto","#3366ff99","-1","-1","1","+10","[]","0","0","2","","","","","","","",""
"pit-trial","49","511186","0.0-2.0-11.2-1.2","battery-v0.2","","""event"",""trial"",""time""
""fullscreenenter"",""1"",""1279""
""blur"",""7"",""38214""
""focus"",""7"",""40705""
","""event"",""trial"",""time""
""blur"",""7"",""38214""
","""event"",""trial"",""time""
""focus"",""7"",""40705""
","""event"",""trial"",""time""
""fullscreenenter"",""1"",""1279""
","
","","","-1","","","24","17302","6323","&#9761;","elianto","#3366ff99","-1","-1","1","+10","[]","0","0","2","","","","","","","",""
"pit-trial","50","516043","0.0-2.0-11.2-2.2","battery-v0.2","","""event"",""trial"",""time""
""fullscreenenter"",""1"",""1279""
""blur"",""7"",""38214""
""focus"",""7"",""40705""
","""event"",""trial"",""time""
""blur"",""7"",""38214""
","""event"",""trial"",""time""
""focus"",""7"",""40705""
","""event"",""trial"",""time""
""fullscreenenter"",""1"",""1279""
","
","","","-1","","","24","17302","6323","&#9761;","elianto","#3366ff99","-1","-1","1","+10","[]","0","0","2","","","","","","","",""
"pit-trial","51","520899","0.0-2.0-11.2-3.2","battery-v0.2","","""event"",""trial"",""time""
""fullscreenenter"",""1"",""1279""
""blur"",""7"",""38214""
""focus"",""7"",""40705""
","""event"",""trial"",""time""
""blur"",""7"",""38214""
","""event"",""trial"",""time""
""focus"",""7"",""40705""
","""event"",""trial"",""time""
""fullscreenenter"",""1"",""1279""
","
","","","-1","","","24","17302","6323","&#9761;","elianto","#3366ff99","-1","-1","1","0","[]","0","0","2","","","","","","","",""
"pit-trial","52","525754","0.0-2.0-11.2-4.2","battery-v0.2","","""event"",""trial"",""time""
""fullscreenenter"",""1"",""1279""
""blur"",""7"",""38214""
""focus"",""7"",""40705""
","""event"",""trial"",""time""
""blur"",""7"",""38214""
","""event"",""trial"",""time""
""focus"",""7"",""40705""
","""event"",""trial"",""time""
""fullscreenenter"",""1"",""1279""
","
","","","-1","","","24","17302","6323","&#9761;","elianto","#3366ff99","-1","-1","1","+10","[]","0","0","2","","","","","","","",""
"pit-trial","53","530612","0.0-2.0-11.3-0.3","battery-v0.2","","""event"",""trial"",""time""
""fullscreenenter"",""1"",""1279""
""blur"",""7"",""38214""
""focus"",""7"",""40705""
","""event"",""trial"",""time""
""blur"",""7"",""38214""
","""event"",""trial"",""time""
""focus"",""7"",""40705""
","""event"",""trial"",""time""
""fullscreenenter"",""1"",""1279""
","
","","","-1","","","24","17302","6323","&#9761;","elianto","#3366ff99","-1","-1","1","+10","[]","0","0","2","","","","","","","",""
"pit-trial","54","535469","0.0-2.0-11.3-1.3","battery-v0.2","","""event"",""trial"",""time""
""fullscreenenter"",""1"",""1279""
""blur"",""7"",""38214""
""focus"",""7"",""40705""
","""event"",""trial"",""time""
""blur"",""7"",""38214""
","""event"",""trial"",""time""
""focus"",""7"",""40705""
","""event"",""trial"",""time""
""fullscreenenter"",""1"",""1279""
","
","","","-1","","","24","17302","6323","&#9761;","elianto","#3366ff99","-1","-1","1","+10","[]","0","0","2","","","","","","","",""
"pit-trial","55","540326","0.0-2.0-11.3-2.3","battery-v0.2","","""event"",""trial"",""time""
""fullscreenenter"",""1"",""1279""
""blur"",""7"",""38214""
""focus"",""7"",""40705""
","""event"",""trial"",""time""
""blur"",""7"",""38214""
","""event"",""trial"",""time""
""focus"",""7"",""40705""
","""event"",""trial"",""time""
""fullscreenenter"",""1"",""1279""
","
","","","-1","","","24","17302","6323","&#9761;","elianto","#3366ff99","-1","-1","1","+10","[]","0","0","2","","","","","","","",""
"pit-trial","56","545182","0.0-2.0-11.3-3.3","battery-v0.2","","""event"",""trial"",""time""
""fullscreenenter"",""1"",""1279""
""blur"",""7"",""38214""
""focus"",""7"",""40705""
","""event"",""trial"",""time""
""blur"",""7"",""38214""
","""event"",""trial"",""time""
""focus"",""7"",""40705""
","""event"",""trial"",""time""
""fullscreenenter"",""1"",""1279""
","
","","","-1","","","24","17302","6323","&#9761;","elianto","#3366ff99","-1","-1","1","0","[]","0","0","2","","","","","","","",""
"pit-trial","57","550035","0.0-2.0-11.3-4.3","battery-v0.2","","""event"",""trial"",""time""
""fullscreenenter"",""1"",""1279""
""blur"",""7"",""38214""
""focus"",""7"",""40705""
","""event"",""trial"",""time""
""blur"",""7"",""38214""
","""event"",""trial"",""time""
""focus"",""7"",""40705""
","""event"",""trial"",""time""
""fullscreenenter"",""1"",""1279""
","
","","","-1","","","24","17302","6323","&#9761;","elianto","#3366ff99","-1","-1","1","+10","[]","0","0","2","","","","","","","",""
"call-function","58","550038","0.0-2.0-12.0","battery-v0.2","","""event"",""trial"",""time""
""fullscreenenter"",""1"",""1279""
""blur"",""7"",""38214""
""focus"",""7"",""40705""
","""event"",""trial"",""time""
""blur"",""7"",""38214""
","""event"",""trial"",""time""
""focus"",""7"",""40705""
","""event"",""trial"",""time""
""fullscreenenter"",""1"",""1279""
","
","","","","","","","","","","","","","","","","","","","","","","","","","","",""
"pit-instructions","59","588546","0.0-2.0-13.0","battery-v0.2","","""event"",""trial"",""time""
""fullscreenenter"",""1"",""1279""
""blur"",""7"",""38214""
""focus"",""7"",""40705""
","""event"",""trial"",""time""
""blur"",""7"",""38214""
","""event"",""trial"",""time""
""focus"",""7"",""40705""
","""event"",""trial"",""time""
""fullscreenenter"",""1"",""1279""
","
","","[{""page_index"":0,""viewing_time"":5354.900000000023},{""page_index"":1,""viewing_time"":14670.699999999953},{""page_index"":2,""viewing_time"":3120.3000000000466},{""page_index"":3,""viewing_time"":10502.900000000023},{""page_index"":4,""viewing_time"":4857.29999999993}]","38507","","","","","","","","","","","","","","","","","","","","","","","",""
"pit-trial","60","593402","0.0-2.0-14.0-0.0","battery-v0.2","","""event"",""trial"",""time""
""fullscreenenter"",""1"",""1279""
""blur"",""7"",""38214""
""focus"",""7"",""40705""
","""event"",""trial"",""time""
""blur"",""7"",""38214""
","""event"",""trial"",""time""
""focus"",""7"",""40705""
","""event"",""trial"",""time""
""fullscreenenter"",""1"",""1279""
","
","","","-1","","","24","17302","6323","&#9826;","elianto","#f73b6a7A","-1","-1","1","0","[]","0","0","3","","","","","","","",""
"pit-trial","61","598259","0.0-2.0-14.0-1.0","battery-v0.2","","""event"",""trial"",""time""
""fullscreenenter"",""1"",""1279""
""blur"",""7"",""38214""
""focus"",""7"",""40705""
","""event"",""trial"",""time""
""blur"",""7"",""38214""
","""event"",""trial"",""time""
""focus"",""7"",""40705""
","""event"",""trial"",""time""
""fullscreenenter"",""1"",""1279""
","
","","","-1","","","24","17302","6323","&#9826;","elianto","#f73b6a7A","-1","-1","1","0","[]","0","0","3","","","","","","","",""
"pit-trial","62","603115","0.0-2.0-14.0-2.0","battery-v0.2","","""event"",""trial"",""time""
""fullscreenenter"",""1"",""1279""
""blur"",""7"",""38214""
""focus"",""7"",""40705""
","""event"",""trial"",""time""
""blur"",""7"",""38214""
","""event"",""trial"",""time""
""focus"",""7"",""40705""
","""event"",""trial"",""time""
""fullscreenenter"",""1"",""1279""
","
","","","-1","","","24","17302","6323","&#9826;","elianto","#f73b6a7A","-1","-1","1","0","[]","0","0","3","","","","","","","",""
"pit-trial","63","607973","0.0-2.0-14.0-3.0","battery-v0.2","","""event"",""trial"",""time""
""fullscreenenter"",""1"",""1279""
""blur"",""7"",""38214""
""focus"",""7"",""40705""
","""event"",""trial"",""time""
""blur"",""7"",""38214""
","""event"",""trial"",""time""
""focus"",""7"",""40705""
","""event"",""trial"",""time""
""fullscreenenter"",""1"",""1279""
","
","","","-1","","","24","17302","6323","&#9826;","elianto","#f73b6a7A","-1","-1","1","-10","[]","0","0","3","","","","","","","",""
"pit-trial","64","612829","0.0-2.0-14.0-4.0","battery-v0.2","","""event"",""trial"",""time""
""fullscreenenter"",""1"",""1279""
""blur"",""7"",""38214""
""focus"",""7"",""40705""
","""event"",""trial"",""time""
""blur"",""7"",""38214""
","""event"",""trial"",""time""
""focus"",""7"",""40705""
","""event"",""trial"",""time""
""fullscreenenter"",""1"",""1279""
","
","","","-1","","","24","17302","6323","&#9826;","elianto","#f73b6a7A","-1","-1","1","0","[]","0","0","3","","","","","","","",""
"pit-trial","65","616898","0.0-2.0-14.1-0.1","battery-v0.2","","""event"",""trial"",""time""
""fullscreenenter"",""1"",""1279""
""blur"",""7"",""38214""
""focus"",""7"",""40705""
","""event"",""trial"",""time""
""blur"",""7"",""38214""
","""event"",""trial"",""time""
""focus"",""7"",""40705""
","""event"",""trial"",""time""
""fullscreenenter"",""1"",""1279""
","
","","","1211.2000000000698","","","24","17302","6323","&#9826;","elianto","#f73b6a7A","-1"," ","0","-10","[2062.8000000000466]","1","0","3","","","","","","","",""
"pit-trial","66","621754","0.0-2.0-14.1-1.1","battery-v0.2","","""event"",""trial"",""time""
""fullscreenenter"",""1"",""1279""
""blur"",""7"",""38214""
""focus"",""7"",""40705""
","""event"",""trial"",""time""
""blur"",""7"",""38214""
","""event"",""trial"",""time""
""focus"",""7"",""40705""
","""event"",""trial"",""time""
""fullscreenenter"",""1"",""1279""
","
","","","-1","","","24","17302","6323","&#9826;","elianto","#f73b6a7A","-1","-1","1","0","[]","0","0","3","","","","","","","",""
"pit-trial","67","626610","0.0-2.0-14.1-2.1","battery-v0.2","","""event"",""trial"",""time""
""fullscreenenter"",""1"",""1279""
""blur"",""7"",""38214""
""focus"",""7"",""40705""
","""event"",""trial"",""time""
""blur"",""7"",""38214""
","""event"",""trial"",""time""
""focus"",""7"",""40705""
","""event"",""trial"",""time""
""fullscreenenter"",""1"",""1279""
","
","","","-1","","","24","17302","6323","&#9826;","elianto","#f73b6a7A","-1","-1","1","0","[]","0","0","3","","","","","","","",""
"pit-trial","68","631466","0.0-2.0-14.1-3.1","battery-v0.2","","""event"",""trial"",""time""
""fullscreenenter"",""1"",""1279""
""blur"",""7"",""38214""
""focus"",""7"",""40705""
","""event"",""trial"",""time""
""blur"",""7"",""38214""
","""event"",""trial"",""time""
""focus"",""7"",""40705""
","""event"",""trial"",""time""
""fullscreenenter"",""1"",""1279""
","
","","","-1","","","24","17302","6323","&#9826;","elianto","#f73b6a7A","-1","-1","1","-10","[]","0","0","3","","","","","","","",""
"pit-trial","69","636324","0.0-2.0-14.1-4.1","battery-v0.2","","""event"",""trial"",""time""
""fullscreenenter"",""1"",""1279""
""blur"",""7"",""38214""
""focus"",""7"",""40705""
","""event"",""trial"",""time""
""blur"",""7"",""38214""
","""event"",""trial"",""time""
""focus"",""7"",""40705""
","""event"",""trial"",""time""
""fullscreenenter"",""1"",""1279""
","
","","","-1","","","24","17302","6323","&#9826;","elianto","#f73b6a7A","-1","-1","1","0","[]","0","0","3","","","","","","","",""
"pit-trial","70","641181","0.0-2.0-14.2-0.2","battery-v0.2","","""event"",""trial"",""time""
""fullscreenenter"",""1"",""1279""
""blur"",""7"",""38214""
""focus"",""7"",""40705""
","""event"",""trial"",""time""
""blur"",""7"",""38214""
","""event"",""trial"",""time""
""focus"",""7"",""40705""
","""event"",""trial"",""time""
""fullscreenenter"",""1"",""1279""
","
","","","-1","","","24","17302","6323","&#9826;","elianto","#f73b6a7A","-1","-1","1","0","[]","0","0","3","","","","","","","",""
"pit-trial","71","646036","0.0-2.0-14.2-1.2","battery-v0.2","","""event"",""trial"",""time""
""fullscreenenter"",""1"",""1279""
""blur"",""7"",""38214""
""focus"",""7"",""40705""
","""event"",""trial"",""time""
""blur"",""7"",""38214""
","""event"",""trial"",""time""
""focus"",""7"",""40705""
","""event"",""trial"",""time""
""fullscreenenter"",""1"",""1279""
","
","","","-1","","","24","17302","6323","&#9826;","elianto","#f73b6a7A","-1","-1","1","0","[]","0","0","3","","","","","","","",""
"pit-trial","72","650892","0.0-2.0-14.2-2.2","battery-v0.2","","""event"",""trial"",""time""
""fullscreenenter"",""1"",""1279""
""blur"",""7"",""38214""
""focus"",""7"",""40705""
","""event"",""trial"",""time""
""blur"",""7"",""38214""
","""event"",""trial"",""time""
""focus"",""7"",""40705""
","""event"",""trial"",""time""
""fullscreenenter"",""1"",""1279""
","
","","","-1","","","24","17302","6323","&#9826;","elianto","#f73b6a7A","-1","-1","1","0","[]","0","0","3","","","","","","","",""
"pit-trial","73","655748","0.0-2.0-14.2-3.2","battery-v0.2","","""event"",""trial"",""time""
""fullscreenenter"",""1"",""1279""
""blur"",""7"",""38214""
""focus"",""7"",""40705""
","""event"",""trial"",""time""
""blur"",""7"",""38214""
","""event"",""trial"",""time""
""focus"",""7"",""40705""
","""event"",""trial"",""time""
""fullscreenenter"",""1"",""1279""
","
","","","-1","","","24","17302","6323","&#9826;","elianto","#f73b6a7A","-1","-1","1","-10","[]","0","0","3","","","","","","","",""
"pit-trial","74","660604","0.0-2.0-14.2-4.2","battery-v0.2","","""event"",""trial"",""time""
""fullscreenenter"",""1"",""1279""
""blur"",""7"",""38214""
""focus"",""7"",""40705""
","""event"",""trial"",""time""
""blur"",""7"",""38214""
","""event"",""trial"",""time""
""focus"",""7"",""40705""
","""event"",""trial"",""time""
""fullscreenenter"",""1"",""1279""
","
","","","-1","","","24","17302","6323","&#9826;","elianto","#f73b6a7A","-1","-1","1","0","[]","0","0","3","","","","","","","",""
"pit-trial","75","665462","0.0-2.0-14.3-0.3","battery-v0.2","","""event"",""trial"",""time""
""fullscreenenter"",""1"",""1279""
""blur"",""7"",""38214""
""focus"",""7"",""40705""
","""event"",""trial"",""time""
""blur"",""7"",""38214""
","""event"",""trial"",""time""
""focus"",""7"",""40705""
","""event"",""trial"",""time""
""fullscreenenter"",""1"",""1279""
","
","","","-1","","","24","17302","6323","&#9826;","elianto","#f73b6a7A","-1","-1","1","0","[]","0","0","3","","","","","","","",""
"pit-trial","76","670319","0.0-2.0-14.3-1.3","battery-v0.2","","""event"",""trial"",""time""
""fullscreenenter"",""1"",""1279""
""blur"",""7"",""38214""
""focus"",""7"",""40705""
","""event"",""trial"",""time""
""blur"",""7"",""38214""
","""event"",""trial"",""time""
""focus"",""7"",""40705""
","""event"",""trial"",""time""
""fullscreenenter"",""1"",""1279""
","
","","","-1","","","24","17302","6323","&#9826;","elianto","#f73b6a7A","-1","-1","1","0","[]","0","0","3","","","","","","","",""
"pit-trial","77","675175","0.0-2.0-14.3-2.3","battery-v0.2","","""event"",""trial"",""time""
""fullscreenenter"",""1"",""1279""
""blur"",""7"",""38214""
""focus"",""7"",""40705""
","""event"",""trial"",""time""
""blur"",""7"",""38214""
","""event"",""trial"",""time""
""focus"",""7"",""40705""
","""event"",""trial"",""time""
""fullscreenenter"",""1"",""1279""
","
","","","-1","","","24","17302","6323","&#9826;","elianto","#f73b6a7A","-1","-1","1","0","[]","0","0","3","","","","","","","",""
"pit-trial","78","680030","0.0-2.0-14.3-3.3","battery-v0.2","","""event"",""trial"",""time""
""fullscreenenter"",""1"",""1279""
""blur"",""7"",""38214""
""focus"",""7"",""40705""
","""event"",""trial"",""time""
""blur"",""7"",""38214""
","""event"",""trial"",""time""
""focus"",""7"",""40705""
","""event"",""trial"",""time""
""fullscreenenter"",""1"",""1279""
","
","","","-1","","","24","17302","6323","&#9826;","elianto","#f73b6a7A","-1","-1","1","-10","[]","0","0","3","","","","","","","",""
"pit-trial","79","684887","0.0-2.0-14.3-4.3","battery-v0.2","","""event"",""trial"",""time""
""fullscreenenter"",""1"",""1279""
""blur"",""7"",""38214""
""focus"",""7"",""40705""
","""event"",""trial"",""time""
""blur"",""7"",""38214""
","""event"",""trial"",""time""
""focus"",""7"",""40705""
","""event"",""trial"",""time""
""fullscreenenter"",""1"",""1279""
","
","","","-1","","","24","17302","6323","&#9826;","elianto","#f73b6a7A","-1","-1","1","0","[]","0","0","3","","","","","","","",""
"call-function","80","684890","0.0-2.0-15.0","battery-v0.2","","""event"",""trial"",""time""
""fullscreenenter"",""1"",""1279""
""blur"",""7"",""38214""
""focus"",""7"",""40705""
","""event"",""trial"",""time""
""blur"",""7"",""38214""
","""event"",""trial"",""time""
""focus"",""7"",""40705""
","""event"",""trial"",""time""
""fullscreenenter"",""1"",""1279""
","
","","","","","","","","","","","","","","","","","","","","","","","","","","",""
"pit-instructions","81","715041","0.0-2.0-16.0","battery-v0.2","","""event"",""trial"",""time""
""fullscreenenter"",""1"",""1279""
""blur"",""7"",""38214""
""focus"",""7"",""40705""
","""event"",""trial"",""time""
""blur"",""7"",""38214""
","""event"",""trial"",""time""
""focus"",""7"",""40705""
","""event"",""trial"",""time""
""fullscreenenter"",""1"",""1279""
","
","","[{""page_index"":0,""viewing_time"":6324.800000000047},{""page_index"":1,""viewing_time"":8178.29999999993},{""page_index"":2,""viewing_time"":8285},{""page_index"":3,""viewing_time"":7361.70000000007}]","30150.699999999953","","","","","","","","","","","","","","","","","","","","","","","",""
"pit-trial","82","719898","0.0-2.0-17.0-0.0","battery-v0.2","","""event"",""trial"",""time""
""fullscreenenter"",""1"",""1279""
""blur"",""7"",""38214""
""focus"",""7"",""40705""
","""event"",""trial"",""time""
""blur"",""7"",""38214""
","""event"",""trial"",""time""
""focus"",""7"",""40705""
","""event"",""trial"",""time""
""fullscreenenter"",""1"",""1279""
","
","","","-1","","","24","17302","6323","&#9789;","elianto","#f73b6a7A"," ","-1","0","-10","[]","0","0","4","","","","","","","",""
"pit-trial","83","724754","0.0-2.0-17.0-1.0","battery-v0.2","","""event"",""trial"",""time""
""fullscreenenter"",""1"",""1279""
""blur"",""7"",""38214""
""focus"",""7"",""40705""
","""event"",""trial"",""time""
""blur"",""7"",""38214""
","""event"",""trial"",""time""
""focus"",""7"",""40705""
","""event"",""trial"",""time""
""fullscreenenter"",""1"",""1279""
","
","","","-1","","","24","17302","6323","&#9789;","elianto","#f73b6a7A"," ","-1","0","-10","[]","0","0","4","","","","","","","",""
"pit-trial","84","729611","0.0-2.0-17.0-2.0","battery-v0.2","","""event"",""trial"",""time""
""fullscreenenter"",""1"",""1279""
""blur"",""7"",""38214""
""focus"",""7"",""40705""
","""event"",""trial"",""time""
""blur"",""7"",""38214""
","""event"",""trial"",""time""
""focus"",""7"",""40705""
","""event"",""trial"",""time""
""fullscreenenter"",""1"",""1279""
","
","","","-1","","","24","17302","6323","&#9789;","elianto","#f73b6a7A"," ","-1","0","-10","[]","0","0","4","","","","","","","",""
"pit-trial","85","734467","0.0-2.0-17.0-3.0","battery-v0.2","","""event"",""trial"",""time""
""fullscreenenter"",""1"",""1279""
""blur"",""7"",""38214""
""focus"",""7"",""40705""
","""event"",""trial"",""time""
""blur"",""7"",""38214""
","""event"",""trial"",""time""
""focus"",""7"",""40705""
","""event"",""trial"",""time""
""fullscreenenter"",""1"",""1279""
","
","","","-1","","","24","17302","6323","&#9789;","elianto","#f73b6a7A"," ","-1","0","0","[]","0","0","4","","","","","","","",""
"pit-trial","86","739324","0.0-2.0-17.0-4.0","battery-v0.2","","""event"",""trial"",""time""
""fullscreenenter"",""1"",""1279""
""blur"",""7"",""38214""
""focus"",""7"",""40705""
","""event"",""trial"",""time""
""blur"",""7"",""38214""
","""event"",""trial"",""time""
""focus"",""7"",""40705""
","""event"",""trial"",""time""
""fullscreenenter"",""1"",""1279""
","
","","","-1","","","24","17302","6323","&#9789;","elianto","#f73b6a7A"," ","-1","0","-10","[]","0","0","4","","","","","","","",""
"pit-trial","87","744181","0.0-2.0-17.1-0.1","battery-v0.2","","""event"",""trial"",""time""
""fullscreenenter"",""1"",""1279""
""blur"",""7"",""38214""
""focus"",""7"",""40705""
","""event"",""trial"",""time""
""blur"",""7"",""38214""
","""event"",""trial"",""time""
""focus"",""7"",""40705""
","""event"",""trial"",""time""
""fullscreenenter"",""1"",""1279""
","
","","","-1","","","24","17302","6323","&#9789;","elianto","#f73b6a7A"," ","-1","0","-10","[]","0","0","4","","","","","","","",""
"pit-trial","88","749037","0.0-2.0-17.1-1.1","battery-v0.2","","""event"",""trial"",""time""
""fullscreenenter"",""1"",""1279""
""blur"",""7"",""38214""
""focus"",""7"",""40705""
","""event"",""trial"",""time""
""blur"",""7"",""38214""
","""event"",""trial"",""time""
""focus"",""7"",""40705""
","""event"",""trial"",""time""
""fullscreenenter"",""1"",""1279""
","
","","","-1","","","24","17302","6323","&#9789;","elianto","#f73b6a7A"," ","-1","0","-10","[]","0","0","4","","","","","","","",""
"pit-trial","89","753893","0.0-2.0-17.1-2.1","battery-v0.2","","""event"",""trial"",""time""
""fullscreenenter"",""1"",""1279""
""blur"",""7"",""38214""
""focus"",""7"",""40705""
","""event"",""trial"",""time""
""blur"",""7"",""38214""
","""event"",""trial"",""time""
""focus"",""7"",""40705""
","""event"",""trial"",""time""
""fullscreenenter"",""1"",""1279""
","
","","","-1","","","24","17302","6323","&#9789;","elianto","#f73b6a7A"," ","-1","0","-10","[]","0","0","4","","","","","","","",""
"pit-trial","90","758748","0.0-2.0-17.1-3.1","battery-v0.2","","""event"",""trial"",""time""
""fullscreenenter"",""1"",""1279""
""blur"",""7"",""38214""
""focus"",""7"",""40705""
","""event"",""trial"",""time""
""blur"",""7"",""38214""
","""event"",""trial"",""time""
""focus"",""7"",""40705""
","""event"",""trial"",""time""
""fullscreenenter"",""1"",""1279""
","
","","","-1","","","24","17302","6323","&#9789;","elianto","#f73b6a7A"," ","-1","0","0","[]","0","0","4","","","","","","","",""
"pit-trial","91","763605","0.0-2.0-17.1-4.1","battery-v0.2","","""event"",""trial"",""time""
""fullscreenenter"",""1"",""1279""
""blur"",""7"",""38214""
""focus"",""7"",""40705""
","""event"",""trial"",""time""
""blur"",""7"",""38214""
","""event"",""trial"",""time""
""focus"",""7"",""40705""
","""event"",""trial"",""time""
""fullscreenenter"",""1"",""1279""
","
","","","-1","","","24","17302","6323","&#9789;","elianto","#f73b6a7A"," ","-1","0","-10","[]","0","0","4","","","","","","","",""
"pit-trial","92","768462","0.0-2.0-17.2-0.2","battery-v0.2","","""event"",""trial"",""time""
""fullscreenenter"",""1"",""1279""
""blur"",""7"",""38214""
""focus"",""7"",""40705""
","""event"",""trial"",""time""
""blur"",""7"",""38214""
","""event"",""trial"",""time""
""focus"",""7"",""40705""
","""event"",""trial"",""time""
""fullscreenenter"",""1"",""1279""
","
","","","-1","","","24","17302","6323","&#9789;","elianto","#f73b6a7A"," ","-1","0","-10","[]","0","0","4","","","","","","","",""
"pit-trial","93","773318","0.0-2.0-17.2-1.2","battery-v0.2","","""event"",""trial"",""time""
""fullscreenenter"",""1"",""1279""
""blur"",""7"",""38214""
""focus"",""7"",""40705""
","""event"",""trial"",""time""
""blur"",""7"",""38214""
","""event"",""trial"",""time""
""focus"",""7"",""40705""
","""event"",""trial"",""time""
""fullscreenenter"",""1"",""1279""
","
","","","-1","","","24","17302","6323","&#9789;","elianto","#f73b6a7A"," ","-1","0","-10","[]","0","0","4","","","","","","","",""
"pit-trial","94","778174","0.0-2.0-17.2-2.2","battery-v0.2","","""event"",""trial"",""time""
""fullscreenenter"",""1"",""1279""
""blur"",""7"",""38214""
""focus"",""7"",""40705""
","""event"",""trial"",""time""
""blur"",""7"",""38214""
","""event"",""trial"",""time""
""focus"",""7"",""40705""
","""event"",""trial"",""time""
""fullscreenenter"",""1"",""1279""
","
","","","-1","","","24","17302","6323","&#9789;","elianto","#f73b6a7A"," ","-1","0","-10","[]","0","0","4","","","","","","","",""
"pit-trial","95","783029","0.0-2.0-17.2-3.2","battery-v0.2","","""event"",""trial"",""time""
""fullscreenenter"",""1"",""1279""
""blur"",""7"",""38214""
""focus"",""7"",""40705""
","""event"",""trial"",""time""
""blur"",""7"",""38214""
","""event"",""trial"",""time""
""focus"",""7"",""40705""
","""event"",""trial"",""time""
""fullscreenenter"",""1"",""1279""
","
","","","-1","","","24","17302","6323","&#9789;","elianto","#f73b6a7A"," ","-1","0","0","[]","0","0","4","","","","","","","",""
"pit-trial","96","787885","0.0-2.0-17.2-4.2","battery-v0.2","","""event"",""trial"",""time""
""fullscreenenter"",""1"",""1279""
""blur"",""7"",""38214""
""focus"",""7"",""40705""
","""event"",""trial"",""time""
""blur"",""7"",""38214""
","""event"",""trial"",""time""
""focus"",""7"",""40705""
","""event"",""trial"",""time""
""fullscreenenter"",""1"",""1279""
","
","","","-1","","","24","17302","6323","&#9789;","elianto","#f73b6a7A"," ","-1","0","-10","[]","0","0","4","","","","","","","",""
"pit-trial","97","792742","0.0-2.0-17.3-0.3","battery-v0.2","","""event"",""trial"",""time""
""fullscreenenter"",""1"",""1279""
""blur"",""7"",""38214""
""focus"",""7"",""40705""
","""event"",""trial"",""time""
""blur"",""7"",""38214""
","""event"",""trial"",""time""
""focus"",""7"",""40705""
","""event"",""trial"",""time""
""fullscreenenter"",""1"",""1279""
","
","","","-1","","","24","17302","6323","&#9789;","elianto","#f73b6a7A"," ","-1","0","-10","[]","0","0","4","","","","","","","",""
"pit-trial","98","797598","0.0-2.0-17.3-1.3","battery-v0.2","","""event"",""trial"",""time""
""fullscreenenter"",""1"",""1279""
""blur"",""7"",""38214""
""focus"",""7"",""40705""
","""event"",""trial"",""time""
""blur"",""7"",""38214""
","""event"",""trial"",""time""
""focus"",""7"",""40705""
","""event"",""trial"",""time""
""fullscreenenter"",""1"",""1279""
","
","","","-1","","","24","17302","6323","&#9789;","elianto","#f73b6a7A"," ","-1","0","-10","[]","0","0","4","","","","","","","",""
"pit-trial","99","802455","0.0-2.0-17.3-2.3","battery-v0.2","","""event"",""trial"",""time""
""fullscreenenter"",""1"",""1279""
""blur"",""7"",""38214""
""focus"",""7"",""40705""
","""event"",""trial"",""time""
""blur"",""7"",""38214""
","""event"",""trial"",""time""
""focus"",""7"",""40705""
","""event"",""trial"",""time""
""fullscreenenter"",""1"",""1279""
","
","","","-1","","","24","17302","6323","&#9789;","elianto","#f73b6a7A"," ","-1","0","-10","[]","0","0","4","","","","","","","",""
"pit-trial","100","807311","0.0-2.0-17.3-3.3","battery-v0.2","","""event"",""trial"",""time""
""fullscreenenter"",""1"",""1279""
""blur"",""7"",""38214""
""focus"",""7"",""40705""
","""event"",""trial"",""time""
""blur"",""7"",""38214""
","""event"",""trial"",""time""
""focus"",""7"",""40705""
","""event"",""trial"",""time""
""fullscreenenter"",""1"",""1279""
","
","","","-1","","","24","17302","6323","&#9789;","elianto","#f73b6a7A"," ","-1","0","0","[]","0","0","4","","","","","","","",""
"pit-trial","101","812168","0.0-2.0-17.3-4.3","battery-v0.2","","""event"",""trial"",""time""
""fullscreenenter"",""1"",""1279""
""blur"",""7"",""38214""
""focus"",""7"",""40705""
","""event"",""trial"",""time""
""blur"",""7"",""38214""
","""event"",""trial"",""time""
""focus"",""7"",""40705""
","""event"",""trial"",""time""
""fullscreenenter"",""1"",""1279""
","
","","","-1","","","24","17302","6323","&#9789;","elianto","#f73b6a7A"," ","-1","0","-10","[]","0","0","4","","","","","","","",""
"call-function","102","812171","0.0-2.0-18.0","battery-v0.2","","""event"",""trial"",""time""
""fullscreenenter"",""1"",""1279""
""blur"",""7"",""38214""
""focus"",""7"",""40705""
","""event"",""trial"",""time""
""blur"",""7"",""38214""
","""event"",""trial"",""time""
""focus"",""7"",""40705""
","""event"",""trial"",""time""
""fullscreenenter"",""1"",""1279""
","
","","","","","","","","","","","","","","","","","","","","","","","","","","",""
"pit-instructions","103","888890","0.0-2.0-19.0","battery-v0.2","","""event"",""trial"",""time""
""fullscreenenter"",""1"",""1279""
""blur"",""7"",""38214""
""focus"",""7"",""40705""
","""event"",""trial"",""time""
""blur"",""7"",""38214""
","""event"",""trial"",""time""
""focus"",""7"",""40705""
","""event"",""trial"",""time""
""fullscreenenter"",""1"",""1279""
","
","","[{""page_index"":0,""viewing_time"":6502},{""page_index"":1,""viewing_time"":4434.399999999907},{""page_index"":2,""viewing_time"":18705},{""page_index"":3,""viewing_time"":6507.800000000047},{""page_index"":4,""viewing_time"":6864.900000000023},{""page_index"":5,""viewing_time"":17596.900000000023},{""page_index"":6,""viewing_time"":7991.29999999993},{""page_index"":7,""viewing_time"":5010},{""page_index"":8,""viewing_time"":3105.0999999999767}]","76718.3999999999","","","","","","","","","","","","","","","","","","","","","","","",""
"pit-comprehension","104","895354","0.0-2.0-20.0-0.0","battery-v0.2","","""event"",""trial"",""time""
""fullscreenenter"",""1"",""1279""
""blur"",""7"",""38214""
""focus"",""7"",""40705""
","""event"",""trial"",""time""
""blur"",""7"",""38214""
","""event"",""trial"",""time""
""focus"",""7"",""40705""
","""event"",""trial"",""time""
""fullscreenenter"",""1"",""1279""
","
","","","6459.800000000047","[""SPACE""]","0","24","17302","6323","","","","","","","","","","","","","","","","","","",""
"pit-instructions","105","899315","0.0-2.0-20.0-1.0","battery-v0.2","","""event"",""trial"",""time""
""fullscreenenter"",""1"",""1279""
""blur"",""7"",""38214""
""focus"",""7"",""40705""
","""event"",""trial"",""time""
""blur"",""7"",""38214""
","""event"",""trial"",""time""
""focus"",""7"",""40705""
","""event"",""trial"",""time""
""fullscreenenter"",""1"",""1279""
","
","","[{""page_index"":0,""viewing_time"":3941.4000000000233}]","3942.0999999999767","","","","","","","","","","","","","","","","","","","","","","","",""
"pit-comprehension","106","904140","0.0-2.0-21.0-0.0","battery-v0.2","","""event"",""trial"",""time""
""fullscreenenter"",""1"",""1279""
""blur"",""7"",""38214""
""focus"",""7"",""40705""
","""event"",""trial"",""time""
""blur"",""7"",""38214""
","""event"",""trial"",""time""
""focus"",""7"",""40705""
","""event"",""trial"",""time""
""fullscreenenter"",""1"",""1279""
","
","","","4820.699999999953","[""10""]","0","24","17302","6323","","","","","","","","","","","","","","","","","","",""
"pit-instructions","107","911322","0.0-2.0-21.0-1.0","battery-v0.2","","""event"",""trial"",""time""
""fullscreenenter"",""1"",""1279""
""blur"",""7"",""38214""
""focus"",""7"",""40705""
","""event"",""trial"",""time""
""blur"",""7"",""38214""
","""event"",""trial"",""time""
""focus"",""7"",""40705""
","""event"",""trial"",""time""
""fullscreenenter"",""1"",""1279""
","
","","[{""page_index"":0,""viewing_time"":7159.5}]","7160.300000000047","","","","","","","","","","","","","","","","","","","","","","","",""
"pit-comprehension","108","917843","0.0-2.0-22.0-0.0","battery-v0.2","","""event"",""trial"",""time""
""fullscreenenter"",""1"",""1279""
""blur"",""7"",""38214""
""focus"",""7"",""40705""
","""event"",""trial"",""time""
""blur"",""7"",""38214""
","""event"",""trial"",""time""
""focus"",""7"",""40705""
","""event"",""trial"",""time""
""fullscreenenter"",""1"",""1279""
","
","","","6515.800000000047","[""-10""]","1","24","17302","6323","","","","","","","","","","","","","","","","","","",""
"pit-instructions","109","921003","0.0-2.0-22.0-1.0","battery-v0.2","","""event"",""trial"",""time""
""fullscreenenter"",""1"",""1279""
""blur"",""7"",""38214""
""focus"",""7"",""40705""
","""event"",""trial"",""time""
""blur"",""7"",""38214""
","""event"",""trial"",""time""
""focus"",""7"",""40705""
","""event"",""trial"",""time""
""fullscreenenter"",""1"",""1279""
","
","","[{""page_index"":0,""viewing_time"":3135.6999999999534}]","3135.9000000000233","","","","","","","","","","","","","","","","","","","","","","","",""
"pit-instructions","110","921754","0.0-2.0-22.0-2.0-0.0","battery-v0.2","","""event"",""trial"",""time""
""fullscreenenter"",""1"",""1279""
""blur"",""7"",""38214""
""focus"",""7"",""40705""
","""event"",""trial"",""time""
""blur"",""7"",""38214""
","""event"",""trial"",""time""
""focus"",""7"",""40705""
","""event"",""trial"",""time""
""fullscreenenter"",""1"",""1279""
","
","","[{""page_index"":0,""viewing_time"":749}]","749.8000000000466","","","","","","","","","","","","","","","","","","","","","","","",""
"pit-comprehension","111","928170","0.0-2.0-22.1-0.1","battery-v0.2","","""event"",""trial"",""time""
""fullscreenenter"",""1"",""1279""
""blur"",""7"",""38214""
""focus"",""7"",""40705""
","""event"",""trial"",""time""
""blur"",""7"",""38214""
","""event"",""trial"",""time""
""focus"",""7"",""40705""
","""event"",""trial"",""time""
""fullscreenenter"",""1"",""1279""
","
","","","6411.800000000047","[""0""]","0","24","17302","6323","","","","","","","","","","","","","","","","","","",""
"pit-instructions","112","930031","0.0-2.0-22.1-1.1","battery-v0.2","","""event"",""trial"",""time""
""fullscreenenter"",""1"",""1279""
""blur"",""7"",""38214""
""focus"",""7"",""40705""
","""event"",""trial"",""time""
""blur"",""7"",""38214""
","""event"",""trial"",""time""
""focus"",""7"",""40705""
","""event"",""trial"",""time""
""fullscreenenter"",""1"",""1279""
","
","","[{""page_index"":0,""viewing_time"":1838.4000000000233}]","1839.2000000000698","","","","","","","","","","","","","","","","","","","","","","","",""
"pit-comprehension","113","954896","0.0-2.0-23.0-0.0","battery-v0.2","","""event"",""trial"",""time""
""fullscreenenter"",""1"",""1279""
""blur"",""7"",""38214""
""focus"",""7"",""40705""
","""event"",""trial"",""time""
""blur"",""7"",""38214""
","""event"",""trial"",""time""
""focus"",""7"",""40705""
","""event"",""trial"",""time""
""fullscreenenter"",""1"",""1279""
","
","","","24861.199999999953","[""True""]","0","24","17302","6323","","","","","","","","","","","","","","","","","","",""
"pit-instructions","114","960706","0.0-2.0-23.0-1.0","battery-v0.2","","""event"",""trial"",""time""
""fullscreenenter"",""1"",""1279""
""blur"",""7"",""38214""
""focus"",""7"",""40705""
","""event"",""trial"",""time""
""blur"",""7"",""38214""
","""event"",""trial"",""time""
""focus"",""7"",""40705""
","""event"",""trial"",""time""
""fullscreenenter"",""1"",""1279""
","
","","[{""page_index"":0,""viewing_time"":5785}]","5785.699999999953","","","","","","","","","","","","","","","","","","","","","","","",""
"pit-comprehension","115","967792","0.0-2.0-24.0-0.0","battery-v0.2","","""event"",""trial"",""time""
""fullscreenenter"",""1"",""1279""
""blur"",""7"",""38214""
""focus"",""7"",""40705""
","""event"",""trial"",""time""
""blur"",""7"",""38214""
","""event"",""trial"",""time""
""focus"",""7"",""40705""
","""event"",""trial"",""time""
""fullscreenenter"",""1"",""1279""
","
","","","7081.59999999986","[""True""]","0","24","17302","6323","","","","","","","","","","","","","","","","","","",""
"pit-instructions","116","971962","0.0-2.0-24.0-1.0","battery-v0.2","","""event"",""trial"",""time""
""fullscreenenter"",""1"",""1279""
""blur"",""7"",""38214""
""focus"",""7"",""40705""
","""event"",""trial"",""time""
""blur"",""7"",""38214""
","""event"",""trial"",""time""
""focus"",""7"",""40705""
","""event"",""trial"",""time""
""fullscreenenter"",""1"",""1279""
","
","","[{""page_index"":0,""viewing_time"":4144.100000000093}]","4144.800000000047","","","","","","","","","","","","","","","","","","","","","","","",""
"pit-comprehension","117","978165","0.0-2.0-25.0-0.0","battery-v0.2","","""event"",""trial"",""time""
""fullscreenenter"",""1"",""1279""
""blur"",""7"",""38214""
""focus"",""7"",""40705""
","""event"",""trial"",""time""
""blur"",""7"",""38214""
","""event"",""trial"",""time""
""focus"",""7"",""40705""
","""event"",""trial"",""time""
""fullscreenenter"",""1"",""1279""
","
","","","6198","[""True""]","0","24","17302","6323","","","","","","","","","","","","","","","","","","",""
"pit-instructions","118","984730","0.0-2.0-25.0-1.0","battery-v0.2","","""event"",""trial"",""time""
""fullscreenenter"",""1"",""1279""
""blur"",""7"",""38214""
""focus"",""7"",""40705""
","""event"",""trial"",""time""
""blur"",""7"",""38214""
","""event"",""trial"",""time""
""focus"",""7"",""40705""
","""event"",""trial"",""time""
""fullscreenenter"",""1"",""1279""
","
","","[{""page_index"":0,""viewing_time"":6542.800000000047}]","6543.5","","","","","","","","","","","","","","","","","","","","","","","",""
"pit-comprehension","119","992337","0.0-2.0-26.0-0.0","battery-v0.2","","""event"",""trial"",""time""
""fullscreenenter"",""1"",""1279""
""blur"",""7"",""38214""
""focus"",""7"",""40705""
","""event"",""trial"",""time""
""blur"",""7"",""38214""
","""event"",""trial"",""time""
""focus"",""7"",""40705""
","""event"",""trial"",""time""
""fullscreenenter"",""1"",""1279""
","
","","","7601.699999999953","[""True""]","1","24","17302","6323","","","","","","","","","","","","","","","","","","",""
"pit-instructions","120","995488","0.0-2.0-26.0-1.0","battery-v0.2","","""event"",""trial"",""time""
""fullscreenenter"",""1"",""1279""
""blur"",""7"",""38214""
""focus"",""7"",""40705""
","""event"",""trial"",""time""
""blur"",""7"",""38214""
","""event"",""trial"",""time""
""focus"",""7"",""40705""
","""event"",""trial"",""time""
""fullscreenenter"",""1"",""1279""
","
","","[{""page_index"":0,""viewing_time"":3124.600000000093}]","3125.399999999907","","","","","","","","","","","","","","","","","","","","","","","",""
"pit-instructions","121","996182","0.0-2.0-26.0-2.0-0.0","battery-v0.2","","""event"",""trial"",""time""
""fullscreenenter"",""1"",""1279""
""blur"",""7"",""38214""
""focus"",""7"",""40705""
","""event"",""trial"",""time""
""blur"",""7"",""38214""
","""event"",""trial"",""time""
""focus"",""7"",""40705""
","""event"",""trial"",""time""
""fullscreenenter"",""1"",""1279""
","
","","[{""page_index"":0,""viewing_time"":690.0999999998603}]","691","","","","","","","","","","","","","","","","","","","","","","","",""
"pit-comprehension","122","1002518","0.0-2.0-26.1-0.1","battery-v0.2","","""event"",""trial"",""time""
""fullscreenenter"",""1"",""1279""
""blur"",""7"",""38214""
""focus"",""7"",""40705""
","""event"",""trial"",""time""
""blur"",""7"",""38214""
","""event"",""trial"",""time""
""focus"",""7"",""40705""
","""event"",""trial"",""time""
""fullscreenenter"",""1"",""1279""
","
","","","6331.300000000047","[""False""]","0","24","17302","6323","","","","","","","","","","","","","","","","","","",""
"pit-instructions","123","1004133","0.0-2.0-26.1-1.1","battery-v0.2","","""event"",""trial"",""time""
""fullscreenenter"",""1"",""1279""
""blur"",""7"",""38214""
""focus"",""7"",""40705""
","""event"",""trial"",""time""
""blur"",""7"",""38214""
","""event"",""trial"",""time""
""focus"",""7"",""40705""
","""event"",""trial"",""time""
""fullscreenenter"",""1"",""1279""
","
","","[{""page_index"":0,""viewing_time"":1592.6999999999534}]","1593.3999999999069","","","","","","","","","","","","","","","","","","","","","","","",""
"pit-instructions","124","1020061","0.0-3.0","battery-v0.2","","""event"",""trial"",""time""
""fullscreenenter"",""1"",""1279""
""blur"",""7"",""38214""
""focus"",""7"",""40705""
","""event"",""trial"",""time""
""blur"",""7"",""38214""
","""event"",""trial"",""time""
""focus"",""7"",""40705""
","""event"",""trial"",""time""
""fullscreenenter"",""1"",""1279""
","
","","[{""page_index"":0,""viewing_time"":3629},{""page_index"":1,""viewing_time"":6156.09999999986},{""page_index"":2,""viewing_time"":6138.800000000047}]","15924.699999999953","","","","","","","","","","","","","","","","","","","","","","","",""
"pit-trial","125","1023847","0.0-4.0","battery-v0.2","","""event"",""trial"",""time""
""fullscreenenter"",""1"",""1279""
""blur"",""7"",""38214""
""focus"",""7"",""40705""
","""event"",""trial"",""time""
""blur"",""7"",""38214""
","""event"",""trial"",""time""
""focus"",""7"",""40705""
","""event"",""trial"",""time""
""fullscreenenter"",""1"",""1279""
","
","","","926.5","","","24","17302","6323","&#9733;","elianto","#3366ff99","-1"," ","0","0","[1777]","1","1","","","17302","1","2","2","win","no-go","0"
"pit-trial","126","1026999","0.0-5.0","battery-v0.2","","""event"",""trial"",""time""
""fullscreenenter"",""1"",""1279""
""blur"",""7"",""38214""
""focus"",""7"",""40705""
","""event"",""trial"",""time""
""blur"",""7"",""38214""
","""event"",""trial"",""time""
""focus"",""7"",""40705""
","""event"",""trial"",""time""
""fullscreenenter"",""1"",""1279""
","
","","","295.69999999995343","","","24","17302","6323","&#9752;","elianto","#f73b6a7A"," "," ","1","0","[1146.1999999999534]","1","1","","","17302","2","3","3","lose","go","0"
"pit-trial","127","1031855","0.0-6.0","battery-v0.2","","""event"",""trial"",""time""
""fullscreenenter"",""1"",""1279""
""blur"",""7"",""38214""
""focus"",""7"",""40705""
","""event"",""trial"",""time""
""blur"",""7"",""38214""
","""event"",""trial"",""time""
""focus"",""7"",""40705""
","""event"",""trial"",""time""
""fullscreenenter"",""1"",""1279""
","
","","","-1","","","24","17302","6323","&#9730;","elianto","#3366ff99"," ","-1","0","+10","[2998.100000000093]","1","1","","","17302","3","1","1","win","go","1"
"pit-trial","128","1035559","0.0-7.0","battery-v0.2","","""event"",""trial"",""time""
""fullscreenenter"",""1"",""1279""
""blur"",""7"",""38214""
""focus"",""7"",""40705""
","""event"",""trial"",""time""
""blur"",""7"",""38214""
","""event"",""trial"",""time""
""focus"",""7"",""40705""
","""event"",""trial"",""time""
""fullscreenenter"",""1"",""1279""
","
","","","847.6000000000931","","","24","17302","6323","&#9728;","elianto","#f73b6a7A","-1"," ","0","-10","[1698.3999999999069]","1","1","","","17302","4","0","4","lose","no-go","0"
"pit-trial","129","1040416","0.0-8.0","battery-v0.2","","""event"",""trial"",""time""
""fullscreenenter"",""1"",""1279""
""blur"",""7"",""38214""
""focus"",""7"",""40705""
","""event"",""trial"",""time""
""blur"",""7"",""38214""
","""event"",""trial"",""time""
""focus"",""7"",""40705""
","""event"",""trial"",""time""
""fullscreenenter"",""1"",""1279""
","
","","","-1","","","24","17302","6323","&#9752;","elianto","#f73b6a7A"," ","-1","0","-10","[]","0","1","","","17302","5","3","3","lose","go","0"
"pit-trial","130","1045273","0.0-9.0","battery-v0.2","","""event"",""trial"",""time""
""fullscreenenter"",""1"",""1279""
""blur"",""7"",""38214""
""focus"",""7"",""40705""
","""event"",""trial"",""time""
""blur"",""7"",""38214""
","""event"",""trial"",""time""
""focus"",""7"",""40705""
","""event"",""trial"",""time""
""fullscreenenter"",""1"",""1279""
","
","","","-1","","","24","17302","6323","&#9728;","elianto","#f73b6a7A","-1","-1","1","0","[]","0","1","","","17302","6","0","4","lose","no-go","0"
"pit-trial","131","1050129","0.0-10.0","battery-v0.2","","""event"",""trial"",""time""
""fullscreenenter"",""1"",""1279""
""blur"",""7"",""38214""
""focus"",""7"",""40705""
","""event"",""trial"",""time""
""blur"",""7"",""38214""
","""event"",""trial"",""time""
""focus"",""7"",""40705""
","""event"",""trial"",""time""
""fullscreenenter"",""1"",""1279""
","
","","","-1","","","24","17302","6323","&#9733;","elianto","#3366ff99","-1","-1","1","+10","[659.5]","1","1","","","17302","7","2","2","win","no-go","0"
"pit-trial","132","1054049","0.0-11.0","battery-v0.2","","""event"",""trial"",""time""
""fullscreenenter"",""1"",""1279""
""blur"",""7"",""38214""
""focus"",""7"",""40705""
","""event"",""trial"",""time""
""blur"",""7"",""38214""
","""event"",""trial"",""time""
""focus"",""7"",""40705""
","""event"",""trial"",""time""
""fullscreenenter"",""1"",""1279""
","
","","","1065.1999999999534","","","24","17302","6323","&#9730;","elianto","#3366ff99"," "," ","1","+10","[1915.1000000000931]","1","1","","","17302","8","1","1","win","go","0"
"pit-trial","133","1057334","0.0-12.0","battery-v0.2","","""event"",""trial"",""time""
""fullscreenenter"",""1"",""1279""
""blur"",""7"",""38214""
""focus"",""7"",""40705""
","""event"",""trial"",""time""
""blur"",""7"",""38214""
","""event"",""trial"",""time""
""focus"",""7"",""40705""
","""event"",""trial"",""time""
""fullscreenenter"",""1"",""1279""
","
","","","429.69999999995343","","","24","17302","6323","&#9733;","elianto","#3366ff99","-1"," ","0","0","[1281]","1","1","","","17302","9","2","2","win","no-go","0"
"pit-trial","134","1062191","0.0-13.0","battery-v0.2","","""event"",""trial"",""time""
""fullscreenenter"",""1"",""1279""
""blur"",""7"",""38214""
""focus"",""7"",""40705""
","""event"",""trial"",""time""
""blur"",""7"",""38214""
","""event"",""trial"",""time""
""focus"",""7"",""40705""
","""event"",""trial"",""time""
""fullscreenenter"",""1"",""1279""
","
","","","-1","","","24","17302","6323","&#9752;","elianto","#f73b6a7A"," ","-1","0","-10","[]","0","1","","","17302","10","3","3","lose","go","0"
"pit-trial","135","1065305","0.0-14.0","battery-v0.2","","""event"",""trial"",""time""
""fullscreenenter"",""1"",""1279""
""blur"",""7"",""38214""
""focus"",""7"",""40705""
","""event"",""trial"",""time""
""blur"",""7"",""38214""
","""event"",""trial"",""time""
""focus"",""7"",""40705""
","""event"",""trial"",""time""
""fullscreenenter"",""1"",""1279""
","
","","","258.60000000009313","","","24","17302","6323","&#9728;","elianto","#f73b6a7A","-1"," ","0","-10","[1109.8000000000466]","1","1","","","17302","11","0","4","lose","no-go","0"
"pit-trial","136","1068659","0.0-15.0","battery-v0.2","","""event"",""trial"",""time""
""fullscreenenter"",""1"",""1279""
""blur"",""7"",""38214""
""focus"",""7"",""40705""
","""event"",""trial"",""time""
""blur"",""7"",""38214""
","""event"",""trial"",""time""
""focus"",""7"",""40705""
","""event"",""trial"",""time""
""fullscreenenter"",""1"",""1279""
","
","","","498.5999999998603","","","24","17302","6323","&#9730;","elianto","#3366ff99"," "," ","1","+10","[1349.6999999999534]","1","1","","","17302","12","1","1","win","go","0"
"pit-trial","137","1073515","0.0-16.0","battery-v0.2","","""event"",""trial"",""time""
""fullscreenenter"",""1"",""1279""
""blur"",""7"",""38214""
""focus"",""7"",""40705""
","""event"",""trial"",""time""
""blur"",""7"",""38214""
","""event"",""trial"",""time""
""focus"",""7"",""40705""
","""event"",""trial"",""time""
""fullscreenenter"",""1"",""1279""
","
","","","-1","","","24","17302","6323","&#9752;","elianto","#f73b6a7A"," ","-1","0","-10","[]","0","1","","","17302","13","3","3","lose","go","0"
"pit-trial","138","1078372","0.0-17.0","battery-v0.2","","""event"",""trial"",""time""
""fullscreenenter"",""1"",""1279""
""blur"",""7"",""38214""
""focus"",""7"",""40705""
","""event"",""trial"",""time""
""blur"",""7"",""38214""
","""event"",""trial"",""time""
""focus"",""7"",""40705""
","""event"",""trial"",""time""
""fullscreenenter"",""1"",""1279""
","
","","","-1","","","24","17302","6323","&#9728;","elianto","#f73b6a7A","-1","-1","1","0","[]","0","1","","","17302","14","0","4","lose","no-go","0"
"pit-trial","139","1081791","0.0-18.0","battery-v0.2","","""event"",""trial"",""time""
""fullscreenenter"",""1"",""1279""
""blur"",""7"",""38214""
""focus"",""7"",""40705""
","""event"",""trial"",""time""
""blur"",""7"",""38214""
","""event"",""trial"",""time""
""focus"",""7"",""40705""
","""event"",""trial"",""time""
""fullscreenenter"",""1"",""1279""
","
","","","563.1999999999534","","","24","17302","6323","&#9730;","elianto","#3366ff99"," "," ","1","+10","[1413.7000000001863]","1","1","","","17302","15","1","1","win","go","0"
"pit-trial","140","1085241","0.0-19.0","battery-v0.2","","""event"",""trial"",""time""
""fullscreenenter"",""1"",""1279""
""blur"",""7"",""38214""
""focus"",""7"",""40705""
","""event"",""trial"",""time""
""blur"",""7"",""38214""
","""event"",""trial"",""time""
""focus"",""7"",""40705""
","""event"",""trial"",""time""
""fullscreenenter"",""1"",""1279""
","
","","","593.5999999998603","","","24","17302","6323","&#9733;","elianto","#3366ff99","-1"," ","0","0","[1445]","1","1","","","17302","16","2","2","win","no-go","0"
"pit-trial","141","1088660","0.0-20.0","battery-v0.2","","""event"",""trial"",""time""
""fullscreenenter"",""1"",""1279""
""blur"",""7"",""38214""
""focus"",""7"",""40705""
","""event"",""trial"",""time""
""blur"",""7"",""38214""
","""event"",""trial"",""time""
""focus"",""7"",""40705""
","""event"",""trial"",""time""
""fullscreenenter"",""1"",""1279""
","
","","","562.9000000001397","","","24","17302","6323","&#9733;","elianto","#3366ff99","-1"," ","0","0","[1414.0999999998603]","1","1","","","17302","17","2","2","win","no-go","0"
"pit-trial","142","1093516","0.0-21.0","battery-v0.2","","""event"",""trial"",""time""
""fullscreenenter"",""1"",""1279""
""blur"",""7"",""38214""
""focus"",""7"",""40705""
","""event"",""trial"",""time""
""blur"",""7"",""38214""
","""event"",""trial"",""time""
""focus"",""7"",""40705""
","""event"",""trial"",""time""
""fullscreenenter"",""1"",""1279""
","
","","","-1","","","24","17302","6323","&#9728;","elianto","#f73b6a7A","-1","-1","1","-10","[]","0","1","","","17302","18","0","4","lose","no-go","1"
"pit-trial","143","1097115","0.0-22.0","battery-v0.2","","""event"",""trial"",""time""
""fullscreenenter"",""1"",""1279""
""blur"",""7"",""38214""
""focus"",""7"",""40705""
","""event"",""trial"",""time""
""blur"",""7"",""38214""
","""event"",""trial"",""time""
""focus"",""7"",""40705""
","""event"",""trial"",""time""
""fullscreenenter"",""1"",""1279""
","
","","","742.3000000000466","","","24","17302","6323","&#9730;","elianto","#3366ff99"," "," ","1","0","[1593.8999999999069]","1","1","","","17302","19","1","1","win","go","1"
"pit-trial","144","1101972","0.0-23.0","battery-v0.2","","""event"",""trial"",""time""
""fullscreenenter"",""1"",""1279""
""blur"",""7"",""38214""
""focus"",""7"",""40705""
","""event"",""trial"",""time""
""blur"",""7"",""38214""
","""event"",""trial"",""time""
""focus"",""7"",""40705""
","""event"",""trial"",""time""
""fullscreenenter"",""1"",""1279""
","
","","","-1","","","24","17302","6323","&#9752;","elianto","#f73b6a7A"," ","-1","0","0","[]","0","1","","","17302","20","3","3","lose","go","1"
"pit-instructions","145","1120266","0.0-24.0","battery-v0.2","","""event"",""trial"",""time""
""fullscreenenter"",""1"",""1279""
""blur"",""7"",""38214""
""focus"",""7"",""40705""
","""event"",""trial"",""time""
""blur"",""7"",""38214""
","""event"",""trial"",""time""
""focus"",""7"",""40705""
","""event"",""trial"",""time""
""fullscreenenter"",""1"",""1279""
","
","","[{""page_index"":0,""viewing_time"":10742},{""page_index"":1,""viewing_time"":7547.800000000047}]","18290.600000000093","","","","","","","","","","","","","","","","","","","","","","","",""
"pit-trial","146","1124774","0.0-25.0","battery-v0.2","","""event"",""trial"",""time""
""fullscreenenter"",""1"",""1279""
""blur"",""7"",""38214""
""focus"",""7"",""40705""
","""event"",""trial"",""time""
""blur"",""7"",""38214""
","""event"",""trial"",""time""
""focus"",""7"",""40705""
","""event"",""trial"",""time""
""fullscreenenter"",""1"",""1279""
","
","","","1650","","","24","17302","6323","u","elianto","#f73b6a7A","-1"," ","0","-10","[2501.6999999999534]","1","2","","","17302","21","0","4","lose","no-go","0"
"pit-trial","147","1129630","0.0-26.0","battery-v0.2","","""event"",""trial"",""time""
""fullscreenenter"",""1"",""1279""
""blur"",""7"",""38214""
""focus"",""7"",""40705""
","""event"",""trial"",""time""
""blur"",""7"",""38214""
","""event"",""trial"",""time""
""focus"",""7"",""40705""
","""event"",""trial"",""time""
""fullscreenenter"",""1"",""1279""
","
","","","-1","","","24","17302","6323","a","elianto","#f73b6a7A","-1","-1","1","0","[]","0","2","","","17302","22","2","4","lose","no-go","0"
"pit-trial","148","1134487","0.0-27.0","battery-v0.2","","""event"",""trial"",""time""
""fullscreenenter"",""1"",""1279""
""blur"",""7"",""38214""
""focus"",""7"",""40705""
","""event"",""trial"",""time""
""blur"",""7"",""38214""
","""event"",""trial"",""time""
""focus"",""7"",""40705""
","""event"",""trial"",""time""
""fullscreenenter"",""1"",""1279""
","
","","","-1","","","24","17302","6323","g","elianto","#f73b6a7A"," ","-1","0","-10","[]","0","2","","","17302","23","3","3","lose","go","0"
"pit-trial","149","1138736","0.0-28.0","battery-v0.2","","""event"",""trial"",""time""
""fullscreenenter"",""1"",""1279""
""blur"",""7"",""38214""
""focus"",""7"",""40705""
","""event"",""trial"",""time""
""blur"",""7"",""38214""
","""event"",""trial"",""time""
""focus"",""7"",""40705""
","""event"",""trial"",""time""
""fullscreenenter"",""1"",""1279""
","
","","","1391.6000000000931","","","24","17302","6323","l","elianto","#3366ff99"," "," ","1","+10","[2243.600000000093]","1","2","","","17302","24","1","1","win","go","0"
"pit-trial","150","1142808","0.0-29.0","battery-v0.2","","""event"",""trial"",""time""
""fullscreenenter"",""1"",""1279""
""blur"",""7"",""38214""
""focus"",""7"",""40705""
","""event"",""trial"",""time""
""blur"",""7"",""38214""
","""event"",""trial"",""time""
""focus"",""7"",""40705""
","""event"",""trial"",""time""
""fullscreenenter"",""1"",""1279""
","
","","","1216.2999999998137","","","24","17302","6323","l","elianto","#3366ff99"," "," ","1","+10","[2068.1999999999534]","1","2","","","17302","25","1","1","win","go","0"
"pit-trial","151","1147666","0.0-30.0","battery-v0.2","","""event"",""trial"",""time""
""fullscreenenter"",""1"",""1279""
""blur"",""7"",""38214""
""focus"",""7"",""40705""
","""event"",""trial"",""time""
""blur"",""7"",""38214""
","""event"",""trial"",""time""
""focus"",""7"",""40705""
","""event"",""trial"",""time""
""fullscreenenter"",""1"",""1279""
","
","","","-1","","","24","17302","6323","u","elianto","#f73b6a7A","-1","-1","1","0","[]","0","2","","","17302","26","0","4","lose","no-go","0"
"pit-trial","152","1152522","0.0-31.0","battery-v0.2","","""event"",""trial"",""time""
""fullscreenenter"",""1"",""1279""
""blur"",""7"",""38214""
""focus"",""7"",""40705""
","""event"",""trial"",""time""
""blur"",""7"",""38214""
","""event"",""trial"",""time""
""focus"",""7"",""40705""
","""event"",""trial"",""time""
""fullscreenenter"",""1"",""1279""
","
","","","-1","","","24","17302","6323","a","elianto","#f73b6a7A","-1","-1","1","0","[]","0","2","","","17302","27","2","4","lose","no-go","0"
"pit-trial","153","1157379","0.0-32.0","battery-v0.2","","""event"",""trial"",""time""
""fullscreenenter"",""1"",""1279""
""blur"",""7"",""38214""
""focus"",""7"",""40705""
","""event"",""trial"",""time""
""blur"",""7"",""38214""
","""event"",""trial"",""time""
""focus"",""7"",""40705""
","""event"",""trial"",""time""
""fullscreenenter"",""1"",""1279""
","
","","","-1","","","24","17302","6323","g","elianto","#f73b6a7A"," ","-1","0","-10","[]","0","2","","","17302","28","3","3","lose","go","0"
"pit-trial","154","1162237","0.0-33.0","battery-v0.2","","""event"",""trial"",""time""
""fullscreenenter"",""1"",""1279""
""blur"",""7"",""38214""
""focus"",""7"",""40705""
","""event"",""trial"",""time""
""blur"",""7"",""38214""
","""event"",""trial"",""time""
""focus"",""7"",""40705""
","""event"",""trial"",""time""
""fullscreenenter"",""1"",""1279""
","
","","","-1","","","24","17302","6323","u","elianto","#f73b6a7A","-1","-1","1","0","[]","0","2","","","17302","29","0","4","lose","no-go","0"
"pit-trial","155","1165960","0.0-34.0","battery-v0.2","","""event"",""trial"",""time""
""fullscreenenter"",""1"",""1279""
""blur"",""7"",""38214""
""focus"",""7"",""40705""
","""event"",""trial"",""time""
""blur"",""7"",""38214""
","""event"",""trial"",""time""
""focus"",""7"",""40705""
","""event"",""trial"",""time""
""fullscreenenter"",""1"",""1279""
","
","","","866.6999999999534","","","24","17302","6323","l","elianto","#3366ff99"," "," ","1","+10","[1717.8000000000466]","1","2","","","17302","30","1","1","win","go","0"
"pit-trial","156","1170817","0.0-35.0","battery-v0.2","","""event"",""trial"",""time""
""fullscreenenter"",""1"",""1279""
""blur"",""7"",""38214""
""focus"",""7"",""40705""
","""event"",""trial"",""time""
""blur"",""7"",""38214""
","""event"",""trial"",""time""
""focus"",""7"",""40705""
","""event"",""trial"",""time""
""fullscreenenter"",""1"",""1279""
","
","","","-1","","","24","17302","6323","a","elianto","#f73b6a7A","-1","-1","1","0","[]","0","2","","","17302","31","2","4","lose","no-go","0"
"pit-trial","157","1175674","0.0-36.0","battery-v0.2","","""event"",""trial"",""time""
""fullscreenenter"",""1"",""1279""
""blur"",""7"",""38214""
""focus"",""7"",""40705""
","""event"",""trial"",""time""
""blur"",""7"",""38214""
","""event"",""trial"",""time""
""focus"",""7"",""40705""
","""event"",""trial"",""time""
""fullscreenenter"",""1"",""1279""
","
","","","-1","","","24","17302","6323","g","elianto","#f73b6a7A"," ","-1","0","-10","[]","0","2","","","17302","32","3","3","lose","go","0"
"pit-trial","158","1180529","0.0-37.0","battery-v0.2","","""event"",""trial"",""time""
""fullscreenenter"",""1"",""1279""
""blur"",""7"",""38214""
""focus"",""7"",""40705""
","""event"",""trial"",""time""
""blur"",""7"",""38214""
","""event"",""trial"",""time""
""focus"",""7"",""40705""
","""event"",""trial"",""time""
""fullscreenenter"",""1"",""1279""
","
","","","-1","","","24","17302","6323","u","elianto","#f73b6a7A","-1","-1","1","0","[]","0","2","","","17302","33","0","4","lose","no-go","0"
"pit-trial","159","1185386","0.0-38.0","battery-v0.2","","""event"",""trial"",""time""
""fullscreenenter"",""1"",""1279""
""blur"",""7"",""38214""
""focus"",""7"",""40705""
","""event"",""trial"",""time""
""blur"",""7"",""38214""
","""event"",""trial"",""time""
""focus"",""7"",""40705""
","""event"",""trial"",""time""
""fullscreenenter"",""1"",""1279""
","
","","","-1","","","24","17302","6323","a","elianto","#f73b6a7A","-1","-1","1","0","[]","0","2","","","17302","34","2","4","lose","no-go","0"
"pit-trial","160","1190242","0.0-39.0","battery-v0.2","","""event"",""trial"",""time""
""fullscreenenter"",""1"",""1279""
""blur"",""7"",""38214""
""focus"",""7"",""40705""
","""event"",""trial"",""time""
""blur"",""7"",""38214""
","""event"",""trial"",""time""
""focus"",""7"",""40705""
","""event"",""trial"",""time""
""fullscreenenter"",""1"",""1279""
","
","","","-1","","","24","17302","6323","g","elianto","#f73b6a7A"," ","-1","0","-10","[]","0","2","","","17302","35","3","3","lose","go","0"
"pit-trial","161","1193770","0.0-40.0","battery-v0.2","","""event"",""trial"",""time""
""fullscreenenter"",""1"",""1279""
""blur"",""7"",""38214""
""focus"",""7"",""40705""
","""event"",""trial"",""time""
""blur"",""7"",""38214""
","""event"",""trial"",""time""
""focus"",""7"",""40705""
","""event"",""trial"",""time""
""fullscreenenter"",""1"",""1279""
","
","","","671.5999999998603","","","24","17302","6323","l","elianto","#3366ff99"," "," ","1","+10","[1522.3999999999069]","1","2","","","17302","36","1","1","win","go","0"
"pit-trial","162","1198626","0.0-41.0","battery-v0.2","","""event"",""trial"",""time""
""fullscreenenter"",""1"",""1279""
""blur"",""7"",""38214""
""focus"",""7"",""40705""
","""event"",""trial"",""time""
""blur"",""7"",""38214""
","""event"",""trial"",""time""
""focus"",""7"",""40705""
","""event"",""trial"",""time""
""fullscreenenter"",""1"",""1279""
","
","","","-1","","","24","17302","6323","g","elianto","#f73b6a7A"," ","-1","0","0","[]","0","2","","","17302","37","3","3","lose","go","1"
"pit-trial","163","1203483","0.0-42.0","battery-v0.2","","""event"",""trial"",""time""
""fullscreenenter"",""1"",""1279""
""blur"",""7"",""38214""
""focus"",""7"",""40705""
","""event"",""trial"",""time""
""blur"",""7"",""38214""
","""event"",""trial"",""time""
""focus"",""7"",""40705""
","""event"",""trial"",""time""
""fullscreenenter"",""1"",""1279""
","
","","","-1","","","24","17302","6323","a","elianto","#f73b6a7A","-1","-1","1","0","[]","0","2","","","17302","38","2","4","lose","no-go","0"
"pit-trial","164","1207072","0.0-43.0","battery-v0.2","","""event"",""trial"",""time""
""fullscreenenter"",""1"",""1279""
""blur"",""7"",""38214""
""focus"",""7"",""40705""
","""event"",""trial"",""time""
""blur"",""7"",""38214""
","""event"",""trial"",""time""
""focus"",""7"",""40705""
","""event"",""trial"",""time""
""fullscreenenter"",""1"",""1279""
","
","","","731.8999999999069","","","24","17302","6323","l","elianto","#3366ff99"," "," ","1","+10","[1582.8999999999069]","1","2","","","17302","39","1","1","win","go","0"
"pit-trial","165","1211927","0.0-44.0","battery-v0.2","","""event"",""trial"",""time""
""fullscreenenter"",""1"",""1279""
""blur"",""7"",""38214""
""focus"",""7"",""40705""
","""event"",""trial"",""time""
""blur"",""7"",""38214""
","""event"",""trial"",""time""
""focus"",""7"",""40705""
","""event"",""trial"",""time""
""fullscreenenter"",""1"",""1279""
","
","","","-1","","","24","17302","6323","u","elianto","#f73b6a7A","-1","-1","1","0","[]","0","2","","","17302","40","0","4","lose","no-go","0"
"pit-trial","166","1216784","0.0-45.0","battery-v0.2","","""event"",""trial"",""time""
""fullscreenenter"",""1"",""1279""
""blur"",""7"",""38214""
""focus"",""7"",""40705""
","""event"",""trial"",""time""
""blur"",""7"",""38214""
","""event"",""trial"",""time""
""focus"",""7"",""40705""
","""event"",""trial"",""time""
""fullscreenenter"",""1"",""1279""
","
","","","-1","","","24","17302","6323","a","elianto","#f73b6a7A","-1","-1","1","0","[]","0","2","","","17302","41","2","4","lose","no-go","0"
"pit-trial","167","1221641","0.0-46.0","battery-v0.2","","""event"",""trial"",""time""
""fullscreenenter"",""1"",""1279""
""blur"",""7"",""38214""
""focus"",""7"",""40705""
","""event"",""trial"",""time""
""blur"",""7"",""38214""
","""event"",""trial"",""time""
""focus"",""7"",""40705""
","""event"",""trial"",""time""
""fullscreenenter"",""1"",""1279""
","
","","","-1","","","24","17302","6323","u","elianto","#f73b6a7A","-1","-1","1","-10","[]","0","2","","","17302","42","0","4","lose","no-go","1"
"pit-trial","168","1226497","0.0-47.0","battery-v0.2","","""event"",""trial"",""time""
""fullscreenenter"",""1"",""1279""
""blur"",""7"",""38214""
""focus"",""7"",""40705""
","""event"",""trial"",""time""
""blur"",""7"",""38214""
","""event"",""trial"",""time""
""focus"",""7"",""40705""
","""event"",""trial"",""time""
""fullscreenenter"",""1"",""1279""
","
","","","-1","","","24","17302","6323","g","elianto","#f73b6a7A"," ","-1","0","-10","[]","0","2","","","17302","43","3","3","lose","go","0"
"pit-trial","169","1229842","0.0-48.0","battery-v0.2","","""event"",""trial"",""time""
""fullscreenenter"",""1"",""1279""
""blur"",""7"",""38214""
""focus"",""7"",""40705""
","""event"",""trial"",""time""
""blur"",""7"",""38214""
","""event"",""trial"",""time""
""focus"",""7"",""40705""
","""event"",""trial"",""time""
""fullscreenenter"",""1"",""1279""
","
","","","487.60000000009313","","","24","17302","6323","l","elianto","#3366ff99"," "," ","1","+10","[1339.0999999998603]","1","2","","","17302","44","1","1","win","go","0"
"pit-trial","170","1233224","0.0-49.0","battery-v0.2","","""event"",""trial"",""time""
""fullscreenenter"",""1"",""1279""
""blur"",""7"",""38214""
""focus"",""7"",""40705""
","""event"",""trial"",""time""
""blur"",""7"",""38214""
","""event"",""trial"",""time""
""focus"",""7"",""40705""
","""event"",""trial"",""time""
""fullscreenenter"",""1"",""1279""
","
","","","525.1000000000931","","","24","17302","6323","p","elianto","#3366ff99","-1"," ","0","0","[1375.7999999998137]","1","2","","","17302","45","4","2","win","no-go","0"
"pit-trial","171","1238081","0.0-50.0","battery-v0.2","","""event"",""trial"",""time""
""fullscreenenter"",""1"",""1279""
""blur"",""7"",""38214""
""focus"",""7"",""40705""
","""event"",""trial"",""time""
""blur"",""7"",""38214""
","""event"",""trial"",""time""
""focus"",""7"",""40705""
","""event"",""trial"",""time""
""fullscreenenter"",""1"",""1279""
","
","","","-1","","","24","17302","6323","a","elianto","#f73b6a7A","-1","-1","1","0","[]","0","2","","","17302","46","2","4","lose","no-go","0"
"pit-trial","172","1242938","0.0-51.0","battery-v0.2","","""event"",""trial"",""time""
""fullscreenenter"",""1"",""1279""
""blur"",""7"",""38214""
""focus"",""7"",""40705""
","""event"",""trial"",""time""
""blur"",""7"",""38214""
","""event"",""trial"",""time""
""focus"",""7"",""40705""
","""event"",""trial"",""time""
""fullscreenenter"",""1"",""1279""
","
","","","-1","","","24","17302","6323","g","elianto","#f73b6a7A"," ","-1","0","-10","[]","0","2","","","17302","47","3","3","lose","go","0"
"pit-trial","173","1247796","0.0-52.0","battery-v0.2","","""event"",""trial"",""time""
""fullscreenenter"",""1"",""1279""
""blur"",""7"",""38214""
""focus"",""7"",""40705""
","""event"",""trial"",""time""
""blur"",""7"",""38214""
","""event"",""trial"",""time""
""focus"",""7"",""40705""
","""event"",""trial"",""time""
""fullscreenenter"",""1"",""1279""
","
","","","-1","","","24","17302","6323","u","elianto","#f73b6a7A","-1","-1","1","0","[]","0","2","","","17302","48","0","4","lose","no-go","0"
"pit-trial","174","1251129","0.0-53.0","battery-v0.2","","""event"",""trial"",""time""
""fullscreenenter"",""1"",""1279""
""blur"",""7"",""38214""
""focus"",""7"",""40705""
","""event"",""trial"",""time""
""blur"",""7"",""38214""
","""event"",""trial"",""time""
""focus"",""7"",""40705""
","""event"",""trial"",""time""
""fullscreenenter"",""1"",""1279""
","
","","","476.39999999990687","","","24","17302","6323","p","elianto","#3366ff99","-1"," ","0","0","[1327.6999999999534]","1","2","","","17302","49","4","2","win","no-go","0"
"pit-trial","175","1254515","0.0-54.0","battery-v0.2","","""event"",""trial"",""time""
""fullscreenenter"",""1"",""1279""
""blur"",""7"",""38214""
""focus"",""7"",""40705""
","""event"",""trial"",""time""
""blur"",""7"",""38214""
","""event"",""trial"",""time""
""focus"",""7"",""40705""
","""event"",""trial"",""time""
""fullscreenenter"",""1"",""1279""
","
","","","529.8999999999069","","","24","17302","6323","l","elianto","#3366ff99"," "," ","1","+10","[1380.9000000001397]","1","2","","","17302","50","1","1","win","go","0"
"pit-trial","176","1259373","0.0-55.0","battery-v0.2","","""event"",""trial"",""time""
""fullscreenenter"",""1"",""1279""
""blur"",""7"",""38214""
""focus"",""7"",""40705""
","""event"",""trial"",""time""
""blur"",""7"",""38214""
","""event"",""trial"",""time""
""focus"",""7"",""40705""
","""event"",""trial"",""time""
""fullscreenenter"",""1"",""1279""
","
","","","-1","","","24","17302","6323","u","elianto","#f73b6a7A","-1","-1","1","0","[]","0","2","","","17302","51","0","4","lose","no-go","0"
"pit-trial","177","1264228","0.0-56.0","battery-v0.2","","""event"",""trial"",""time""
""fullscreenenter"",""1"",""1279""
""blur"",""7"",""38214""
""focus"",""7"",""40705""
","""event"",""trial"",""time""
""blur"",""7"",""38214""
","""event"",""trial"",""time""
""focus"",""7"",""40705""
","""event"",""trial"",""time""
""fullscreenenter"",""1"",""1279""
","
","","","-1","","","24","17302","6323","g","elianto","#f73b6a7A"," ","-1","0","-10","[]","0","2","","","17302","52","3","3","lose","go","0"
"pit-trial","178","1267549","0.0-57.0","battery-v0.2","","""event"",""trial"",""time""
""fullscreenenter"",""1"",""1279""
""blur"",""7"",""38214""
""focus"",""7"",""40705""
","""event"",""trial"",""time""
""blur"",""7"",""38214""
","""event"",""trial"",""time""
""focus"",""7"",""40705""
","""event"",""trial"",""time""
""fullscreenenter"",""1"",""1279""
","
","","","465","","","24","17302","6323","l","elianto","#3366ff99"," "," ","1","0","[1315.7999999998137]","1","2","","","17302","53","1","1","win","go","1"
"pit-trial","179","1272406","0.0-58.0","battery-v0.2","","""event"",""trial"",""time""
""fullscreenenter"",""1"",""1279""
""blur"",""7"",""38214""
""focus"",""7"",""40705""
","""event"",""trial"",""time""
""blur"",""7"",""38214""
","""event"",""trial"",""time""
""focus"",""7"",""40705""
","""event"",""trial"",""time""
""fullscreenenter"",""1"",""1279""
","
","","","-1","","","24","17302","6323","a","elianto","#f73b6a7A","-1","-1","1","0","[]","0","2","","","17302","54","2","4","lose","no-go","0"
"pit-trial","180","1277262","0.0-59.0","battery-v0.2","","""event"",""trial"",""time""
""fullscreenenter"",""1"",""1279""
""blur"",""7"",""38214""
""focus"",""7"",""40705""
","""event"",""trial"",""time""
""blur"",""7"",""38214""
","""event"",""trial"",""time""
""focus"",""7"",""40705""
","""event"",""trial"",""time""
""fullscreenenter"",""1"",""1279""
","
","","","-1","","","24","17302","6323","u","elianto","#f73b6a7A","-1","-1","1","0","[]","0","2","","","17302","55","0","4","lose","no-go","0"
"pit-trial","181","1280625","0.0-60.0","battery-v0.2","","""event"",""trial"",""time""
""fullscreenenter"",""1"",""1279""
""blur"",""7"",""38214""
""focus"",""7"",""40705""
","""event"",""trial"",""time""
""blur"",""7"",""38214""
","""event"",""trial"",""time""
""focus"",""7"",""40705""
","""event"",""trial"",""time""
""fullscreenenter"",""1"",""1279""
","
","","","507.4000000001397","","","24","17302","6323","p","elianto","#3366ff99","-1"," ","0","0","[1358.7000000001863]","1","2","","","17302","56","4","2","win","no-go","0"
"pit-trial","182","1285482","0.0-61.0","battery-v0.2","","""event"",""trial"",""time""
""fullscreenenter"",""1"",""1279""
""blur"",""7"",""38214""
""focus"",""7"",""40705""
","""event"",""trial"",""time""
""blur"",""7"",""38214""
","""event"",""trial"",""time""
""focus"",""7"",""40705""
","""event"",""trial"",""time""
""fullscreenenter"",""1"",""1279""
","
","","","-1","","","24","17302","6323","g","elianto","#f73b6a7A"," ","-1","0","0","[]","0","2","","","17302","57","3","3","lose","go","1"
"pit-trial","183","1288861","0.0-62.0","battery-v0.2","","""event"",""trial"",""time""
""fullscreenenter"",""1"",""1279""
""blur"",""7"",""38214""
""focus"",""7"",""40705""
","""event"",""trial"",""time""
""blur"",""7"",""38214""
","""event"",""trial"",""time""
""focus"",""7"",""40705""
","""event"",""trial"",""time""
""fullscreenenter"",""1"",""1279""
","
","","","522.8999999999069","","","24","17302","6323","p","elianto","#3366ff99","-1"," ","0","+10","[1374.1000000000931]","1","2","","","17302","58","4","2","win","no-go","1"
"pit-trial","184","1292190","0.0-63.0","battery-v0.2","","""event"",""trial"",""time""
""fullscreenenter"",""1"",""1279""
""blur"",""7"",""38214""
""focus"",""7"",""40705""
","""event"",""trial"",""time""
""blur"",""7"",""38214""
","""event"",""trial"",""time""
""focus"",""7"",""40705""
","""event"",""trial"",""time""
""fullscreenenter"",""1"",""1279""
","
","","","472.69999999995343","","","24","17302","6323","l","elianto","#3366ff99"," "," ","1","+10","[1323]","1","2","","","17302","59","1","1","win","go","0"
"pit-trial","185","1297047","0.0-64.0","battery-v0.2","","""event"",""trial"",""time""
""fullscreenenter"",""1"",""1279""
""blur"",""7"",""38214""
""focus"",""7"",""40705""
","""event"",""trial"",""time""
""blur"",""7"",""38214""
","""event"",""trial"",""time""
""focus"",""7"",""40705""
","""event"",""trial"",""time""
""fullscreenenter"",""1"",""1279""
","
","","","-1","","","24","17302","6323","u","elianto","#f73b6a7A","-1","-1","1","0","[]","0","2","","","17302","60","0","4","lose","no-go","0"
"pit-trial","186","1301903","0.0-65.0","battery-v0.2","","""event"",""trial"",""time""
""fullscreenenter"",""1"",""1279""
""blur"",""7"",""38214""
""focus"",""7"",""40705""
","""event"",""trial"",""time""
""blur"",""7"",""38214""
","""event"",""trial"",""time""
""focus"",""7"",""40705""
","""event"",""trial"",""time""
""fullscreenenter"",""1"",""1279""
","
","","","-1","","","24","17302","6323","g","elianto","#f73b6a7A"," ","-1","0","-10","[]","0","2","","","17302","61","3","3","lose","go","0"
"pit-trial","187","1305292","0.0-66.0","battery-v0.2","","""event"",""trial"",""time""
""fullscreenenter"",""1"",""1279""
""blur"",""7"",""38214""
""focus"",""7"",""40705""
","""event"",""trial"",""time""
""blur"",""7"",""38214""
","""event"",""trial"",""time""
""focus"",""7"",""40705""
","""event"",""trial"",""time""
""fullscreenenter"",""1"",""1279""
","
","","","531.1000000000931","","","24","17302","6323","l","elianto","#3366ff99"," "," ","1","+10","[1382.8999999999069]","1","2","","","17302","62","1","1","win","go","0"
"pit-trial","188","1308570","0.0-67.0","battery-v0.2","","""event"",""trial"",""time""
""fullscreenenter"",""1"",""1279""
""blur"",""7"",""38214""
""focus"",""7"",""40705""
","""event"",""trial"",""time""
