"trial_type","trial_index","time_elapsed","internal_node_id","task_version","subject_id","interactions","blur_events","focus_events","fullscreenenter_events","fullscreenexit_events","success","view_history","rt","responses","num_errors","age","subject","participantId","rune","rune_set","hex","correct","choice","accuracy","outcome","keys","total_keys","block","practice","value","sub","trial","stimulus","robot","valence","action","sham"
"pavlovia","0","23","0.0-0.0","battery-v0.2","","""event"",""trial"",""time""
""fullscreenenter"",""1"",""1989""
","
","
","""event"",""trial"",""time""
""fullscreenenter"",""1"",""1989""
","
","","","","","","","","","","","","","","","","","","","","","","","","","","",""
"fullscreen","1","2969","0.0-1.0","battery-v0.2","","""event"",""trial"",""time""
""fullscreenenter"",""1"",""1989""
","
","
","""event"",""trial"",""time""
""fullscreenenter"",""1"",""1989""
","
","true","","","","","","","","","","","","","","","","","","","","","","","","","",""
"pit-instructions","2","8163","0.0-2.0-0.0","battery-v0.2","","""event"",""trial"",""time""
""fullscreenenter"",""1"",""1989""
","
","
","""event"",""trial"",""time""
""fullscreenenter"",""1"",""1989""
","
","","[{""page_index"":0,""viewing_time"":5186.0999999996275}]","5187.199999999255","","","","","","","","","","","","","","","","","","","","","","","",""
"pit-comprehension","3","11029","0.0-2.0-1.0-0.0","battery-v0.2","","""event"",""trial"",""time""
""fullscreenenter"",""1"",""1989""
","
","
","""event"",""trial"",""time""
""fullscreenenter"",""1"",""1989""
","
","","","2855.800000000745","[""shark""]","0","15","11316","4172","","","","","","","","","","","","","","","","","","",""
"pit-instructions","4","12108","0.0-2.0-1.0-1.0","battery-v0.2","","""event"",""trial"",""time""
""fullscreenenter"",""1"",""1989""
","
","
","""event"",""trial"",""time""
""fullscreenenter"",""1"",""1989""
","
","","[{""page_index"":0,""viewing_time"":1063.8999999985099}]","1065","","","","","","","","","","","","","","","","","","","","","","","",""
"pit-comprehension","5","14225","0.0-2.0-2.0-0.0","battery-v0.2","","""event"",""trial"",""time""
""fullscreenenter"",""1"",""1989""
","
","
","""event"",""trial"",""time""
""fullscreenenter"",""1"",""1989""
","
","","","2111.2000000011176","[""tiger""]","0","15","11316","4172","","","","","","","","","","","","","","","","","","",""
"pit-instructions","6","15293","0.0-2.0-2.0-1.0","battery-v0.2","","""event"",""trial"",""time""
""fullscreenenter"",""1"",""1989""
","
","
","""event"",""trial"",""time""
""fullscreenenter"",""1"",""1989""
","
","","[{""page_index"":0,""viewing_time"":1063}]","1064.0999999996275","","","","","","","","","","","","","","","","","","","","","","","",""
"pit-instructions","7","115550","0.0-2.0-3.0","battery-v0.2","","""event"",""trial"",""time""
""fullscreenenter"",""1"",""1989""
","
","
","""event"",""trial"",""time""
""fullscreenenter"",""1"",""1989""
","
","","[{""page_index"":0,""viewing_time"":8460.699999999255},{""page_index"":1,""viewing_time"":6314.200000001118},{""page_index"":2,""viewing_time"":6107},{""page_index"":3,""viewing_time"":6297.5999999996275},{""page_index"":4,""viewing_time"":5652.800000000745},{""page_index"":5,""viewing_time"":5936.5},{""page_index"":6,""viewing_time"":8138.89999999851},{""page_index"":7,""viewing_time"":7918.800000000745},{""page_index"":8,""viewing_time"":6700.5999999996275},{""page_index"":9,""viewing_time"":8791.599999999627},{""page_index"":10,""viewing_time"":8696.900000000373},{""page_index"":11,""viewing_time"":7978.700000001118},{""page_index"":12,""viewing_time"":6855.299999998882},{""page_index"":13,""viewing_time"":6402.300000000745}]","100252.30000000075","","","","","","","","","","","","","","","","","","","","","","","",""
"pit-trial","8","119081","0.0-2.0-4.0-0.0","battery-v0.2","","""event"",""trial"",""time""
""fullscreenenter"",""1"",""1989""
","
","
","""event"",""trial"",""time""
""fullscreenenter"",""1"",""1989""
","
","","","677.5","","","15","11316","4172","&#9784;","elianto","#FFFFF080"," "," ","1","&#10004","[1527.5999999996275]","1","0","0","","","","","","","",""
"pit-trial","9","122686","0.0-2.0-4.1-0.1","battery-v0.2","","""event"",""trial"",""time""
""fullscreenenter"",""1"",""1989""
","
","
","""event"",""trial"",""time""
""fullscreenenter"",""1"",""1989""
","
","","","749.8999999985099","","","15","11316","4172","&#9784;","elianto","#FFFFF080"," "," ","1","&#10004","[1600.2999999988824]","1","0","0","","","","","","","",""
"pit-trial","10","126078","0.0-2.0-4.2-0.2","battery-v0.2","","""event"",""trial"",""time""
""fullscreenenter"",""1"",""1989""
","
","
","""event"",""trial"",""time""
""fullscreenenter"",""1"",""1989""
","
","","","538.1000000014901","","","15","11316","4172","&#9784;","elianto","#FFFFF080"," "," ","1","&#10004","[1388.4000000003725]","1","0","0","","","","","","","",""
"pit-trial","11","129364","0.0-2.0-4.3-0.3","battery-v0.2","","""event"",""trial"",""time""
""fullscreenenter"",""1"",""1989""
","
","
","""event"",""trial"",""time""
""fullscreenenter"",""1"",""1989""
","
","","","432.2999999988824","","","15","11316","4172","&#9784;","elianto","#FFFFF080"," "," ","1","&#10004","[1282.300000000745]","1","0","0","","","","","","","",""
"pit-trial","12","132718","0.0-2.0-4.4-0.4","battery-v0.2","","""event"",""trial"",""time""
""fullscreenenter"",""1"",""1989""
","
","
","""event"",""trial"",""time""
""fullscreenenter"",""1"",""1989""
","
","","","501.30000000074506","","","15","11316","4172","&#9784;","elianto","#FFFFF080"," "," ","1","&#10004","[1351.4000000003725]","1","0","0","","","","","","","",""
"pit-instructions","13","154811","0.0-2.0-5.0","battery-v0.2","","""event"",""trial"",""time""
""fullscreenenter"",""1"",""1989""
","
","
","""event"",""trial"",""time""
""fullscreenenter"",""1"",""1989""
","
","","[{""page_index"":0,""viewing_time"":5801.199999999255},{""page_index"":1,""viewing_time"":5916.10000000149},{""page_index"":2,""viewing_time"":5154.299999998882},{""page_index"":3,""viewing_time"":5216.800000000745}]","22089.5","","","","","","","","","","","","","","","","","","","","","","","",""
"pit-trial","14","159666","0.0-2.0-6.0-0.0","battery-v0.2","","""event"",""trial"",""time""
""fullscreenenter"",""1"",""1989""
","
","
","""event"",""trial"",""time""
""fullscreenenter"",""1"",""1989""
","
","","","-1","","","15","11316","4172","&#9854;","elianto","#FFFFF080","-1","-1","1","&#10004","[]","0","0","1","","","","","","","",""
"pit-trial","15","164521","0.0-2.0-6.1-0.1","battery-v0.2","","""event"",""trial"",""time""
""fullscreenenter"",""1"",""1989""
","
","
","""event"",""trial"",""time""
""fullscreenenter"",""1"",""1989""
","
","","","-1","","","15","11316","4172","&#9854;","elianto","#FFFFF080","-1","-1","1","&#10004","[]","0","0","1","","","","","","","",""
"pit-trial","16","169375","0.0-2.0-6.2-0.2","battery-v0.2","","""event"",""trial"",""time""
""fullscreenenter"",""1"",""1989""
","
","
","""event"",""trial"",""time""
""fullscreenenter"",""1"",""1989""
","
","","","-1","","","15","11316","4172","&#9854;","elianto","#FFFFF080","-1","-1","1","&#10004","[]","0","0","1","","","","","","","",""
"pit-trial","17","174229","0.0-2.0-6.3-0.3","battery-v0.2","","""event"",""trial"",""time""
""fullscreenenter"",""1"",""1989""
","
","
","""event"",""trial"",""time""
""fullscreenenter"",""1"",""1989""
","
","","","-1","","","15","11316","4172","&#9854;","elianto","#FFFFF080","-1","-1","1","&#10004","[]","0","0","1","","","","","","","",""
"pit-trial","18","179083","0.0-2.0-6.4-0.4","battery-v0.2","","""event"",""trial"",""time""
""fullscreenenter"",""1"",""1989""
","
","
","""event"",""trial"",""time""
""fullscreenenter"",""1"",""1989""
","
","","","-1","","","15","11316","4172","&#9854;","elianto","#FFFFF080","-1","-1","1","&#10004","[]","0","0","1","","","","","","","",""
"pit-instructions","19","302827","0.0-2.0-7.0","battery-v0.2","","""event"",""trial"",""time""
""fullscreenenter"",""1"",""1989""
","
","
","""event"",""trial"",""time""
""fullscreenenter"",""1"",""1989""
","
","","[{""page_index"":0,""viewing_time"":5921.5},{""page_index"":1,""viewing_time"":6670},{""page_index"":2,""viewing_time"":6164.300000000745},{""page_index"":3,""viewing_time"":6940.4000000003725},{""page_index"":4,""viewing_time"":6339.699999999255},{""page_index"":5,""viewing_time"":5686},{""page_index"":6,""viewing_time"":5341.800000000745},{""page_index"":7,""viewing_time"":8339},{""page_index"":8,""viewing_time"":6873.299999998882},{""page_index"":9,""viewing_time"":8554.800000000745},{""page_index"":10,""viewing_time"":6792.4000000003725},{""page_index"":11,""viewing_time"":4598.799999998882},{""page_index"":12,""viewing_time"":7450},{""page_index"":13,""viewing_time"":7023},{""page_index"":14,""viewing_time"":7724.9000000003725},{""page_index"":15,""viewing_time"":8107.4000000003725},{""page_index"":16,""viewing_time"":7261.9000000003725},{""page_index"":17,""viewing_time"":7948.799999998882}]","123739.70000000112","","","","","","","","","","","","","","","","","","","","","","","",""
"pit-trial","20","306564","0.0-2.0-8.0-0.0","battery-v0.2","","""event"",""trial"",""time""
""fullscreenenter"",""1"",""1989""
","
","
","""event"",""trial"",""time""
""fullscreenenter"",""1"",""1989""
","
","","","881.5","","","15","11316","4172","&#9776;","elianto","#3366ff99"," "," ","1","+10","[1731.7000000011176]","1","0","1","","","","","","","",""
"pit-trial","21","309864","0.0-2.0-8.0-1.0","battery-v0.2","","""event"",""trial"",""time""
""fullscreenenter"",""1"",""1989""
","
","
","""event"",""trial"",""time""
""fullscreenenter"",""1"",""1989""
","
","","","447.7999999988824","","","15","11316","4172","&#9776;","elianto","#3366ff99"," "," ","1","+10","[1297.8999999985099]","1","0","1","","","","","","","",""
"pit-trial","22","313347","0.0-2.0-8.0-2.0","battery-v0.2","","""event"",""trial"",""time""
""fullscreenenter"",""1"",""1989""
","
","
","""event"",""trial"",""time""
""fullscreenenter"",""1"",""1989""
","
","","","630.1999999992549","","","15","11316","4172","&#9776;","elianto","#3366ff99"," "," ","1","+10","[1480.699999999255]","1","0","1","","","","","","","",""
"pit-trial","23","316396","0.0-2.0-8.0-3.0","battery-v0.2","","""event"",""trial"",""time""
""fullscreenenter"",""1"",""1989""
","
","
","""event"",""trial"",""time""
""fullscreenenter"",""1"",""1989""
","
","","","195.40000000037253","","","15","11316","4172","&#9776;","elianto","#3366ff99"," "," ","1","0","[1045.5]","1","0","1","","","","","","","",""
"pit-trial","24","319409","0.0-2.0-8.0-4.0","battery-v0.2","","""event"",""trial"",""time""
""fullscreenenter"",""1"",""1989""
","
","
","""event"",""trial"",""time""
""fullscreenenter"",""1"",""1989""
","
","","","160","","","15","11316","4172","&#9776;","elianto","#3366ff99"," "," ","1","+10","[1010.0999999996275]","1","0","1","","","","","","","",""
"pit-trial","25","322446","0.0-2.0-8.1-0.1","battery-v0.2","","""event"",""trial"",""time""
""fullscreenenter"",""1"",""1989""
","
","
","""event"",""trial"",""time""
""fullscreenenter"",""1"",""1989""
","
","","","183.60000000149012","","","15","11316","4172","&#9776;","elianto","#3366ff99"," "," ","1","+10","[1034.1000000014901]","1","0","1","","","","","","","",""
"pit-trial","26","325670","0.0-2.0-8.1-1.1","battery-v0.2","","""event"",""trial"",""time""
""fullscreenenter"",""1"",""1989""
","
","
","""event"",""trial"",""time""
""fullscreenenter"",""1"",""1989""
","
","","","369.5","","","15","11316","4172","&#9776;","elianto","#3366ff99"," "," ","1","+10","[1221.1000000014901]","1","0","1","","","","","","","",""
"pit-trial","27","328882","0.0-2.0-8.1-2.1","battery-v0.2","","""event"",""trial"",""time""
""fullscreenenter"",""1"",""1989""
","
","
","""event"",""trial"",""time""
""fullscreenenter"",""1"",""1989""
","
","","","359.2999999988824","","","15","11316","4172","&#9776;","elianto","#3366ff99"," "," ","1","+10","[1209.4000000003725]","1","0","1","","","","","","","",""
"pit-trial","28","332071","0.0-2.0-8.1-3.1","battery-v0.2","","""event"",""trial"",""time""
""fullscreenenter"",""1"",""1989""
","
","
","""event"",""trial"",""time""
""fullscreenenter"",""1"",""1989""
","
","","","335.19999999925494","","","15","11316","4172","&#9776;","elianto","#3366ff99"," "," ","1","0","[1185.5999999996275]","1","0","1","","","","","","","",""
"pit-trial","29","335511","0.0-2.0-8.1-4.1","battery-v0.2","","""event"",""trial"",""time""
""fullscreenenter"",""1"",""1989""
","
","
","""event"",""trial"",""time""
""fullscreenenter"",""1"",""1989""
","
","","","584.0999999996275","","","15","11316","4172","&#9776;","elianto","#3366ff99"," "," ","1","+10","[1434.0999999996275]","1","0","1","","","","","","","",""
"pit-trial","30","338723","0.0-2.0-8.2-0.2","battery-v0.2","","""event"",""trial"",""time""
""fullscreenenter"",""1"",""1989""
","
","
","""event"",""trial"",""time""
""fullscreenenter"",""1"",""1989""
","
","","","356","","","15","11316","4172","&#9776;","elianto","#3366ff99"," "," ","1","+10","[1206.2000000011176]","1","0","1","","","","","","","",""
"pit-trial","31","341971","0.0-2.0-8.2-1.2","battery-v0.2","","""event"",""trial"",""time""
""fullscreenenter"",""1"",""1989""
","
","
","""event"",""trial"",""time""
""fullscreenenter"",""1"",""1989""
","
","","","392.90000000037253","","","15","11316","4172","&#9776;","elianto","#3366ff99"," "," ","1","+10","[1243.0999999996275]","1","0","1","","","","","","","",""
"pit-trial","32","345061","0.0-2.0-8.2-2.2","battery-v0.2","","""event"",""trial"",""time""
""fullscreenenter"",""1"",""1989""
","
","
","""event"",""trial"",""time""
""fullscreenenter"",""1"",""1989""
","
","","","233.89999999850988","","","15","11316","4172","&#9776;","elianto","#3366ff99"," "," ","1","+10","[1084.0999999996275]","1","0","1","","","","","","","",""
"pit-trial","33","348329","0.0-2.0-8.2-3.2","battery-v0.2","","""event"",""trial"",""time""
""fullscreenenter"",""1"",""1989""
","
","
","""event"",""trial"",""time""
""fullscreenenter"",""1"",""1989""
","
","","","413.80000000074506","","","15","11316","4172","&#9776;","elianto","#3366ff99"," "," ","1","0","[1263.9000000003725]","1","0","1","","","","","","","",""
"pit-trial","34","351354","0.0-2.0-8.2-4.2","battery-v0.2","","""event"",""trial"",""time""
""fullscreenenter"",""1"",""1989""
","
","
","""event"",""trial"",""time""
""fullscreenenter"",""1"",""1989""
","
","","","169.90000000037253","","","15","11316","4172","&#9776;","elianto","#3366ff99"," "," ","1","+10","[1020.1000000014901]","1","0","1","","","","","","","",""
"call-function","35","351356","0.0-2.0-9.0","battery-v0.2","","""event"",""trial"",""time""
""fullscreenenter"",""1"",""1989""
","
","
","""event"",""trial"",""time""
""fullscreenenter"",""1"",""1989""
","
","","","","","","","","","","","","","","","","","","","","","","","","","","",""
"pit-instructions","36","398545","0.0-2.0-10.0","battery-v0.2","","""event"",""trial"",""time""
""fullscreenenter"",""1"",""1989""
","
","
","""event"",""trial"",""time""
""fullscreenenter"",""1"",""1989""
","
","","[{""page_index"":0,""viewing_time"":10384.699999999255},{""page_index"":1,""viewing_time"":7357.200000001118},{""page_index"":2,""viewing_time"":10364.099999999627},{""page_index"":3,""viewing_time"":10408.699999999255},{""page_index"":4,""viewing_time"":8672.900000000373}]","47188.90000000037","","","","","","","","","","","","","","","","","","","","","","","",""
"pit-trial","37","401881","0.0-2.0-11.0-0.0","battery-v0.2","","""event"",""trial"",""time""
""fullscreenenter"",""1"",""1989""
","
","
","""event"",""trial"",""time""
""fullscreenenter"",""1"",""1989""
","
","","","482.09999999962747","","","15","11316","4172","&#9761;","elianto","#3366ff99","-1"," ","0","0","[1332.2999999988824]","1","0","2","","","","","","","",""
"pit-trial","38","406733","0.0-2.0-11.0-1.0","battery-v0.2","","""event"",""trial"",""time""
""fullscreenenter"",""1"",""1989""
","
","
","""event"",""trial"",""time""
""fullscreenenter"",""1"",""1989""
","
","","","-1","","","15","11316","4172","&#9761;","elianto","#3366ff99","-1","-1","1","+10","[]","0","0","2","","","","","","","",""
"pit-trial","39","411586","0.0-2.0-11.0-2.0","battery-v0.2","","""event"",""trial"",""time""
""fullscreenenter"",""1"",""1989""
","
","
","""event"",""trial"",""time""
""fullscreenenter"",""1"",""1989""
","
","","","-1","","","15","11316","4172","&#9761;","elianto","#3366ff99","-1","-1","1","+10","[]","0","0","2","","","","","","","",""
"pit-trial","40","416439","0.0-2.0-11.0-3.0","battery-v0.2","","""event"",""trial"",""time""
""fullscreenenter"",""1"",""1989""
","
","
","""event"",""trial"",""time""
""fullscreenenter"",""1"",""1989""
","
","","","-1","","","15","11316","4172","&#9761;","elianto","#3366ff99","-1","-1","1","0","[]","0","0","2","","","","","","","",""
"pit-trial","41","421292","0.0-2.0-11.0-4.0","battery-v0.2","","""event"",""trial"",""time""
""fullscreenenter"",""1"",""1989""
","
","
","""event"",""trial"",""time""
""fullscreenenter"",""1"",""1989""
","
","","","-1","","","15","11316","4172","&#9761;","elianto","#3366ff99","-1","-1","1","+10","[]","0","0","2","","","","","","","",""
"pit-trial","42","426147","0.0-2.0-11.1-0.1","battery-v0.2","","""event"",""trial"",""time""
""fullscreenenter"",""1"",""1989""
","
","
","""event"",""trial"",""time""
""fullscreenenter"",""1"",""1989""
","
","","","-1","","","15","11316","4172","&#9761;","elianto","#3366ff99","-1","-1","1","+10","[]","0","0","2","","","","","","","",""
"pit-trial","43","430999","0.0-2.0-11.1-1.1","battery-v0.2","","""event"",""trial"",""time""
""fullscreenenter"",""1"",""1989""
","
","
","""event"",""trial"",""time""
""fullscreenenter"",""1"",""1989""
","
","","","-1","","","15","11316","4172","&#9761;","elianto","#3366ff99","-1","-1","1","+10","[]","0","0","2","","","","","","","",""
"pit-trial","44","435854","0.0-2.0-11.1-2.1","battery-v0.2","","""event"",""trial"",""time""
""fullscreenenter"",""1"",""1989""
","
","
","""event"",""trial"",""time""
""fullscreenenter"",""1"",""1989""
","
","","","-1","","","15","11316","4172","&#9761;","elianto","#3366ff99","-1","-1","1","+10","[]","0","0","2","","","","","","","",""
"pit-trial","45","440709","0.0-2.0-11.1-3.1","battery-v0.2","","""event"",""trial"",""time""
""fullscreenenter"",""1"",""1989""
","
","
","""event"",""trial"",""time""
""fullscreenenter"",""1"",""1989""
","
","","","-1","","","15","11316","4172","&#9761;","elianto","#3366ff99","-1","-1","1","0","[]","0","0","2","","","","","","","",""
"pit-trial","46","445564","0.0-2.0-11.1-4.1","battery-v0.2","","""event"",""trial"",""time""
""fullscreenenter"",""1"",""1989""
","
","
","""event"",""trial"",""time""
""fullscreenenter"",""1"",""1989""
","
","","","-1","","","15","11316","4172","&#9761;","elianto","#3366ff99","-1","-1","1","+10","[]","0","0","2","","","","","","","",""
"pit-trial","47","450418","0.0-2.0-11.2-0.2","battery-v0.2","","""event"",""trial"",""time""
""fullscreenenter"",""1"",""1989""
","
","
","""event"",""trial"",""time""
""fullscreenenter"",""1"",""1989""
","
","","","-1","","","15","11316","4172","&#9761;","elianto","#3366ff99","-1","-1","1","+10","[]","0","0","2","","","","","","","",""
"pit-trial","48","455273","0.0-2.0-11.2-1.2","battery-v0.2","","""event"",""trial"",""time""
""fullscreenenter"",""1"",""1989""
","
","
","""event"",""trial"",""time""
""fullscreenenter"",""1"",""1989""
","
","","","-1","","","15","11316","4172","&#9761;","elianto","#3366ff99","-1","-1","1","+10","[]","0","0","2","","","","","","","",""
"pit-trial","49","460128","0.0-2.0-11.2-2.2","battery-v0.2","","""event"",""trial"",""time""
""fullscreenenter"",""1"",""1989""
","
","
","""event"",""trial"",""time""
""fullscreenenter"",""1"",""1989""
","
","","","-1","","","15","11316","4172","&#9761;","elianto","#3366ff99","-1","-1","1","+10","[]","0","0","2","","","","","","","",""
"pit-trial","50","464984","0.0-2.0-11.2-3.2","battery-v0.2","","""event"",""trial"",""time""
""fullscreenenter"",""1"",""1989""
","
","
","""event"",""trial"",""time""
""fullscreenenter"",""1"",""1989""
","
","","","-1","","","15","11316","4172","&#9761;","elianto","#3366ff99","-1","-1","1","0","[]","0","0","2","","","","","","","",""
"pit-trial","51","469838","0.0-2.0-11.2-4.2","battery-v0.2","","""event"",""trial"",""time""
""fullscreenenter"",""1"",""1989""
","
","
","""event"",""trial"",""time""
""fullscreenenter"",""1"",""1989""
","
","","","-1","","","15","11316","4172","&#9761;","elianto","#3366ff99","-1","-1","1","+10","[]","0","0","2","","","","","","","",""
"pit-trial","52","474694","0.0-2.0-11.3-0.3","battery-v0.2","","""event"",""trial"",""time""
""fullscreenenter"",""1"",""1989""
","
","
","""event"",""trial"",""time""
""fullscreenenter"",""1"",""1989""
","
","","","-1","","","15","11316","4172","&#9761;","elianto","#3366ff99","-1","-1","1","+10","[]","0","0","2","","","","","","","",""
"pit-trial","53","479548","0.0-2.0-11.3-1.3","battery-v0.2","","""event"",""trial"",""time""
""fullscreenenter"",""1"",""1989""
","
","
","""event"",""trial"",""time""
""fullscreenenter"",""1"",""1989""
","
","","","-1","","","15","11316","4172","&#9761;","elianto","#3366ff99","-1","-1","1","+10","[]","0","0","2","","","","","","","",""
"pit-trial","54","484404","0.0-2.0-11.3-2.3","battery-v0.2","","""event"",""trial"",""time""
""fullscreenenter"",""1"",""1989""
","
","
","""event"",""trial"",""time""
""fullscreenenter"",""1"",""1989""
","
","","","-1","","","15","11316","4172","&#9761;","elianto","#3366ff99","-1","-1","1","+10","[]","0","0","2","","","","","","","",""
"pit-trial","55","489260","0.0-2.0-11.3-3.3","battery-v0.2","","""event"",""trial"",""time""
""fullscreenenter"",""1"",""1989""
","
","
","""event"",""trial"",""time""
""fullscreenenter"",""1"",""1989""
","
","","","-1","","","15","11316","4172","&#9761;","elianto","#3366ff99","-1","-1","1","0","[]","0","0","2","","","","","","","",""
"pit-trial","56","494115","0.0-2.0-11.3-4.3","battery-v0.2","","""event"",""trial"",""time""
""fullscreenenter"",""1"",""1989""
","
","
","""event"",""trial"",""time""
""fullscreenenter"",""1"",""1989""
","
","","","-1","","","15","11316","4172","&#9761;","elianto","#3366ff99","-1","-1","1","+10","[]","0","0","2","","","","","","","",""
"call-function","57","494117","0.0-2.0-12.0","battery-v0.2","","""event"",""trial"",""time""
""fullscreenenter"",""1"",""1989""
","
","
","""event"",""trial"",""time""
""fullscreenenter"",""1"",""1989""
","
","","","","","","","","","","","","","","","","","","","","","","","","","","",""
"pit-instructions","58","531729","0.0-2.0-13.0","battery-v0.2","","""event"",""trial"",""time""
""fullscreenenter"",""1"",""1989""
","
","
","""event"",""trial"",""time""
""fullscreenenter"",""1"",""1989""
","
","","[{""page_index"":0,""viewing_time"":8757.900000000373},{""page_index"":1,""viewing_time"":7774.5},{""page_index"":2,""viewing_time"":3924.9000000003725},{""page_index"":3,""viewing_time"":11012.400000000373},{""page_index"":4,""viewing_time"":6141.4000000003725}]","37611.5","","","","","","","","","","","","","","","","","","","","","","","",""
"pit-trial","59","535149","0.0-2.0-14.0-0.0","battery-v0.2","","""event"",""trial"",""time""
""fullscreenenter"",""1"",""1989""
","
","
","""event"",""trial"",""time""
""fullscreenenter"",""1"",""1989""
","
","","","567.0999999996275","","","15","11316","4172","&#9826;","elianto","#f73b6a7A","-1"," ","0","-10","[1417.2000000011176]","1","0","3","","","","","","","",""
"pit-trial","60","540002","0.0-2.0-14.0-1.0","battery-v0.2","","""event"",""trial"",""time""
""fullscreenenter"",""1"",""1989""
","
","
","""event"",""trial"",""time""
""fullscreenenter"",""1"",""1989""
","
","","","-1","","","15","11316","4172","&#9826;","elianto","#f73b6a7A","-1","-1","1","0","[]","0","0","3","","","","","","","",""
"pit-trial","61","544855","0.0-2.0-14.0-2.0","battery-v0.2","","""event"",""trial"",""time""
""fullscreenenter"",""1"",""1989""
","
","
","""event"",""trial"",""time""
""fullscreenenter"",""1"",""1989""
","
","","","-1","","","15","11316","4172","&#9826;","elianto","#f73b6a7A","-1","-1","1","0","[]","0","0","3","","","","","","","",""
"pit-trial","62","549708","0.0-2.0-14.0-3.0","battery-v0.2","","""event"",""trial"",""time""
""fullscreenenter"",""1"",""1989""
","
","
","""event"",""trial"",""time""
""fullscreenenter"",""1"",""1989""
","
","","","-1","","","15","11316","4172","&#9826;","elianto","#f73b6a7A","-1","-1","1","-10","[]","0","0","3","","","","","","","",""
"pit-trial","63","554561","0.0-2.0-14.0-4.0","battery-v0.2","","""event"",""trial"",""time""
""fullscreenenter"",""1"",""1989""
","
","
","""event"",""trial"",""time""
""fullscreenenter"",""1"",""1989""
","
","","","-1","","","15","11316","4172","&#9826;","elianto","#f73b6a7A","-1","-1","1","0","[]","0","0","3","","","","","","","",""
"pit-trial","64","559415","0.0-2.0-14.1-0.1","battery-v0.2","","""event"",""trial"",""time""
""fullscreenenter"",""1"",""1989""
","
","
","""event"",""trial"",""time""
""fullscreenenter"",""1"",""1989""
","
","","","-1","","","15","11316","4172","&#9826;","elianto","#f73b6a7A","-1","-1","1","0","[]","0","0","3","","","","","","","",""
"pit-trial","65","564269","0.0-2.0-14.1-1.1","battery-v0.2","","""event"",""trial"",""time""
""fullscreenenter"",""1"",""1989""
","
","
","""event"",""trial"",""time""
""fullscreenenter"",""1"",""1989""
","
","","","-1","","","15","11316","4172","&#9826;","elianto","#f73b6a7A","-1","-1","1","0","[]","0","0","3","","","","","","","",""
"pit-trial","66","568300","0.0-2.0-14.1-2.1","battery-v0.2","","""event"",""trial"",""time""
""fullscreenenter"",""1"",""1989""
","
","
","""event"",""trial"",""time""
""fullscreenenter"",""1"",""1989""
","
","","","1175.4000000003725","","","15","11316","4172","&#9826;","elianto","#f73b6a7A","-1"," ","0","-10","[2025.7000000011176]","1","0","3","","","","","","","",""
"pit-trial","67","573156","0.0-2.0-14.1-3.1","battery-v0.2","","""event"",""trial"",""time""
""fullscreenenter"",""1"",""1989""
","
","
","""event"",""trial"",""time""
""fullscreenenter"",""1"",""1989""
","
","","","-1","","","15","11316","4172","&#9826;","elianto","#f73b6a7A","-1","-1","1","-10","[]","0","0","3","","","","","","","",""
"pit-trial","68","578011","0.0-2.0-14.1-4.1","battery-v0.2","","""event"",""trial"",""time""
""fullscreenenter"",""1"",""1989""
","
","
","""event"",""trial"",""time""
""fullscreenenter"",""1"",""1989""
","
","","","-1","","","15","11316","4172","&#9826;","elianto","#f73b6a7A","-1","-1","1","0","[]","0","0","3","","","","","","","",""
"pit-trial","69","582865","0.0-2.0-14.2-0.2","battery-v0.2","","""event"",""trial"",""time""
""fullscreenenter"",""1"",""1989""
","
","
","""event"",""trial"",""time""
""fullscreenenter"",""1"",""1989""
","
","","","-1","","","15","11316","4172","&#9826;","elianto","#f73b6a7A","-1","-1","1","0","[]","0","0","3","","","","","","","",""
"pit-trial","70","587718","0.0-2.0-14.2-1.2","battery-v0.2","","""event"",""trial"",""time""
""fullscreenenter"",""1"",""1989""
","
","
","""event"",""trial"",""time""
""fullscreenenter"",""1"",""1989""
","
","","","-1","","","15","11316","4172","&#9826;","elianto","#f73b6a7A","-1","-1","1","0","[]","0","0","3","","","","","","","",""
"pit-trial","71","592571","0.0-2.0-14.2-2.2","battery-v0.2","","""event"",""trial"",""time""
""fullscreenenter"",""1"",""1989""
","
","
","""event"",""trial"",""time""
""fullscreenenter"",""1"",""1989""
","
","","","-1","","","15","11316","4172","&#9826;","elianto","#f73b6a7A","-1","-1","1","0","[]","0","0","3","","","","","","","",""
"pit-trial","72","597425","0.0-2.0-14.2-3.2","battery-v0.2","","""event"",""trial"",""time""
""fullscreenenter"",""1"",""1989""
","
","
","""event"",""trial"",""time""
""fullscreenenter"",""1"",""1989""
","
","","","-1","","","15","11316","4172","&#9826;","elianto","#f73b6a7A","-1","-1","1","-10","[]","0","0","3","","","","","","","",""
"pit-trial","73","602280","0.0-2.0-14.2-4.2","battery-v0.2","","""event"",""trial"",""time""
""fullscreenenter"",""1"",""1989""
","
","
","""event"",""trial"",""time""
""fullscreenenter"",""1"",""1989""
","
","","","-1","","","15","11316","4172","&#9826;","elianto","#f73b6a7A","-1","-1","1","0","[]","0","0","3","","","","","","","",""
"pit-trial","74","607135","0.0-2.0-14.3-0.3","battery-v0.2","","""event"",""trial"",""time""
""fullscreenenter"",""1"",""1989""
","
","
","""event"",""trial"",""time""
""fullscreenenter"",""1"",""1989""
","
","","","-1","","","15","11316","4172","&#9826;","elianto","#f73b6a7A","-1","-1","1","0","[]","0","0","3","","","","","","","",""
"pit-trial","75","611990","0.0-2.0-14.3-1.3","battery-v0.2","","""event"",""trial"",""time""
""fullscreenenter"",""1"",""1989""
","
","
","""event"",""trial"",""time""
""fullscreenenter"",""1"",""1989""
","
","","","-1","","","15","11316","4172","&#9826;","elianto","#f73b6a7A","-1","-1","1","0","[]","0","0","3","","","","","","","",""
"pit-trial","76","616846","0.0-2.0-14.3-2.3","battery-v0.2","","""event"",""trial"",""time""
""fullscreenenter"",""1"",""1989""
","
","
","""event"",""trial"",""time""
""fullscreenenter"",""1"",""1989""
","
","","","-1","","","15","11316","4172","&#9826;","elianto","#f73b6a7A","-1","-1","1","0","[]","0","0","3","","","","","","","",""
"pit-trial","77","621701","0.0-2.0-14.3-3.3","battery-v0.2","","""event"",""trial"",""time""
""fullscreenenter"",""1"",""1989""
","
","
","""event"",""trial"",""time""
""fullscreenenter"",""1"",""1989""
","
","","","-1","","","15","11316","4172","&#9826;","elianto","#f73b6a7A","-1","-1","1","-10","[]","0","0","3","","","","","","","",""
"pit-trial","78","626556","0.0-2.0-14.3-4.3","battery-v0.2","","""event"",""trial"",""time""
""fullscreenenter"",""1"",""1989""
","
","
","""event"",""trial"",""time""
""fullscreenenter"",""1"",""1989""
","
","","","-1","","","15","11316","4172","&#9826;","elianto","#f73b6a7A","-1","-1","1","0","[]","0","0","3","","","","","","","",""
"call-function","79","626561","0.0-2.0-15.0","battery-v0.2","","""event"",""trial"",""time""
""fullscreenenter"",""1"",""1989""
","
","
","""event"",""trial"",""time""
""fullscreenenter"",""1"",""1989""
","
","","","","","","","","","","","","","","","","","","","","","","","","","","",""
"pit-instructions","80","654576","0.0-2.0-16.0","battery-v0.2","","""event"",""trial"",""time""
""fullscreenenter"",""1"",""1989""
","
","
","""event"",""trial"",""time""
""fullscreenenter"",""1"",""1989""
","
","","[{""page_index"":0,""viewing_time"":8575.400000000373},{""page_index"":1,""viewing_time"":8735.5},{""page_index"":2,""viewing_time"":5326.699999999255},{""page_index"":3,""viewing_time"":5375.199999999255}]","28013.199999999255","","","","","","","","","","","","","","","","","","","","","","","",""
"pit-trial","81","657819","0.0-2.0-17.0-0.0","battery-v0.2","","""event"",""trial"",""time""
""fullscreenenter"",""1"",""1989""
","
","
","""event"",""trial"",""time""
""fullscreenenter"",""1"",""1989""
","
","","","389.90000000037253","","","15","11316","4172","&#9789;","elianto","#f73b6a7A"," "," ","1","0","[1240.1000000014901]","1","0","4","","","","","","","",""
"pit-trial","82","660715","0.0-2.0-17.0-1.0","battery-v0.2","","""event"",""trial"",""time""
""fullscreenenter"",""1"",""1989""
","
","
","""event"",""trial"",""time""
""fullscreenenter"",""1"",""1989""
","
","","","42.80000000074506","","","15","11316","4172","&#9789;","elianto","#f73b6a7A"," "," ","1","0","[893]","1","0","4","","","","","","","",""
"pit-trial","83","663624","0.0-2.0-17.0-2.0","battery-v0.2","","""event"",""trial"",""time""
""fullscreenenter"",""1"",""1989""
","
","
","""event"",""trial"",""time""
""fullscreenenter"",""1"",""1989""
","
","","","56.59999999962747","","","15","11316","4172","&#9789;","elianto","#f73b6a7A"," "," ","1","0","[906.7000000011176]","1","0","4","","","","","","","",""
"pit-trial","84","666600","0.0-2.0-17.0-3.0","battery-v0.2","","""event"",""trial"",""time""
""fullscreenenter"",""1"",""1989""
","
","
","""event"",""trial"",""time""
""fullscreenenter"",""1"",""1989""
","
","","","123.09999999962747","","","15","11316","4172","&#9789;","elianto","#f73b6a7A"," "," ","1","-10","[973.1999999992549]","1","0","4","","","","","","","",""
"pit-trial","85","669603","0.0-2.0-17.0-4.0","battery-v0.2","","""event"",""trial"",""time""
""fullscreenenter"",""1"",""1989""
","
","
","""event"",""trial"",""time""
""fullscreenenter"",""1"",""1989""
","
","","","149","","","15","11316","4172","&#9789;","elianto","#f73b6a7A"," "," ","1","0","[999.0999999996275]","1","0","4","","","","","","","",""
"pit-trial","86","672626","0.0-2.0-17.1-0.1","battery-v0.2","","""event"",""trial"",""time""
""fullscreenenter"",""1"",""1989""
","
","
","""event"",""trial"",""time""
""fullscreenenter"",""1"",""1989""
","
","","","169.69999999925494","","","15","11316","4172","&#9789;","elianto","#f73b6a7A"," "," ","1","0","[1019.7999999988824]","1","0","4","","","","","","","",""
"pit-trial","87","675588","0.0-2.0-17.1-1.1","battery-v0.2","","""event"",""trial"",""time""
""fullscreenenter"",""1"",""1989""
","
","
","""event"",""trial"",""time""
""fullscreenenter"",""1"",""1989""
","
","","","108.80000000074506","","","15","11316","4172","&#9789;","elianto","#f73b6a7A"," "," ","1","0","[959.0999999996275]","1","0","4","","","","","","","",""
"pit-trial","88","678522","0.0-2.0-17.1-2.1","battery-v0.2","","""event"",""trial"",""time""
""fullscreenenter"",""1"",""1989""
","
","
","""event"",""trial"",""time""
""fullscreenenter"",""1"",""1989""
","
","","","81.59999999962747","","","15","11316","4172","&#9789;","elianto","#f73b6a7A"," "," ","1","0","[931.9000000003725]","1","0","4","","","","","","","",""
"pit-trial","89","681471","0.0-2.0-17.1-3.1","battery-v0.2","","""event"",""trial"",""time""
""fullscreenenter"",""1"",""1989""
","
","
","""event"",""trial"",""time""
""fullscreenenter"",""1"",""1989""
","
","","","95.70000000111759","","","15","11316","4172","&#9789;","elianto","#f73b6a7A"," "," ","1","-10","[946]","1","0","4","","","","","","","",""
"pit-trial","90","684463","0.0-2.0-17.1-4.1","battery-v0.2","","""event"",""trial"",""time""
""fullscreenenter"",""1"",""1989""
","
","
","""event"",""trial"",""time""
""fullscreenenter"",""1"",""1989""
","
","","","138.59999999962747","","","15","11316","4172","&#9789;","elianto","#f73b6a7A"," "," ","1","0","[989.2999999988824]","1","0","4","","","","","","","",""
"pit-trial","91","687432","0.0-2.0-17.2-0.2","battery-v0.2","","""event"",""trial"",""time""
""fullscreenenter"",""1"",""1989""
","
","
","""event"",""trial"",""time""
""fullscreenenter"",""1"",""1989""
","
","","","111.09999999962747","","","15","11316","4172","&#9789;","elianto","#f73b6a7A"," "," ","1","0","[961.5999999996275]","1","0","4","","","","","","","",""
"pit-trial","92","690429","0.0-2.0-17.2-1.2","battery-v0.2","","""event"",""trial"",""time""
""fullscreenenter"",""1"",""1989""
","
","
","""event"",""trial"",""time""
""fullscreenenter"",""1"",""1989""
","
","","","142.5","","","15","11316","4172","&#9789;","elianto","#f73b6a7A"," "," ","1","0","[992.7000000011176]","1","0","4","","","","","","","",""
"pit-trial","93","693430","0.0-2.0-17.2-2.2","battery-v0.2","","""event"",""trial"",""time""
""fullscreenenter"",""1"",""1989""
","
","
","""event"",""trial"",""time""
""fullscreenenter"",""1"",""1989""
","
","","","142.19999999925494","","","15","11316","4172","&#9789;","elianto","#f73b6a7A"," "," ","1","0","[995.2999999988824]","1","0","4","","","","","","","",""
"pit-trial","94","698285","0.0-2.0-17.2-3.2","battery-v0.2","","""event"",""trial"",""time""
""fullscreenenter"",""1"",""1989""
","
","
","""event"",""trial"",""time""
""fullscreenenter"",""1"",""1989""
","
","","","-1","","","15","11316","4172","&#9789;","elianto","#f73b6a7A"," ","-1","0","0","[]","0","0","4","","","","","","","",""
"pit-trial","95","701271","0.0-2.0-17.2-4.2","battery-v0.2","","""event"",""trial"",""time""
""fullscreenenter"",""1"",""1989""
","
","
","""event"",""trial"",""time""
""fullscreenenter"",""1"",""1989""
","
","","","130.19999999925494","","","15","11316","4172","&#9789;","elianto","#f73b6a7A"," "," ","1","0","[980.4000000003725]","1","0","4","","","","","","","",""
"pit-trial","96","704294","0.0-2.0-17.3-0.3","battery-v0.2","","""event"",""trial"",""time""
""fullscreenenter"",""1"",""1989""
","
","
","""event"",""trial"",""time""
""fullscreenenter"",""1"",""1989""
","
","","","165.90000000037253","","","15","11316","4172","&#9789;","elianto","#f73b6a7A"," "," ","1","0","[1016]","1","0","4","","","","","","","",""
"pit-trial","97","707310","0.0-2.0-17.3-1.3","battery-v0.2","","""event"",""trial"",""time""
""fullscreenenter"",""1"",""1989""
","
","
","""event"",""trial"",""time""
""fullscreenenter"",""1"",""1989""
","
","","","160.69999999925494","","","15","11316","4172","&#9789;","elianto","#f73b6a7A"," "," ","1","0","[1010]","1","0","4","","","","","","","",""
"pit-trial","98","710393","0.0-2.0-17.3-2.3","battery-v0.2","","""event"",""trial"",""time""
""fullscreenenter"",""1"",""1989""
","
","
","""event"",""trial"",""time""
""fullscreenenter"",""1"",""1989""
","
","","","228.40000000037253","","","15","11316","4172","&#9789;","elianto","#f73b6a7A"," "," ","1","0","[1078.5999999996275]","1","0","4","","","","","","","",""
"pit-trial","99","715248","0.0-2.0-17.3-3.3","battery-v0.2","","""event"",""trial"",""time""
""fullscreenenter"",""1"",""1989""
","
","
","""event"",""trial"",""time""
""fullscreenenter"",""1"",""1989""
","
","","","-1","","","15","11316","4172","&#9789;","elianto","#f73b6a7A"," ","-1","0","0","[]","0","0","4","","","","","","","",""
"pit-trial","100","718279","0.0-2.0-17.3-4.3","battery-v0.2","","""event"",""trial"",""time""
""fullscreenenter"",""1"",""1989""
","
","
","""event"",""trial"",""time""
""fullscreenenter"",""1"",""1989""
","
","","","176.69999999925494","","","15","11316","4172","&#9789;","elianto","#f73b6a7A"," "," ","1","0","[1026.9000000003725]","1","0","4","","","","","","","",""
"call-function","101","718283","0.0-2.0-18.0","battery-v0.2","","""event"",""trial"",""time""
""fullscreenenter"",""1"",""1989""
","
","
","""event"",""trial"",""time""
""fullscreenenter"",""1"",""1989""
","
","","","","","","","","","","","","","","","","","","","","","","","","","","",""
"pit-instructions","102","791116","0.0-2.0-19.0","battery-v0.2","","""event"",""trial"",""time""
""fullscreenenter"",""1"",""1989""
","
","
","""event"",""trial"",""time""
""fullscreenenter"",""1"",""1989""
","
","","[{""page_index"":0,""viewing_time"":6738.60000000149},{""page_index"":1,""viewing_time"":5704.5999999996275},{""page_index"":2,""viewing_time"":13665.299999998882},{""page_index"":3,""viewing_time"":7714.9000000003725},{""page_index"":4,""viewing_time"":9955.599999999627},{""page_index"":5,""viewing_time"":8778},{""page_index"":6,""viewing_time"":8916.300000000745},{""page_index"":7,""viewing_time"":7353.300000000745},{""page_index"":8,""viewing_time"":4003.5}]","72830.5","","","","","","","","","","","","","","","","","","","","","","","",""
"pit-comprehension","103","795634","0.0-2.0-20.0-0.0","battery-v0.2","","""event"",""trial"",""time""
""fullscreenenter"",""1"",""1989""
","
","
","""event"",""trial"",""time""
""fullscreenenter"",""1"",""1989""
","
","","","4513.299999998882","[""SPACE""]","0","15","11316","4172","","","","","","","","","","","","","","","","","","",""
"pit-instructions","104","798416","0.0-2.0-20.0-1.0","battery-v0.2","","""event"",""trial"",""time""
""fullscreenenter"",""1"",""1989""
","
","
","""event"",""trial"",""time""
""fullscreenenter"",""1"",""1989""
","
","","[{""page_index"":0,""viewing_time"":2744.300000000745}]","2745.300000000745","","","","","","","","","","","","","","","","","","","","","","","",""
"pit-comprehension","105","805788","0.0-2.0-21.0-0.0","battery-v0.2","","""event"",""trial"",""time""
""fullscreenenter"",""1"",""1989""
","
","
","""event"",""trial"",""time""
""fullscreenenter"",""1"",""1989""
","
","","","7365.699999999255","[""10""]","0","15","11316","4172","","","","","","","","","","","","","","","","","","",""
"pit-instructions","106","809812","0.0-2.0-21.0-1.0","battery-v0.2","","""event"",""trial"",""time""
""fullscreenenter"",""1"",""1989""
","
","
","""event"",""trial"",""time""
""fullscreenenter"",""1"",""1989""
","
","","[{""page_index"":0,""viewing_time"":3986.199999999255}]","3986.699999999255","","","","","","","","","","","","","","","","","","","","","","","",""
"pit-comprehension","107","817369","0.0-2.0-22.0-0.0","battery-v0.2","","""event"",""trial"",""time""
""fullscreenenter"",""1"",""1989""
","
","
","""event"",""trial"",""time""
""fullscreenenter"",""1"",""1989""
","
","","","7551.5999999996275","[""0""]","0","15","11316","4172","","","","","","","","","","","","","","","","","","",""
"pit-instructions","108","819905","0.0-2.0-22.0-1.0","battery-v0.2","","""event"",""trial"",""time""
""fullscreenenter"",""1"",""1989""
","
","
","""event"",""trial"",""time""
""fullscreenenter"",""1"",""1989""
","
","","[{""page_index"":0,""viewing_time"":2489.5999999996275}]","2490","","","","","","","","","","","","","","","","","","","","","","","",""
"pit-comprehension","109","828610","0.0-2.0-23.0-0.0","battery-v0.2","","""event"",""trial"",""time""
""fullscreenenter"",""1"",""1989""
","
","
","""event"",""trial"",""time""
""fullscreenenter"",""1"",""1989""
","
","","","8698.700000001118","[""True""]","0","15","11316","4172","","","","","","","","","","","","","","","","","","",""
"pit-instructions","110","830546","0.0-2.0-23.0-1.0","battery-v0.2","","""event"",""trial"",""time""
""fullscreenenter"",""1"",""1989""
","
","
","""event"",""trial"",""time""
""fullscreenenter"",""1"",""1989""
","
","","[{""page_index"":0,""viewing_time"":1898.5}]","1898.800000000745","","","","","","","","","","","","","","","","","","","","","","","",""
"pit-comprehension","111","838186","0.0-2.0-24.0-0.0","battery-v0.2","","""event"",""trial"",""time""
""fullscreenenter"",""1"",""1989""
","
","
","""event"",""trial"",""time""
""fullscreenenter"",""1"",""1989""
","
","","","7635.199999999255","[""True""]","0","15","11316","4172","","","","","","","","","","","","","","","","","","",""
"pit-instructions","112","842172","0.0-2.0-24.0-1.0","battery-v0.2","","""event"",""trial"",""time""
""fullscreenenter"",""1"",""1989""
","
","
","""event"",""trial"",""time""
""fullscreenenter"",""1"",""1989""
","
","","[{""page_index"":0,""viewing_time"":3946.4000000003725}]","3946.7999999988824","","","","","","","","","","","","","","","","","","","","","","","",""
"pit-comprehension","113","849085","0.0-2.0-25.0-0.0","battery-v0.2","","""event"",""trial"",""time""
""fullscreenenter"",""1"",""1989""
","
","
","""event"",""trial"",""time""
""fullscreenenter"",""1"",""1989""
","
","","","6907.699999999255","[""True""]","0","15","11316","4172","","","","","","","","","","","","","","","","","","",""
"pit-instructions","114","851341","0.0-2.0-25.0-1.0","battery-v0.2","","""event"",""trial"",""time""
""fullscreenenter"",""1"",""1989""
","
","
","""event"",""trial"",""time""
""fullscreenenter"",""1"",""1989""
","
","","[{""page_index"":0,""viewing_time"":2214.7999999988824}]","2215.5999999996275","","","","","","","","","","","","","","","","","","","","","","","",""
"pit-comprehension","115","856305","0.0-2.0-26.0-0.0","battery-v0.2","","""event"",""trial"",""time""
""fullscreenenter"",""1"",""1989""
","
","
","""event"",""trial"",""time""
""fullscreenenter"",""1"",""1989""
","
","","","4957","[""False""]","0","15","11316","4172","","","","","","","","","","","","","","","","","","",""
"pit-instructions","116","857866","0.0-2.0-26.0-1.0","battery-v0.2","","""event"",""trial"",""time""
""fullscreenenter"",""1"",""1989""
","
","
","""event"",""trial"",""time""
""fullscreenenter"",""1"",""1989""
","
","","[{""page_index"":0,""viewing_time"":1521.0999999996275}]","1521.5999999996275","","","","","","","","","","","","","","","","","","","","","","","",""
"pit-instructions","117","949575","0.0-3.0","battery-v0.2","","""event"",""trial"",""time""
""fullscreenenter"",""1"",""1989""
","
","
","""event"",""trial"",""time""
""fullscreenenter"",""1"",""1989""
","
","","[{""page_index"":0,""viewing_time"":4177.5999999996275},{""page_index"":1,""viewing_time"":77100.40000000037},{""page_index"":2,""viewing_time"":10427.5}]","91706","","","","","","","","","","","","","","","","","","","","","","","",""
"pit-trial","118","953172","0.0-4.0","battery-v0.2","","""event"",""trial"",""time""
""fullscreenenter"",""1"",""1989""
","
","
","""event"",""trial"",""time""
""fullscreenenter"",""1"",""1989""
","
","","","739.8000000007451","","","15","11316","4172","&#9752;","elianto","#f73b6a7A"," "," ","1","0","[1589.800000000745]","1","1","","","11316","1","3","3","lose","go","0"
"pit-trial","119","956844","0.0-5.0","battery-v0.2","","""event"",""trial"",""time""
""fullscreenenter"",""1"",""1989""
","
","
","""event"",""trial"",""time""
""fullscreenenter"",""1"",""1989""
","
","","","818","","","15","11316","4172","&#9733;","elianto","#3366ff99","-1"," ","0","0","[1668.0999999996275]","1","1","","","11316","2","2","2","win","no-go","0"
"pit-trial","120","960550","0.0-6.0","battery-v0.2","","""event"",""trial"",""time""
""fullscreenenter"",""1"",""1989""
","
","
","""event"",""trial"",""time""
""fullscreenenter"",""1"",""1989""
","
","","","852.5","","","15","11316","4172","&#9730;","elianto","#3366ff99"," "," ","1","+10","[1702.5]","1","1","","","11316","3","1","1","win","go","0"
"pit-trial","121","964387","0.0-7.0","battery-v0.2","","""event"",""trial"",""time""
""fullscreenenter"",""1"",""1989""
","
","
","""event"",""trial"",""time""
""fullscreenenter"",""1"",""1989""
","
","","","984.7999999988824","","","15","11316","4172","&#9728;","elianto","#f73b6a7A","-1"," ","0","-10","[1834.9000000003725]","1","1","","","11316","4","0","4","lose","no-go","0"
"pit-trial","122","968379","0.0-8.0","battery-v0.2","","""event"",""trial"",""time""
""fullscreenenter"",""1"",""1989""
","
","
","""event"",""trial"",""time""
""fullscreenenter"",""1"",""1989""
","
","","","1139.0999999996275","","","15","11316","4172","&#9730;","elianto","#3366ff99"," "," ","1","+10","[1989.199999999255]","1","1","","","11316","5","1","1","win","go","0"
"pit-trial","123","971866","0.0-9.0","battery-v0.2","","""event"",""trial"",""time""
""fullscreenenter"",""1"",""1989""
","
","
","""event"",""trial"",""time""
""fullscreenenter"",""1"",""1989""
","
","","","634.5","","","15","11316","4172","&#9752;","elianto","#f73b6a7A"," "," ","1","0","[1484.5999999996275]","1","1","","","11316","6","3","3","lose","go","0"
"pit-trial","124","975605","0.0-10.0","battery-v0.2","","""event"",""trial"",""time""
""fullscreenenter"",""1"",""1989""
","
","
","""event"",""trial"",""time""
""fullscreenenter"",""1"",""1989""
","
","","","886.3999999985099","","","15","11316","4172","&#9728;","elianto","#f73b6a7A","-1"," ","0","-10","[1736.5999999996275]","1","1","","","11316","7","0","4","lose","no-go","0"
"pit-trial","125","980459","0.0-11.0","battery-v0.2","","""event"",""trial"",""time""
""fullscreenenter"",""1"",""1989""
","
","
","""event"",""trial"",""time""
""fullscreenenter"",""1"",""1989""
","
","","","-1","","","15","11316","4172","&#9733;","elianto","#3366ff99","-1","-1","1","+10","[]","0","1","","","11316","8","2","2","win","no-go","0"
"pit-trial","126","985315","0.0-12.0","battery-v0.2","","""event"",""trial"",""time""
""fullscreenenter"",""1"",""1989""
","
","
","""event"",""trial"",""time""
""fullscreenenter"",""1"",""1989""
","
","","","-1","","","15","11316","4172","&#9728;","elianto","#f73b6a7A","-1","-1","1","-10","[]","0","1","","","11316","9","0","4","lose","no-go","1"
"pit-trial","127","989315","0.0-13.0","battery-v0.2","","""event"",""trial"",""time""
""fullscreenenter"",""1"",""1989""
","
","
","""event"",""trial"",""time""
""fullscreenenter"",""1"",""1989""
","
","","","1144.7000000011176","","","15","11316","4172","&#9730;","elianto","#3366ff99"," "," ","1","0","[1994.7999999988824]","1","1","","","11316","10","1","1","win","go","1"
"pit-trial","128","993787","0.0-14.0","battery-v0.2","","""event"",""trial"",""time""
""fullscreenenter"",""1"",""1989""
","
","
","""event"",""trial"",""time""
""fullscreenenter"",""1"",""1989""
","
","","","1615.7000000011176","","","15","11316","4172","&#9733;","elianto","#3366ff99","-1"," ","0","0","[2465.9000000003725]","1","1","","","11316","11","2","2","win","no-go","0"
"pit-trial","129","997286","0.0-15.0","battery-v0.2","","""event"",""trial"",""time""
""fullscreenenter"",""1"",""1989""
","
","
","""event"",""trial"",""time""
""fullscreenenter"",""1"",""1989""
","
","","","643.7999999988824","","","15","11316","4172","&#9752;","elianto","#f73b6a7A"," "," ","1","0","[1494.0999999996275]","1","1","","","11316","12","3","3","lose","go","0"
"pit-trial","130","1000935","0.0-16.0","battery-v0.2","","""event"",""trial"",""time""
""fullscreenenter"",""1"",""1989""
","
","
","""event"",""trial"",""time""
""fullscreenenter"",""1"",""1989""
","
","","","792.8999999985099","","","15","11316","4172","&#9730;","elianto","#3366ff99"," "," ","1","+10","[1643.0999999996275]","1","1","","","11316","13","1","1","win","go","0"
"pit-trial","131","1005440","0.0-17.0","battery-v0.2","","""event"",""trial"",""time""
""fullscreenenter"",""1"",""1989""
","
","
","""event"",""trial"",""time""
""fullscreenenter"",""1"",""1989""
","
","","","1648.800000000745","","","15","11316","4172","&#9728;","elianto","#f73b6a7A","-1"," ","0","-10","[2499.0999999996275]","1","1","","","11316","14","0","4","lose","no-go","0"
"pit-trial","132","1009069","0.0-18.0","battery-v0.2","","""event"",""trial"",""time""
""fullscreenenter"",""1"",""1989""
","
","
","""event"",""trial"",""time""
""fullscreenenter"",""1"",""1989""
","
","","","774.3000000007451","","","15","11316","4172","&#9752;","elianto","#f73b6a7A"," "," ","1","0","[1624.4000000003725]","1","1","","","11316","15","3","3","lose","go","0"
"pit-trial","133","1013926","0.0-19.0","battery-v0.2","","""event"",""trial"",""time""
""fullscreenenter"",""1"",""1989""
","
","
","""event"",""trial"",""time""
""fullscreenenter"",""1"",""1989""
","
","","","-1","","","15","11316","4172","&#9733;","elianto","#3366ff99","-1","-1","1","+10","[]","0","1","","","11316","16","2","2","win","no-go","0"
"pit-trial","134","1017684","0.0-20.0","battery-v0.2","","""event"",""trial"",""time""
""fullscreenenter"",""1"",""1989""
","
","
","""event"",""trial"",""time""
""fullscreenenter"",""1"",""1989""
","
","","","899.4000000003725","","","15","11316","4172","&#9730;","elianto","#3366ff99"," "," ","1","+10","[1753.5]","1","1","","","11316","17","1","1","win","go","0"
"pit-trial","135","1022538","0.0-21.0","battery-v0.2","","""event"",""trial"",""time""
""fullscreenenter"",""1"",""1989""
","
","
","""event"",""trial"",""time""
""fullscreenenter"",""1"",""1989""
","
","","","-1","","","15","11316","4172","&#9733;","elianto","#3366ff99","-1","-1","1","+10","[]","0","1","","","11316","18","2","2","win","no-go","0"
"pit-trial","136","1027394","0.0-22.0","battery-v0.2","","""event"",""trial"",""time""
""fullscreenenter"",""1"",""1989""
","
","
","""event"",""trial"",""time""
""fullscreenenter"",""1"",""1989""
","
","","","-1","","","15","11316","4172","&#9728;","elianto","#f73b6a7A","-1","-1","1","0","[]","0","1","","","11316","19","0","4","lose","no-go","0"
"pit-trial","137","1031004","0.0-23.0","battery-v0.2","","""event"",""trial"",""time""
""fullscreenenter"",""1"",""1989""
","
","
","""event"",""trial"",""time""
""fullscreenenter"",""1"",""1989""
","
","","","755.8000000007451","","","15","11316","4172","&#9752;","elianto","#f73b6a7A"," "," ","1","-10","[1606]","1","1","","","11316","20","3","3","lose","go","1"
"pit-instructions","138","1061216","0.0-24.0","battery-v0.2","","""event"",""trial"",""time""
""fullscreenenter"",""1"",""1989""
","
","
","""event"",""trial"",""time""
""fullscreenenter"",""1"",""1989""
","
","","[{""page_index"":0,""viewing_time"":22549},{""page_index"":1,""viewing_time"":7660.39999999851}]","30209.799999998882","","","","","","","","","","","","","","","","","","","","","","","",""
"pit-trial","139","1065026","0.0-25.0","battery-v0.2","","""event"",""trial"",""time""
""fullscreenenter"",""1"",""1989""
","
","
","""event"",""trial"",""time""
""fullscreenenter"",""1"",""1989""
","
","","","953.5","","","15","11316","4172","m","elianto","#f73b6a7A","-1"," ","0","-10","[1803.5999999996275]","1","2","","","11316","21","0","4","lose","no-go","0"
"pit-trial","140","1069154","0.0-26.0","battery-v0.2","","""event"",""trial"",""time""
""fullscreenenter"",""1"",""1989""
","
","
","""event"",""trial"",""time""
""fullscreenenter"",""1"",""1989""
","
","","","1273.199999999255","","","15","11316","4172","y","elianto","#f73b6a7A","-1"," ","0","0","[2124]","1","2","","","11316","22","2","4","lose","no-go","1"
"pit-trial","141","1073475","0.0-27.0","battery-v0.2","","""event"",""trial"",""time""
""fullscreenenter"",""1"",""1989""
","
","
","""event"",""trial"",""time""
""fullscreenenter"",""1"",""1989""
","
","","","1467.5","","","15","11316","4172","r","elianto","#3366ff99"," "," ","1","+10","[2317.800000000745]","1","2","","","11316","23","1","1","win","go","0"
"pit-trial","142","1077821","0.0-28.0","battery-v0.2","","""event"",""trial"",""time""
""fullscreenenter"",""1"",""1989""
","
","
","""event"",""trial"",""time""
""fullscreenenter"",""1"",""1989""
","
","","","1493.8999999985099","","","15","11316","4172","h","elianto","#f73b6a7A"," "," ","1","0","[2344]","1","2","","","11316","24","3","3","lose","go","0"
"pit-trial","143","1082675","0.0-29.0","battery-v0.2","","""event"",""trial"",""time""
""fullscreenenter"",""1"",""1989""
","
","
","""event"",""trial"",""time""
""fullscreenenter"",""1"",""1989""
","
","","","-1","","","15","11316","4172","m","elianto","#f73b6a7A","-1","-1","1","0","[]","0","2","","","11316","25","0","4","lose","no-go","0"
"pit-trial","144","1086491","0.0-30.0","battery-v0.2","","""event"",""trial"",""time""
""fullscreenenter"",""1"",""1989""
","
","
","""event"",""trial"",""time""
""fullscreenenter"",""1"",""1989""
","
","","","963.5","","","15","11316","4172","r","elianto","#3366ff99"," "," ","1","+10","[1813.699999999255]","1","2","","","11316","26","1","1","win","go","0"
"pit-trial","145","1090184","0.0-31.0","battery-v0.2","","""event"",""trial"",""time""
""fullscreenenter"",""1"",""1989""
","
","
","""event"",""trial"",""time""
""fullscreenenter"",""1"",""1989""
","
","","","839.9000000003725","","","15","11316","4172","y","elianto","#f73b6a7A","-1"," ","0","0","[1690.0999999996275]","1","2","","","11316","27","2","4","lose","no-go","1"
"pit-trial","146","1094773","0.0-32.0","battery-v0.2","","""event"",""trial"",""time""
""fullscreenenter"",""1"",""1989""
","
","
","""event"",""trial"",""time""
""fullscreenenter"",""1"",""1989""
","
","","","1735.6000000014901","","","15","11316","4172","h","elianto","#f73b6a7A"," "," ","1","0","[2585.699999999255]","1","2","","","11316","28","3","3","lose","go","0"
"pit-trial","147","1099627","0.0-33.0","battery-v0.2","","""event"",""trial"",""time""
""fullscreenenter"",""1"",""1989""
","
","
","""event"",""trial"",""time""
""fullscreenenter"",""1"",""1989""
","
","","","-1","","","15","11316","4172","m","elianto","#f73b6a7A","-1","-1","1","0","[]","0","2","","","11316","29","0","4","lose","no-go","0"
"pit-trial","148","1103286","0.0-34.0","battery-v0.2","","""event"",""trial"",""time""
""fullscreenenter"",""1"",""1989""
","
","
","""event"",""trial"",""time""
""fullscreenenter"",""1"",""1989""
","
","","","802.7000000011176","","","15","11316","4172","r","elianto","#3366ff99"," "," ","1","+10","[1652.8999999985099]","1","2","","","11316","30","1","1","win","go","0"
"pit-trial","149","1107660","0.0-35.0","battery-v0.2","","""event"",""trial"",""time""
""fullscreenenter"",""1"",""1989""
","
","
","""event"",""trial"",""time""
""fullscreenenter"",""1"",""1989""
","
","","","1518.4000000003725","","","15","11316","4172","h","elianto","#f73b6a7A"," "," ","1","0","[2368.5]","1","2","","","11316","31","3","3","lose","go","0"
"pit-trial","150","1111507","0.0-36.0","battery-v0.2","","""event"",""trial"",""time""
""fullscreenenter"",""1"",""1989""
","
","
","""event"",""trial"",""time""
""fullscreenenter"",""1"",""1989""
","
","","","991.7999999988824","","","15","11316","4172","y","elianto","#f73b6a7A","-1"," ","0","-10","[1841.9000000003725]","1","2","","","11316","32","2","4","lose","no-go","0"
"pit-trial","151","1115380","0.0-37.0","battery-v0.2","","""event"",""trial"",""time""
""fullscreenenter"",""1"",""1989""
","
","
","""event"",""trial"",""time""
""fullscreenenter"",""1"",""1989""
","
","","","1017.3999999985099","","","15","11316","4172","h","elianto","#f73b6a7A"," "," ","1","0","[1867.699999999255]","1","2","","","11316","33","3","3","lose","go","0"
"pit-trial","152","1119016","0.0-38.0","battery-v0.2","","""event"",""trial"",""time""
""fullscreenenter"",""1"",""1989""
","
","
","""event"",""trial"",""time""
""fullscreenenter"",""1"",""1989""
","
","","","780.4000000003725","","","15","11316","4172","r","elianto","#3366ff99"," "," ","1","0","[1630.5]","1","2","","","11316","34","1","1","win","go","1"
"pit-trial","153","1123871","0.0-39.0","battery-v0.2","","""event"",""trial"",""time""
""fullscreenenter"",""1"",""1989""
","
","
","""event"",""trial"",""time""
""fullscreenenter"",""1"",""1989""
","
","","","-1","","","15","11316","4172","m","elianto","#f73b6a7A","-1","-1","1","0","[]","0","2","","","11316","35","0","4","lose","no-go","0"
"pit-trial","154","1127625","0.0-40.0","battery-v0.2","","""event"",""trial"",""time""
""fullscreenenter"",""1"",""1989""
","
","
","""event"",""trial"",""time""
""fullscreenenter"",""1"",""1989""
","
","","","899","","","15","11316","4172","y","elianto","#f73b6a7A","-1"," ","0","0","[1749]","1","2","","","11316","36","2","4","lose","no-go","1"
"pit-trial","155","1132083","0.0-41.0","battery-v0.2","","""event"",""trial"",""time""
""fullscreenenter"",""1"",""1989""
","
","
","""event"",""trial"",""time""
""fullscreenenter"",""1"",""1989""
","
","","","1602.7999999988824","","","15","11316","4172","h","elianto","#f73b6a7A"," "," ","1","0","[2453]","1","2","","","11316","37","3","3","lose","go","0"
"pit-trial","156","1136939","0.0-42.0","battery-v0.2","","""event"",""trial"",""time""
""fullscreenenter"",""1"",""1989""
","
","
","""event"",""trial"",""time""
""fullscreenenter"",""1"",""1989""
","
","","","-1","","","15","11316","4172","m","elianto","#f73b6a7A","-1","-1","1","0","[]","0","2","","","11316","38","0","4","lose","no-go","0"
"pit-trial","157","1140571","0.0-43.0","battery-v0.2","","""event"",""trial"",""time""
""fullscreenenter"",""1"",""1989""
","
","
","""event"",""trial"",""time""
""fullscreenenter"",""1"",""1989""
","
","","","777.0999999996275","","","15","11316","4172","y","elianto","#f73b6a7A","-1"," ","0","-10","[1627.300000000745]","1","2","","","11316","39","2","4","lose","no-go","0"
"pit-trial","158","1144041","0.0-44.0","battery-v0.2","","""event"",""trial"",""time""
""fullscreenenter"",""1"",""1989""
","
","
","""event"",""trial"",""time""
""fullscreenenter"",""1"",""1989""
","
","","","616.0999999996275","","","15","11316","4172","r","elianto","#3366ff99"," "," ","1","+10","[1466.3999999985099]","1","2","","","11316","40","1","1","win","go","0"
"pit-trial","159","1147878","0.0-45.0","battery-v0.2","","""event"",""trial"",""time""
""fullscreenenter"",""1"",""1989""
","
","
","""event"",""trial"",""time""
""fullscreenenter"",""1"",""1989""
","
","","","981","","","15","11316","4172","r","elianto","#3366ff99"," "," ","1","+10","[1831.2000000011176]","1","2","","","11316","41","1","1","win","go","0"
"pit-trial","160","1152724","0.0-46.0","battery-v0.2","","""event"",""trial"",""time""
""fullscreenenter"",""1"",""1989""
","
","
","""event"",""trial"",""time""
""fullscreenenter"",""1"",""1989""
","
","","","1989.5999999996275","","","15","11316","4172","m","elianto","#f73b6a7A","-1"," ","0","-10","[2840]","1","2","","","11316","42","0","4","lose","no-go","0"
"pit-trial","161","1156322","0.0-47.0","battery-v0.2","","""event"",""trial"",""time""
""fullscreenenter"",""1"",""1989""
","
","
","""event"",""trial"",""time""
""fullscreenenter"",""1"",""1989""
","
","","","741.5999999996275","","","15","11316","4172","h","elianto","#f73b6a7A"," "," ","1","0","[1592.9000000003725]","1","2","","","11316","43","3","3","lose","go","0"
"pit-trial","162","1159964","0.0-48.0","battery-v0.2","","""event"",""trial"",""time""
""fullscreenenter"",""1"",""1989""
","
","
","""event"",""trial"",""time""
""fullscreenenter"",""1"",""1989""
","
","","","787.5","","","15","11316","4172","y","elianto","#f73b6a7A","-1"," ","0","-10","[1637.5]","1","2","","","11316","44","2","4","lose","no-go","0"
"pit-trial","163","1164285","0.0-49.0","battery-v0.2","","""event"",""trial"",""time""
""fullscreenenter"",""1"",""1989""
","
","
","""event"",""trial"",""time""
""fullscreenenter"",""1"",""1989""
","
","","","1467","","","15","11316","4172","h","elianto","#f73b6a7A"," "," ","1","-10","[2317.199999999255]","1","2","","","11316","45","3","3","lose","go","1"
"pit-trial","164","1169143","0.0-50.0","battery-v0.2","","""event"",""trial"",""time""
""fullscreenenter"",""1"",""1989""
","
","
","""event"",""trial"",""time""
""fullscreenenter"",""1"",""1989""
","
","","","-1","","","15","11316","4172","m","elianto","#f73b6a7A","-1","-1","1","0","[3756.800000000745]","1","2","","","11316","46","0","4","lose","no-go","0"
"pit-trial","165","1173136","0.0-51.0","battery-v0.2","","""event"",""trial"",""time""
""fullscreenenter"",""1"",""1989""
","
","
","""event"",""trial"",""time""
""fullscreenenter"",""1"",""1989""
","
","","","1137.800000000745","","","15","11316","4172","z","elianto","#3366ff99","-1"," ","0","0","[1988]","1","2","","","11316","47","4","2","win","no-go","0"
"pit-trial","166","1177122","0.0-52.0","battery-v0.2","","""event"",""trial"",""time""
""fullscreenenter"",""1"",""1989""
","
","
","""event"",""trial"",""time""
""fullscreenenter"",""1"",""1989""
","
","","","1130.2999999988824","","","15","11316","4172","y","elianto","#f73b6a7A","-1"," ","0","-10","[1980.300000000745]","1","2","","","11316","48","2","4","lose","no-go","0"
"pit-trial","167","1181493","0.0-53.0","battery-v0.2","","""event"",""trial"",""time""
""fullscreenenter"",""1"",""1989""
","
","
","""event"",""trial"",""time""
""fullscreenenter"",""1"",""1989""
","
","","","1516.2000000011176","","","15","11316","4172","z","elianto","#3366ff99","-1"," ","0","0","[2366.199999999255]","1","2","","","11316","49","4","2","win","no-go","0"
"pit-trial","168","1185702","0.0-54.0","battery-v0.2","","""event"",""trial"",""time""
""fullscreenenter"",""1"",""1989""
","
","
","""event"",""trial"",""time""
""fullscreenenter"",""1"",""1989""
","
","","","1350.7000000011176","","","15","11316","4172","r","elianto","#3366ff99"," "," ","1","+10","[2203.800000000745]","1","2","","","11316","50","1","1","win","go","0"
"pit-trial","169","1190558","0.0-55.0","battery-v0.2","","""event"",""trial"",""time""
""fullscreenenter"",""1"",""1989""
","
","
","""event"",""trial"",""time""
""fullscreenenter"",""1"",""1989""
","
","","","-1","","","15","11316","4172","h","elianto","#f73b6a7A"," ","-1","0","-10","[2983.800000000745]","1","2","","","11316","51","3","3","lose","go","0"
"pit-trial","170","1195414","0.0-56.0","battery-v0.2","","""event"",""trial"",""time""
""fullscreenenter"",""1"",""1989""
","
","
","""event"",""trial"",""time""
""fullscreenenter"",""1"",""1989""
","
","","","-1","","","15","11316","4172","m","elianto","#f73b6a7A","-1","-1","1","0","[]","0","2","","","11316","52","0","4","lose","no-go","0"
"pit-trial","171","1200270","0.0-57.0","battery-v0.2","","""event"",""trial"",""time""
""fullscreenenter"",""1"",""1989""
","
","
","""event"",""trial"",""time""
""fullscreenenter"",""1"",""1989""
","
","","","-1","","","15","11316","4172","m","elianto","#f73b6a7A","-1","-1","1","-10","[]","0","2","","","11316","53","0","4","lose","no-go","1"
"pit-trial","172","1204206","0.0-58.0","battery-v0.2","","""event"",""trial"",""time""
""fullscreenenter"",""1"",""1989""
","
","
","""event"",""trial"",""time""
""fullscreenenter"",""1"",""1989""
","
","","","1080.5999999996275","","","15","11316","4172","z","elianto","#3366ff99","-1"," ","0","0","[1930.9000000003725]","1","2","","","11316","54","4","2","win","no-go","0"
"pit-trial","173","1208188","0.0-59.0","battery-v0.2","","""event"",""trial"",""time""
""fullscreenenter"",""1"",""1989""
","
","
","""event"",""trial"",""time""
""fullscreenenter"",""1"",""1989""
","
","","","1126.4000000003725","","","15","11316","4172","r","elianto","#3366ff99"," "," ","1","+10","[1976.4000000003725]","1","2","","","11316","55","1","1","win","go","0"
"pit-trial","174","1212346","0.0-60.0","battery-v0.2","","""event"",""trial"",""time""
""fullscreenenter"",""1"",""1989""
","
","
","""event"",""trial"",""time""
""fullscreenenter"",""1"",""1989""
","
","","","1302.0999999996275","","","15","11316","4172","y","elianto","#f73b6a7A","-1"," ","0","-10","[2152.2000000011176]","1","2","","","11316","56","2","4","lose","no-go","0"
"pit-trial","175","1217199","0.0-61.0","battery-v0.2","","""event"",""trial"",""time""
""fullscreenenter"",""1"",""1989""
","
","
","""event"",""trial"",""time""
""fullscreenenter"",""1"",""1989""
","
","","","-1","","","15","11316","4172","m","elianto","#f73b6a7A","-1","-1","1","0","[]","0","2","","","11316","57","0","4","lose","no-go","0"
"pit-trial","176","1221413","0.0-62.0","battery-v0.2","","""event"",""trial"",""time""
""fullscreenenter"",""1"",""1989""
","
","
","""event"",""trial"",""time""
""fullscreenenter"",""1"",""1989""
","
","","","1359","","","15","11316","4172","z","elianto","#3366ff99","-1"," ","0","0","[2209.199999999255]","1","2","","","11316","58","4","2","win","no-go","0"
"pit-trial","177","1225128","0.0-63.0","battery-v0.2","","""event"",""trial"",""time""
""fullscreenenter"",""1"",""1989""
","
","
","""event"",""trial"",""time""
""fullscreenenter"",""1"",""1989""
","
","","","861.2999999988824","","","15","11316","4172","r","elianto","#3366ff99"," "," ","1","+10","[1711.5999999996275]","1","2","","","11316","59","1","1","win","go","0"
"pit-trial","178","1229171","0.0-64.0","battery-v0.2","","""event"",""trial"",""time""
""fullscreenenter"",""1"",""1989""
","
","
","""event"",""trial"",""time""
""fullscreenenter"",""1"",""1989""
","
","","","1186.7999999988824","","","15","11316","4172","h","elianto","#f73b6a7A"," "," ","1","0","[2037.2999999988824]","1","2","","","11316","60","3","3","lose","go","0"
"pit-trial","179","1234027","0.0-65.0","battery-v0.2","","""event"",""trial"",""time""
""fullscreenenter"",""1"",""1989""
","
","
","""event"",""trial"",""time""
""fullscreenenter"",""1"",""1989""
","
","","","-1","","","15","11316","4172","z","elianto","#3366ff99","-1","-1","1","+10","[]","0","2","","","11316","61","4","2","win","no-go","0"
"pit-trial","180","1237746","0.0-66.0","battery-v0.2","","""event"",""trial"",""time""
""fullscreenenter"",""1"",""1989""
","
","
","""event"",""trial"",""time""
""fullscreenenter"",""1"",""1989""
","
","","","863.5999999996275","","","15","11316","4172","r","elianto","#3366ff99"," "," ","1","+10","[1713.5]","1","2","","","11316","62","1","1","win","go","0"
"pit-trial","181","1241615","0.0-67.0","battery-v0.2","","""event"",""trial"",""time""
""fullscreenenter"",""1"",""1989""
","
","
","""event"",""trial"",""time""
""fullscreenenter"",""1"",""1989""
","
","","","1014.1999999992549","","","15","11316","4172","h","elianto","#f73b6a7A"," "," ","1","0","[1864.4000000003725]","1","2","","","11316","63","3","3","lose","go","0"
"pit-trial","182","1245378","0.0-68.0","battery-v0.2","","""event"",""trial"",""time""
""fullscreenenter"",""1"",""1989""
","
","
","""event"",""trial"",""time""
""fullscreenenter"",""1"",""1989""
","
","","","906.9000000003725","","","15","11316","4172","y","elianto","#f73b6a7A","-1"," ","0","-10","[1757.0999999996275]","1","2","","","11316","64","2","4","lose","no-go","0"
"pit-trial","183","1249726","0.0-69.0","battery-v0.2","","""event"",""trial"",""time""
""fullscreenenter"",""1"",""1989""
","
","
","""event"",""trial"",""time""
""fullscreenenter"",""1"",""1989""
","
","","","1492.800000000745","","","15","11316","4172","r","elianto","#3366ff99"," "," ","1","+10","[2343]","1","2","","","11316","65","1","1","win","go","0"
"pit-trial","184","1254581","0.0-70.0","battery-v0.2","","""event"",""trial"",""time""
""fullscreenenter"",""1"",""1989""
","
","
","""event"",""trial"",""time""
""fullscreenenter"",""1"",""1989""
","
","","","-1","","","15","11316","4172","z","elianto","#3366ff99","-1","-1","1","+10","[]","0","2","","","11316","66","4","2","win","no-go","0"
"pit-trial","185","1259071","0.0-71.0","battery-v0.2","","""event"",""trial"",""time""
""fullscreenenter"",""1"",""1989""
","
","
","""event"",""trial"",""time""
""fullscreenenter"",""1"",""1989""
","
","","","1634.4000000003725","","","15","11316","4172","h","elianto","#f73b6a7A"," "," ","1","0","[2484.5]","1","2","","","11316","67","3","3","lose","go","0"
"pit-trial","186","1263010","0.0-72.0","battery-v0.2","","""event"",""trial"",""time""
""fullscreenenter"",""1"",""1989""
","
","
","""event"",""trial"",""time""
""fullscreenenter"",""1"",""1989""
","
","","","1082.8999999985099","","","15","11316","4172","y","elianto","#f73b6a7A","-1"," ","0","-10","[1933.0999999996275]","1","2","","","11316","68","2","4","lose","no-go","0"
"pit-trial","187","1267866","0.0-73.0","battery-v0.2","","""event"",""trial"",""time""
""fullscreenenter"",""1"",""1989""
","
","
","""event"",""trial"",""time""
""fullscreenenter"",""1"",""1989""
","
","","","-1","","","15","11316","4172","z","elianto","#3366ff99","-1","-1","1","+10","[]","0","2","","","11316","69","4","2","win","no-go","0"
"pit-trial","188","1271828","0.0-74.0","battery-v0.2","","""event"",""trial"",""time""
""fullscreenenter"",""1"",""1989""
","
","
","""event"",""trial"",""time""
""fullscreenenter"",""1"",""1989""
","
","","","1106.9000000003725","","","15","11316","4172","h","elianto","#f73b6a7A"," "," ","1","0","[1957.199999999255]","1","2","","","11316","70","3","3","lose","go","0"
"pit-trial","189","1276243","0.0-75.0","battery-v0.2","","""event"",""trial"",""time""
""fullscreenenter"",""1"",""1989""
","
","
","""event"",""trial"",""time""
""fullscreenenter"",""1"",""1989""
","
","","","1559.800000000745","","","15","11316","4172","r","elianto","#3366ff99"," "," ","1","+10","[2409.800000000745]","1","2","","","11316","71","1","1","win","go","0"
"pit-trial","190","1280335","0.0-76.0","battery-v0.2","","""event"",""trial"",""time""
""fullscreenenter"",""1"",""1989""
","
","
","""event"",""trial"",""time""
""fullscreenenter"",""1"",""1989""
","
","","","1237.699999999255","","","15","11316","4172","c","elianto","#3366ff99"," "," ","1","+10","[2087.699999999255]","1","2","","","11316","72","5","1","win","go","0"
"pit-trial","191","1284225","0.0-77.0","battery-v0.2","","""event"",""trial"",""time""
""fullscreenenter"",""1"",""1989""
","
","
","""event"",""trial"",""time""
""fullscreenenter"",""1"",""1989""
","
","","","1034.7999999988824","","","15","11316","4172","h","elianto","#f73b6a7A"," "," ","1","0","[1884.8999999985099]","1","2","","","11316","73","3","3","lose","go","0"
"pit-trial","192","1287818","0.0-78.0","battery-v0.2","","""event"",""trial"",""time""
""fullscreenenter"",""1"",""1989""
","
","
","""event"",""trial"",""time""
""fullscreenenter"",""1"",""1989""
","
","","","736.5","","","15","11316","4172","r","elianto","#3366ff99"," "," ","1","0","[1587.4000000003725]","1","2","","","11316","74","1","1","win","go","1"
"pit-trial","193","1291560","0.0-79.0","battery-v0.2","","""event"",""trial"",""time""
""fullscreenenter"",""1"",""1989""
","
","
","""event"",""trial"",""time""
""fullscreenenter"",""1"",""1989""
","
","","","885.5","","","15","11316","4172","c","elianto","#3366ff99"," "," ","1","+10","[1735.800000000745]","1","2","","","11316","75","5","1","win","go","0"
"pit-trial","194","1296416","0.0-80.0","battery-v0.2","","""event"",""trial"",""time""
""fullscreenenter"",""1"",""1989""
","
","
","""event"",""trial"",""time""
""fullscreenenter"",""1"",""1989""
","
","","","-1","","","15","11316","4172","z","elianto","#3366ff99","-1","-1","1","+10","[]","0","2","","","11316","76","4","2","win","no-go","0"
"pit-trial","195","1300177","0.0-81.0","battery-v0.2","","""event"",""trial"",""time""
""fullscreenenter"",""1"",""1989""
","
","
","""event"",""trial"",""time""
""fullscreenenter"",""1"",""1989""
","
","","","906.0999999996275","","","15","11316","4172","c","elianto","#3366ff99"," "," ","1","+10","[1756.5]","1","2","","","11316","77","5","1","win","go","0"
"pit-trial","196","1305031","0.0-82.0","battery-v0.2","","""event"",""trial"",""time""
""fullscreenenter"",""1"",""1989""
","
","
","""event"",""trial"",""time""
""fullscreenenter"",""1"",""1989""
","
","","","-1","","","15","11316","4172","z","elianto","#3366ff99","-1","-1","1","+10","[]","0","2","","","11316","78","4","2","win","no-go","0"
"pit-trial","197","1308911","0.0-83.0","battery-v0.2","","""event"",""trial"",""time""
""fullscreenenter"",""1"",""1989""
","
","
","""event"",""trial"",""time""
""fullscreenenter"",""1"",""1989""
","
","","","1024.8999999985099","","","15","11316","4172","h","elianto","#f73b6a7A"," "," ","1","0","[1875.199999999255]","1","2","","","11316","79","3","3","lose","go","0"
"pit-trial","198","1312833","0.0-84.0","battery-v0.2","","""event"",""trial"",""time""
""fullscreenenter"",""1"",""1989""
","
","
","""event"",""trial"",""time""
""fullscreenenter"",""1"",""1989""
","
","","","1066.300000000745","","","15","11316","4172","b","elianto","#f73b6a7A","-1"," ","0","-10","[1916.6000000014901]","1","2","","","11316","80","6","4","lose","no-go","0"
"pit-trial","199","1317689","0.0-85.0","battery-v0.2","","""event"",""trial"",""time""
""fullscreenenter"",""1"",""1989""
","
","
","""event"",""trial"",""time""
""fullscreenenter"",""1"",""1989""
","
","","","-1","","","15","11316","4172","t","elianto","#f73b6a7A"," ","-1","0","-10","[2879.5999999996275]","1","2","","","11316","81","7","3","lose","go","0"
"pit-trial","200","1321768","0.0-86.0","battery-v0.2","","""event"",""trial"",""time""
""fullscreenenter"",""1"",""1989""
","
","
","""event"",""trial"",""time""
""fullscreenenter"",""1"",""1989""
","
","","","1223.199999999255","","","15","11316","4172","c","elianto","#3366ff99"," "," ","1","+10","[2073.4000000003725]","1","2","","","11316","82","5","1","win","go","0"
"pit-trial","201","1326521","0.0-87.0","battery-v0.2","","""event"",""trial"",""time""
""fullscreenenter"",""1"",""1989""
","
","
","""event"",""trial"",""time""
""fullscreenenter"",""1"",""1989""
","
","","","1898.7999999988824","","","15","11316","4172","b","elianto","#f73b6a7A","-1"," ","0","-10","[2749.0999999996275]","1","2","","","11316","83","6","4","lose","no-go","0"
"pit-trial","202","1330946","0.0-88.0","battery-v0.2","","""event"",""trial"",""time""
""fullscreenenter"",""1"",""1989""
","
","
","""event"",""trial"",""time""
""fullscreenenter"",""1"",""1989""
","
","","","1572.0999999996275","","","15","11316","4172","z","elianto","#3366ff99","-1"," ","0","0","[2423.199999999255]","1","2","","","11316","84","4","2","win","no-go","0"
"pit-trial","203","1335801","0.0-89.0","battery-v0.2","","""event"",""trial"",""time""
""fullscreenenter"",""1"",""1989""
","
","
","""event"",""trial"",""time""
""fullscreenenter"",""1"",""1989""
","
","","","-1","","","15","11316","4172","b","elianto","#f73b6a7A","-1","-1","1","0","[]","0","2","","","11316","85","6","4","lose","no-go","0"
"pit-trial","204","1340520","0.0-90.0","battery-v0.2","","""event"",""trial"",""time""
""fullscreenenter"",""1"",""1989""
","
","
","""event"",""trial"",""time""
""fullscreenenter"",""1"",""1989""
","
","","","1864.199999999255","","","15","11316","4172","z","elianto","#3366ff99","-1"," ","0","0","[2714.7000000011176]","1","2","","","11316","86","4","2","win","no-go","0"
"pit-trial","205","1345376","0.0-91.0","battery-v0.2","","""event"",""trial"",""time""
""fullscreenenter"",""1"",""1989""
","
","
","""event"",""trial"",""time""
""fullscreenenter"",""1"",""1989""
","
","","","-1","","","15","11316","4172","t","elianto","#f73b6a7A"," ","-1","0","-10","[]","0","2","","","11316","87","7","3","lose","go","0"
"pit-trial","206","1349727","0.0-92.0","battery-v0.2","","""event"",""trial"",""time""
""fullscreenenter"",""1"",""1989""
","
","
","""event"",""trial"",""time""
""fullscreenenter"",""1"",""1989""
","
","","","1494.0999999996275","","","15","11316","4172","c","elianto","#3366ff99"," "," ","1","+10","[2344.199999999255]","1","2","","","11316","88","5","1","win","go","0"
"pit-trial","207","1354582","0.0-93.0","battery-v0.2","","""event"",""trial"",""time""
""fullscreenenter"",""1"",""1989""
","
","
","""event"",""trial"",""time""
""fullscreenenter"",""1"",""1989""
","
","","","-1","","","15","11316","4172","b","elianto","#f73b6a7A","-1","-1","1","0","[]","0","2","","","11316","89","6","4","lose","no-go","0"
"pit-trial","208","1358313","0.0-94.0","battery-v0.2","","""event"",""trial"",""time""
""fullscreenenter"",""1"",""1989""
","
","
","""event"",""trial"",""time""
""fullscreenenter"",""1"",""1989""
","
","","","874.9000000003725","","","15","11316","4172","c","elianto","#3366ff99"," "," ","1","+10","[1725.5]","1","2","","","11316","90","5","1","win","go","0"
"pit-trial","209","1362460","0.0-95.0","battery-v0.2","","""event"",""trial"",""time""
""fullscreenenter"",""1"",""1989""
","
","
","""event"",""trial"",""time""
""fullscreenenter"",""1"",""1989""
","
","","","1291","","","15","11316","4172","t","elianto","#f73b6a7A"," "," ","1","0","[2141.0999999996275]","1","2","","","11316","91","7","3","lose","go","0"
"pit-trial","210","1367316","0.0-96.0","battery-v0.2","","""event"",""trial"",""time""
""fullscreenenter"",""1"",""1989""
","
","
","""event"",""trial"",""time""
""fullscreenenter"",""1"",""1989""
","
","","","-1","","","15","11316","4172","z","elianto","#3366ff99","-1","-1","1","+10","[]","0","2","","","11316","92","4","2","win","no-go","0"
"pit-trial","211","1372172","0.0-97.0","battery-v0.2","","""event"",""trial"",""time""
""fullscreenenter"",""1"",""1989""
","
","
","""event"",""trial"",""time""
""fullscreenenter"",""1"",""1989""
","
","","","-1","","","15","11316","4172","b","elianto","#f73b6a7A","-1","-1","1","0","[]","0","2","","","11316","93","6","4","lose","no-go","0"
"pit-trial","212","1375810","0.0-98.0","battery-v0.2","","""event"",""trial"",""time""
""fullscreenenter"",""1"",""1989""
","
","
","""event"",""trial"",""time""
""fullscreenenter"",""1"",""1989""
","
","","","781.8000000007451","","","15","11316","4172","c","elianto","#3366ff99"," "," ","1","0","[1632]","1","2","","","11316","94","5","1","win","go","1"
"pit-trial","213","1380110","0.0-99.0","battery-v0.2","","""event"",""trial"",""time""
""fullscreenenter"",""1"",""1989""
","
","
","""event"",""trial"",""time""
""fullscreenenter"",""1"",""1989""
","
","","","1444.5999999996275","","","15","11316","4172","f","elianto","#3366ff99","-1"," ","0","0","[2294.7000000011176]","1","2","","","11316","95","8","2","win","no-go","0"
"pit-trial","214","1384966","0.0-100.0","battery-v0.2","","""event"",""trial"",""time""
""fullscreenenter"",""1"",""1989""
","
","
","""event"",""trial"",""time""
""fullscreenenter"",""1"",""1989""
","
","","","-1","","","15","11316","4172","t","elianto","#f73b6a7A"," ","-1","0","-10","[2946.300000000745]","1","2","","","11316","96","7","3","lose","go","0"
"pit-trial","215","1388549","0.0-101.0","battery-v0.2","","""event"",""trial"",""time""
""fullscreenenter"",""1"",""1989""
","
","
","""event"",""trial"",""time""
""fullscreenenter"",""1"",""1989""
","
","","","726.5999999996275","","","15","11316","4172","c","elianto","#3366ff99"," "," ","1","+10","[1576.9000000003725]","1","2","","","11316","97","5","1","win","go","0"
"pit-trial","216","1393405","0.0-102.0","battery-v0.2","","""event"",""trial"",""time""
""fullscreenenter"",""1"",""1989""
","
","
","""event"",""trial"",""time""
""fullscreenenter"",""1"",""1989""
","
","","","-1","","","15","11316","4172","f","elianto","#3366ff99","-1","-1","1","+10","[]","0","2","","","11316","98","8","2","win","no-go","0"
"pit-trial","217","1398260","0.0-103.0","battery-v0.2","","""event"",""trial"",""time""
""fullscreenenter"",""1"",""1989""
","
","
","""event"",""trial"",""time""
""fullscreenenter"",""1"",""1989""
","
","","","-1","","","15","11316","4172","b","elianto","#f73b6a7A","-1","-1","1","0","[]","0","2","","","11316","99","6","4","lose","no-go","0"
"pit-trial","218","1402420","0.0-104.0","battery-v0.2","","""event"",""trial"",""time""
""fullscreenenter"",""1"",""1989""
","
","
","""event"",""trial"",""time""
""fullscreenenter"",""1"",""1989""
","
","","","1304.4000000003725","","","15","11316","4172","t","elianto","#f73b6a7A"," "," ","1","0","[2154.60000000149]","1","2","","","11316","100","7","3","lose","go","0"
"pit-trial","219","1406405","0.0-105.0","battery-v0.2","","""event"",""trial"",""time""
""fullscreenenter"",""1"",""1989""
","
","
","""event"",""trial"",""time""
""fullscreenenter"",""1"",""1989""
","
","","","1128.7000000011176","","","15","11316","4172","n","elianto","#3366ff99","-1"," ","0","0","[1979]","1","2","","","11316","101","9","2","win","no-go","0"
"pit-trial","220","1410211","0.0-106.0","battery-v0.2","","""event"",""trial"",""time""
""fullscreenenter"",""1"",""1989""
","
","
","""event"",""trial"",""time""
""fullscreenenter"",""1"",""1989""
","
","","","949.7000000011176","","","15","11316","4172","c","elianto","#3366ff99"," "," ","1","+10","[1800.8999999985099]","1","2","","","11316","102","5","1","win","go","0"
"pit-trial","221","1415067","0.0-107.0","battery-v0.2","","""event"",""trial"",""time""
""fullscreenenter"",""1"",""1989""
","
","
","""event"",""trial"",""time""
""fullscreenenter"",""1"",""1989""
","
","","","-1","","","15","11316","4172","f","elianto","#3366ff99","-1","-1","1","+10","[]","0","2","","","11316","103","8","2","win","no-go","0"
"pit-trial","222","1419922","0.0-108.0","battery-v0.2","","""event"",""trial"",""time""
""fullscreenenter"",""1"",""1989""
","
","
","""event"",""trial"",""time""
""fullscreenenter"",""1"",""1989""
","
","","","-1","","","15","11316","4172","b","elianto","#f73b6a7A","-1","-1","1","0","[]","0","2","","","11316","104","6","4","lose","no-go","0"
"pit-trial","223","1423801","0.0-109.0","battery-v0.2","","""event"",""trial"",""time""
""fullscreenenter"",""1"",""1989""
","
","
","""event"",""trial"",""time""
""fullscreenenter"",""1"",""1989""
","
","","","1023.1999999992549","","","15","11316","4172","c","elianto","#3366ff99"," "," ","1","+10","[1873.199999999255]","1","2","","","11316","105","5","1","win","go","0"
"pit-trial","224","1428657","0.0-110.0","battery-v0.2","","""event"",""trial"",""time""
""fullscreenenter"",""1"",""1989""
","
","
","""event"",""trial"",""time""
""fullscreenenter"",""1"",""1989""
","
","","","-1","","","15","11316","4172","f","elianto","#3366ff99","-1","-1","1","+10","[]","0","2","","","11316","106","8","2","win","no-go","0"
"pit-trial","225","1433512","0.0-111.0","battery-v0.2","","""event"",""trial"",""time""
""fullscreenenter"",""1"",""1989""
","
","
","""event"",""trial"",""time""
""fullscreenenter"",""1"",""1989""
","
","","","-1","","","15","11316","4172","n","elianto","#3366ff99","-1","-1","1","0","[]","0","2","","","11316","107","9","2","win","no-go","1"
"pit-trial","226","1438368","0.0-112.0","battery-v0.2","","""event"",""trial"",""time""
""fullscreenenter"",""1"",""1989""
","
","
","""event"",""trial"",""time""
""fullscreenenter"",""1"",""1989""
","
","","","-1","","","15","11316","4172","b","elianto","#f73b6a7A","-1","-1","1","0","[]","0","2","","","11316","108","6","4","lose","no-go","0"
"pit-trial","227","1443224","0.0-113.0","battery-v0.2","","""event"",""trial"",""time""
""fullscreenenter"",""1"",""1989""
","
","
","""event"",""trial"",""time""
""fullscreenenter"",""1"",""1989""
","
","","","-1","","","15","11316","4172","b","elianto","#f73b6a7A","-1","-1","1","0","[]","0","2","","","11316","109","6","4","lose","no-go","0"
"pit-trial","228","1448080","0.0-114.0","battery-v0.2","","""event"",""trial"",""time""
""fullscreenenter"",""1"",""1989""
","
","
","""event"",""trial"",""time""
""fullscreenenter"",""1"",""1989""
","
","","","-1","","","15","11316","4172","n","elianto","#3366ff99","-1","-1","1","0","[]","0","2","","","11316","110","9","2","win","no-go","1"
"pit-trial","229","1452936","0.0-115.0","battery-v0.2","","""event"",""trial"",""time""
""fullscreenenter"",""1"",""1989""
","
","
","""event"",""trial"",""time""
""fullscreenenter"",""1"",""1989""
","
","","","-1","","","15","11316","4172","f","elianto","#3366ff99","-1","-1","1","+10","[]","0","2","","","11316","111","8","2","win","no-go","0"
"pit-trial","230","1456623","0.0-116.0","battery-v0.2","","""event"",""trial"",""time""
""fullscreenenter"",""1"",""1989""
","
","
","""event"",""trial"",""time""
""fullscreenenter"",""1"",""1989""
","
","","","830.6999999992549","","","15","11316","4172","c","elianto","#3366ff99"," "," ","1","+10","[1681]","1","2","","","11316","112","5","1","win","go","0"
"pit-trial","231","1460178","0.0-117.0","battery-v0.2","","""event"",""trial"",""time""
""fullscreenenter"",""1"",""1989""
","
","
","""event"",""trial"",""time""
""fullscreenenter"",""1"",""1989""
","
","","","699.5","","","15","11316","4172","c","elianto","#3366ff99"," "," ","1","0","[1549.699999999255]","1","2","","","11316","113","5","1","win","go","1"
"pit-trial","232","1465034","0.0-118.0","battery-v0.2","","""event"",""trial"",""time""
""fullscreenenter"",""1"",""1989""
","
","
","""event"",""trial"",""time""
""fullscreenenter"",""1"",""1989""
","
","","","-1","","","15","11316","4172","f","elianto","#3366ff99","-1","-1","1","+10","[]","0","2","","","11316","114","8","2","win","no-go","0"
"pit-trial","233","1468717","0.0-119.0","battery-v0.2","","""event"",""trial"",""time""
""fullscreenenter"",""1"",""1989""
","
","
","""event"",""trial"",""time""
""fullscreenenter"",""1"",""1989""
","
","","","827.4000000003725","","","15","11316","4172","t","elianto","#f73b6a7A"," "," ","1","0","[1677.5]","1","2","","","11316","115","7","3","lose","go","0"
"pit-trial","234","1473573","0.0-120.0","battery-v0.2","","""event"",""trial"",""time""
""fullscreenenter"",""1"",""1989""
","
","
","""event"",""trial"",""time""
""fullscreenenter"",""1"",""1989""
","
","","","-1","","","15","11316","4172","n","elianto","#3366ff99","-1","-1","1","0","[]","0","2","","","11316","116","9","2","win","no-go","1"
"pit-trial","235","1477055","0.0-121.0","battery-v0.2","","""event"",""trial"",""time""
""fullscreenenter"",""1"",""1989""
","
","
","""event"",""trial"",""time""
""fullscreenenter"",""1"",""1989""
","
","","","626.3999999985099","","","15","11316","4172","c","elianto","#3366ff99"," "," ","1","+10","[1476.699999999255]","1","2","","","11316","117","5","1","win","go","0"
"pit-trial","236","1481908","0.0-122.0","battery-v0.2","","""event"",""trial"",""time""
""fullscreenenter"",""1"",""1989""
","
","
","""event"",""trial"",""time""
""fullscreenenter"",""1"",""1989""
","
","","","-1","","","15","11316","4172","b","elianto","#f73b6a7A","-1","-1","1","0","[]","0","2","","","11316","118","6","4","lose","no-go","0"
"pit-trial","237","1486763","0.0-123.0","battery-v0.2","","""event"",""trial"",""time""
""fullscreenenter"",""1"",""1989""
","
","
","""event"",""trial"",""time""
""fullscreenenter"",""1"",""1989""
","
","","","-1","","","15","11316","4172","f","elianto","#3366ff99","-1","-1","1","+10","[]","0","2","","","11316","119","8","2","win","no-go","0"
"pit-trial","238","1491617","0.0-124.0","battery-v0.2","","""event"",""trial"",""time""
""fullscreenenter"",""1"",""1989""
","
","
","""event"",""trial"",""time""
""fullscreenenter"",""1"",""1989""
","
","","","-1","","","15","11316","4172","n","elianto","#3366ff99","-1","-1","1","+10","[]","0","2","","","11316","120","9","2","win","no-go","0"
"pit-trial","239","1496473","0.0-125.0","battery-v0.2","","""event"",""trial"",""time""
""fullscreenenter"",""1"",""1989""
","
","
","""event"",""trial"",""time""
""fullscreenenter"",""1"",""1989""
","
","","","-1","","","15","11316","4172","f","elianto","#3366ff99","-1","-1","1","0","[]","0","2","","","11316","121","8","2","win","no-go","1"
"pit-trial","240","1500427","0.0-126.0","battery-v0.2","","""event"",""trial"",""time""
""fullscreenenter"",""1"",""1989""
","
","
","""event"",""trial"",""time""
""fullscreenenter"",""1"",""1989""
","
","","","1099.2000000011176","","","15","11316","4172","t","elianto","#f73b6a7A"," "," ","1","0","[1949.199999999255]","1","2","","","11316","122","7","3","lose","go","0"
"pit-trial","241","1504257","0.0-127.0","battery-v0.2","","""event"",""trial"",""time""
""fullscreenenter"",""1"",""1989""
","
","
","""event"",""trial"",""time""
""fullscreenenter"",""1"",""1989""
","
","","","971.5","","","15","11316","4172","c","elianto","#3366ff99"," "," ","1","+10","[1824.2999999988824]","1","2","","","11316","123","5","1","win","go","0"
"pit-trial","242","1509113","0.0-128.0","battery-v0.2","","""event"",""trial"",""time""
""fullscreenenter"",""1"",""1989""
","
","
","""event"",""trial"",""time""
""fullscreenenter"",""1"",""1989""
","
","","","-1","","","15","11316","4172","n","elianto","#3366ff99","-1","-1","1","+10","[]","0","2","","","11316","124","9","2","win","no-go","0"
"pit-trial","243","1513969","0.0-129.0","battery-v0.2","","""event"",""trial"",""time""
""fullscreenenter"",""1"",""1989""
","
","
","""event"",""trial"",""time""
""fullscreenenter"",""1"",""1989""
","
","","","-1","","","15","11316","4172","b","elianto","#f73b6a7A","-1","-1","1","0","[]","0","2","","","11316","125","6","4","lose","no-go","0"
"pit-trial","244","1518824","0.0-130.0","battery-v0.2","","""event"",""trial"",""time""
""fullscreenenter"",""1"",""1989""
","
","
","""event"",""trial"",""time""
""fullscreenenter"",""1"",""1989""
","
","","","-1","","","15","11316","4172","f","elianto","#3366ff99","-1","-1","1","+10","[]","0","2","","","11316","126","8","2","win","no-go","0"
"pit-trial","245","1522472","0.0-131.0","battery-v0.2","","""event"",""trial"",""time""
""fullscreenenter"",""1"",""1989""
","
","
","""event"",""trial"",""time""
""fullscreenenter"",""1"",""1989""
","
","","","790.9000000003725","","","15","11316","4172","t","elianto","#f73b6a7A"," "," ","1","0","[1642.0999999996275]","1","2","","","11316","127","7","3","lose","go","0"
"pit-trial","246","1527327","0.0-132.0","battery-v0.2","","""event"",""trial"",""time""
""fullscreenenter"",""1"",""1989""
","
","
","""event"",""trial"",""time""
""fullscreenenter"",""1"",""1989""
","
","","","-1","","","15","11316","4172","n","elianto","#3366ff99","-1","-1","1","0","[]","0","2","","","11316","128","9","2","win","no-go","1"
"pit-trial","247","1532181","0.0-133.0","battery-v0.2","","""event"",""trial"",""time""
""fullscreenenter"",""1"",""1989""
","
","
","""event"",""trial"",""time""
""fullscreenenter"",""1"",""1989""
","
","","","-1","","","15","11316","4172","b","elianto","#f73b6a7A","-1","-1","1","0","[]","0","2","","","11316","129","6","4","lose","no-go","0"
"pit-trial","248","1537037","0.0-134.0","battery-v0.2","","""event"",""trial"",""time""
""fullscreenenter"",""1"",""1989""
","
","
","""event"",""trial"",""time""
""fullscreenenter"",""1"",""1989""
","
","","","-1","","","15","11316","4172","n","elianto","#3366ff99","-1","-1","1","0","[]","0","2","","","11316","130","9","2","win","no-go","1"
"pit-trial","249","1541893","0.0-135.0","battery-v0.2","","""event"",""trial"",""time""
""fullscreenenter"",""1"",""1989""
","
","
","""event"",""trial"",""time""
""fullscreenenter"",""1"",""1989""
","
","","","-1","","","15","11316","4172","f","elianto","#3366ff99","-1","-1","1","+10","[]","0","2","","","11316","131","8","2","win","no-go","0"
"pit-trial","250","1546205","0.0-136.0","battery-v0.2","","""event"",""trial"",""time""
""fullscreenenter"",""1"",""1989""
","
","
","""event"",""trial"",""time""
""fullscreenenter"",""1"",""1989""
","
","","","1456.800000000745","","","15","11316","4172","t","elianto","#f73b6a7A"," "," ","1","-10","[2306.9000000003725]","1","2","","","11316","132","7","3","lose","go","1"
"pit-trial","251","1549920","0.0-137.0","battery-v0.2","","""event"",""trial"",""time""
""fullscreenenter"",""1"",""1989""
","
","
","""event"",""trial"",""time""
""fullscreenenter"",""1"",""1989""
","
","","","859.4000000003725","","","15","11316","4172","t","elianto","#f73b6a7A"," "," ","1","0","[1709.4000000003725]","1","2","","","11316","133","7","3","lose","go","0"
"pit-trial","252","1554776","0.0-138.0","battery-v0.2","","""event"",""trial"",""time""
""fullscreenenter"",""1"",""1989""
","
","
","""event"",""trial"",""time""
""fullscreenenter"",""1"",""1989""
","
","","","-1","","","15","11316","4172","n","elianto","#3366ff99","-1","-1","1","0","[]","0","2","","","11316","134","9","2","win","no-go","1"
"pit-trial","253","1559631","0.0-139.0","battery-v0.2","","""event"",""trial"",""time""
""fullscreenenter"",""1"",""1989""
","
","
","""event"",""trial"",""time""
""fullscreenenter"",""1"",""1989""
","
","","","-1","","","15","11316","4172","b","elianto","#f73b6a7A","-1","-1","1","-10","[]","0","2","","","11316","135","6","4","lose","no-go","1"
"pit-trial","254","1564487","0.0-140.0","battery-v0.2","","""event"",""trial"",""time""
""fullscreenenter"",""1"",""1989""
","
","
","""event"",""trial"",""time""
""fullscreenenter"",""1"",""1989""
","
","","","-1","","","15","11316","4172","f","elianto","#3366ff99","-1","-1","1","+10","[]","0","2","","","11316","136","8","2","win","no-go","0"
"pit-trial","255","1569344","0.0-141.0","battery-v0.2","","""event"",""trial"",""time""
""fullscreenenter"",""1"",""1989""
","
","
","""event"",""trial"",""time""
""fullscreenenter"",""1"",""1989""
","
","","","-1","","","15","11316","4172","f","elianto","#3366ff99","-1","-1","1","+10","[]","0","2","","","11316","137","8","2","win","no-go","0"
"pit-trial","256","1574200","0.0-142.0","battery-v0.2","","""event"",""trial"",""time""
""fullscreenenter"",""1"",""1989""
","
","
","""event"",""trial"",""time""
""fullscreenenter"",""1"",""1989""
","
","","","-1","","","15","11316","4172","n","elianto","#3366ff99","-1","-1","1","+10","[]","0","2","","","11316","138","9","2","win","no-go","0"
"pit-trial","257","1579056","0.0-143.0","battery-v0.2","","""event"",""trial"",""time""
""fullscreenenter"",""1"",""1989""
","
","
","""event"",""trial"",""time""
""fullscreenenter"",""1"",""1989""
","
","","","-1","","","15","11316","4172","b","elianto","#f73b6a7A","-1","-1","1","0","[]","0","2","","","11316","139","6","4","lose","no-go","0"
"pit-trial","258","1582728","0.0-144.0","battery-v0.2","","""event"",""trial"",""time""
""fullscreenenter"",""1"",""1989""
","
","
","""event"",""trial"",""time""
""fullscreenenter"",""1"",""1989""
","
","","","816.4000000003725","","","15","11316","4172","t","elianto","#f73b6a7A"," "," ","1","0","[1666.6000000014901]","1","2","","","11316","140","7","3","lose","go","0"
"pit-instructions","259","1797235","0.0-145.0","battery-v0.2","","""event"",""trial"",""time""
""fullscreenenter"",""1"",""1989""
","
","
","""event"",""trial"",""time""
""fullscreenenter"",""1"",""1989""
","
","","[{""page_index"":0,""viewing_time"":203247.09999999963},{""page_index"":1,""viewing_time"":11255.5}]","214502.90000000037","","","","","","","","","","","","","","","","","","","","","","","",""
"pit-trial","260","1801186","0.0-146.0","battery-v0.2","","""event"",""trial"",""time""
""fullscreenenter"",""1"",""1989""
","
","
","""event"",""trial"",""time""
""fullscreenenter"",""1"",""1989""
","
","","","1094.8999999985099","","","15","11316","4172","l","elianto","#3366ff99","-1"," ","0","0","[1945.199999999255]","1","3","","","11316","141","1","2","win","no-go","0"
"pit-trial","261","1805315","0.0-147.0","battery-v0.2","","""event"",""trial"",""time""
""fullscreenenter"",""1"",""1989""
","
","
","""event"",""trial"",""time""
""fullscreenenter"",""1"",""1989""
","
","","","1276.0999999996275","","","15","11316","4172","a","elianto","#f73b6a7A"," "," ","1","-10","[2126.2999999988824]","1","3","","","11316","142","2","3","lose","go","1"
"pit-trial","262","1809200","0.0-148.0","battery-v0.2","","""event"",""trial"",""time""
""fullscreenenter"",""1"",""1989""
","
","
","""event"",""trial"",""time""
""fullscreenenter"",""1"",""1989""
","
","","","1031.300000000745","","","15","11316","4172","u","elianto","#f73b6a7A"," "," ","1","0","[1881.4000000003725]","1","3","","","11316","143","0","3","lose","go","0"
"pit-trial","263","1813042","0.0-149.0","battery-v0.2","","""event"",""trial"",""time""
""fullscreenenter"",""1"",""1989""
","
","
","""event"",""trial"",""time""
""fullscreenenter"",""1"",""1989""
","
","","","989.3000000007451","","","15","11316","4172","g","elianto","#f73b6a7A","-1"," ","0","-10","[1839.6000000014901]","1","3","","","11316","144","3","4","lose","no-go","0"
"pit-trial","264","1817895","0.0-150.0","battery-v0.2","","""event"",""trial"",""time""
""fullscreenenter"",""1"",""1989""
","
","
","""event"",""trial"",""time""
""fullscreenenter"",""1"",""1989""
","
","","","-1","","","15","11316","4172","g","elianto","#f73b6a7A","-1","-1","1","0","[]","0","3","","","11316","145","3","4","lose","no-go","0"
"pit-trial","265","1821367","0.0-151.0","battery-v0.2","","""event"",""trial"",""time""
""fullscreenenter"",""1"",""1989""
","
","
","""event"",""trial"",""time""
""fullscreenenter"",""1"",""1989""
","
","","","618.4000000003725","","","15","11316","4172","l","elianto","#3366ff99","-1"," ","0","0","[1468.699999999255]","1","3","","","11316","146","1","2","win","no-go","0"
"pit-trial","266","1826220","0.0-152.0","battery-v0.2","","""event"",""trial"",""time""
""fullscreenenter"",""1"",""1989""
","
