"trial_type","trial_index","time_elapsed","internal_node_id","task_version","subject_id","interactions","blur_events","focus_events","fullscreenenter_events","fullscreenexit_events","success","view_history","rt","responses","num_errors","age","subject","participantId","rune","rune_set","hex","correct","choice","accuracy","outcome","keys","total_keys","block","practice","value","sub","trial","stimulus","robot","valence","action","sham"
"pavlovia","0","22","0.0-0.0","battery-v0.2","","""event"",""trial"",""time""
""fullscreenenter"",""1"",""5382""
","
","
","""event"",""trial"",""time""
""fullscreenenter"",""1"",""5382""
","
","","","","","","","","","","","","","","","","","","","","","","","","","","",""
"fullscreen","1","6355","0.0-1.0","battery-v0.2","","""event"",""trial"",""time""
""fullscreenenter"",""1"",""5382""
","
","
","""event"",""trial"",""time""
""fullscreenenter"",""1"",""5382""
","
","true","","","","","","","","","","","","","","","","","","","","","","","","","",""
"pit-instructions","2","11291","0.0-2.0-0.0","battery-v0.2","","""event"",""trial"",""time""
""fullscreenenter"",""1"",""5382""
","
","
","""event"",""trial"",""time""
""fullscreenenter"",""1"",""5382""
","
","","[{""page_index"":0,""viewing_time"":4920.799999952316}]","4924.5","","","","","","","","","","","","","","","","","","","","","","","",""
"pit-comprehension","3","16578","0.0-2.0-1.0-0.0","battery-v0.2","","""event"",""trial"",""time""
""fullscreenenter"",""1"",""5382""
","
","
","""event"",""trial"",""time""
""fullscreenenter"",""1"",""5382""
","
","","","5271.700000047684","[""shark""]","0","15","3499","2166","","","","","","","","","","","","","","","","","","",""
"pit-instructions","4","18236","0.0-2.0-1.0-1.0","battery-v0.2","","""event"",""trial"",""time""
""fullscreenenter"",""1"",""5382""
","
","
","""event"",""trial"",""time""
""fullscreenenter"",""1"",""5382""
","
","","[{""page_index"":0,""viewing_time"":1609.5999999046326}]","1612","","","","","","","","","","","","","","","","","","","","","","","",""
"pit-comprehension","5","22987","0.0-2.0-2.0-0.0","battery-v0.2","","""event"",""trial"",""time""
""fullscreenenter"",""1"",""5382""
","
","
","""event"",""trial"",""time""
""fullscreenenter"",""1"",""5382""
","
","","","4737","[""tiger""]","0","15","3499","2166","","","","","","","","","","","","","","","","","","",""
"pit-instructions","6","24299","0.0-2.0-2.0-1.0","battery-v0.2","","""event"",""trial"",""time""
""fullscreenenter"",""1"",""5382""
","
","
","""event"",""trial"",""time""
""fullscreenenter"",""1"",""5382""
","
","","[{""page_index"":0,""viewing_time"":1299.3999998569489}]","1300.1999998092651","","","","","","","","","","","","","","","","","","","","","","","",""
"pit-instructions","7","125436","0.0-2.0-3.0","battery-v0.2","","""event"",""trial"",""time""
""fullscreenenter"",""1"",""5382""
","
","
","""event"",""trial"",""time""
""fullscreenenter"",""1"",""5382""
","
","","[{""page_index"":0,""viewing_time"":8627},{""page_index"":1,""viewing_time"":6301.599999904633},{""page_index"":2,""viewing_time"":6313.200000047684},{""page_index"":3,""viewing_time"":6420.5},{""page_index"":4,""viewing_time"":6518.899999856949},{""page_index"":5,""viewing_time"":6201.600000143051},{""page_index"":6,""viewing_time"":7248.799999952316},{""page_index"":7,""viewing_time"":6809.900000095367},{""page_index"":8,""viewing_time"":7930.5},{""page_index"":9,""viewing_time"":9024.799999952316},{""page_index"":10,""viewing_time"":9015.700000047684},{""page_index"":11,""viewing_time"":7150.699999809265},{""page_index"":12,""viewing_time"":8266.800000190735},{""page_index"":13,""viewing_time"":5295.099999904633}]","101126.89999985695","","","","","","","","","","","","","","","","","","","","","","","",""
"pit-trial","8","128885","0.0-2.0-4.0-0.0","battery-v0.2","","""event"",""trial"",""time""
""fullscreenenter"",""1"",""5382""
","
","
","""event"",""trial"",""time""
""fullscreenenter"",""1"",""5382""
","
","","","568.2999999523163","","","15","3499","2166","&#9784;","elianto","#FFFFF080"," "," ","1","&#10004","[1422.7000000476837]","1","0","0","","","","","","","",""
"pit-trial","9","132325","0.0-2.0-4.1-0.1","battery-v0.2","","""event"",""trial"",""time""
""fullscreenenter"",""1"",""5382""
","
","
","""event"",""trial"",""time""
""fullscreenenter"",""1"",""5382""
","
","","","565.7000000476837","","","15","3499","2166","&#9784;","elianto","#FFFFF080"," "," ","1","&#10004","[1420.5]","1","0","0","","","","","","","",""
"pit-trial","10","135665","0.0-2.0-4.2-0.2","battery-v0.2","","""event"",""trial"",""time""
""fullscreenenter"",""1"",""5382""
","
","
","""event"",""trial"",""time""
""fullscreenenter"",""1"",""5382""
","
","","","472.19999980926514","","","15","3499","2166","&#9784;","elianto","#FFFFF080"," "," ","1","&#10004","[1326]","1","0","0","","","","","","","",""
"pit-trial","11","139086","0.0-2.0-4.3-0.3","battery-v0.2","","""event"",""trial"",""time""
""fullscreenenter"",""1"",""5382""
","
","
","""event"",""trial"",""time""
""fullscreenenter"",""1"",""5382""
","
","","","556.7000000476837","","","15","3499","2166","&#9784;","elianto","#FFFFF080"," "," ","1","&#10004","[1409.5999999046326]","1","0","0","","","","","","","",""
"pit-trial","12","142630","0.0-2.0-4.4-0.4","battery-v0.2","","""event"",""trial"",""time""
""fullscreenenter"",""1"",""5382""
","
","
","""event"",""trial"",""time""
""fullscreenenter"",""1"",""5382""
","
","","","671.2000000476837","","","15","3499","2166","&#9784;","elianto","#FFFFF080"," "," ","1","&#10004","[1526.2999999523163]","1","0","0","","","","","","","",""
"pit-instructions","13","164409","0.0-2.0-5.0","battery-v0.2","","""event"",""trial"",""time""
""fullscreenenter"",""1"",""5382""
","
","
","""event"",""trial"",""time""
""fullscreenenter"",""1"",""5382""
","
","","[{""page_index"":0,""viewing_time"":5381.600000143051},{""page_index"":1,""viewing_time"":5678.799999952316},{""page_index"":2,""viewing_time"":5398.5},{""page_index"":3,""viewing_time"":5311.5}]","21771.5","","","","","","","","","","","","","","","","","","","","","","","",""
"pit-trial","14","169286","0.0-2.0-6.0-0.0","battery-v0.2","","""event"",""trial"",""time""
""fullscreenenter"",""1"",""5382""
","
","
","""event"",""trial"",""time""
""fullscreenenter"",""1"",""5382""
","
","","","-1","","","15","3499","2166","&#9854;","elianto","#FFFFF080","-1","-1","1","&#10004","[]","0","0","1","","","","","","","",""
"pit-trial","15","174166","0.0-2.0-6.1-0.1","battery-v0.2","","""event"",""trial"",""time""
""fullscreenenter"",""1"",""5382""
","
","
","""event"",""trial"",""time""
""fullscreenenter"",""1"",""5382""
","
","","","-1","","","15","3499","2166","&#9854;","elianto","#FFFFF080","-1","-1","1","&#10004","[]","0","0","1","","","","","","","",""
"pit-trial","16","179046","0.0-2.0-6.2-0.2","battery-v0.2","","""event"",""trial"",""time""
""fullscreenenter"",""1"",""5382""
","
","
","""event"",""trial"",""time""
""fullscreenenter"",""1"",""5382""
","
","","","-1","","","15","3499","2166","&#9854;","elianto","#FFFFF080","-1","-1","1","&#10004","[]","0","0","1","","","","","","","",""
"pit-trial","17","183923","0.0-2.0-6.3-0.3","battery-v0.2","","""event"",""trial"",""time""
""fullscreenenter"",""1"",""5382""
","
","
","""event"",""trial"",""time""
""fullscreenenter"",""1"",""5382""
","
","","","-1","","","15","3499","2166","&#9854;","elianto","#FFFFF080","-1","-1","1","&#10004","[]","0","0","1","","","","","","","",""
"pit-trial","18","188816","0.0-2.0-6.4-0.4","battery-v0.2","","""event"",""trial"",""time""
""fullscreenenter"",""1"",""5382""
","
","
","""event"",""trial"",""time""
""fullscreenenter"",""1"",""5382""
","
","","","-1","","","15","3499","2166","&#9854;","elianto","#FFFFF080","-1","-1","1","&#10004","[]","0","0","1","","","","","","","",""
"pit-instructions","19","305224","0.0-2.0-7.0","battery-v0.2","","""event"",""trial"",""time""
""fullscreenenter"",""1"",""5382""
","
","
","""event"",""trial"",""time""
""fullscreenenter"",""1"",""5382""
","
","","[{""page_index"":0,""viewing_time"":5586.599999904633},{""page_index"":1,""viewing_time"":7135.100000143051},{""page_index"":2,""viewing_time"":6384.799999952316},{""page_index"":3,""viewing_time"":6440.200000047684},{""page_index"":4,""viewing_time"":5567.700000047684},{""page_index"":5,""viewing_time"":5352.199999809265},{""page_index"":6,""viewing_time"":4698.100000143051},{""page_index"":7,""viewing_time"":7671},{""page_index"":8,""viewing_time"":6754.700000047684},{""page_index"":9,""viewing_time"":6246.799999952316},{""page_index"":10,""viewing_time"":6485.700000047684},{""page_index"":11,""viewing_time"":4891.399999856949},{""page_index"":12,""viewing_time"":7260.299999952316},{""page_index"":13,""viewing_time"":7127.200000047684},{""page_index"":14,""viewing_time"":7465.700000047684},{""page_index"":15,""viewing_time"":6716.700000047684},{""page_index"":16,""viewing_time"":6586.200000047684},{""page_index"":17,""viewing_time"":8030}]","116401.40000009537","","","","","","","","","","","","","","","","","","","","","","","",""
"pit-trial","20","308571","0.0-2.0-8.0-0.0","battery-v0.2","","""event"",""trial"",""time""
""fullscreenenter"",""1"",""5382""
","
","
","""event"",""trial"",""time""
""fullscreenenter"",""1"",""5382""
","
","","","488.40000009536743","","","15","3499","2166","&#9776;","elianto","#3366ff99"," "," ","1","+10","[1339.8999998569489]","1","0","1","","","","","","","",""
"pit-trial","21","311835","0.0-2.0-8.0-1.0","battery-v0.2","","""event"",""trial"",""time""
""fullscreenenter"",""1"",""5382""
","
","
","""event"",""trial"",""time""
""fullscreenenter"",""1"",""5382""
","
","","","392.60000014305115","","","15","3499","2166","&#9776;","elianto","#3366ff99"," "," ","1","+10","[1250.5999999046326]","1","0","1","","","","","","","",""
"pit-trial","22","315175","0.0-2.0-8.0-2.0","battery-v0.2","","""event"",""trial"",""time""
""fullscreenenter"",""1"",""5382""
","
","
","""event"",""trial"",""time""
""fullscreenenter"",""1"",""5382""
","
","","","460.2000000476837","","","15","3499","2166","&#9776;","elianto","#3366ff99"," "," ","1","+10","[1317.6000001430511]","1","0","1","","","","","","","",""
"pit-trial","23","318645","0.0-2.0-8.0-3.0","battery-v0.2","","""event"",""trial"",""time""
""fullscreenenter"",""1"",""5382""
","
","
","""event"",""trial"",""time""
""fullscreenenter"",""1"",""5382""
","
","","","592.2000000476837","","","15","3499","2166","&#9776;","elianto","#3366ff99"," "," ","1","0","[1446.5999999046326]","1","0","1","","","","","","","",""
"pit-trial","24","321935","0.0-2.0-8.0-4.0","battery-v0.2","","""event"",""trial"",""time""
""fullscreenenter"",""1"",""5382""
","
","
","""event"",""trial"",""time""
""fullscreenenter"",""1"",""5382""
","
","","","412.89999985694885","","","15","3499","2166","&#9776;","elianto","#3366ff99"," "," ","1","+10","[1269]","1","0","1","","","","","","","",""
"pit-trial","25","325326","0.0-2.0-8.1-0.1","battery-v0.2","","""event"",""trial"",""time""
""fullscreenenter"",""1"",""5382""
","
","
","""event"",""trial"",""time""
""fullscreenenter"",""1"",""5382""
","
","","","518.0999999046326","","","15","3499","2166","&#9776;","elianto","#3366ff99"," "," ","1","+10","[1370.7000000476837]","1","0","1","","","","","","","",""
"pit-trial","26","328636","0.0-2.0-8.1-1.1","battery-v0.2","","""event"",""trial"",""time""
""fullscreenenter"",""1"",""5382""
","
","
","""event"",""trial"",""time""
""fullscreenenter"",""1"",""5382""
","
","","","448","","","15","3499","2166","&#9776;","elianto","#3366ff99"," "," ","1","+10","[1302.7000000476837]","1","0","1","","","","","","","",""
"pit-trial","27","331866","0.0-2.0-8.1-2.1","battery-v0.2","","""event"",""trial"",""time""
""fullscreenenter"",""1"",""5382""
","
","
","""event"",""trial"",""time""
""fullscreenenter"",""1"",""5382""
","
","","","346.90000009536743","","","15","3499","2166","&#9776;","elianto","#3366ff99"," "," ","1","+10","[1205.6000001430511]","1","0","1","","","","","","","",""
"pit-trial","28","335176","0.0-2.0-8.1-3.1","battery-v0.2","","""event"",""trial"",""time""
""fullscreenenter"",""1"",""5382""
","
","
","""event"",""trial"",""time""
""fullscreenenter"",""1"",""5382""
","
","","","443.40000009536743","","","15","3499","2166","&#9776;","elianto","#3366ff99"," "," ","1","0","[1301.8999998569489]","1","0","1","","","","","","","",""
"pit-trial","29","338481","0.0-2.0-8.1-4.1","battery-v0.2","","""event"",""trial"",""time""
""fullscreenenter"",""1"",""5382""
","
","
","""event"",""trial"",""time""
""fullscreenenter"",""1"",""5382""
","
","","","441.5","","","15","3499","2166","&#9776;","elianto","#3366ff99"," "," ","1","+10","[1294.7000000476837]","1","0","1","","","","","","","",""
"pit-trial","30","341830","0.0-2.0-8.2-0.2","battery-v0.2","","""event"",""trial"",""time""
""fullscreenenter"",""1"",""5382""
","
","
","""event"",""trial"",""time""
""fullscreenenter"",""1"",""5382""
","
","","","484","","","15","3499","2166","&#9776;","elianto","#3366ff99"," "," ","1","+10","[1338.2999999523163]","1","0","1","","","","","","","",""
"pit-trial","31","345190","0.0-2.0-8.2-1.2","battery-v0.2","","""event"",""trial"",""time""
""fullscreenenter"",""1"",""5382""
","
","
","""event"",""trial"",""time""
""fullscreenenter"",""1"",""5382""
","
","","","501.7000000476837","","","15","3499","2166","&#9776;","elianto","#3366ff99"," "," ","1","+10","[1354.4000000953674]","1","0","1","","","","","","","",""
"pit-trial","32","348509","0.0-2.0-8.2-2.2","battery-v0.2","","""event"",""trial"",""time""
""fullscreenenter"",""1"",""5382""
","
","
","""event"",""trial"",""time""
""fullscreenenter"",""1"",""5382""
","
","","","451.60000014305115","","","15","3499","2166","&#9776;","elianto","#3366ff99"," "," ","1","+10","[1308]","1","0","1","","","","","","","",""
"pit-trial","33","351894","0.0-2.0-8.2-3.2","battery-v0.2","","""event"",""trial"",""time""
""fullscreenenter"",""1"",""5382""
","
","
","""event"",""trial"",""time""
""fullscreenenter"",""1"",""5382""
","
","","","523.7000000476837","","","15","3499","2166","&#9776;","elianto","#3366ff99"," "," ","1","0","[1375.1000001430511]","1","0","1","","","","","","","",""
"pit-trial","34","355154","0.0-2.0-8.2-4.2","battery-v0.2","","""event"",""trial"",""time""
""fullscreenenter"",""1"",""5382""
","
","
","""event"",""trial"",""time""
""fullscreenenter"",""1"",""5382""
","
","","","391.7000000476837","","","15","3499","2166","&#9776;","elianto","#3366ff99"," "," ","1","+10","[1246]","1","0","1","","","","","","","",""
"call-function","35","355158","0.0-2.0-9.0","battery-v0.2","","""event"",""trial"",""time""
""fullscreenenter"",""1"",""5382""
","
","
","""event"",""trial"",""time""
""fullscreenenter"",""1"",""5382""
","
","","","","","","","","","","","","","","","","","","","","","","","","","","",""
"pit-instructions","36","393855","0.0-2.0-10.0","battery-v0.2","","""event"",""trial"",""time""
""fullscreenenter"",""1"",""5382""
","
","
","""event"",""trial"",""time""
""fullscreenenter"",""1"",""5382""
","
","","[{""page_index"":0,""viewing_time"":5983.599999904633},{""page_index"":1,""viewing_time"":6781.900000095367},{""page_index"":2,""viewing_time"":9041.700000047684},{""page_index"":3,""viewing_time"":9538.399999856949},{""page_index"":4,""viewing_time"":7348.600000143051}]","38695.700000047684","","","","","","","","","","","","","","","","","","","","","","","",""
"pit-trial","37","398738","0.0-2.0-11.0-0.0","battery-v0.2","","""event"",""trial"",""time""
""fullscreenenter"",""1"",""5382""
","
","
","""event"",""trial"",""time""
""fullscreenenter"",""1"",""5382""
","
","","","-1","","","15","3499","2166","&#9761;","elianto","#3366ff99","-1","-1","1","+10","[]","0","0","2","","","","","","","",""
"pit-trial","38","401909","0.0-2.0-11.0-1.0","battery-v0.2","","""event"",""trial"",""time""
""fullscreenenter"",""1"",""5382""
","
","
","""event"",""trial"",""time""
""fullscreenenter"",""1"",""5382""
","
","","","308.5","","","15","3499","2166","&#9761;","elianto","#3366ff99","-1"," ","0","0","[1159.7999999523163]","1","0","2","","","","","","","",""
"pit-trial","39","406799","0.0-2.0-11.0-2.0","battery-v0.2","","""event"",""trial"",""time""
""fullscreenenter"",""1"",""5382""
","
","
","""event"",""trial"",""time""
""fullscreenenter"",""1"",""5382""
","
","","","-1","","","15","3499","2166","&#9761;","elianto","#3366ff99","-1","-1","1","+10","[]","0","0","2","","","","","","","",""
"pit-trial","40","411679","0.0-2.0-11.0-3.0","battery-v0.2","","""event"",""trial"",""time""
""fullscreenenter"",""1"",""5382""
","
","
","""event"",""trial"",""time""
""fullscreenenter"",""1"",""5382""
","
","","","-1","","","15","3499","2166","&#9761;","elianto","#3366ff99","-1","-1","1","0","[]","0","0","2","","","","","","","",""
"pit-trial","41","416559","0.0-2.0-11.0-4.0","battery-v0.2","","""event"",""trial"",""time""
""fullscreenenter"",""1"",""5382""
","
","
","""event"",""trial"",""time""
""fullscreenenter"",""1"",""5382""
","
","","","-1","","","15","3499","2166","&#9761;","elianto","#3366ff99","-1","-1","1","+10","[]","0","0","2","","","","","","","",""
"pit-trial","42","421449","0.0-2.0-11.1-0.1","battery-v0.2","","""event"",""trial"",""time""
""fullscreenenter"",""1"",""5382""
","
","
","""event"",""trial"",""time""
""fullscreenenter"",""1"",""5382""
","
","","","-1","","","15","3499","2166","&#9761;","elianto","#3366ff99","-1","-1","1","+10","[]","0","0","2","","","","","","","",""
"pit-trial","43","426316","0.0-2.0-11.1-1.1","battery-v0.2","","""event"",""trial"",""time""
""fullscreenenter"",""1"",""5382""
","
","
","""event"",""trial"",""time""
""fullscreenenter"",""1"",""5382""
","
","","","-1","","","15","3499","2166","&#9761;","elianto","#3366ff99","-1","-1","1","+10","[]","0","0","2","","","","","","","",""
"pit-trial","44","431195","0.0-2.0-11.1-2.1","battery-v0.2","","""event"",""trial"",""time""
""fullscreenenter"",""1"",""5382""
","
","
","""event"",""trial"",""time""
""fullscreenenter"",""1"",""5382""
","
","","","-1","","","15","3499","2166","&#9761;","elianto","#3366ff99","-1","-1","1","+10","[]","0","0","2","","","","","","","",""
"pit-trial","45","436063","0.0-2.0-11.1-3.1","battery-v0.2","","""event"",""trial"",""time""
""fullscreenenter"",""1"",""5382""
","
","
","""event"",""trial"",""time""
""fullscreenenter"",""1"",""5382""
","
","","","-1","","","15","3499","2166","&#9761;","elianto","#3366ff99","-1","-1","1","0","[]","0","0","2","","","","","","","",""
"pit-trial","46","440925","0.0-2.0-11.1-4.1","battery-v0.2","","""event"",""trial"",""time""
""fullscreenenter"",""1"",""5382""
","
","
","""event"",""trial"",""time""
""fullscreenenter"",""1"",""5382""
","
","","","-1","","","15","3499","2166","&#9761;","elianto","#3366ff99","-1","-1","1","+10","[]","0","0","2","","","","","","","",""
"pit-trial","47","445785","0.0-2.0-11.2-0.2","battery-v0.2","","""event"",""trial"",""time""
""fullscreenenter"",""1"",""5382""
","
","
","""event"",""trial"",""time""
""fullscreenenter"",""1"",""5382""
","
","","","-1","","","15","3499","2166","&#9761;","elianto","#3366ff99","-1","-1","1","+10","[]","0","0","2","","","","","","","",""
"pit-trial","48","450661","0.0-2.0-11.2-1.2","battery-v0.2","","""event"",""trial"",""time""
""fullscreenenter"",""1"",""5382""
","
","
","""event"",""trial"",""time""
""fullscreenenter"",""1"",""5382""
","
","","","-1","","","15","3499","2166","&#9761;","elianto","#3366ff99","-1","-1","1","+10","[]","0","0","2","","","","","","","",""
"pit-trial","49","455519","0.0-2.0-11.2-2.2","battery-v0.2","","""event"",""trial"",""time""
""fullscreenenter"",""1"",""5382""
","
","
","""event"",""trial"",""time""
""fullscreenenter"",""1"",""5382""
","
","","","-1","","","15","3499","2166","&#9761;","elianto","#3366ff99","-1","-1","1","+10","[]","0","0","2","","","","","","","",""
"pit-trial","50","460383","0.0-2.0-11.2-3.2","battery-v0.2","","""event"",""trial"",""time""
""fullscreenenter"",""1"",""5382""
","
","
","""event"",""trial"",""time""
""fullscreenenter"",""1"",""5382""
","
","","","-1","","","15","3499","2166","&#9761;","elianto","#3366ff99","-1","-1","1","0","[]","0","0","2","","","","","","","",""
"pit-trial","51","465244","0.0-2.0-11.2-4.2","battery-v0.2","","""event"",""trial"",""time""
""fullscreenenter"",""1"",""5382""
","
","
","""event"",""trial"",""time""
""fullscreenenter"",""1"",""5382""
","
","","","-1","","","15","3499","2166","&#9761;","elianto","#3366ff99","-1","-1","1","+10","[]","0","0","2","","","","","","","",""
"pit-trial","52","470105","0.0-2.0-11.3-0.3","battery-v0.2","","""event"",""trial"",""time""
""fullscreenenter"",""1"",""5382""
","
","
","""event"",""trial"",""time""
""fullscreenenter"",""1"",""5382""
","
","","","-1","","","15","3499","2166","&#9761;","elianto","#3366ff99","-1","-1","1","+10","[]","0","0","2","","","","","","","",""
"pit-trial","53","474975","0.0-2.0-11.3-1.3","battery-v0.2","","""event"",""trial"",""time""
""fullscreenenter"",""1"",""5382""
","
","
","""event"",""trial"",""time""
""fullscreenenter"",""1"",""5382""
","
","","","-1","","","15","3499","2166","&#9761;","elianto","#3366ff99","-1","-1","1","+10","[]","0","0","2","","","","","","","",""
"pit-trial","54","479840","0.0-2.0-11.3-2.3","battery-v0.2","","""event"",""trial"",""time""
""fullscreenenter"",""1"",""5382""
","
","
","""event"",""trial"",""time""
""fullscreenenter"",""1"",""5382""
","
","","","-1","","","15","3499","2166","&#9761;","elianto","#3366ff99","-1","-1","1","+10","[]","0","0","2","","","","","","","",""
"pit-trial","55","484700","0.0-2.0-11.3-3.3","battery-v0.2","","""event"",""trial"",""time""
""fullscreenenter"",""1"",""5382""
","
","
","""event"",""trial"",""time""
""fullscreenenter"",""1"",""5382""
","
","","","-1","","","15","3499","2166","&#9761;","elianto","#3366ff99","-1","-1","1","0","[]","0","0","2","","","","","","","",""
"pit-trial","56","489575","0.0-2.0-11.3-4.3","battery-v0.2","","""event"",""trial"",""time""
""fullscreenenter"",""1"",""5382""
","
","
","""event"",""trial"",""time""
""fullscreenenter"",""1"",""5382""
","
","","","-1","","","15","3499","2166","&#9761;","elianto","#3366ff99","-1","-1","1","+10","[]","0","0","2","","","","","","","",""
"call-function","57","489578","0.0-2.0-12.0","battery-v0.2","","""event"",""trial"",""time""
""fullscreenenter"",""1"",""5382""
","
","
","""event"",""trial"",""time""
""fullscreenenter"",""1"",""5382""
","
","","","","","","","","","","","","","","","","","","","","","","","","","","",""
"pit-instructions","58","523758","0.0-2.0-13.0","battery-v0.2","","""event"",""trial"",""time""
""fullscreenenter"",""1"",""5382""
","
","
","""event"",""trial"",""time""
""fullscreenenter"",""1"",""5382""
","
","","[{""page_index"":0,""viewing_time"":6851.200000047684},{""page_index"":1,""viewing_time"":8235.700000047684},{""page_index"":2,""viewing_time"":3352.0999999046326},{""page_index"":3,""viewing_time"":10723.799999952316},{""page_index"":4,""viewing_time"":5014.799999952316}]","34178.799999952316","","","","","","","","","","","","","","","","","","","","","","","",""
"pit-trial","59","527067","0.0-2.0-14.0-0.0","battery-v0.2","","""event"",""trial"",""time""
""fullscreenenter"",""1"",""5382""
","
","
","""event"",""trial"",""time""
""fullscreenenter"",""1"",""5382""
","
","","","428.09999990463257","","","15","3499","2166","&#9826;","elianto","#f73b6a7A","-1"," ","0","-10","[1283.2999999523163]","1","0","3","","","","","","","",""
"pit-trial","60","531938","0.0-2.0-14.0-1.0","battery-v0.2","","""event"",""trial"",""time""
""fullscreenenter"",""1"",""5382""
","
","
","""event"",""trial"",""time""
""fullscreenenter"",""1"",""5382""
","
","","","-1","","","15","3499","2166","&#9826;","elianto","#f73b6a7A","-1","-1","1","0","[]","0","0","3","","","","","","","",""
"pit-trial","61","536827","0.0-2.0-14.0-2.0","battery-v0.2","","""event"",""trial"",""time""
""fullscreenenter"",""1"",""5382""
","
","
","""event"",""trial"",""time""
""fullscreenenter"",""1"",""5382""
","
","","","-1","","","15","3499","2166","&#9826;","elianto","#f73b6a7A","-1","-1","1","0","[]","0","0","3","","","","","","","",""
"pit-trial","62","541707","0.0-2.0-14.0-3.0","battery-v0.2","","""event"",""trial"",""time""
""fullscreenenter"",""1"",""5382""
","
","
","""event"",""trial"",""time""
""fullscreenenter"",""1"",""5382""
","
","","","-1","","","15","3499","2166","&#9826;","elianto","#f73b6a7A","-1","-1","1","-10","[]","0","0","3","","","","","","","",""
"pit-trial","63","546592","0.0-2.0-14.0-4.0","battery-v0.2","","""event"",""trial"",""time""
""fullscreenenter"",""1"",""5382""
","
","
","""event"",""trial"",""time""
""fullscreenenter"",""1"",""5382""
","
","","","-1","","","15","3499","2166","&#9826;","elianto","#f73b6a7A","-1","-1","1","0","[]","0","0","3","","","","","","","",""
"pit-trial","64","551507","0.0-2.0-14.1-0.1","battery-v0.2","","""event"",""trial"",""time""
""fullscreenenter"",""1"",""5382""
","
","
","""event"",""trial"",""time""
""fullscreenenter"",""1"",""5382""
","
","","","-1","","","15","3499","2166","&#9826;","elianto","#f73b6a7A","-1","-1","1","0","[]","0","0","3","","","","","","","",""
"pit-trial","65","556407","0.0-2.0-14.1-1.1","battery-v0.2","","""event"",""trial"",""time""
""fullscreenenter"",""1"",""5382""
","
","
","""event"",""trial"",""time""
""fullscreenenter"",""1"",""5382""
","
","","","-1","","","15","3499","2166","&#9826;","elianto","#f73b6a7A","-1","-1","1","0","[]","0","0","3","","","","","","","",""
"pit-trial","66","561273","0.0-2.0-14.1-2.1","battery-v0.2","","""event"",""trial"",""time""
""fullscreenenter"",""1"",""5382""
","
","
","""event"",""trial"",""time""
""fullscreenenter"",""1"",""5382""
","
","","","-1","","","15","3499","2166","&#9826;","elianto","#f73b6a7A","-1","-1","1","0","[]","0","0","3","","","","","","","",""
"pit-trial","67","566136","0.0-2.0-14.1-3.1","battery-v0.2","","""event"",""trial"",""time""
""fullscreenenter"",""1"",""5382""
","
","
","""event"",""trial"",""time""
""fullscreenenter"",""1"",""5382""
","
","","","-1","","","15","3499","2166","&#9826;","elianto","#f73b6a7A","-1","-1","1","-10","[]","0","0","3","","","","","","","",""
"pit-trial","68","571003","0.0-2.0-14.1-4.1","battery-v0.2","","""event"",""trial"",""time""
""fullscreenenter"",""1"",""5382""
","
","
","""event"",""trial"",""time""
""fullscreenenter"",""1"",""5382""
","
","","","-1","","","15","3499","2166","&#9826;","elianto","#f73b6a7A","-1","-1","1","0","[]","0","0","3","","","","","","","",""
"pit-trial","69","575875","0.0-2.0-14.2-0.2","battery-v0.2","","""event"",""trial"",""time""
""fullscreenenter"",""1"",""5382""
","
","
","""event"",""trial"",""time""
""fullscreenenter"",""1"",""5382""
","
","","","-1","","","15","3499","2166","&#9826;","elianto","#f73b6a7A","-1","-1","1","0","[]","0","0","3","","","","","","","",""
"pit-trial","70","580743","0.0-2.0-14.2-1.2","battery-v0.2","","""event"",""trial"",""time""
""fullscreenenter"",""1"",""5382""
","
","
","""event"",""trial"",""time""
""fullscreenenter"",""1"",""5382""
","
","","","-1","","","15","3499","2166","&#9826;","elianto","#f73b6a7A","-1","-1","1","0","[]","0","0","3","","","","","","","",""
"pit-trial","71","585607","0.0-2.0-14.2-2.2","battery-v0.2","","""event"",""trial"",""time""
""fullscreenenter"",""1"",""5382""
","
","
","""event"",""trial"",""time""
""fullscreenenter"",""1"",""5382""
","
","","","-1","","","15","3499","2166","&#9826;","elianto","#f73b6a7A","-1","-1","1","0","[]","0","0","3","","","","","","","",""
"pit-trial","72","590470","0.0-2.0-14.2-3.2","battery-v0.2","","""event"",""trial"",""time""
""fullscreenenter"",""1"",""5382""
","
","
","""event"",""trial"",""time""
""fullscreenenter"",""1"",""5382""
","
","","","-1","","","15","3499","2166","&#9826;","elianto","#f73b6a7A","-1","-1","1","-10","[]","0","0","3","","","","","","","",""
"pit-trial","73","595330","0.0-2.0-14.2-4.2","battery-v0.2","","""event"",""trial"",""time""
""fullscreenenter"",""1"",""5382""
","
","
","""event"",""trial"",""time""
""fullscreenenter"",""1"",""5382""
","
","","","-1","","","15","3499","2166","&#9826;","elianto","#f73b6a7A","-1","-1","1","0","[]","0","0","3","","","","","","","",""
"pit-trial","74","600204","0.0-2.0-14.3-0.3","battery-v0.2","","""event"",""trial"",""time""
""fullscreenenter"",""1"",""5382""
","
","
","""event"",""trial"",""time""
""fullscreenenter"",""1"",""5382""
","
","","","-1","","","15","3499","2166","&#9826;","elianto","#f73b6a7A","-1","-1","1","0","[]","0","0","3","","","","","","","",""
"pit-trial","75","605063","0.0-2.0-14.3-1.3","battery-v0.2","","""event"",""trial"",""time""
""fullscreenenter"",""1"",""5382""
","
","
","""event"",""trial"",""time""
""fullscreenenter"",""1"",""5382""
","
","","","-1","","","15","3499","2166","&#9826;","elianto","#f73b6a7A","-1","-1","1","0","[]","0","0","3","","","","","","","",""
"pit-trial","76","609937","0.0-2.0-14.3-2.3","battery-v0.2","","""event"",""trial"",""time""
""fullscreenenter"",""1"",""5382""
","
","
","""event"",""trial"",""time""
""fullscreenenter"",""1"",""5382""
","
","","","-1","","","15","3499","2166","&#9826;","elianto","#f73b6a7A","-1","-1","1","0","[]","0","0","3","","","","","","","",""
"pit-trial","77","614806","0.0-2.0-14.3-3.3","battery-v0.2","","""event"",""trial"",""time""
""fullscreenenter"",""1"",""5382""
","
","
","""event"",""trial"",""time""
""fullscreenenter"",""1"",""5382""
","
","","","-1","","","15","3499","2166","&#9826;","elianto","#f73b6a7A","-1","-1","1","-10","[]","0","0","3","","","","","","","",""
"pit-trial","78","619663","0.0-2.0-14.3-4.3","battery-v0.2","","""event"",""trial"",""time""
""fullscreenenter"",""1"",""5382""
","
","
","""event"",""trial"",""time""
""fullscreenenter"",""1"",""5382""
","
","","","-1","","","15","3499","2166","&#9826;","elianto","#f73b6a7A","-1","-1","1","0","[]","0","0","3","","","","","","","",""
"call-function","79","619666","0.0-2.0-15.0","battery-v0.2","","""event"",""trial"",""time""
""fullscreenenter"",""1"",""5382""
","
","
","""event"",""trial"",""time""
""fullscreenenter"",""1"",""5382""
","
","","","","","","","","","","","","","","","","","","","","","","","","","","",""
"pit-instructions","80","646349","0.0-2.0-16.0","battery-v0.2","","""event"",""trial"",""time""
""fullscreenenter"",""1"",""5382""
","
","
","""event"",""trial"",""time""
""fullscreenenter"",""1"",""5382""
","
","","[{""page_index"":0,""viewing_time"":7693.200000047684},{""page_index"":1,""viewing_time"":9177.599999904633},{""page_index"":2,""viewing_time"":4591.100000143051},{""page_index"":3,""viewing_time"":5219}]","26682","","","","","","","","","","","","","","","","","","","","","","","",""
"pit-trial","81","649646","0.0-2.0-17.0-0.0","battery-v0.2","","""event"",""trial"",""time""
""fullscreenenter"",""1"",""5382""
","
","
","""event"",""trial"",""time""
""fullscreenenter"",""1"",""5382""
","
","","","437.69999980926514","","","15","3499","2166","&#9789;","elianto","#f73b6a7A"," "," ","1","0","[1289.5]","1","0","4","","","","","","","",""
"pit-trial","82","652856","0.0-2.0-17.0-1.0","battery-v0.2","","""event"",""trial"",""time""
""fullscreenenter"",""1"",""5382""
","
","
","""event"",""trial"",""time""
""fullscreenenter"",""1"",""5382""
","
","","","336.09999990463257","","","15","3499","2166","&#9789;","elianto","#f73b6a7A"," "," ","1","0","[1189.2000000476837]","1","0","4","","","","","","","",""
"pit-trial","83","656056","0.0-2.0-17.0-2.0","battery-v0.2","","""event"",""trial"",""time""
""fullscreenenter"",""1"",""5382""
","
","
","""event"",""trial"",""time""
""fullscreenenter"",""1"",""5382""
","
","","","336.5","","","15","3499","2166","&#9789;","elianto","#f73b6a7A"," "," ","1","0","[1192.2999999523163]","1","0","4","","","","","","","",""
"pit-trial","84","659197","0.0-2.0-17.0-3.0","battery-v0.2","","""event"",""trial"",""time""
""fullscreenenter"",""1"",""5382""
","
","
","""event"",""trial"",""time""
""fullscreenenter"",""1"",""5382""
","
","","","263","","","15","3499","2166","&#9789;","elianto","#f73b6a7A"," "," ","1","-10","[1116.0999999046326]","1","0","4","","","","","","","",""
"pit-trial","85","662347","0.0-2.0-17.0-4.0","battery-v0.2","","""event"",""trial"",""time""
""fullscreenenter"",""1"",""5382""
","
","
","""event"",""trial"",""time""
""fullscreenenter"",""1"",""5382""
","
","","","275.7000000476837","","","15","3499","2166","&#9789;","elianto","#f73b6a7A"," "," ","1","0","[1125.8999998569489]","1","0","4","","","","","","","",""
"pit-trial","86","665626","0.0-2.0-17.1-0.1","battery-v0.2","","""event"",""trial"",""time""
""fullscreenenter"",""1"",""5382""
","
","
","""event"",""trial"",""time""
""fullscreenenter"",""1"",""5382""
","
","","","416.7999999523163","","","15","3499","2166","&#9789;","elianto","#f73b6a7A"," "," ","1","0","[1272.5]","1","0","4","","","","","","","",""
"pit-trial","87","668936","0.0-2.0-17.1-1.1","battery-v0.2","","""event"",""trial"",""time""
""fullscreenenter"",""1"",""5382""
","
","
","""event"",""trial"",""time""
""fullscreenenter"",""1"",""5382""
","
","","","434.5","","","15","3499","2166","&#9789;","elianto","#f73b6a7A"," "," ","1","0","[1293.2999999523163]","1","0","4","","","","","","","",""
"pit-trial","88","672166","0.0-2.0-17.1-2.1","battery-v0.2","","""event"",""trial"",""time""
""fullscreenenter"",""1"",""5382""
","
","
","""event"",""trial"",""time""
""fullscreenenter"",""1"",""5382""
","
","","","363.10000014305115","","","15","3499","2166","&#9789;","elianto","#f73b6a7A"," "," ","1","0","[1216]","1","0","4","","","","","","","",""
"pit-trial","89","675466","0.0-2.0-17.1-3.1","battery-v0.2","","""event"",""trial"",""time""
""fullscreenenter"",""1"",""5382""
","
","
","""event"",""trial"",""time""
""fullscreenenter"",""1"",""5382""
","
","","","425.40000009536743","","","15","3499","2166","&#9789;","elianto","#f73b6a7A"," "," ","1","-10","[1279.9000000953674]","1","0","4","","","","","","","",""
"pit-trial","90","678551","0.0-2.0-17.1-4.1","battery-v0.2","","""event"",""trial"",""time""
""fullscreenenter"",""1"",""5382""
","
","
","""event"",""trial"",""time""
""fullscreenenter"",""1"",""5382""
","
","","","222.59999990463257","","","15","3499","2166","&#9789;","elianto","#f73b6a7A"," "," ","1","0","[1073.4000000953674]","1","0","4","","","","","","","",""
"pit-trial","91","681892","0.0-2.0-17.2-0.2","battery-v0.2","","""event"",""trial"",""time""
""fullscreenenter"",""1"",""5382""
","
","
","""event"",""trial"",""time""
""fullscreenenter"",""1"",""5382""
","
","","","479.40000009536743","","","15","3499","2166","&#9789;","elianto","#f73b6a7A"," "," ","1","0","[1334.2999999523163]","1","0","4","","","","","","","",""
"pit-trial","92","685222","0.0-2.0-17.2-1.2","battery-v0.2","","""event"",""trial"",""time""
""fullscreenenter"",""1"",""5382""
","
","
","""event"",""trial"",""time""
""fullscreenenter"",""1"",""5382""
","
","","","466.7000000476837","","","15","3499","2166","&#9789;","elianto","#f73b6a7A"," "," ","1","0","[1318.2000000476837]","1","0","4","","","","","","","",""
"pit-trial","93","688800","0.0-2.0-17.2-2.2","battery-v0.2","","""event"",""trial"",""time""
""fullscreenenter"",""1"",""5382""
","
","
","""event"",""trial"",""time""
""fullscreenenter"",""1"",""5382""
","
","","","716.1000001430511","","","15","3499","2166","&#9789;","elianto","#f73b6a7A"," "," ","1","0","[1568.5]","1","0","4","","","","","","","",""
"pit-trial","94","692240","0.0-2.0-17.2-3.2","battery-v0.2","","""event"",""trial"",""time""
""fullscreenenter"",""1"",""5382""
","
","
","""event"",""trial"",""time""
""fullscreenenter"",""1"",""5382""
","
","","","566.7999999523163","","","15","3499","2166","&#9789;","elianto","#f73b6a7A"," "," ","1","-10","[1421]","1","0","4","","","","","","","",""
"pit-trial","95","695572","0.0-2.0-17.2-4.2","battery-v0.2","","""event"",""trial"",""time""
""fullscreenenter"",""1"",""5382""
","
","
","""event"",""trial"",""time""
""fullscreenenter"",""1"",""5382""
","
","","","469.2000000476837","","","15","3499","2166","&#9789;","elianto","#f73b6a7A"," "," ","1","0","[1323.5999999046326]","1","0","4","","","","","","","",""
"pit-trial","96","699247","0.0-2.0-17.3-0.3","battery-v0.2","","""event"",""trial"",""time""
""fullscreenenter"",""1"",""5382""
","
","
","""event"",""trial"",""time""
""fullscreenenter"",""1"",""5382""
","
","","","802.5","","","15","3499","2166","&#9789;","elianto","#f73b6a7A"," "," ","1","0","[1654]","1","0","4","","","","","","","",""
"pit-trial","97","702535","0.0-2.0-17.3-1.3","battery-v0.2","","""event"",""trial"",""time""
""fullscreenenter"",""1"",""5382""
","
","
","""event"",""trial"",""time""
""fullscreenenter"",""1"",""5382""
","
","","","421.09999990463257","","","15","3499","2166","&#9789;","elianto","#f73b6a7A"," "," ","1","0","[1279.5999999046326]","1","0","4","","","","","","","",""
"pit-trial","98","705931","0.0-2.0-17.3-2.3","battery-v0.2","","""event"",""trial"",""time""
""fullscreenenter"",""1"",""5382""
","
","
","""event"",""trial"",""time""
""fullscreenenter"",""1"",""5382""
","
","","","540.7000000476837","","","15","3499","2166","&#9789;","elianto","#f73b6a7A"," "," ","1","0","[1391.4000000953674]","1","0","4","","","","","","","",""
"pit-trial","99","709297","0.0-2.0-17.3-3.3","battery-v0.2","","""event"",""trial"",""time""
""fullscreenenter"",""1"",""5382""
","
","
","""event"",""trial"",""time""
""fullscreenenter"",""1"",""5382""
","
","","","492.5","","","15","3499","2166","&#9789;","elianto","#f73b6a7A"," "," ","1","-10","[1344.2000000476837]","1","0","4","","","","","","","",""
"pit-trial","100","714132","0.0-2.0-17.3-4.3","battery-v0.2","","""event"",""trial"",""time""
""fullscreenenter"",""1"",""5382""
","
","
","""event"",""trial"",""time""
""fullscreenenter"",""1"",""5382""
","
","","","1967.7999999523163","","","15","3499","2166","&#9789;","elianto","#f73b6a7A"," "," ","1","0","[2824]","1","0","4","","","","","","","",""
"call-function","101","714135","0.0-2.0-18.0","battery-v0.2","","""event"",""trial"",""time""
""fullscreenenter"",""1"",""5382""
","
","
","""event"",""trial"",""time""
""fullscreenenter"",""1"",""5382""
","
","","","","","","","","","","","","","","","","","","","","","","","","","","",""
"pit-instructions","102","782596","0.0-2.0-19.0","battery-v0.2","","""event"",""trial"",""time""
""fullscreenenter"",""1"",""5382""
","
","
","""event"",""trial"",""time""
""fullscreenenter"",""1"",""5382""
","
","","[{""page_index"":0,""viewing_time"":6761.900000095367},{""page_index"":1,""viewing_time"":6209.199999809265},{""page_index"":2,""viewing_time"":9989.5},{""page_index"":3,""viewing_time"":8574.400000095367},{""page_index"":4,""viewing_time"":8443.900000095367},{""page_index"":5,""viewing_time"":8495.5},{""page_index"":6,""viewing_time"":9019.599999904633},{""page_index"":7,""viewing_time"":6472.299999952316},{""page_index"":8,""viewing_time"":4491.799999952316}]","68459.5","","","","","","","","","","","","","","","","","","","","","","","",""
"pit-comprehension","103","788990","0.0-2.0-20.0-0.0","battery-v0.2","","""event"",""trial"",""time""
""fullscreenenter"",""1"",""5382""
","
","
","""event"",""trial"",""time""
""fullscreenenter"",""1"",""5382""
","
","","","6380.600000143051","[""SPACE""]","0","15","3499","2166","","","","","","","","","","","","","","","","","","",""
"pit-instructions","104","792079","0.0-2.0-20.0-1.0","battery-v0.2","","""event"",""trial"",""time""
""fullscreenenter"",""1"",""5382""
","
","
","""event"",""trial"",""time""
""fullscreenenter"",""1"",""5382""
","
","","[{""page_index"":0,""viewing_time"":2923.7000000476837}]","2924.5","","","","","","","","","","","","","","","","","","","","","","","",""
"pit-comprehension","105","801084","0.0-2.0-21.0-0.0","battery-v0.2","","""event"",""trial"",""time""
""fullscreenenter"",""1"",""5382""
","
","
","""event"",""trial"",""time""
""fullscreenenter"",""1"",""5382""
","
","","","8991.600000143051","[""10""]","0","15","3499","2166","","","","","","","","","","","","","","","","","","",""
"pit-instructions","106","803288","0.0-2.0-21.0-1.0","battery-v0.2","","""event"",""trial"",""time""
""fullscreenenter"",""1"",""5382""
","
","
","""event"",""trial"",""time""
""fullscreenenter"",""1"",""5382""
","
","","[{""page_index"":0,""viewing_time"":2043.6000001430511}]","2044.7000000476837","","","","","","","","","","","","","","","","","","","","","","","",""
"pit-comprehension","107","812752","0.0-2.0-22.0-0.0","battery-v0.2","","""event"",""trial"",""time""
""fullscreenenter"",""1"",""5382""
","
","
","""event"",""trial"",""time""
""fullscreenenter"",""1"",""5382""
","
","","","9452.700000047684","[""0""]","0","15","3499","2166","","","","","","","","","","","","","","","","","","",""
"pit-instructions","108","814644","0.0-2.0-22.0-1.0","battery-v0.2","","""event"",""trial"",""time""
""fullscreenenter"",""1"",""5382""
","
","
","""event"",""trial"",""time""
""fullscreenenter"",""1"",""5382""
","
","","[{""page_index"":0,""viewing_time"":1731.8999998569489}]","1732.5999999046326","","","","","","","","","","","","","","","","","","","","","","","",""
"pit-comprehension","109","824354","0.0-2.0-23.0-0.0","battery-v0.2","","""event"",""trial"",""time""
""fullscreenenter"",""1"",""5382""
","
","
","""event"",""trial"",""time""
""fullscreenenter"",""1"",""5382""
","
","","","9699.400000095367","[""True""]","0","15","3499","2166","","","","","","","","","","","","","","","","","","",""
"pit-instructions","110","825904","0.0-2.0-23.0-1.0","battery-v0.2","","""event"",""trial"",""time""
""fullscreenenter"",""1"",""5382""
","
","
","""event"",""trial"",""time""
""fullscreenenter"",""1"",""5382""
","
","","[{""page_index"":0,""viewing_time"":1419.7000000476837}]","1420.2999999523163","","","","","","","","","","","","","","","","","","","","","","","",""
"pit-comprehension","111","836029","0.0-2.0-24.0-0.0","battery-v0.2","","""event"",""trial"",""time""
""fullscreenenter"",""1"",""5382""
","
","
","""event"",""trial"",""time""
""fullscreenenter"",""1"",""5382""
","
","","","10113.799999952316","[""True""]","0","15","3499","2166","","","","","","","","","","","","","","","","","","",""
"pit-instructions","112","837698","0.0-2.0-24.0-1.0","battery-v0.2","","""event"",""trial"",""time""
""fullscreenenter"",""1"",""5382""
","
","
","""event"",""trial"",""time""
""fullscreenenter"",""1"",""5382""
","
","","[{""page_index"":0,""viewing_time"":1511.5999999046326}]","1512.5999999046326","","","","","","","","","","","","","","","","","","","","","","","",""
"pit-comprehension","113","845728","0.0-2.0-25.0-0.0","battery-v0.2","","""event"",""trial"",""time""
""fullscreenenter"",""1"",""5382""
","
","
","""event"",""trial"",""time""
""fullscreenenter"",""1"",""5382""
","
","","","8017.199999809265","[""True""]","0","15","3499","2166","","","","","","","","","","","","","","","","","","",""
"pit-instructions","114","847398","0.0-2.0-25.0-1.0","battery-v0.2","","""event"",""trial"",""time""
""fullscreenenter"",""1"",""5382""
","
","
","""event"",""trial"",""time""
""fullscreenenter"",""1"",""5382""
","
","","[{""page_index"":0,""viewing_time"":1508}]","1508.7000000476837","","","","","","","","","","","","","","","","","","","","","","","",""
"pit-comprehension","115","852457","0.0-2.0-26.0-0.0","battery-v0.2","","""event"",""trial"",""time""
""fullscreenenter"",""1"",""5382""
","
","
","""event"",""trial"",""time""
""fullscreenenter"",""1"",""5382""
","
","","","5047","[""False""]","0","15","3499","2166","","","","","","","","","","","","","","","","","","",""
"pit-instructions","116","854133","0.0-2.0-26.0-1.0","battery-v0.2","","""event"",""trial"",""time""
""fullscreenenter"",""1"",""5382""
","
","
","""event"",""trial"",""time""
""fullscreenenter"",""1"",""5382""
","
","","[{""page_index"":0,""viewing_time"":1511.3999998569489}]","1512.0999999046326","","","","","","","","","","","","","","","","","","","","","","","",""
"pit-instructions","117","874964","0.0-3.0","battery-v0.2","","""event"",""trial"",""time""
""fullscreenenter"",""1"",""5382""
","
","
","""event"",""trial"",""time""
""fullscreenenter"",""1"",""5382""
","
","","[{""page_index"":0,""viewing_time"":6053.799999952316},{""page_index"":1,""viewing_time"":6779.400000095367},{""page_index"":2,""viewing_time"":7990.599999904633}]","20824.700000047684","","","","","","","","","","","","","","","","","","","","","","","",""
"pit-trial","118","878440","0.0-4.0","battery-v0.2","","""event"",""trial"",""time""
""fullscreenenter"",""1"",""5382""
","
","
","""event"",""trial"",""time""
""fullscreenenter"",""1"",""5382""
","
","","","609.9000000953674","","","15","3499","2166","&#9733;","elianto","#3366ff99","-1"," ","0","0","[1463]","1","1","","","3499","1","2","2","win","no-go","0"
"pit-trial","119","881950","0.0-5.0","battery-v0.2","","""event"",""trial"",""time""
""fullscreenenter"",""1"",""5382""
","
","
","""event"",""trial"",""time""
""fullscreenenter"",""1"",""5382""
","
","","","632.7000000476837","","","15","3499","2166","&#9730;","elianto","#3366ff99"," "," ","1","+10","[1492.3999998569489]","1","1","","","3499","2","1","1","win","go","0"
"pit-trial","120","886831","0.0-6.0","battery-v0.2","","""event"",""trial"",""time""
""fullscreenenter"",""1"",""5382""
","
","
","""event"",""trial"",""time""
""fullscreenenter"",""1"",""5382""
","
","","","-1","","","15","3499","2166","&#9752;","elianto","#f73b6a7A"," ","-1","0","-10","[]","0","1","","","3499","3","3","3","lose","go","0"
"pit-trial","121","891705","0.0-7.0","battery-v0.2","","""event"",""trial"",""time""
""fullscreenenter"",""1"",""5382""
","
","
","""event"",""trial"",""time""
""fullscreenenter"",""1"",""5382""
","
","","","-1","","","15","3499","2166","&#9728;","elianto","#f73b6a7A","-1","-1","1","-10","[]","0","1","","","3499","4","0","4","lose","no-go","1"
"pit-trial","122","895180","0.0-8.0","battery-v0.2","","""event"",""trial"",""time""
""fullscreenenter"",""1"",""5382""
","
","
","""event"",""trial"",""time""
""fullscreenenter"",""1"",""5382""
","
","","","601.2999999523163","","","15","3499","2166","&#9733;","elianto","#3366ff99","-1"," ","0","0","[1457.9000000953674]","1","1","","","3499","5","2","2","win","no-go","0"
"pit-trial","123","898600","0.0-9.0","battery-v0.2","","""event"",""trial"",""time""
""fullscreenenter"",""1"",""5382""
","
","
","""event"",""trial"",""time""
""fullscreenenter"",""1"",""5382""
","
","","","552.2000000476837","","","15","3499","2166","&#9730;","elianto","#3366ff99"," "," ","1","+10","[1406.5]","1","1","","","3499","6","1","1","win","go","0"
"pit-trial","124","901920","0.0-10.0","battery-v0.2","","""event"",""trial"",""time""
""fullscreenenter"",""1"",""5382""
","
","
","""event"",""trial"",""time""
""fullscreenenter"",""1"",""5382""
","
","","","451.7999999523163","","","15","3499","2166","&#9752;","elianto","#f73b6a7A"," "," ","1","0","[1305.7999999523163]","1","1","","","3499","7","3","3","lose","go","0"
"pit-trial","125","906795","0.0-11.0","battery-v0.2","","""event"",""trial"",""time""
""fullscreenenter"",""1"",""5382""
","
","
","""event"",""trial"",""time""
""fullscreenenter"",""1"",""5382""
","
","","","-1","","","15","3499","2166","&#9728;","elianto","#f73b6a7A","-1","-1","1","0","[]","0","1","","","3499","8","0","4","lose","no-go","0"
"pit-trial","126","910307","0.0-12.0","battery-v0.2","","""event"",""trial"",""time""
""fullscreenenter"",""1"",""5382""
","
","
","""event"",""trial"",""time""
""fullscreenenter"",""1"",""5382""
","
","","","647.1000001430511","","","15","3499","2166","&#9730;","elianto","#3366ff99"," "," ","1","+10","[1499.7999999523163]","1","1","","","3499","9","1","1","win","go","0"
"pit-trial","127","913900","0.0-13.0","battery-v0.2","","""event"",""trial"",""time""
""fullscreenenter"",""1"",""5382""
","
","
","""event"",""trial"",""time""
""fullscreenenter"",""1"",""5382""
","
","","","730.5","","","15","3499","2166","&#9728;","elianto","#f73b6a7A","-1"," ","0","-10","[1585.0999999046326]","1","1","","","3499","10","0","4","lose","no-go","0"
"pit-trial","128","917478","0.0-14.0","battery-v0.2","","""event"",""trial"",""time""
""fullscreenenter"",""1"",""5382""
","
","
","""event"",""trial"",""time""
""fullscreenenter"",""1"",""5382""
","
","","","715.2000000476837","","","15","3499","2166","&#9752;","elianto","#f73b6a7A"," "," ","1","0","[1566.4000000953674]","1","1","","","3499","11","3","3","lose","go","0"
"pit-trial","129","922345","0.0-15.0","battery-v0.2","","""event"",""trial"",""time""
""fullscreenenter"",""1"",""5382""
","
","
","""event"",""trial"",""time""
""fullscreenenter"",""1"",""5382""
","
","","","-1","","","15","3499","2166","&#9733;","elianto","#3366ff99","-1","-1","1","+10","[]","0","1","","","3499","12","2","2","win","no-go","0"
"pit-trial","130","927210","0.0-16.0","battery-v0.2","","""event"",""trial"",""time""
""fullscreenenter"",""1"",""5382""
","
","
","""event"",""trial"",""time""
""fullscreenenter"",""1"",""5382""
","
","","","-1","","","15","3499","2166","&#9733;","elianto","#3366ff99","-1","-1","1","+10","[]","0","1","","","3499","13","2","2","win","no-go","0"
"pit-trial","131","932084","0.0-17.0","battery-v0.2","","""event"",""trial"",""time""
""fullscreenenter"",""1"",""5382""
","
","
","""event"",""trial"",""time""
""fullscreenenter"",""1"",""5382""
","
","","","-1","","","15","3499","2166","&#9728;","elianto","#f73b6a7A","-1","-1","1","0","[]","0","1","","","3499","14","0","4","lose","no-go","0"
"pit-trial","132","935489","0.0-18.0","battery-v0.2","","""event"",""trial"",""time""
""fullscreenenter"",""1"",""5382""
","
","
","""event"",""trial"",""time""
""fullscreenenter"",""1"",""5382""
","
","","","543.6999998092651","","","15","3499","2166","&#9730;","elianto","#3366ff99"," "," ","1","+10","[1395.1999998092651]","1","1","","","3499","15","1","1","win","go","0"
"pit-trial","133","939073","0.0-19.0","battery-v0.2","","""event"",""trial"",""time""
""fullscreenenter"",""1"",""5382""
","
","
","""event"",""trial"",""time""
""fullscreenenter"",""1"",""5382""
","
","","","717.2000000476837","","","15","3499","2166","&#9752;","elianto","#f73b6a7A"," "," ","1","0","[1569.1000001430511]","1","1","","","3499","16","3","3","lose","go","0"
"pit-trial","134","942455","0.0-20.0","battery-v0.2","","""event"",""trial"",""time""
""fullscreenenter"",""1"",""5382""
","
","
","""event"",""trial"",""time""
""fullscreenenter"",""1"",""5382""
","
","","","515.6000001430511","","","15","3499","2166","&#9730;","elianto","#3366ff99"," "," ","1","+10","[1371.3000001907349]","1","1","","","3499","17","1","1","win","go","0"
"pit-trial","135","947335","0.0-21.0","battery-v0.2","","""event"",""trial"",""time""
""fullscreenenter"",""1"",""5382""
","
","
","""event"",""trial"",""time""
""fullscreenenter"",""1"",""5382""
","
","","","-1","","","15","3499","2166","&#9728;","elianto","#f73b6a7A","-1","-1","1","-10","[]","0","1","","","3499","18","0","4","lose","no-go","1"
"pit-trial","136","952192","0.0-22.0","battery-v0.2","","""event"",""trial"",""time""
""fullscreenenter"",""1"",""5382""
","
","
","""event"",""trial"",""time""
""fullscreenenter"",""1"",""5382""
","
","","","-1","","","15","3499","2166","&#9733;","elianto","#3366ff99","-1","-1","1","0","[]","0","1","","","3499","19","2","2","win","no-go","1"
"pit-trial","137","955687","0.0-23.0","battery-v0.2","","""event"",""trial"",""time""
""fullscreenenter"",""1"",""5382""
","
","
","""event"",""trial"",""time""
""fullscreenenter"",""1"",""5382""
","
","","","637.6000001430511","","","15","3499","2166","&#9752;","elianto","#f73b6a7A"," "," ","1","-10","[1487.7000000476837]","1","1","","","3499","20","3","3","lose","go","1"
"pit-instructions","138","970285","0.0-24.0","battery-v0.2","","""event"",""trial"",""time""
""fullscreenenter"",""1"",""5382""
","
","
","""event"",""trial"",""time""
""fullscreenenter"",""1"",""5382""
","
","","[{""page_index"":0,""viewing_time"":6882.099999904633},{""page_index"":1,""viewing_time"":7711.900000095367}]","14595.200000047684","","","","","","","","","","","","","","","","","","","","","","","",""
"pit-trial","139","973655","0.0-25.0","battery-v0.2","","""event"",""trial"",""time""
""fullscreenenter"",""1"",""5382""
","
","
","""event"",""trial"",""time""
""fullscreenenter"",""1"",""5382""
","
","","","502.7999999523163","","","15","3499","2166","e","elianto","#f73b6a7A","-1"," ","0","-10","[1354]","1","2","","","3499","21","2","4","lose","no-go","0"
"pit-trial","140","977115","0.0-26.0","battery-v0.2","","""event"",""trial"",""time""
""fullscreenenter"",""1"",""5382""
","
","
","""event"",""trial"",""time""
""fullscreenenter"",""1"",""5382""
","
","","","588.7000000476837","","","15","3499","2166","d","elianto","#3366ff99"," "," ","1","+10","[1439.1000001430511]","1","2","","","3499","22","1","1","win","go","0"
"pit-trial","141","980495","0.0-27.0","battery-v0.2","","""event"",""trial"",""time""
""fullscreenenter"",""1"",""5382""
","
","
","""event"",""trial"",""time""
""fullscreenenter"",""1"",""5382""
","
","","","511.60000014305115","","","15","3499","2166","w","elianto","#f73b6a7A"," "," ","1","-10","[1364.3999998569489]","1","2","","","3499","23","3","3","lose","go","1"
"pit-trial","142","983995","0.0-28.0","battery-v0.2","","""event"",""trial"",""time""
""fullscreenenter"",""1"",""5382""
","
","
","""event"",""trial"",""time""
""fullscreenenter"",""1"",""5382""
","
","","","622","","","15","3499","2166","j","elianto","#f73b6a7A","-1"," ","0","-10","[1476.9000000953674]","1","2","","","3499","24","0","4","lose","no-go","0"
"pit-trial","143","987415","0.0-29.0","battery-v0.2","","""event"",""trial"",""time""
""fullscreenenter"",""1"",""5382""
","
","
","""event"",""trial"",""time""
""fullscreenenter"",""1"",""5382""
","
","","","556.2999999523163","","","15","3499","2166","e","elianto","#f73b6a7A","-1"," ","0","-10","[1407.0999999046326]","1","2","","","3499","25","2","4","lose","no-go","0"
"pit-trial","144","992295","0.0-30.0","battery-v0.2","","""event"",""trial"",""time""
""fullscreenenter"",""1"",""5382""
","
","
","""event"",""trial"",""time""
""fullscreenenter"",""1"",""5382""
","
","","","-1","","","15","3499","2166","j","elianto","#f73b6a7A","-1","-1","1","0","[]","0","2","","","3499","26","0","4","lose","no-go","0"
"pit-trial","145","995960","0.0-31.0","battery-v0.2","","""event"",""trial"",""time""
""fullscreenenter"",""1"",""5382""
","
","
","""event"",""trial"",""time""
""fullscreenenter"",""1"",""5382""
","
","","","800.8000001907349","","","15","3499","2166","w","elianto","#f73b6a7A"," "," ","1","-10","[1654.9000000953674]","1","2","","","3499","27","3","3","lose","go","1"
"pit-trial","146","999325","0.0-32.0","battery-v0.2","","""event"",""trial"",""time""
""fullscreenenter"",""1"",""5382""
","
","
","""event"",""trial"",""time""
""fullscreenenter"",""1"",""5382""
","
","","","494.90000009536743","","","15","3499","2166","d","elianto","#3366ff99"," "," ","1","+10","[1347.8999998569489]","1","2","","","3499","28","1","1","win","go","0"
"pit-trial","147","1002742","0.0-33.0","battery-v0.2","","""event"",""trial"",""time""
""fullscreenenter"",""1"",""5382""
","
","
","""event"",""trial"",""time""
""fullscreenenter"",""1"",""5382""
","
","","","560.2000000476837","","","15","3499","2166","e","elianto","#f73b6a7A","-1"," ","0","-10","[1411.1999998092651]","1","2","","","3499","29","2","4","lose","no-go","0"
"pit-trial","148","1007618","0.0-34.0","battery-v0.2","","""event"",""trial"",""time""
""fullscreenenter"",""1"",""5382""
","
","
","""event"",""trial"",""time""
""fullscreenenter"",""1"",""5382""
","
","","","-1","","","15","3499","2166","j","elianto","#f73b6a7A","-1","-1","1","-10","[]","0","2","","","3499","30","0","4","lose","no-go","1"
"pit-trial","149","1012474","0.0-35.0","battery-v0.2","","""event"",""trial"",""time""
""fullscreenenter"",""1"",""5382""
","
","
","""event"",""trial"",""time""
""fullscreenenter"",""1"",""5382""
","
","","","-1","","","15","3499","2166","w","elianto","#f73b6a7A"," ","-1","0","0","[]","0","2","","","3499","31","3","3","lose","go","1"
"pit-trial","150","1015839","0.0-36.0","battery-v0.2","","""event"",""trial"",""time""
""fullscreenenter"",""1"",""5382""
","
","
","""event"",""trial"",""time""
""fullscreenenter"",""1"",""5382""
","
","","","498.90000009536743","","","15","3499","2166","d","elianto","#3366ff99"," "," ","1","+10","[1357.4000000953674]","1","2","","","3499","32","1","1","win","go","0"
"pit-trial","151","1020699","0.0-37.0","battery-v0.2","","""event"",""trial"",""time""
""fullscreenenter"",""1"",""5382""
","
","
","""event"",""trial"",""time""
""fullscreenenter"",""1"",""5382""
","
","","","-1","","","15","3499","2166","w","elianto","#f73b6a7A"," ","-1","0","0","[]","0","2","","","3499","33","3","3","lose","go","1"
"pit-trial","152","1024240","0.0-38.0","battery-v0.2","","""event"",""trial"",""time""
""fullscreenenter"",""1"",""5382""
","
","
","""event"",""trial"",""time""
""fullscreenenter"",""1"",""5382""
","
","","","677.7999999523163","","","15","3499","2166","d","elianto","#3366ff99"," "," ","1","+10","[1529.0999999046326]","1","2","","","3499","34","1","1","win","go","0"
"pit-trial","153","1029118","0.0-39.0","battery-v0.2","","""event"",""trial"",""time""
""fullscreenenter"",""1"",""5382""
","
","
","""event"",""trial"",""time""
""fullscreenenter"",""1"",""5382""
","
","","","-1","","","15","3499","2166","e","elianto","#f73b6a7A","-1","-1","1","-10","[]","0","2","","","3499","35","2","4","lose","no-go","1"
"pit-trial","154","1032459","0.0-40.0","battery-v0.2","","""event"",""trial"",""time""
""fullscreenenter"",""1"",""5382""
","
","
","""event"",""trial"",""time""
""fullscreenenter"",""1"",""5382""
","
","","","477.40000009536743","","","15","3499","2166","j","elianto","#f73b6a7A","-1"," ","0","0","[1332.8999998569489]","1","2","","","3499","36","0","4","lose","no-go","1"
"pit-trial","155","1036122","0.0-41.0","battery-v0.2","","""event"",""trial"",""time""
""fullscreenenter"",""1"",""5382""
","
","
","""event"",""trial"",""time""
""fullscreenenter"",""1"",""5382""
","
","","","790.2000000476837","","","15","3499","2166","e","elianto","#f73b6a7A","-1"," ","0","-10","[1646.3000001907349]","1","2","","","3499","37","2","4","lose","no-go","0"
"pit-trial","156","1040996","0.0-42.0","battery-v0.2","","""event"",""trial"",""time""
""fullscreenenter"",""1"",""5382""
","
","
","""event"",""trial"",""time""
""fullscreenenter"",""1"",""5382""
","
","","","-1","","","15","3499","2166","w","elianto","#f73b6a7A"," ","-1","0","-10","[]","0","2","","","3499","38","3","3","lose","go","0"
"pit-trial","157","1044359","0.0-43.0","battery-v0.2","","""event"",""trial"",""time""
""fullscreenenter"",""1"",""5382""
","
","
","""event"",""trial"",""time""
""fullscreenenter"",""1"",""5382""
","
","","","499.10000014305115","","","15","3499","2166","d","elianto","#3366ff99"," "," ","1","+10","[1350.5999999046326]","1","2","","","3499","39","1","1","win","go","0"
"pit-trial","158","1047717","0.0-44.0","battery-v0.2","","""event"",""trial"",""time""
""fullscreenenter"",""1"",""5382""
","
","
","""event"",""trial"",""time""
""fullscreenenter"",""1"",""5382""
","
","","","499.59999990463257","","","15","3499","2166","j","elianto","#f73b6a7A","-1"," ","0","-10","[1350.5]","1","2","","","3499","40","0","4","lose","no-go","0"
"pit-trial","159","1051146","0.0-45.0","battery-v0.2","","""event"",""trial"",""time""
""fullscreenenter"",""1"",""5382""
","
","
","""event"",""trial"",""time""
""fullscreenenter"",""1"",""5382""
","
","","","564.5","","","15","3499","2166","d","elianto","#3366ff99"," "," ","1","0","[1415.7999999523163]","1","2","","","3499","41","1","1","win","go","1"
"pit-trial","160","1056025","0.0-46.0","battery-v0.2","","""event"",""trial"",""time""
""fullscreenenter"",""1"",""5382""
","
","
","""event"",""trial"",""time""
""fullscreenenter"",""1"",""5382""
","
","","","-1","","","15","3499","2166","w","elianto","#f73b6a7A"," ","-1","0","-10","[]","0","2","","","3499","42","3","3","lose","go","0"
"pit-trial","161","1059537","0.0-47.0","battery-v0.2","","""event"",""trial"",""time""
""fullscreenenter"",""1"",""5382""
","
","
","""event"",""trial"",""time""
""fullscreenenter"",""1"",""5382""
","
","","","651.3000001907349","","","15","3499","2166","j","elianto","#f73b6a7A","-1"," ","0","-10","[1503.5999999046326]","1","2","","","3499","43","0","4","lose","no-go","0"
"pit-trial","162","1062873","0.0-48.0","battery-v0.2","","""event"",""trial"",""time""
""fullscreenenter"",""1"",""5382""
","
","
","""event"",""trial"",""time""
""fullscreenenter"",""1"",""5382""
","
","","","467.2000000476837","","","15","3499","2166","e","elianto","#f73b6a7A","-1"," ","0","0","[1321.8999998569489]","1","2","","","3499","44","2","4","lose","no-go","1"
"pit-trial","163","1066467","0.0-49.0","battery-v0.2","","""event"",""trial"",""time""
""fullscreenenter"",""1"",""5382""
","
","
","""event"",""trial"",""time""
""fullscreenenter"",""1"",""5382""
","
","","","717.7000000476837","","","15","3499","2166","e","elianto","#f73b6a7A","-1"," ","0","-10","[1571.8000001907349]","1","2","","","3499","45","2","4","lose","no-go","0"
"pit-trial","164","1069863","0.0-50.0","battery-v0.2","","""event"",""trial"",""time""
""fullscreenenter"",""1"",""5382""
","
","
","""event"",""trial"",""time""
""fullscreenenter"",""1"",""5382""
","
","","","538.8000001907349","","","15","3499","2166","j","elianto","#f73b6a7A","-1"," ","0","0","[1390.3999998569489]","1","2","","","3499","46","0","4","lose","no-go","1"
"pit-trial","165","1073263","0.0-51.0","battery-v0.2","","""event"",""trial"",""time""
""fullscreenenter"",""1"",""5382""
","
","
","""event"",""trial"",""time""
""fullscreenenter"",""1"",""5382""
","
","","","539.2999999523163","","","15","3499","2166","s","elianto","#3366ff99","-1"," ","0","0","[1391.7000000476837]","1","2","","","3499","47","4","2","win","no-go","0"
"pit-trial","166","1078127","0.0-52.0","battery-v0.2","","""event"",""trial"",""time""
""fullscreenenter"",""1"",""5382""
","
","
","""event"",""trial"",""time""
""fullscreenenter"",""1"",""5382""
","
","","","-1","","","15","3499","2166","w","elianto","#f73b6a7A"," ","-1","0","-10","[]","0","2","","","3499","48","3","3","lose","go","0"
"pit-trial","167","1082998","0.0-53.0","battery-v0.2","","""event"",""trial"",""time""
""fullscreenenter"",""1"",""5382""
","
","
","""event"",""trial"",""time""
""fullscreenenter"",""1"",""5382""
","
","","","-1","","","15","3499","2166","s","elianto","#3366ff99","-1","-1","1","+10","[]","0","2","","","3499","49","4","2","win","no-go","0"
"pit-trial","168","1086498","0.0-54.0","battery-v0.2","","""event"",""trial"",""time""
""fullscreenenter"",""1"",""5382""
","
","
","""event"",""trial"",""time""
""fullscreenenter"",""1"",""5382""
","
","","","638.4000000953674","","","15","3499","2166","d","elianto","#3366ff99"," "," ","1","+10","[1495]","1","2","","","3499","50","1","1","win","go","0"
"pit-trial","169","1089862","0.0-55.0","battery-v0.2","","""event"",""trial"",""time""
""fullscreenenter"",""1"",""5382""
","
","
","""event"",""trial"",""time""
""fullscreenenter"",""1"",""5382""
","
","","","497.59999990463257","","","15","3499","2166","j","elianto","#f73b6a7A","-1"," ","0","-10","[1350.2999999523163]","1","2","","","3499","51","0","4","lose","no-go","0"
"pit-trial","170","1093245","0.0-56.0","battery-v0.2","","""event"",""trial"",""time""
""fullscreenenter"",""1"",""5382""
","
","
","""event"",""trial"",""time""
""fullscreenenter"",""1"",""5382""
","
","","","520.8999998569489","","","15","3499","2166","w","elianto","#f73b6a7A"," "," ","1","0","[1373.7000000476837]","1","2","","","3499","52","3","3","lose","go","0"
"pit-trial","171","1098105","0.0-57.0","battery-v0.2","","""event"",""trial"",""time""
""fullscreenenter"",""1"",""5382""
","
","
","""event"",""trial"",""time""
""fullscreenenter"",""1"",""5382""
","
","","","-1","","","15","3499","2166","e","elianto","#f73b6a7A","-1","-1","1","0","[]","0","2","","","3499","53","2","4","lose","no-go","0"
"pit-trial","172","1102969","0.0-58.0","battery-v0.2","","""event"",""trial"",""time""
""fullscreenenter"",""1"",""5382""
","
","
","""event"",""trial"",""time""
""fullscreenenter"",""1"",""5382""
","
","","","-1","","","15","3499","2166","s","elianto","#3366ff99","-1","-1","1","+10","[]","0","2","","","3499","54","4","2","win","no-go","0"
"pit-trial","173","1106555","0.0-59.0","battery-v0.2","","""event"",""trial"",""time""
""fullscreenenter"",""1"",""5382""
","
","
","""event"",""trial"",""time""
""fullscreenenter"",""1"",""5382""
","
","","","721","","","15","3499","2166","j","elianto","#f73b6a7A","-1"," ","0","-10","[1572.0999999046326]","1","2","","","3499","55","0","4","lose","no-go","0"
"pit-trial","174","1110382","0.0-60.0","battery-v0.2","","""event"",""trial"",""time""
""fullscreenenter"",""1"",""5382""
","
","
","""event"",""trial"",""time""
""fullscreenenter"",""1"",""5382""
","
","","","970.9000000953674","","","15","3499","2166","d","elianto","#3366ff99"," "," ","1","+10","[1822.9000000953674]","1","2","","","3499","56","1","1","win","go","0"
"pit-trial","175","1115245","0.0-61.0","battery-v0.2","","""event"",""trial"",""time""
""fullscreenenter"",""1"",""5382""
","
","
","""event"",""trial"",""time""
""fullscreenenter"",""1"",""5382""
","
","","","-1","","","15","3499","2166","s","elianto","#3366ff99","-1","-1","1","+10","[]","0","2","","","3499","57","4","2","win","no-go","0"
"pit-trial","176","1118947","0.0-62.0","battery-v0.2","","""event"",""trial"",""time""
""fullscreenenter"",""1"",""5382""
","
","
","""event"",""trial"",""time""
""fullscreenenter"",""1"",""5382""
","
","","","841.2999999523163","","","15","3499","2166","j","elianto","#f73b6a7A","-1"," ","0","-10","[1694.7999999523163]","1","2","","","3499","58","0","4","lose","no-go","0"
"pit-trial","177","1122337","0.0-63.0","battery-v0.2","","""event"",""trial"",""time""
""fullscreenenter"",""1"",""5382""
","
","
","""event"",""trial"",""time""
""fullscreenenter"",""1"",""5382""
","
","","","532.6000001430511","","","15","3499","2166","w","elianto","#f73b6a7A"," "," ","1","-10","[1382.9000000953674]","1","2","","","3499","59","3","3","lose","go","1"
"pit-trial","178","1125732","0.0-64.0","battery-v0.2","","""event"",""trial"",""time""
""fullscreenenter"",""1"",""5382""
","
","
","""event"",""trial"",""time""
""fullscreenenter"",""1"",""5382""
","
","","","525.9000000953674","","","15","3499","2166","d","elianto","#3366ff99"," "," ","1","+10","[1381.8999998569489]","1","2","","","3499","60","1","1","win","go","0"
"pit-trial","179","1129276","0.0-65.0","battery-v0.2","","""event"",""trial"",""time""
""fullscreenenter"",""1"",""5382""
","
","
","""event"",""trial"",""time""
""fullscreenenter"",""1"",""5382""
","
","","","672.5","","","15","3499","2166","d","elianto","#3366ff99"," "," ","1","+10","[1523.7999999523163]","1","2","","","3499","61","1","1","win","go","0"
"pit-trial","180","1132980","0.0-66.0","battery-v0.2","","""event"",""trial"",""time""
""fullscreenenter"",""1"",""5382""
","
","
","""event"",""trial"",""time""
""fullscreenenter"",""1"",""5382""
","
","","","841.8999998569489","","","15","3499","2166","w","elianto","#f73b6a7A"," "," ","1","0","[1696.2999999523163]","1","2","","","3499","62","3","3","lose","go","0"
"pit-trial","181","1137843","0.0-67.0","battery-v0.2","","""event"",""trial"",""time""
""fullscreenenter"",""1"",""5382""
","
","
","""event"",""trial"",""time""
""fullscreenenter"",""1"",""5382""
","
","","","-1","","","15","3499","2166","s","elianto","#3366ff99","-1","-1","1","0","[]","0","2","","","3499","63","4","2","win","no-go","1"
"pit-trial","182","1142708","0.0-68.0","battery-v0.2","","""event"",""trial"",""time""
""fullscreenenter"",""1"",""5382""
","
","
","""event"",""trial"",""time""
""fullscreenenter"",""1"",""5382""
","
","","","-1","","","15","3499","2166","e","elianto","#f73b6a7A","-1","-1","1","0","[]","0","2","","","3499","64","2","4","lose","no-go","0"
"pit-trial","183","1146182","0.0-69.0","battery-v0.2","","""event"",""trial"",""time""
""fullscreenenter"",""1"",""5382""
","
","
","""event"",""trial"",""time""
""fullscreenenter"",""1"",""5382""
","
","","","614.5","","","15","3499","2166","d","elianto","#3366ff99"," "," ","1","+10","[1465]","1","2","","","3499","65","1","1","win","go","0"
"pit-trial","184","1151049","0.0-70.0","battery-v0.2","","""event"",""trial"",""time""
""fullscreenenter"",""1"",""5382""
","
","
","""event"",""trial"",""time""
""fullscreenenter"",""1"",""5382""
","
","","","-1","","","15","3499","2166","e","elianto","#f73b6a7A","-1","-1","1","0","[]","0","2","","","3499","66","2","4","lose","no-go","0"
"pit-trial","185","1154735","0.0-71.0","battery-v0.2","","""event"",""trial"",""time""
""fullscreenenter"",""1"",""5382""
","
","
","""event"",""trial"",""time""
""fullscreenenter"",""1"",""5382""
","
","","","825.3999998569489","","","15","3499","2166","w","elianto","#f73b6a7A"," "," ","1","0","[1677.2999999523163]","1","2","","","3499","67","3","3","lose","go","0"
"pit-trial","186","1159608","0.0-72.0","battery-v0.2","","""event"",""trial"",""time""
""fullscreenenter"",""1"",""5382""
","
","
","""event"",""trial"",""time""
""fullscreenenter"",""1"",""5382""
","
","","","-1","","","15","3499","2166","s","elianto","#3366ff99","-1","-1","1","+10","[]","0","2","","","3499","68","4","2","win","no-go","0"
"pit-trial","187","1162954","0.0-73.0","battery-v0.2","","""event"",""trial"",""time""
""fullscreenenter"",""1"",""5382""
","
","
","""event"",""trial"",""time""
""fullscreenenter"",""1"",""5382""
","
","","","482.39999985694885","","","15","3499","2166","d","elianto","#3366ff99"," "," ","1","+10","[1333.7000000476837]","1","2","","","3499","69","1","1","win","go","0"
"pit-trial","188","1167814","0.0-74.0","battery-v0.2","","""event"",""trial"",""time""
""fullscreenenter"",""1"",""5382""
","
","
","""event"",""trial"",""time""
""fullscreenenter"",""1"",""5382""
","
","","","-1","","","15","3499","2166","s","elianto","#3366ff99","-1","-1","1","+10","[]","0","2","","","3499","70","4","2","win","no-go","0"
"pit-trial","189","1171554","0.0-75.0","battery-v0.2","","""event"",""trial"",""time""
""fullscreenenter"",""1"",""5382""
","
","
","""event"",""trial"",""time""
""fullscreenenter"",""1"",""5382""
","
","","","872.8000001907349","","","15","3499","2166","p","elianto","#3366ff99"," "," ","1","0","[1728.2999999523163]","1","2","","","3499","71","5","1","win","go","1"
"pit-trial","190","1175205","0.0-76.0","battery-v0.2","","""event"",""trial"",""time""
""fullscreenenter"",""1"",""5382""
","
","
","""event"",""trial"",""time""
""fullscreenenter"",""1"",""5382""
","
","","","788.6000001430511","","","15","3499","2166","w","elianto","#f73b6a7A"," "," ","1","0","[1643.9000000953674]","1","2","","","3499","72","3","3","lose","go","0"
"pit-trial","191","1180066","0.0-77.0","battery-v0.2","","""event"",""trial"",""time""
""fullscreenenter"",""1"",""5382""
","
","
","""event"",""trial"",""time""
""fullscreenenter"",""1"",""5382""
","
","","","-1","","","15","3499","2166","p","elianto","#3366ff99"," ","-1","0","0","[]","0","2","","","3499","73","5","1","win","go","0"
"pit-trial","192","1184931","0.0-78.0","battery-v0.2","","""event"",""trial"",""time""
""fullscreenenter"",""1"",""5382""
","
","
","""event"",""trial"",""time""
""fullscreenenter"",""1"",""5382""
","
","","","-1","","","15","3499","2166","s","elianto","#3366ff99","-1","-1","1","0","[]","0","2","","","3499","74","4","2","win","no-go","1"
"pit-trial","193","1188651","0.0-79.0","battery-v0.2","","""event"",""trial"",""time""
""fullscreenenter"",""1"",""5382""
","
","
","""event"",""trial"",""time""
""fullscreenenter"",""1"",""5382""
","
","","","859.5","","","15","3499","2166","w","elianto","#f73b6a7A"," "," ","1","-10","[1709.9000000953674]","1","2","","","3499","75","3","3","lose","go","1"
"pit-trial","194","1192235","0.0-80.0","battery-v0.2","","""event"",""trial"",""time""
""fullscreenenter"",""1"",""5382""
","
","
","""event"",""trial"",""time""
""fullscreenenter"",""1"",""5382""
","
","","","720.9000000953674","","","15","3499","2166","d","elianto","#3366ff99"," "," ","1","+10","[1573]","1","2","","","3499","76","1","1","win","go","0"
"pit-trial","195","1197102","0.0-81.0","battery-v0.2","","""event"",""trial"",""time""
""fullscreenenter"",""1"",""5382""
","
","
","""event"",""trial"",""time""
""fullscreenenter"",""1"",""5382""
","
","","","-1","","","15","3499","2166","s","elianto","#3366ff99","-1","-1","1","+10","[]","0","2","","","3499","77","4","2","win","no-go","0"
"pit-trial","196","1200521","0.0-82.0","battery-v0.2","","""event"",""trial"",""time""
""fullscreenenter"",""1"",""5382""
","
","
","""event"",""trial"",""time""
""fullscreenenter"",""1"",""5382""
","
","","","558.9000000953674","","","15","3499","2166","p","elianto","#3366ff99"," "," ","1","+10","[1411.7000000476837]","1","2","","","3499","78","5","1","win","go","0"
"pit-trial","197","1203983","0.0-83.0","battery-v0.2","","""event"",""trial"",""time""
""fullscreenenter"",""1"",""5382""
","
","
","""event"",""trial"",""time""
""fullscreenenter"",""1"",""5382""
","
","","","602.1999998092651","","","15","3499","2166","w","elianto","#f73b6a7A"," "," ","1","0","[1453.5]","1","2","","","3499","79","3","3","lose","go","0"
"pit-trial","198","1208272","0.0-84.0","battery-v0.2","","""event"",""trial"",""time""
""fullscreenenter"",""1"",""5382""
","
","
","""event"",""trial"",""time""
""fullscreenenter"",""1"",""5382""
","
","","","1426.3999998569489","","","15","3499","2166","g","elianto","#f73b6a7A","-1"," ","0","-10","[2279]","1","2","","","3499","80","6","4","lose","no-go","0"
"pit-trial","199","1212157","0.0-85.0","battery-v0.2","","""event"",""trial"",""time""
""fullscreenenter"",""1"",""5382""
","
","
","""event"",""trial"",""time""
""fullscreenenter"",""1"",""5382""
","
","","","1020.7999999523163","","","15","3499","2166","a","elianto","#f73b6a7A"," "," ","1","0","[1876.5]","1","2","","","3499","81","7","3","lose","go","0"
"pit-trial","200","1217036","0.0-86.0","battery-v0.2","","""event"",""trial"",""time""
""fullscreenenter"",""1"",""5382""
","
","
","""event"",""trial"",""time""
""fullscreenenter"",""1"",""5382""
","
","","","-1","","","15","3499","2166","g","elianto","#f73b6a7A","-1","-1","1","0","[]","0","2","","","3499","82","6","4","lose","no-go","0"
"pit-trial","201","1220477","0.0-87.0","battery-v0.2","","""event"",""trial"",""time""
""fullscreenenter"",""1"",""5382""
","
","
","""event"",""trial"",""time""
""fullscreenenter"",""1"",""5382""
","
","","","573.5999999046326","","","15","3499","2166","p","elianto","#3366ff99"," "," ","1","+10","[1424.2000000476837]","1","2","","","3499","83","5","1","win","go","0"
"pit-trial","202","1225343","0.0-88.0","battery-v0.2","","""event"",""trial"",""time""
""fullscreenenter"",""1"",""5382""
","
","
","""event"",""trial"",""time""
""fullscreenenter"",""1"",""5382""
","
","","","-1","","","15","3499","2166","s","elianto","#3366ff99","-1","-1","1","+10","[]","0","2","","","3499","84","4","2","win","no-go","0"
"pit-trial","203","1230212","0.0-89.0","battery-v0.2","","""event"",""trial"",""time""
""fullscreenenter"",""1"",""5382""
","
","
","""event"",""trial"",""time""
""fullscreenenter"",""1"",""5382""
","
","","","-1","","","15","3499","2166","s","elianto","#3366ff99","-1","-1","1","+10","[]","0","2","","","3499","85","4","2","win","no-go","0"
"pit-trial","204","1233749","0.0-90.0","battery-v0.2","","""event"",""trial"",""time""
""fullscreenenter"",""1"",""5382""
","
","
","""event"",""trial"",""time""
""fullscreenenter"",""1"",""5382""
","
","","","674.7999999523163","","","15","3499","2166","a","elianto","#f73b6a7A"," "," ","1","0","[1525.2000000476837]","1","2","","","3499","86","7","3","lose","go","0"
"pit-trial","205","1237338","0.0-91.0","battery-v0.2","","""event"",""trial"",""time""
""fullscreenenter"",""1"",""5382""
","
","
","""event"",""trial"",""time""
""fullscreenenter"",""1"",""5382""
","
","","","726.2999999523163","","","15","3499","2166","p","elianto","#3366ff99"," "," ","1","+10","[1581.9000000953674]","1","2","","","3499","87","5","1","win","go","0"
"pit-trial","206","1242212","0.0-92.0","battery-v0.2","","""event"",""trial"",""time""
""fullscreenenter"",""1"",""5382""
","
","
","""event"",""trial"",""time""
""fullscreenenter"",""1"",""5382""
","
","","","-1","","","15","3499","2166","g","elianto","#f73b6a7A","-1","-1","1","0","[]","0","2","","","3499","88","6","4","lose","no-go","0"
"pit-trial","207","1247083","0.0-93.0","battery-v0.2","","""event"",""trial"",""time""
""fullscreenenter"",""1"",""5382""
","
","
","""event"",""trial"",""time""
""fullscreenenter"",""1"",""5382""
","
","","","-1","","","15","3499","2166","s","elianto","#3366ff99","-1","-1","1","0","[]","0","2","","","3499","89","4","2","win","no-go","1"
"pit-trial","208","1251964","0.0-94.0","battery-v0.2","","""event"",""trial"",""time""
""fullscreenenter"",""1"",""5382""
","
","
","""event"",""trial"",""time""
""fullscreenenter"",""1"",""5382""
","
","","","-1","","","15","3499","2166","g","elianto","#f73b6a7A","-1","-1","1","0","[]","0","2","","","3499","90","6","4","lose","no-go","0"
"pit-trial","209","1255526","0.0-95.0","battery-v0.2","","""event"",""trial"",""time""
""fullscreenenter"",""1"",""5382""
","
","
","""event"",""trial"",""time""
""fullscreenenter"",""1"",""5382""
","
","","","702.2999999523163","","","15","3499","2166","a","elianto","#f73b6a7A"," "," ","1","0","[1552.7999999523163]","1","2","","","3499","91","7","3","lose","go","0"
"pit-trial","210","1259027","0.0-96.0","battery-v0.2","","""event"",""trial"",""time""
""fullscreenenter"",""1"",""5382""
","
","
","""event"",""trial"",""time""
""fullscreenenter"",""1"",""5382""
","
","","","638.1000001430511","","","15","3499","2166","p","elianto","#3366ff99"," "," ","1","+10","[1488.5]","1","2","","","3499","92","5","1","win","go","0"
"pit-trial","211","1262558","0.0-97.0","battery-v0.2","","""event"",""trial"",""time""
""fullscreenenter"",""1"",""5382""
","
","
","""event"",""trial"",""time""
""fullscreenenter"",""1"",""5382""
","
","","","661.3999998569489","","","15","3499","2166","l","elianto","#3366ff99","-1"," ","0","0","[1517.6000001430511]","1","2","","","3499","93","8","2","win","no-go","0"
"pit-trial","212","1266076","0.0-98.0","battery-v0.2","","""event"",""trial"",""time""
""fullscreenenter"",""1"",""5382""
","
","
","""event"",""trial"",""time""
""fullscreenenter"",""1"",""5382""
","
","","","655.7000000476837","","","15","3499","2166","a","elianto","#f73b6a7A"," "," ","1","0","[1506.3999998569489]","1","2","","","3499","94","7","3","lose","go","0"
"pit-trial","213","1269722","0.0-99.0","battery-v0.2","","""event"",""trial"",""time""
""fullscreenenter"",""1"",""5382""
","
","
","""event"",""trial"",""time""
""fullscreenenter"",""1"",""5382""
","
","","","780.5","","","15","3499","2166","p","elianto","#3366ff99"," "," ","1","+10","[1632.5999999046326]","1","2","","","3499","95","5","1","win","go","0"
"pit-trial","214","1274598","0.0-100.0","battery-v0.2","","""event"",""trial"",""time""
""fullscreenenter"",""1"",""5382""
","
","
","""event"",""trial"",""time""
""fullscreenenter"",""1"",""5382""
","
","","","-1","","","15","3499","2166","g","elianto","#f73b6a7A","-1","-1","1","-10","[]","0","2","","","3499","96","6","4","lose","no-go","1"
"pit-trial","215","1279467","0.0-101.0","battery-v0.2","","""event"",""trial"",""time""
""fullscreenenter"",""1"",""5382""
","
","
","""event"",""trial"",""time""
""fullscreenenter"",""1"",""5382""
","
","","","-1","","","15","3499","2166","l","elianto","#3366ff99","-1","-1","1","0","[]","0","2","","","3499","97","8","2","win","no-go","1"
"pit-trial","216","1284329","0.0-102.0","battery-v0.2","","""event"",""trial"",""time""
""fullscreenenter"",""1"",""5382""
","
","
","""event"",""trial"",""time""
""fullscreenenter"",""1"",""5382""
","
","","","-1","","","15","3499","2166","g","elianto","#f73b6a7A","-1","-1","1","0","[]","0","2","","","3499","98","6","4","lose","no-go","0"
"pit-trial","217","1287779","0.0-103.0","battery-v0.2","","""event"",""trial"",""time""
""fullscreenenter"",""1"",""5382""
","
","
","""event"",""trial"",""time""
""fullscreenenter"",""1"",""5382""
","
","","","573","","","15","3499","2166","a","elianto","#f73b6a7A"," "," ","1","-10","[1429.2000000476837]","1","2","","","3499","99","7","3","lose","go","1"
"pit-trial","218","1291317","0.0-104.0","battery-v0.2","","""event"",""trial"",""time""
""fullscreenenter"",""1"",""5382""
","
","
","""event"",""trial"",""time""
""fullscreenenter"",""1"",""5382""
","
","","","681.7000000476837","","","15","3499","2166","p","elianto","#3366ff99"," "," ","1","+10","[1532]","1","2","","","3499","100","5","1","win","go","0"
"pit-trial","219","1295106","0.0-105.0","battery-v0.2","","""event"",""trial"",""time""
""fullscreenenter"",""1"",""5382""
","
","
","""event"",""trial"",""time""
""fullscreenenter"",""1"",""5382""
","
","","","928.7000000476837","","","15","3499","2166","u","elianto","#3366ff99","-1"," ","0","+10","[1783.8999998569489]","1","2","","","3499","101","9","2","win","no-go","1"
"pit-trial","220","1298668","0.0-106.0","battery-v0.2","","""event"",""trial"",""time""
""fullscreenenter"",""1"",""5382""
","
","
","""event"",""trial"",""time""
""fullscreenenter"",""1"",""5382""
","
","","","701.2000000476837","","","15","3499","2166","p","elianto","#3366ff99"," "," ","1","+10","[1553.5]","1","2","","","3499","102","5","1","win","go","0"
"pit-trial","221","1303528","0.0-107.0","battery-v0.2","","""event"",""trial"",""time""
""fullscreenenter"",""1"",""5382""
","
","
","""event"",""trial"",""time""
""fullscreenenter"",""1"",""5382""
","
","","","-1","","","15","3499","2166","g","elianto","#f73b6a7A","-1","-1","1","0","[]","0","2","","","3499","103","6","4","lose","no-go","0"
"pit-trial","222","1307404","0.0-108.0","battery-v0.2","","""event"",""trial"",""time""
""fullscreenenter"",""1"",""5382""
","
","
","""event"",""trial"",""time""
""fullscreenenter"",""1"",""5382""
","
","","","1006.9000000953674","","","15","3499","2166","l","elianto","#3366ff99","-1"," ","0","+10","[1862.3000001907349]","1","2","","","3499","104","8","2","win","no-go","1"
"pit-trial","223","1311018","0.0-109.0","battery-v0.2","","""event"",""trial"",""time""
""fullscreenenter"",""1"",""5382""
","
","
","""event"",""trial"",""time""
""fullscreenenter"",""1"",""5382""
","
","","","750.9000000953674","","","15","3499","2166","l","elianto","#3366ff99","-1"," ","0","0","[1604.3999998569489]","1","2","","","3499","105","8","2","win","no-go","0"
"pit-trial","224","1315876","0.0-110.0","battery-v0.2","","""event"",""trial"",""time""
""fullscreenenter"",""1"",""5382""
","
","
","""event"",""trial"",""time""
""fullscreenenter"",""1"",""5382""
","
","","","-1","","","15","3499","2166","g","elianto","#f73b6a7A","-1","-1","1","0","[]","0","2","","","3499","106","6","4","lose","no-go","0"
"pit-trial","225","1319477","0.0-111.0","battery-v0.2","","""event"",""trial"",""time""
""fullscreenenter"",""1"",""5382""
","
","
","""event"",""trial"",""time""
""fullscreenenter"",""1"",""5382""
","
","","","733.1999998092651","","","15","3499","2166","u","elianto","#3366ff99","-1"," ","0","0","[1591.6999998092651]","1","2","","","3499","107","9","2","win","no-go","0"
"pit-trial","226","1322907","0.0-112.0","battery-v0.2","","""event"",""trial"",""time""
""fullscreenenter"",""1"",""5382""
","
","
","""event"",""trial"",""time""
""fullscreenenter"",""1"",""5382""
","
","","","563.8999998569489","","","15","3499","2166","p","elianto","#3366ff99"," "," ","1","+10","[1418.7000000476837]","1","2","","","3499","108","5","1","win","go","0"
"pit-trial","227","1326447","0.0-113.0","battery-v0.2","","""event"",""trial"",""time""
""fullscreenenter"",""1"",""5382""
","
","
","""event"",""trial"",""time""
""fullscreenenter"",""1"",""5382""
","
","","","671.2000000476837","","","15","3499","2166","p","elianto","#3366ff99"," "," ","1","0","[1525.8999998569489]","1","2","","","3499","109","5","1","win","go","1"
"pit-trial","228","1331309","0.0-114.0","battery-v0.2","","""event"",""trial"",""time""
""fullscreenenter"",""1"",""5382""
","
","
","""event"",""trial"",""time""
""fullscreenenter"",""1"",""5382""
","
","","","-1","","","15","3499","2166","g","elianto","#f73b6a7A","-1","-1","1","0","[]","0","2","","","3499","110","6","4","lose","no-go","0"
"pit-trial","229","1334790","0.0-115.0","battery-v0.2","","""event"",""trial"",""time""
""fullscreenenter"",""1"",""5382""
","
","
","""event"",""trial"",""time""
""fullscreenenter"",""1"",""5382""
","
","","","613.7000000476837","","","15","3499","2166","u","elianto","#3366ff99","-1"," ","0","0","[1464.7000000476837]","1","2","","","3499","111","9","2","win","no-go","0"
"pit-trial","230","1338295","0.0-116.0","battery-v0.2","","""event"",""trial"",""time""
""fullscreenenter"",""1"",""5382""
","
","
","""event"",""trial"",""time""
""fullscreenenter"",""1"",""5382""
","
","","","645","","","15","3499","2166","l","elianto","#3366ff99","-1"," ","0","0","[1495.0999999046326]","1","2","","","3499","112","8","2","win","no-go","0"
"pit-trial","231","1341823","0.0-117.0","battery-v0.2","","""event"",""trial"",""time""
""fullscreenenter"",""1"",""5382""
","
","
","""event"",""trial"",""time""
""fullscreenenter"",""1"",""5382""
","
","","","661.0999999046326","","","15","3499","2166","a","elianto","#f73b6a7A"," "," ","1","0","[1513.4000000953674]","1","2","","","3499","113","7","3","lose","go","0"
"pit-trial","232","1345287","0.0-118.0","battery-v0.2","","""event"",""trial"",""time""
""fullscreenenter"",""1"",""5382""
","
","
","""event"",""trial"",""time""
""fullscreenenter"",""1"",""5382""
","
","","","600.3000001907349","","","15","3499","2166","p","elianto","#3366ff99"," "," ","1","0","[1455.2000000476837]","1","2","","","3499","114","5","1","win","go","1"
"pit-trial","233","1348822","0.0-119.0","battery-v0.2","","""event"",""trial"",""time""
""fullscreenenter"",""1"",""5382""
","
","
","""event"",""trial"",""time""
""fullscreenenter"",""1"",""5382""
","
","","","661.2000000476837","","","15","3499","2166","u","elianto","#3366ff99","-1"," ","0","0","[1516.2000000476837]","1","2","","","3499","115","9","2","win","no-go","0"
"pit-trial","234","1353684","0.0-120.0","battery-v0.2","","""event"",""trial"",""time""
""fullscreenenter"",""1"",""5382""
","
","
","""event"",""trial"",""time""
""fullscreenenter"",""1"",""5382""
","
","","","-1","","","15","3499","2166","l","elianto","#3366ff99","-1","-1","1","+10","[]","0","2","","","3499","116","8","2","win","no-go","0"
"pit-trial","235","1358557","0.0-121.0","battery-v0.2","","""event"",""trial"",""time""
""fullscreenenter"",""1"",""5382""
","
","
","""event"",""trial"",""time""
""fullscreenenter"",""1"",""5382""
","
","","","-1","","","15","3499","2166","l","elianto","#3366ff99","-1","-1","1","+10","[]","0","2","","","3499","117","8","2","win","no-go","0"
"pit-trial","236","1362159","0.0-122.0","battery-v0.2","","""event"",""trial"",""time""
""fullscreenenter"",""1"",""5382""
","
","
","""event"",""trial"",""time""
""fullscreenenter"",""1"",""5382""
","
","","","737.2999999523163","","","15","3499","2166","p","elianto","#3366ff99"," "," ","1","+10","[1593.5]","1","2","","","3499","118","5","1","win","go","0"
"pit-trial","237","1365543","0.0-123.0","battery-v0.2","","""event"",""trial"",""time""
""fullscreenenter"",""1"",""5382""
","
","
","""event"",""trial"",""time""
""fullscreenenter"",""1"",""5382""
","
","","","524.5","","","15","3499","2166","u","elianto","#3366ff99","-1"," ","0","0","[1376.3999998569489]","1","2","","","3499","119","9","2","win","no-go","0"
"pit-trial","238","1370412","0.0-124.0","battery-v0.2","","""event"",""trial"",""time""
""fullscreenenter"",""1"",""5382""
","
","
","""event"",""trial"",""time""
""fullscreenenter"",""1"",""5382""
","
","","","-1","","","15","3499","2166","g","elianto","#f73b6a7A","-1","-1","1","0","[]","0","2","","","3499","120","6","4","lose","no-go","0"
"pit-trial","239","1374044","0.0-125.0","battery-v0.2","","""event"",""trial"",""time""
""fullscreenenter"",""1"",""5382""
","
","
","""event"",""trial"",""time""
""fullscreenenter"",""1"",""5382""
","
","","","764.1000001430511","","","15","3499","2166","p","elianto","#3366ff99"," "," ","1","+10","[1623.5999999046326]","1","2","","","3499","121","5","1","win","go","0"
"pit-trial","240","1378911","0.0-126.0","battery-v0.2","","""event"",""trial"",""time""
""fullscreenenter"",""1"",""5382""
","
","
","""event"",""trial"",""time""
""fullscreenenter"",""1"",""5382""
","
","","","-1","","","15","3499","2166","u","elianto","#3366ff99","-1","-1","1","0","[]","0","2","","","3499","122","9","2","win","no-go","1"
"pit-trial","241","1383781","0.0-127.0","battery-v0.2","","""event"",""trial"",""time""
""fullscreenenter"",""1"",""5382""
","
","
","""event"",""trial"",""time""
""fullscreenenter"",""1"",""5382""
","
","","","-1","","","15","3499","2166","l","elianto","#3366ff99","-1","-1","1","+10","[]","0","2","","","3499","123","8","2","win","no-go","0"
"pit-trial","242","1387262","0.0-128.0","battery-v0.2","","""event"",""trial"",""time""
""fullscreenenter"",""1"",""5382""
","
","
","""event"",""trial"",""time""
""fullscreenenter"",""1"",""5382""
","
","","","621.9000000953674","","","15","3499","2166","a","elianto","#f73b6a7A"," "," ","1","0","[1472.7000000476837]","1","2","","","3499","124","7","3","lose","go","0"
"pit-trial","243","1392126","0.0-129.0","battery-v0.2","","""event"",""trial"",""time""
""fullscreenenter"",""1"",""5382""
","
","
","""event"",""trial"",""time""
""fullscreenenter"",""1"",""5382""
","
","","","-1","","","15","3499","2166","g","elianto","#f73b6a7A","-1","-1","1","0","[]","0","2","","","3499","125","6","4","lose","no-go","0"
"pit-trial","244","1395629","0.0-130.0","battery-v0.2","","""event"",""trial"",""time""
""fullscreenenter"",""1"",""5382""
","
","
","""event"",""trial"",""time""
""fullscreenenter"",""1"",""5382""
","
","","","637.4000000953674","","","15","3499","2166","u","elianto","#3366ff99","-1"," ","0","0","[1496.2999999523163]","1","2","","","3499","126","9","2","win","no-go","0"
"pit-trial","245","1400491","0.0-131.0","battery-v0.2","","""event"",""trial"",""time""
""fullscreenenter"",""1"",""5382""
","
","
","""event"",""trial"",""time""
""fullscreenenter"",""1"",""5382""
","
","","","-1","","","15","3499","2166","l","elianto","#3366ff99","-1","-1","1","+10","[]","0","2","","","3499","127","8","2","win","no-go","0"
"pit-trial","246","1404076","0.0-132.0","battery-v0.2","","""event"",""trial"",""time""
""fullscreenenter"",""1"",""5382""
","
","
","""event"",""trial"",""time""
""fullscreenenter"",""1"",""5382""
","
","","","723.7000000476837","","","15","3499","2166","a","elianto","#f73b6a7A"," "," ","1","0","[1575.7000000476837]","1","2","","","3499","128","7","3","lose","go","0"
"pit-trial","247","1407648","0.0-133.0","battery-v0.2","","""event"",""trial"",""time""
""fullscreenenter"",""1"",""5382""
","
","
","""event"",""trial"",""time""
""fullscreenenter"",""1"",""5382""
","
","","","710.7000000476837","","","15","3499","2166","a","elianto","#f73b6a7A"," "," ","1","0","[1564.3999998569489]","1","2","","","3499","129","7","3","lose","go","0"
"pit-trial","248","1412513","0.0-134.0","battery-v0.2","","""event"",""trial"",""time""
""fullscreenenter"",""1"",""5382""
","
","
","""event"",""trial"",""time""
""fullscreenenter"",""1"",""5382""
","
","","","-1","","","15","3499","2166","l","elianto","#3366ff99","-1","-1","1","+10","[]","0","2","","","3499","130","8","2","win","no-go","0"
"pit-trial","249","1417381","0.0-135.0","battery-v0.2","","""event"",""trial"",""time""
""fullscreenenter"",""1"",""5382""
","
","
","""event"",""trial"",""time""
""fullscreenenter"",""1"",""5382""
","
","","","-1","","","15","3499","2166","g","elianto","#f73b6a7A","-1","-1","1","-10","[]","0","2","","","3499","131","6","4","lose","no-go","1"
"pit-trial","250","1422243","0.0-136.0","battery-v0.2","","""event"",""trial"",""time""
""fullscreenenter"",""1"",""5382""
","
","
","""event"",""trial"",""time""
""fullscreenenter"",""1"",""5382""
","
","","","-1","","","15","3499","2166","u","elianto","#3366ff99","-1","-1","1","+10","[]","0","2","","","3499","132","9","2","win","no-go","0"
"pit-trial","251","1427110","0.0-137.0","battery-v0.2","","""event"",""trial"",""time""
""fullscreenenter"",""1"",""5382""
","
","
","""event"",""trial"",""time""
""fullscreenenter"",""1"",""5382""
","
","","","-1","","","15","3499","2166","g","elianto","#f73b6a7A","-1","-1","1","0","[]","0","2","","","3499","133","6","4","lose","no-go","0"
"pit-trial","252","1431982","0.0-138.0","battery-v0.2","","""event"",""trial"",""time""
""fullscreenenter"",""1"",""5382""
","
","
","""event"",""trial"",""time""
""fullscreenenter"",""1"",""5382""
","
","","","-1","","","15","3499","2166","l","elianto","#3366ff99","-1","-1","1","+10","[]","0","2","","","3499","134","8","2","win","no-go","0"
"pit-trial","253","1436847","0.0-139.0","battery-v0.2","","""event"",""trial"",""time""
""fullscreenenter"",""1"",""5382""
","
","
","""event"",""trial"",""time""
""fullscreenenter"",""1"",""5382""
","
","","","-1","","","15","3499","2166","u","elianto","#3366ff99","-1","-1","1","+10","[]","0","2","","","3499","135","9","2","win","no-go","0"
"pit-trial","254","1440244","0.0-140.0","battery-v0.2","","""event"",""trial"",""time""
""fullscreenenter"",""1"",""5382""
","
","
","""event"",""trial"",""time""
""fullscreenenter"",""1"",""5382""
","
","","","533.0999999046326","","","15","3499","2166","a","elianto","#f73b6a7A"," "," ","1","0","[1386.2000000476837]","1","2","","","3499","136","7","3","lose","go","0"
"pit-trial","255","1443772","0.0-141.0","battery-v0.2","","""event"",""trial"",""time""
""fullscreenenter"",""1"",""5382""
","
","
","""event"",""trial"",""time""
""fullscreenenter"",""1"",""5382""
","
","","","664.0999999046326","","","15","3499","2166","a","elianto","#f73b6a7A"," "," ","1","0","[1517.6000001430511]","1","2","","","3499","137","7","3","lose","go","0"
"pit-trial","256","1448629","0.0-142.0","battery-v0.2","","""event"",""trial"",""time""
""fullscreenenter"",""1"",""5382""
","
","
","""event"",""trial"",""time""
""fullscreenenter"",""1"",""5382""
","
","","","-1","","","15","3499","2166","u","elianto","#3366ff99","-1","-1","1","+10","[]","0","2","","","3499","138","9","2","win","no-go","0"
"pit-trial","257","1453503","0.0-143.0","battery-v0.2","","""event"",""trial"",""time""
""fullscreenenter"",""1"",""5382""
","
","
","""event"",""trial"",""time""
""fullscreenenter"",""1"",""5382""
","
","","","-1","","","15","3499","2166","g","elianto","#f73b6a7A","-1","-1","1","0","[]","0","2","","","3499","139","6","4","lose","no-go","0"
"pit-trial","258","1458381","0.0-144.0","battery-v0.2","","""event"",""trial"",""time""
""fullscreenenter"",""1"",""5382""
","
","
","""event"",""trial"",""time""
""fullscreenenter"",""1"",""5382""
","
","","","-1","","","15","3499","2166","l","elianto","#3366ff99","-1","-1","1","+10","[]","0","2","","","3499","140","8","2","win","no-go","0"
"pit-instructions","259","1475217","0.0-145.0","battery-v0.2","","""event"",""trial"",""time""
""fullscreenenter"",""1"",""5382""
","
","
","""event"",""trial"",""time""
""fullscreenenter"",""1"",""5382""
","
","","[{""page_index"":0,""viewing_time"":6946.400000095367},{""page_index"":1,""viewing_time"":9886.200000047684}]","16833.300000190735","","","","","","","","","","","","","","","","","","","","","","","",""
"pit-trial","260","1478638","0.0-146.0","battery-v0.2","","""event"",""trial"",""time""
""fullscreenenter"",""1"",""5382""
","
","
","""event"",""trial"",""time""
""fullscreenenter"",""1"",""5382""
","
","","","541.0999999046326","","","15","3499","2166","b","elianto","#f73b6a7A","-1"," ","0","-10","[1393.7000000476837]","1","3","","","3499","141","3","4","lose","no-go","0"
"pit-trial","261","1482138","0.0-147.0","battery-v0.2","","""event"",""trial"",""time""
""fullscreenenter"",""1"",""5382""
","
","
","""event"",""trial"",""time""
""fullscreenenter"",""1"",""5382""
","
","","","625.3999998569489","","","15","3499","2166","t","elianto","#f73b6a7A"," "," ","1","0","[1479.4000000953674]","1","3","","","3499","142","2","3","lose","go","0"
"pit-trial","262","1485849","0.0-148.0","battery-v0.2","","""event"",""trial"",""time""
""fullscreenenter"",""1"",""5382""
","
","
","""event"",""trial"",""time""
""fullscreenenter"",""1"",""5382""
","
","","","845","","","15","3499","2166","n","elianto","#f73b6a7A"," "," ","1","0","[1696.1000001430511]","1","3","","","3499","143","0","3","lose","go","0"
"pit-trial","263","1489269","0.0-149.0","battery-v0.2","","""event"",""trial"",""time""
""fullscreenenter"",""1"",""5382""
","
","
","""event"",""trial"",""time""
""fullscreenenter"",""1"",""5382""
","
","","","548","","","15","3499","2166","f","elianto","#3366ff99","-1"," ","0","+10","[1402.7999999523163]","1","3","","","3499","144","1","2","win","no-go","1"
"pit-trial","264","1492799","0.0-150.0","battery-v0.2","","""event"",""trial"",""time""
""fullscreenenter"",""1"",""5382""
","
","
","""event"",""trial"",""time""
""fullscreenenter"",""1"",""5382""
","
","","","656.9000000953674","","","15","3499","2166","t","elianto","#f73b6a7A"," "," ","1","-10","[1510.2999999523163]","1","3","","","3499","145","2","3","lose","go","1"
"pit-trial","265","1496259","0.0-151.0","battery-v0.2","","""event"",""trial"",""time""
""fullscreenenter"",""1"",""5382""
","
","
","""event"",""trial"",""time""
""fullscreenenter"",""1"",""5382""
","
","","","597.7000000476837","","","15","3499","2166","f","elianto","#3366ff99","-1"," ","0","0","[1453.2000000476837]","1","3","","","3499","146","1","2","win","no-go","0"
"pit-trial","266","1499699","0.0-152.0","battery-v0.2","","""event"",""trial"",""time""
""fullscreenenter"",""1"",""5382""
","
","
","""event"",""trial"",""time""
""fullscreenenter"",""1"",""5382""
","
","","","565.1000001430511","","","15","3499","2166","n","elianto","#f73b6a7A"," "," ","1","-10","[1416.7999999523163]","1","3","","","3499","147","0","3","lose","go","1"
"pit-trial","267","1503059","0.0-153.0","battery-v0.2","","""event"",""trial"",""time""
