"trial_type","trial_index","time_elapsed","internal_node_id","task_version","subject_id","interactions","blur_events","focus_events","fullscreenenter_events","fullscreenexit_events","success","view_history","rt","responses","num_errors","age","subject","participantId","rune","rune_set","hex","correct","choice","accuracy","outcome","keys","total_keys","block","practice","value","sub","trial","stimulus","robot","valence","action","sham"
"pavlovia","0","13","0.0-0.0","battery-v0.2","","""event"",""trial"",""time""
""fullscreenenter"",""1"",""80259""
","
","
","""event"",""trial"",""time""
""fullscreenenter"",""1"",""80259""
","
","","","","","","","","","","","","","","","","","","","","","","","","","","",""
"fullscreen","1","81180","0.0-1.0","battery-v0.2","","""event"",""trial"",""time""
""fullscreenenter"",""1"",""80259""
","
","
","""event"",""trial"",""time""
""fullscreenenter"",""1"",""80259""
","
","true","","","","","","","","","","","","","","","","","","","","","","","","","",""
"pit-instructions","2","89484","0.0-2.0-0.0","battery-v0.2","","""event"",""trial"",""time""
""fullscreenenter"",""1"",""80259""
","
","
","""event"",""trial"",""time""
""fullscreenenter"",""1"",""80259""
","
","","[{""page_index"":0,""viewing_time"":8300.100000023842}]","8300.400000035763","","","","","","","","","","","","","","","","","","","","","","","",""
"pit-comprehension","3","93346","0.0-2.0-1.0-0.0","battery-v0.2","","""event"",""trial"",""time""
""fullscreenenter"",""1"",""80259""
","
","
","""event"",""trial"",""time""
""fullscreenenter"",""1"",""80259""
","
","","","3856.899999976158","[""shark""]","0","25","19977","7202","","","","","","","","","","","","","","","","","","",""
"pit-instructions","4","96533","0.0-2.0-1.0-1.0","battery-v0.2","","""event"",""trial"",""time""
""fullscreenenter"",""1"",""80259""
","
","
","""event"",""trial"",""time""
""fullscreenenter"",""1"",""80259""
","
","","[{""page_index"":0,""viewing_time"":3166.7000000476837}]","3166.900000035763","","","","","","","","","","","","","","","","","","","","","","","",""
"pit-comprehension","5","99465","0.0-2.0-2.0-0.0","battery-v0.2","","""event"",""trial"",""time""
""fullscreenenter"",""1"",""80259""
","
","
","""event"",""trial"",""time""
""fullscreenenter"",""1"",""80259""
","
","","","2928.800000011921","[""tiger""]","0","25","19977","7202","","","","","","","","","","","","","","","","","","",""
"pit-instructions","6","100744","0.0-2.0-2.0-1.0","battery-v0.2","","""event"",""trial"",""time""
""fullscreenenter"",""1"",""80259""
","
","
","""event"",""trial"",""time""
""fullscreenenter"",""1"",""80259""
","
","","[{""page_index"":0,""viewing_time"":1276.1000000238419}]","1276.4000000357628","","","","","","","","","","","","","","","","","","","","","","","",""
"pit-instructions","7","237372","0.0-2.0-3.0","battery-v0.2","","""event"",""trial"",""time""
""fullscreenenter"",""1"",""80259""
","
","
","""event"",""trial"",""time""
""fullscreenenter"",""1"",""80259""
","
","","[{""page_index"":0,""viewing_time"":8472.900000035763},{""page_index"":1,""viewing_time"":8396.199999988079},{""page_index"":2,""viewing_time"":11148.099999964237},{""page_index"":3,""viewing_time"":6460},{""page_index"":4,""viewing_time"":20616.100000023842},{""page_index"":5,""viewing_time"":5815.800000011921},{""page_index"":6,""viewing_time"":7132.599999964237},{""page_index"":7,""viewing_time"":6855.600000023842},{""page_index"":8,""viewing_time"":8524},{""page_index"":9,""viewing_time"":17640},{""page_index"":10,""viewing_time"":9852.100000023842},{""page_index"":11,""viewing_time"":13055.799999952316},{""page_index"":12,""viewing_time"":6663.700000047684},{""page_index"":13,""viewing_time"":5992.399999976158}]","136625.60000002384","","","","","","","","","","","","","","","","","","","","","","","",""
"pit-trial","8","241053","0.0-2.0-4.0-0.0","battery-v0.2","","""event"",""trial"",""time""
""fullscreenenter"",""1"",""80259""
","
","
","""event"",""trial"",""time""
""fullscreenenter"",""1"",""80259""
","
","","","825.1000000238419","","","25","19977","7202","&#9784;","elianto","#FFFFF080"," "," ","1","&#10004","[1676.9000000357628]","1","0","0","","","","","","","",""
"pit-trial","9","244698","0.0-2.0-4.1-0.1","battery-v0.2","","""event"",""trial"",""time""
""fullscreenenter"",""1"",""80259""
","
","
","""event"",""trial"",""time""
""fullscreenenter"",""1"",""80259""
","
","","","786.8999999761581","","","25","19977","7202","&#9784;","elianto","#FFFFF080"," "," ","1","&#10004","[1638.9000000357628]","1","0","0","","","","","","","",""
"pit-trial","10","248242","0.0-2.0-4.2-0.2","battery-v0.2","","""event"",""trial"",""time""
""fullscreenenter"",""1"",""80259""
","
","
","""event"",""trial"",""time""
""fullscreenenter"",""1"",""80259""
","
","","","676.3999999761581","","","25","19977","7202","&#9784;","elianto","#FFFFF080"," "," ","1","&#10004","[1538.300000011921]","1","0","0","","","","","","","",""
"pit-trial","11","251688","0.0-2.0-4.3-0.3","battery-v0.2","","""event"",""trial"",""time""
""fullscreenenter"",""1"",""80259""
","
","
","""event"",""trial"",""time""
""fullscreenenter"",""1"",""80259""
","
","","","590.8000000119209","","","25","19977","7202","&#9784;","elianto","#FFFFF080"," "," ","1","&#10004","[1440.8999999761581]","1","0","0","","","","","","","",""
"pit-trial","12","255057","0.0-2.0-4.4-0.4","battery-v0.2","","""event"",""trial"",""time""
""fullscreenenter"",""1"",""80259""
","
","
","""event"",""trial"",""time""
""fullscreenenter"",""1"",""80259""
","
","","","512.4000000357628","","","25","19977","7202","&#9784;","elianto","#FFFFF080"," "," ","1","&#10004","[1364.699999988079]","1","0","0","","","","","","","",""
"pit-instructions","13","281896","0.0-2.0-5.0","battery-v0.2","","""event"",""trial"",""time""
""fullscreenenter"",""1"",""80259""
","
","
","""event"",""trial"",""time""
""fullscreenenter"",""1"",""80259""
","
","","[{""page_index"":0,""viewing_time"":6295.900000035763},{""page_index"":1,""viewing_time"":5784.199999988079},{""page_index"":2,""viewing_time"":6792.199999988079},{""page_index"":3,""viewing_time"":7963.5}]","26836.200000047684","","","","","","","","","","","","","","","","","","","","","","","",""
"pit-trial","14","286761","0.0-2.0-6.0-0.0","battery-v0.2","","""event"",""trial"",""time""
""fullscreenenter"",""1"",""80259""
","
","
","""event"",""trial"",""time""
""fullscreenenter"",""1"",""80259""
","
","","","-1","","","25","19977","7202","&#9854;","elianto","#FFFFF080","-1","-1","1","&#10004","[]","0","0","1","","","","","","","",""
"pit-trial","15","291621","0.0-2.0-6.1-0.1","battery-v0.2","","""event"",""trial"",""time""
""fullscreenenter"",""1"",""80259""
","
","
","""event"",""trial"",""time""
""fullscreenenter"",""1"",""80259""
","
","","","-1","","","25","19977","7202","&#9854;","elianto","#FFFFF080","-1","-1","1","&#10004","[]","0","0","1","","","","","","","",""
"pit-trial","16","296480","0.0-2.0-6.2-0.2","battery-v0.2","","""event"",""trial"",""time""
""fullscreenenter"",""1"",""80259""
","
","
","""event"",""trial"",""time""
""fullscreenenter"",""1"",""80259""
","
","","","-1","","","25","19977","7202","&#9854;","elianto","#FFFFF080","-1","-1","1","&#10004","[]","0","0","1","","","","","","","",""
"pit-trial","17","301341","0.0-2.0-6.3-0.3","battery-v0.2","","""event"",""trial"",""time""
""fullscreenenter"",""1"",""80259""
","
","
","""event"",""trial"",""time""
""fullscreenenter"",""1"",""80259""
","
","","","-1","","","25","19977","7202","&#9854;","elianto","#FFFFF080","-1","-1","1","&#10004","[]","0","0","1","","","","","","","",""
"pit-trial","18","306196","0.0-2.0-6.4-0.4","battery-v0.2","","""event"",""trial"",""time""
""fullscreenenter"",""1"",""80259""
","
","
","""event"",""trial"",""time""
""fullscreenenter"",""1"",""80259""
","
","","","-1","","","25","19977","7202","&#9854;","elianto","#FFFFF080","-1","-1","1","&#10004","[]","0","0","1","","","","","","","",""
"pit-instructions","19","443888","0.0-2.0-7.0","battery-v0.2","","""event"",""trial"",""time""
""fullscreenenter"",""1"",""80259""
","
","
","""event"",""trial"",""time""
""fullscreenenter"",""1"",""80259""
","
","","[{""page_index"":0,""viewing_time"":6118.400000035763},{""page_index"":1,""viewing_time"":8715.599999964237},{""page_index"":2,""viewing_time"":8396.300000011921},{""page_index"":3,""viewing_time"":6999.699999988079},{""page_index"":4,""viewing_time"":6536.5},{""page_index"":5,""viewing_time"":7419.300000011921},{""page_index"":6,""viewing_time"":6263.900000035763},{""page_index"":7,""viewing_time"":10028.399999976158},{""page_index"":8,""viewing_time"":8731.899999976158},{""page_index"":9,""viewing_time"":7256.200000047684},{""page_index"":10,""viewing_time"":6232},{""page_index"":11,""viewing_time"":6971.799999952316},{""page_index"":12,""viewing_time"":10012.300000011921},{""page_index"":13,""viewing_time"":7384.199999988079},{""page_index"":14,""viewing_time"":8747.400000035763},{""page_index"":15,""viewing_time"":6652.099999964237},{""page_index"":16,""viewing_time"":7191.900000035763},{""page_index"":17,""viewing_time"":8028}]","137686.30000001192","","","","","","","","","","","","","","","","","","","","","","","",""
"pit-trial","20","447525","0.0-2.0-8.0-0.0","battery-v0.2","","""event"",""trial"",""time""
""fullscreenenter"",""1"",""80259""
","
","
","""event"",""trial"",""time""
""fullscreenenter"",""1"",""80259""
","
","","","773","","","25","19977","7202","&#9776;","elianto","#3366ff99"," "," ","1","+10","[1634.300000011921]","1","0","1","","","","","","","",""
"pit-trial","21","450848","0.0-2.0-8.0-1.0","battery-v0.2","","""event"",""trial"",""time""
""fullscreenenter"",""1"",""80259""
","
","
","""event"",""trial"",""time""
""fullscreenenter"",""1"",""80259""
","
","","","465.7999999523163","","","25","19977","7202","&#9776;","elianto","#3366ff99"," "," ","1","+10","[1318.6000000238419]","1","0","1","","","","","","","",""
"pit-trial","22","454378","0.0-2.0-8.0-2.0","battery-v0.2","","""event"",""trial"",""time""
""fullscreenenter"",""1"",""80259""
","
","
","""event"",""trial"",""time""
""fullscreenenter"",""1"",""80259""
","
","","","674.5","","","25","19977","7202","&#9776;","elianto","#3366ff99"," "," ","1","+10","[1525.5]","1","0","1","","","","","","","",""
"pit-trial","23","457718","0.0-2.0-8.0-3.0","battery-v0.2","","""event"",""trial"",""time""
""fullscreenenter"",""1"",""80259""
","
","
","""event"",""trial"",""time""
""fullscreenenter"",""1"",""80259""
","
","","","476.19999998807907","","","25","19977","7202","&#9776;","elianto","#3366ff99"," "," ","1","0","[1333.0999999642372]","1","0","1","","","","","","","",""
"pit-trial","24","460987","0.0-2.0-8.0-4.0","battery-v0.2","","""event"",""trial"",""time""
""fullscreenenter"",""1"",""80259""
","
","
","""event"",""trial"",""time""
""fullscreenenter"",""1"",""80259""
","
","","","414","","","25","19977","7202","&#9776;","elianto","#3366ff99"," "," ","1","+10","[1266.199999988079]","1","0","1","","","","","","","",""
"pit-trial","25","464359","0.0-2.0-8.1-0.1","battery-v0.2","","""event"",""trial"",""time""
""fullscreenenter"",""1"",""80259""
","
","
","""event"",""trial"",""time""
""fullscreenenter"",""1"",""80259""
","
","","","511.89999997615814","","","25","19977","7202","&#9776;","elianto","#3366ff99"," "," ","1","+10","[1368.8999999761581]","1","0","1","","","","","","","",""
"pit-trial","26","467688","0.0-2.0-8.1-1.1","battery-v0.2","","""event"",""trial"",""time""
""fullscreenenter"",""1"",""80259""
","
","
","""event"",""trial"",""time""
""fullscreenenter"",""1"",""80259""
","
","","","472.30000001192093","","","25","19977","7202","&#9776;","elianto","#3366ff99"," "," ","1","+10","[1327]","1","0","1","","","","","","","",""
"pit-trial","27","472551","0.0-2.0-8.1-2.1","battery-v0.2","","""event"",""trial"",""time""
""fullscreenenter"",""1"",""80259""
","
","
","""event"",""trial"",""time""
""fullscreenenter"",""1"",""80259""
","
","","","-1","","","25","19977","7202","&#9776;","elianto","#3366ff99"," ","-1","0","0","[]","0","0","1","","","","","","","",""
"pit-trial","28","475630","0.0-2.0-8.1-3.1","battery-v0.2","","""event"",""trial"",""time""
""fullscreenenter"",""1"",""80259""
","
","
","""event"",""trial"",""time""
""fullscreenenter"",""1"",""80259""
","
","","","224.69999998807907","","","25","19977","7202","&#9776;","elianto","#3366ff99"," "," ","1","0","[1075.699999988079]","1","0","1","","","","","","","",""
"pit-trial","29","478783","0.0-2.0-8.1-4.1","battery-v0.2","","""event"",""trial"",""time""
""fullscreenenter"",""1"",""80259""
","
","
","""event"",""trial"",""time""
""fullscreenenter"",""1"",""80259""
","
","","","299.19999998807907","","","25","19977","7202","&#9776;","elianto","#3366ff99"," "," ","1","+10","[1150.0999999642372]","1","0","1","","","","","","","",""
"pit-trial","30","482181","0.0-2.0-8.2-0.2","battery-v0.2","","""event"",""trial"",""time""
""fullscreenenter"",""1"",""80259""
","
","
","""event"",""trial"",""time""
""fullscreenenter"",""1"",""80259""
","
","","","540.7000000476837","","","25","19977","7202","&#9776;","elianto","#3366ff99"," "," ","1","+10","[1391.300000011921]","1","0","1","","","","","","","",""
"pit-trial","31","485289","0.0-2.0-8.2-1.2","battery-v0.2","","""event"",""trial"",""time""
""fullscreenenter"",""1"",""80259""
","
","
","""event"",""trial"",""time""
""fullscreenenter"",""1"",""80259""
","
","","","255.80000001192093","","","25","19977","7202","&#9776;","elianto","#3366ff99"," "," ","1","+10","[1107.2000000476837]","1","0","1","","","","","","","",""
"pit-trial","32","488354","0.0-2.0-8.2-2.2","battery-v0.2","","""event"",""trial"",""time""
""fullscreenenter"",""1"",""80259""
","
","
","""event"",""trial"",""time""
""fullscreenenter"",""1"",""80259""
","
","","","211.29999995231628","","","25","19977","7202","&#9776;","elianto","#3366ff99"," "," ","1","+10","[1061.8999999761581]","1","0","1","","","","","","","",""
"pit-trial","33","491433","0.0-2.0-8.2-3.2","battery-v0.2","","""event"",""trial"",""time""
""fullscreenenter"",""1"",""80259""
","
","
","""event"",""trial"",""time""
""fullscreenenter"",""1"",""80259""
","
","","","224.69999998807907","","","25","19977","7202","&#9776;","elianto","#3366ff99"," "," ","1","0","[1075.699999988079]","1","0","1","","","","","","","",""
"pit-trial","34","494346","0.0-2.0-8.2-4.2","battery-v0.2","","""event"",""trial"",""time""
""fullscreenenter"",""1"",""80259""
","
","
","""event"",""trial"",""time""
""fullscreenenter"",""1"",""80259""
","
","","","57.60000002384186","","","25","19977","7202","&#9776;","elianto","#3366ff99"," "," ","1","+10","[908.9000000357628]","1","0","1","","","","","","","",""
"call-function","35","494350","0.0-2.0-9.0","battery-v0.2","","""event"",""trial"",""time""
""fullscreenenter"",""1"",""80259""
","
","
","""event"",""trial"",""time""
""fullscreenenter"",""1"",""80259""
","
","","","","","","","","","","","","","","","","","","","","","","","","","","",""
"pit-instructions","36","535992","0.0-2.0-10.0","battery-v0.2","","""event"",""trial"",""time""
""fullscreenenter"",""1"",""80259""
","
","
","""event"",""trial"",""time""
""fullscreenenter"",""1"",""80259""
","
","","[{""page_index"":0,""viewing_time"":6744.100000023842},{""page_index"":1,""viewing_time"":7211.899999976158},{""page_index"":2,""viewing_time"":10203.800000011921},{""page_index"":3,""viewing_time"":9692.5},{""page_index"":4,""viewing_time"":7788}]","41640.69999998808","","","","","","","","","","","","","","","","","","","","","","","",""
"pit-trial","37","539451","0.0-2.0-11.0-0.0","battery-v0.2","","""event"",""trial"",""time""
""fullscreenenter"",""1"",""80259""
","
","
","""event"",""trial"",""time""
""fullscreenenter"",""1"",""80259""
","
","","","604.5999999642372","","","25","19977","7202","&#9761;","elianto","#3366ff99","-1"," ","0","0","[1455.7000000476837]","1","0","2","","","","","","","",""
"pit-trial","38","544305","0.0-2.0-11.0-1.0","battery-v0.2","","""event"",""trial"",""time""
""fullscreenenter"",""1"",""80259""
","
","
","""event"",""trial"",""time""
""fullscreenenter"",""1"",""80259""
","
","","","-1","","","25","19977","7202","&#9761;","elianto","#3366ff99","-1","-1","1","+10","[]","0","0","2","","","","","","","",""
"pit-trial","39","547350","0.0-2.0-11.0-2.0","battery-v0.2","","""event"",""trial"",""time""
""fullscreenenter"",""1"",""80259""
","
","
","""event"",""trial"",""time""
""fullscreenenter"",""1"",""80259""
","
","","","180.20000004768372","","","25","19977","7202","&#9761;","elianto","#3366ff99","-1"," ","0","0","[1036.5]","1","0","2","","","","","","","",""
"pit-trial","40","550350","0.0-2.0-11.0-3.0","battery-v0.2","","""event"",""trial"",""time""
""fullscreenenter"",""1"",""80259""
","
","
","""event"",""trial"",""time""
""fullscreenenter"",""1"",""80259""
","
","","","142","","","25","19977","7202","&#9761;","elianto","#3366ff99","-1"," ","0","+10","[993.8000000119209]","1","0","2","","","","","","","",""
"pit-trial","41","555226","0.0-2.0-11.0-4.0","battery-v0.2","","""event"",""trial"",""time""
""fullscreenenter"",""1"",""80259""
","
","
","""event"",""trial"",""time""
""fullscreenenter"",""1"",""80259""
","
","","","-1","","","25","19977","7202","&#9761;","elianto","#3366ff99","-1","-1","1","+10","[]","0","0","2","","","","","","","",""
"pit-trial","42","558324","0.0-2.0-11.1-0.1","battery-v0.2","","""event"",""trial"",""time""
""fullscreenenter"",""1"",""80259""
","
","
","""event"",""trial"",""time""
""fullscreenenter"",""1"",""80259""
","
","","","243.5","","","25","19977","7202","&#9761;","elianto","#3366ff99","-1"," ","0","0","[1094.199999988079]","1","0","2","","","","","","","",""
"pit-trial","43","561406","0.0-2.0-11.1-1.1","battery-v0.2","","""event"",""trial"",""time""
""fullscreenenter"",""1"",""80259""
","
","
","""event"",""trial"",""time""
""fullscreenenter"",""1"",""80259""
","
","","","211.39999997615814","","","25","19977","7202","&#9761;","elianto","#3366ff99","-1"," ","0","0","[1071.300000011921]","1","0","2","","","","","","","",""
"pit-trial","44","564435","0.0-2.0-11.1-2.1","battery-v0.2","","""event"",""trial"",""time""
""fullscreenenter"",""1"",""80259""
","
","
","""event"",""trial"",""time""
""fullscreenenter"",""1"",""80259""
","
","","","164.69999998807907","","","25","19977","7202","&#9761;","elianto","#3366ff99","-1"," ","0","0","[1024.5999999642372]","1","0","2","","","","","","","",""
"pit-trial","45","569289","0.0-2.0-11.1-3.1","battery-v0.2","","""event"",""trial"",""time""
""fullscreenenter"",""1"",""80259""
","
","
","""event"",""trial"",""time""
""fullscreenenter"",""1"",""80259""
","
","","","-1","","","25","19977","7202","&#9761;","elianto","#3366ff99","-1","-1","1","0","[]","0","0","2","","","","","","","",""
"pit-trial","46","574142","0.0-2.0-11.1-4.1","battery-v0.2","","""event"",""trial"",""time""
""fullscreenenter"",""1"",""80259""
","
","
","""event"",""trial"",""time""
""fullscreenenter"",""1"",""80259""
","
","","","-1","","","25","19977","7202","&#9761;","elianto","#3366ff99","-1","-1","1","+10","[]","0","0","2","","","","","","","",""
"pit-trial","47","577298","0.0-2.0-11.2-0.2","battery-v0.2","","""event"",""trial"",""time""
""fullscreenenter"",""1"",""80259""
","
","
","""event"",""trial"",""time""
""fullscreenenter"",""1"",""80259""
","
","","","301.10000002384186","","","25","19977","7202","&#9761;","elianto","#3366ff99","-1"," ","0","0","[1151.6000000238419]","1","0","2","","","","","","","",""
"pit-trial","48","582150","0.0-2.0-11.2-1.2","battery-v0.2","","""event"",""trial"",""time""
""fullscreenenter"",""1"",""80259""
","
","
","""event"",""trial"",""time""
""fullscreenenter"",""1"",""80259""
","
","","","-1","","","25","19977","7202","&#9761;","elianto","#3366ff99","-1","-1","1","+10","[]","0","0","2","","","","","","","",""
"pit-trial","49","587004","0.0-2.0-11.2-2.2","battery-v0.2","","""event"",""trial"",""time""
""fullscreenenter"",""1"",""80259""
","
","
","""event"",""trial"",""time""
""fullscreenenter"",""1"",""80259""
","
","","","-1","","","25","19977","7202","&#9761;","elianto","#3366ff99","-1","-1","1","+10","[]","0","0","2","","","","","","","",""
"pit-trial","50","591858","0.0-2.0-11.2-3.2","battery-v0.2","","""event"",""trial"",""time""
""fullscreenenter"",""1"",""80259""
","
","
","""event"",""trial"",""time""
""fullscreenenter"",""1"",""80259""
","
","","","-1","","","25","19977","7202","&#9761;","elianto","#3366ff99","-1","-1","1","0","[]","0","0","2","","","","","","","",""
"pit-trial","51","595096","0.0-2.0-11.2-4.2","battery-v0.2","","""event"",""trial"",""time""
""fullscreenenter"",""1"",""80259""
","
","
","""event"",""trial"",""time""
""fullscreenenter"",""1"",""80259""
","
","","","381.30000001192093","","","25","19977","7202","&#9761;","elianto","#3366ff99","-1"," ","0","0","[1231.699999988079]","1","0","2","","","","","","","",""
"pit-trial","52","599950","0.0-2.0-11.3-0.3","battery-v0.2","","""event"",""trial"",""time""
""fullscreenenter"",""1"",""80259""
","
","
","""event"",""trial"",""time""
""fullscreenenter"",""1"",""80259""
","
","","","-1","","","25","19977","7202","&#9761;","elianto","#3366ff99","-1","-1","1","+10","[]","0","0","2","","","","","","","",""
"pit-trial","53","604813","0.0-2.0-11.3-1.3","battery-v0.2","","""event"",""trial"",""time""
""fullscreenenter"",""1"",""80259""
","
","
","""event"",""trial"",""time""
""fullscreenenter"",""1"",""80259""
","
","","","-1","","","25","19977","7202","&#9761;","elianto","#3366ff99","-1","-1","1","+10","[]","0","0","2","","","","","","","",""
"pit-trial","54","609670","0.0-2.0-11.3-2.3","battery-v0.2","","""event"",""trial"",""time""
""fullscreenenter"",""1"",""80259""
","
","
","""event"",""trial"",""time""
""fullscreenenter"",""1"",""80259""
","
","","","-1","","","25","19977","7202","&#9761;","elianto","#3366ff99","-1","-1","1","+10","[]","0","0","2","","","","","","","",""
"pit-trial","55","614527","0.0-2.0-11.3-3.3","battery-v0.2","","""event"",""trial"",""time""
""fullscreenenter"",""1"",""80259""
","
","
","""event"",""trial"",""time""
""fullscreenenter"",""1"",""80259""
","
","","","-1","","","25","19977","7202","&#9761;","elianto","#3366ff99","-1","-1","1","0","[]","0","0","2","","","","","","","",""
"pit-trial","56","619383","0.0-2.0-11.3-4.3","battery-v0.2","","""event"",""trial"",""time""
""fullscreenenter"",""1"",""80259""
","
","
","""event"",""trial"",""time""
""fullscreenenter"",""1"",""80259""
","
","","","-1","","","25","19977","7202","&#9761;","elianto","#3366ff99","-1","-1","1","+10","[]","0","0","2","","","","","","","",""
"call-function","57","619384","0.0-2.0-12.0","battery-v0.2","","""event"",""trial"",""time""
""fullscreenenter"",""1"",""80259""
","
","
","""event"",""trial"",""time""
""fullscreenenter"",""1"",""80259""
","
","","","","","","","","","","","","","","","","","","","","","","","","","","",""
"pit-instructions","58","654165","0.0-2.0-13.0","battery-v0.2","","""event"",""trial"",""time""
""fullscreenenter"",""1"",""80259""
","
","
","""event"",""trial"",""time""
""fullscreenenter"",""1"",""80259""
","
","","[{""page_index"":0,""viewing_time"":6343.300000011921},{""page_index"":1,""viewing_time"":8585},{""page_index"":2,""viewing_time"":3975},{""page_index"":3,""viewing_time"":10748.199999988079},{""page_index"":4,""viewing_time"":5128.100000023842}]","34779.89999997616","","","","","","","","","","","","","","","","","","","","","","","",""
"pit-trial","59","657429","0.0-2.0-14.0-0.0","battery-v0.2","","""event"",""trial"",""time""
""fullscreenenter"",""1"",""80259""
","
","
","""event"",""trial"",""time""
""fullscreenenter"",""1"",""80259""
","
","","","394.69999998807907","","","25","19977","7202","&#9826;","elianto","#f73b6a7A","-1"," ","0","-10","[1258]","1","0","3","","","","","","","",""
"pit-trial","60","662305","0.0-2.0-14.0-1.0","battery-v0.2","","""event"",""trial"",""time""
""fullscreenenter"",""1"",""80259""
","
","
","""event"",""trial"",""time""
""fullscreenenter"",""1"",""80259""
","
","","","-1","","","25","19977","7202","&#9826;","elianto","#f73b6a7A","-1","-1","1","0","[]","0","0","3","","","","","","","",""
"pit-trial","61","667159","0.0-2.0-14.0-2.0","battery-v0.2","","""event"",""trial"",""time""
""fullscreenenter"",""1"",""80259""
","
","
","""event"",""trial"",""time""
""fullscreenenter"",""1"",""80259""
","
","","","-1","","","25","19977","7202","&#9826;","elianto","#f73b6a7A","-1","-1","1","0","[]","0","0","3","","","","","","","",""
"pit-trial","62","672020","0.0-2.0-14.0-3.0","battery-v0.2","","""event"",""trial"",""time""
""fullscreenenter"",""1"",""80259""
","
","
","""event"",""trial"",""time""
""fullscreenenter"",""1"",""80259""
","
","","","-1","","","25","19977","7202","&#9826;","elianto","#f73b6a7A","-1","-1","1","-10","[]","0","0","3","","","","","","","",""
"pit-trial","63","676875","0.0-2.0-14.0-4.0","battery-v0.2","","""event"",""trial"",""time""
""fullscreenenter"",""1"",""80259""
","
","
","""event"",""trial"",""time""
""fullscreenenter"",""1"",""80259""
","
","","","-1","","","25","19977","7202","&#9826;","elianto","#f73b6a7A","-1","-1","1","0","[]","0","0","3","","","","","","","",""
"pit-trial","64","680116","0.0-2.0-14.1-0.1","battery-v0.2","","""event"",""trial"",""time""
""fullscreenenter"",""1"",""80259""
","
","
","""event"",""trial"",""time""
""fullscreenenter"",""1"",""80259""
","
","","","366.39999997615814","","","25","19977","7202","&#9826;","elianto","#f73b6a7A","-1"," ","0","-10","[1229.199999988079]","1","0","3","","","","","","","",""
"pit-trial","65","684970","0.0-2.0-14.1-1.1","battery-v0.2","","""event"",""trial"",""time""
""fullscreenenter"",""1"",""80259""
","
","
","""event"",""trial"",""time""
""fullscreenenter"",""1"",""80259""
","
","","","-1","","","25","19977","7202","&#9826;","elianto","#f73b6a7A","-1","-1","1","0","[]","0","0","3","","","","","","","",""
"pit-trial","66","689823","0.0-2.0-14.1-2.1","battery-v0.2","","""event"",""trial"",""time""
""fullscreenenter"",""1"",""80259""
","
","
","""event"",""trial"",""time""
""fullscreenenter"",""1"",""80259""
","
","","","-1","","","25","19977","7202","&#9826;","elianto","#f73b6a7A","-1","-1","1","0","[]","0","0","3","","","","","","","",""
"pit-trial","67","694676","0.0-2.0-14.1-3.1","battery-v0.2","","""event"",""trial"",""time""
""fullscreenenter"",""1"",""80259""
","
","
","""event"",""trial"",""time""
""fullscreenenter"",""1"",""80259""
","
","","","-1","","","25","19977","7202","&#9826;","elianto","#f73b6a7A","-1","-1","1","-10","[]","0","0","3","","","","","","","",""
"pit-trial","68","699530","0.0-2.0-14.1-4.1","battery-v0.2","","""event"",""trial"",""time""
""fullscreenenter"",""1"",""80259""
","
","
","""event"",""trial"",""time""
""fullscreenenter"",""1"",""80259""
","
","","","-1","","","25","19977","7202","&#9826;","elianto","#f73b6a7A","-1","-1","1","0","[]","0","0","3","","","","","","","",""
"pit-trial","69","704387","0.0-2.0-14.2-0.2","battery-v0.2","","""event"",""trial"",""time""
""fullscreenenter"",""1"",""80259""
","
","
","""event"",""trial"",""time""
""fullscreenenter"",""1"",""80259""
","
","","","-1","","","25","19977","7202","&#9826;","elianto","#f73b6a7A","-1","-1","1","0","[]","0","0","3","","","","","","","",""
"pit-trial","70","709240","0.0-2.0-14.2-1.2","battery-v0.2","","""event"",""trial"",""time""
""fullscreenenter"",""1"",""80259""
","
","
","""event"",""trial"",""time""
""fullscreenenter"",""1"",""80259""
","
","","","-1","","","25","19977","7202","&#9826;","elianto","#f73b6a7A","-1","-1","1","0","[]","0","0","3","","","","","","","",""
"pit-trial","71","714093","0.0-2.0-14.2-2.2","battery-v0.2","","""event"",""trial"",""time""
""fullscreenenter"",""1"",""80259""
","
","
","""event"",""trial"",""time""
""fullscreenenter"",""1"",""80259""
","
","","","-1","","","25","19977","7202","&#9826;","elianto","#f73b6a7A","-1","-1","1","0","[]","0","0","3","","","","","","","",""
"pit-trial","72","718948","0.0-2.0-14.2-3.2","battery-v0.2","","""event"",""trial"",""time""
""fullscreenenter"",""1"",""80259""
","
","
","""event"",""trial"",""time""
""fullscreenenter"",""1"",""80259""
","
","","","-1","","","25","19977","7202","&#9826;","elianto","#f73b6a7A","-1","-1","1","-10","[]","0","0","3","","","","","","","",""
"pit-trial","73","723805","0.0-2.0-14.2-4.2","battery-v0.2","","""event"",""trial"",""time""
""fullscreenenter"",""1"",""80259""
","
","
","""event"",""trial"",""time""
""fullscreenenter"",""1"",""80259""
","
","","","-1","","","25","19977","7202","&#9826;","elianto","#f73b6a7A","-1","-1","1","0","[]","0","0","3","","","","","","","",""
"pit-trial","74","728661","0.0-2.0-14.3-0.3","battery-v0.2","","""event"",""trial"",""time""
""fullscreenenter"",""1"",""80259""
","
","
","""event"",""trial"",""time""
""fullscreenenter"",""1"",""80259""
","
","","","-1","","","25","19977","7202","&#9826;","elianto","#f73b6a7A","-1","-1","1","0","[]","0","0","3","","","","","","","",""
"pit-trial","75","733517","0.0-2.0-14.3-1.3","battery-v0.2","","""event"",""trial"",""time""
""fullscreenenter"",""1"",""80259""
","
","
","""event"",""trial"",""time""
""fullscreenenter"",""1"",""80259""
","
","","","-1","","","25","19977","7202","&#9826;","elianto","#f73b6a7A","-1","-1","1","0","[]","0","0","3","","","","","","","",""
"pit-trial","76","738372","0.0-2.0-14.3-2.3","battery-v0.2","","""event"",""trial"",""time""
""fullscreenenter"",""1"",""80259""
","
","
","""event"",""trial"",""time""
""fullscreenenter"",""1"",""80259""
","
","","","-1","","","25","19977","7202","&#9826;","elianto","#f73b6a7A","-1","-1","1","0","[]","0","0","3","","","","","","","",""
"pit-trial","77","743228","0.0-2.0-14.3-3.3","battery-v0.2","","""event"",""trial"",""time""
""fullscreenenter"",""1"",""80259""
","
","
","""event"",""trial"",""time""
""fullscreenenter"",""1"",""80259""
","
","","","-1","","","25","19977","7202","&#9826;","elianto","#f73b6a7A","-1","-1","1","-10","[]","0","0","3","","","","","","","",""
"pit-trial","78","748084","0.0-2.0-14.3-4.3","battery-v0.2","","""event"",""trial"",""time""
""fullscreenenter"",""1"",""80259""
","
","
","""event"",""trial"",""time""
""fullscreenenter"",""1"",""80259""
","
","","","-1","","","25","19977","7202","&#9826;","elianto","#f73b6a7A","-1","-1","1","0","[]","0","0","3","","","","","","","",""
"call-function","79","748086","0.0-2.0-15.0","battery-v0.2","","""event"",""trial"",""time""
""fullscreenenter"",""1"",""80259""
","
","
","""event"",""trial"",""time""
""fullscreenenter"",""1"",""80259""
","
","","","","","","","","","","","","","","","","","","","","","","","","","","",""
"pit-instructions","80","778809","0.0-2.0-16.0","battery-v0.2","","""event"",""trial"",""time""
""fullscreenenter"",""1"",""80259""
","
","
","""event"",""trial"",""time""
""fullscreenenter"",""1"",""80259""
","
","","[{""page_index"":0,""viewing_time"":10870.299999952316},{""page_index"":1,""viewing_time"":9376.100000023842},{""page_index"":2,""viewing_time"":5348.100000023842},{""page_index"":3,""viewing_time"":5128.399999976158}]","30723.19999998808","","","","","","","","","","","","","","","","","","","","","","","",""
"pit-trial","81","781930","0.0-2.0-17.0-0.0","battery-v0.2","","""event"",""trial"",""time""
""fullscreenenter"",""1"",""80259""
","
","
","""event"",""trial"",""time""
""fullscreenenter"",""1"",""80259""
","
","","","267.5","","","25","19977","7202","&#9789;","elianto","#f73b6a7A"," "," ","1","0","[1118]","1","0","4","","","","","","","",""
"pit-trial","82","784898","0.0-2.0-17.0-1.0","battery-v0.2","","""event"",""trial"",""time""
""fullscreenenter"",""1"",""80259""
","
","
","""event"",""trial"",""time""
""fullscreenenter"",""1"",""80259""
","
","","","108.5","","","25","19977","7202","&#9789;","elianto","#f73b6a7A"," "," ","1","0","[964.7999999523163]","1","0","4","","","","","","","",""
"pit-trial","83","787797","0.0-2.0-17.0-2.0","battery-v0.2","","""event"",""trial"",""time""
""fullscreenenter"",""1"",""80259""
","
","
","""event"",""trial"",""time""
""fullscreenenter"",""1"",""80259""
","
","","","45.5","","","25","19977","7202","&#9789;","elianto","#f73b6a7A"," "," ","1","0","[896.4000000357628]","1","0","4","","","","","","","",""
"pit-trial","84","792655","0.0-2.0-17.0-3.0","battery-v0.2","","""event"",""trial"",""time""
""fullscreenenter"",""1"",""80259""
","
","
","""event"",""trial"",""time""
""fullscreenenter"",""1"",""80259""
","
","","","-1","","","25","19977","7202","&#9789;","elianto","#f73b6a7A"," ","-1","0","0","[837.8999999761581]","1","0","4","","","","","","","",""
"pit-trial","85","795558","0.0-2.0-17.0-4.0","battery-v0.2","","""event"",""trial"",""time""
""fullscreenenter"",""1"",""80259""
","
","
","""event"",""trial"",""time""
""fullscreenenter"",""1"",""80259""
","
","","","38.09999996423721","","","25","19977","7202","&#9789;","elianto","#f73b6a7A"," "," ","1","0","[889.5]","1","0","4","","","","","","","",""
"pit-trial","86","798427","0.0-2.0-17.1-0.1","battery-v0.2","","""event"",""trial"",""time""
""fullscreenenter"",""1"",""80259""
","
","
","""event"",""trial"",""time""
""fullscreenenter"",""1"",""80259""
","
","","","3.099999964237213","","","25","19977","7202","&#9789;","elianto","#f73b6a7A"," "," ","1","0","[864.3999999761581]","1","0","4","","","","","","","",""
"pit-trial","87","801399","0.0-2.0-17.1-1.1","battery-v0.2","","""event"",""trial"",""time""
""fullscreenenter"",""1"",""80259""
","
","
","""event"",""trial"",""time""
""fullscreenenter"",""1"",""80259""
","
","","","109.59999996423721","","","25","19977","7202","&#9789;","elianto","#f73b6a7A"," "," ","1","0","[967.8999999761581]","1","0","4","","","","","","","",""
"pit-trial","88","804347","0.0-2.0-17.1-2.1","battery-v0.2","","""event"",""trial"",""time""
""fullscreenenter"",""1"",""80259""
","
","
","""event"",""trial"",""time""
""fullscreenenter"",""1"",""80259""
","
","","","94.80000001192093","","","25","19977","7202","&#9789;","elianto","#f73b6a7A"," "," ","1","0","[945.8999999761581]","1","0","4","","","","","","","",""
"pit-trial","89","807248","0.0-2.0-17.1-3.1","battery-v0.2","","""event"",""trial"",""time""
""fullscreenenter"",""1"",""80259""
","
","
","""event"",""trial"",""time""
""fullscreenenter"",""1"",""80259""
","
","","","46.299999952316284","","","25","19977","7202","&#9789;","elianto","#f73b6a7A"," "," ","1","-10","[896.6999999880791]","1","0","4","","","","","","","",""
"pit-trial","90","810162","0.0-2.0-17.1-4.1","battery-v0.2","","""event"",""trial"",""time""
""fullscreenenter"",""1"",""80259""
","
","
","""event"",""trial"",""time""
""fullscreenenter"",""1"",""80259""
","
","","","58.69999998807907","","","25","19977","7202","&#9789;","elianto","#f73b6a7A"," "," ","1","0","[910.1999999880791]","1","0","4","","","","","","","",""
"pit-trial","91","813048","0.0-2.0-17.2-0.2","battery-v0.2","","""event"",""trial"",""time""
""fullscreenenter"",""1"",""80259""
","
","
","""event"",""trial"",""time""
""fullscreenenter"",""1"",""80259""
","
","","","31.399999976158142","","","25","19977","7202","&#9789;","elianto","#f73b6a7A"," "," ","1","0","[882.3999999761581]","1","0","4","","","","","","","",""
"pit-trial","92","815978","0.0-2.0-17.2-1.2","battery-v0.2","","""event"",""trial"",""time""
""fullscreenenter"",""1"",""80259""
","
","
","""event"",""trial"",""time""
""fullscreenenter"",""1"",""80259""
","
","","","75.59999996423721","","","25","19977","7202","&#9789;","elianto","#f73b6a7A"," "," ","1","0","[925.6999999880791]","1","0","4","","","","","","","",""
"pit-trial","93","820832","0.0-2.0-17.2-2.2","battery-v0.2","","""event"",""trial"",""time""
""fullscreenenter"",""1"",""80259""
","
","
","""event"",""trial"",""time""
""fullscreenenter"",""1"",""80259""
","
","","","-1","","","25","19977","7202","&#9789;","elianto","#f73b6a7A"," ","-1","0","-10","[]","0","0","4","","","","","","","",""
"pit-trial","94","823820","0.0-2.0-17.2-3.2","battery-v0.2","","""event"",""trial"",""time""
""fullscreenenter"",""1"",""80259""
","
","
","""event"",""trial"",""time""
""fullscreenenter"",""1"",""80259""
","
","","","133.30000001192093","","","25","19977","7202","&#9789;","elianto","#f73b6a7A"," "," ","1","-10","[983.6999999880791]","1","0","4","","","","","","","",""
"pit-trial","95","826708","0.0-2.0-17.2-4.2","battery-v0.2","","""event"",""trial"",""time""
""fullscreenenter"",""1"",""80259""
","
","
","""event"",""trial"",""time""
""fullscreenenter"",""1"",""80259""
","
","","","32.90000003576279","","","25","19977","7202","&#9789;","elianto","#f73b6a7A"," "," ","1","0","[884.4000000357628]","1","0","4","","","","","","","",""
"pit-trial","96","829681","0.0-2.0-17.3-0.3","battery-v0.2","","""event"",""trial"",""time""
""fullscreenenter"",""1"",""80259""
","
","
","""event"",""trial"",""time""
""fullscreenenter"",""1"",""80259""
","
","","","117.10000002384186","","","25","19977","7202","&#9789;","elianto","#f73b6a7A"," "," ","1","0","[969.3999999761581]","1","0","4","","","","","","","",""
"pit-trial","97","832579","0.0-2.0-17.3-1.3","battery-v0.2","","""event"",""trial"",""time""
""fullscreenenter"",""1"",""80259""
","
","
","""event"",""trial"",""time""
""fullscreenenter"",""1"",""80259""
","
","","","43.39999997615814","","","25","19977","7202","&#9789;","elianto","#f73b6a7A"," "," ","1","0","[894.4000000357628]","1","0","4","","","","","","","",""
"pit-trial","98","837434","0.0-2.0-17.3-2.3","battery-v0.2","","""event"",""trial"",""time""
""fullscreenenter"",""1"",""80259""
","
","
","""event"",""trial"",""time""
""fullscreenenter"",""1"",""80259""
","
","","","-1","","","25","19977","7202","&#9789;","elianto","#f73b6a7A"," ","-1","0","-10","[]","0","0","4","","","","","","","",""
"pit-trial","99","842287","0.0-2.0-17.3-3.3","battery-v0.2","","""event"",""trial"",""time""
""fullscreenenter"",""1"",""80259""
","
","
","""event"",""trial"",""time""
""fullscreenenter"",""1"",""80259""
","
","","","-1","","","25","19977","7202","&#9789;","elianto","#f73b6a7A"," ","-1","0","0","[]","0","0","4","","","","","","","",""
"pit-trial","100","845237","0.0-2.0-17.3-4.3","battery-v0.2","","""event"",""trial"",""time""
""fullscreenenter"",""1"",""80259""
","
","
","""event"",""trial"",""time""
""fullscreenenter"",""1"",""80259""
","
","","","94.60000002384186","","","25","19977","7202","&#9789;","elianto","#f73b6a7A"," "," ","1","0","[944.8999999761581]","1","0","4","","","","","","","",""
"call-function","101","845238","0.0-2.0-18.0","battery-v0.2","","""event"",""trial"",""time""
""fullscreenenter"",""1"",""80259""
","
","
","""event"",""trial"",""time""
""fullscreenenter"",""1"",""80259""
","
","","","","","","","","","","","","","","","","","","","","","","","","","","",""
"pit-instructions","102","940757","0.0-2.0-19.0","battery-v0.2","","""event"",""trial"",""time""
""fullscreenenter"",""1"",""80259""
","
","
","""event"",""trial"",""time""
""fullscreenenter"",""1"",""80259""
","
","","[{""page_index"":0,""viewing_time"":8061.600000023842},{""page_index"":1,""viewing_time"":17827.69999998808},{""page_index"":2,""viewing_time"":19133},{""page_index"":3,""viewing_time"":8571.5},{""page_index"":4,""viewing_time"":13023.800000011921},{""page_index"":5,""viewing_time"":9467.699999988079},{""page_index"":6,""viewing_time"":8524.199999988079},{""page_index"":7,""viewing_time"":6663.899999976158},{""page_index"":8,""viewing_time"":4243.900000035763}]","95517.69999998808","","","","","","","","","","","","","","","","","","","","","","","",""
"pit-comprehension","103","946766","0.0-2.0-20.0-0.0","battery-v0.2","","""event"",""trial"",""time""
""fullscreenenter"",""1"",""80259""
","
","
","""event"",""trial"",""time""
""fullscreenenter"",""1"",""80259""
","
","","","6005.200000047684","[""SPACE""]","0","25","19977","7202","","","","","","","","","","","","","","","","","","",""
"pit-instructions","104","950869","0.0-2.0-20.0-1.0","battery-v0.2","","""event"",""trial"",""time""
""fullscreenenter"",""1"",""80259""
","
","
","""event"",""trial"",""time""
""fullscreenenter"",""1"",""80259""
","
","","[{""page_index"":0,""viewing_time"":4024.199999988079}]","4024.5","","","","","","","","","","","","","","","","","","","","","","","",""
"pit-comprehension","105","957838","0.0-2.0-21.0-0.0","battery-v0.2","","""event"",""trial"",""time""
""fullscreenenter"",""1"",""80259""
","
","
","""event"",""trial"",""time""
""fullscreenenter"",""1"",""80259""
","
","","","6964.699999988079","[""10""]","0","25","19977","7202","","","","","","","","","","","","","","","","","","",""
"pit-instructions","106","959697","0.0-2.0-21.0-1.0","battery-v0.2","","""event"",""trial"",""time""
""fullscreenenter"",""1"",""80259""
","
","
","""event"",""trial"",""time""
""fullscreenenter"",""1"",""80259""
","
","","[{""page_index"":0,""viewing_time"":1818.5999999642372}]","1819","","","","","","","","","","","","","","","","","","","","","","","",""
"pit-comprehension","107","969791","0.0-2.0-22.0-0.0","battery-v0.2","","""event"",""trial"",""time""
""fullscreenenter"",""1"",""80259""
","
","
","""event"",""trial"",""time""
""fullscreenenter"",""1"",""80259""
","
","","","10089.199999988079","[""0""]","0","25","19977","7202","","","","","","","","","","","","","","","","","","",""
"pit-instructions","108","972369","0.0-2.0-22.0-1.0","battery-v0.2","","""event"",""trial"",""time""
""fullscreenenter"",""1"",""80259""
","
","
","""event"",""trial"",""time""
""fullscreenenter"",""1"",""80259""
","
","","[{""page_index"":0,""viewing_time"":2518.300000011921}]","2518.5","","","","","","","","","","","","","","","","","","","","","","","",""
"pit-comprehension","109","982382","0.0-2.0-23.0-0.0","battery-v0.2","","""event"",""trial"",""time""
""fullscreenenter"",""1"",""80259""
","
","
","""event"",""trial"",""time""
""fullscreenenter"",""1"",""80259""
","
","","","10008.799999952316","[""True""]","0","25","19977","7202","","","","","","","","","","","","","","","","","","",""
"pit-instructions","110","984545","0.0-2.0-23.0-1.0","battery-v0.2","","""event"",""trial"",""time""
""fullscreenenter"",""1"",""80259""
","
","
","""event"",""trial"",""time""
""fullscreenenter"",""1"",""80259""
","
","","[{""page_index"":0,""viewing_time"":2119}]","2119.399999976158","","","","","","","","","","","","","","","","","","","","","","","",""
"pit-comprehension","111","992698","0.0-2.0-24.0-0.0","battery-v0.2","","""event"",""trial"",""time""
""fullscreenenter"",""1"",""80259""
","
","
","""event"",""trial"",""time""
""fullscreenenter"",""1"",""80259""
","
","","","8149.299999952316","[""True""]","0","25","19977","7202","","","","","","","","","","","","","","","","","","",""
"pit-instructions","112","994845","0.0-2.0-24.0-1.0","battery-v0.2","","""event"",""trial"",""time""
""fullscreenenter"",""1"",""80259""
","
","
","""event"",""trial"",""time""
""fullscreenenter"",""1"",""80259""
","
","","[{""page_index"":0,""viewing_time"":2104.899999976158}]","2105.199999988079","","","","","","","","","","","","","","","","","","","","","","","",""
"pit-comprehension","113","1001638","0.0-2.0-25.0-0.0","battery-v0.2","","""event"",""trial"",""time""
""fullscreenenter"",""1"",""80259""
","
","
","""event"",""trial"",""time""
""fullscreenenter"",""1"",""80259""
","
","","","6788.5","[""True""]","0","25","19977","7202","","","","","","","","","","","","","","","","","","",""
"pit-instructions","114","1004234","0.0-2.0-25.0-1.0","battery-v0.2","","""event"",""trial"",""time""
""fullscreenenter"",""1"",""80259""
","
","
","""event"",""trial"",""time""
""fullscreenenter"",""1"",""80259""
","
","","[{""page_index"":0,""viewing_time"":2543.800000011921}]","2544.199999988079","","","","","","","","","","","","","","","","","","","","","","","",""
"pit-comprehension","115","1011222","0.0-2.0-26.0-0.0","battery-v0.2","","""event"",""trial"",""time""
""fullscreenenter"",""1"",""80259""
","
","
","""event"",""trial"",""time""
""fullscreenenter"",""1"",""80259""
","
","","","6985","[""False""]","0","25","19977","7202","","","","","","","","","","","","","","","","","","",""
"pit-instructions","116","1013141","0.0-2.0-26.0-1.0","battery-v0.2","","""event"",""trial"",""time""
""fullscreenenter"",""1"",""80259""
","
","
","""event"",""trial"",""time""
""fullscreenenter"",""1"",""80259""
","
","","[{""page_index"":0,""viewing_time"":1874.7999999523163}]","1875.0999999642372","","","","","","","","","","","","","","","","","","","","","","","",""
"pit-instructions","117","1035461","0.0-3.0","battery-v0.2","","""event"",""trial"",""time""
""fullscreenenter"",""1"",""80259""
","
","
","""event"",""trial"",""time""
""fullscreenenter"",""1"",""80259""
","
","","[{""page_index"":0,""viewing_time"":6070.199999988079},{""page_index"":1,""viewing_time"":6679.5},{""page_index"":2,""viewing_time"":9568.100000023842}]","22318","","","","","","","","","","","","","","","","","","","","","","","",""
"pit-trial","118","1039051","0.0-4.0","battery-v0.2","","""event"",""trial"",""time""
""fullscreenenter"",""1"",""80259""
","
","
","""event"",""trial"",""time""
""fullscreenenter"",""1"",""80259""
","
","","","725.5","","","25","19977","7202","&#9733;","elianto","#3366ff99","-1"," ","0","+10","[1584.199999988079]","1","1","","","19977","1","2","2","win","no-go","1"
"pit-trial","119","1043918","0.0-5.0","battery-v0.2","","""event"",""trial"",""time""
""fullscreenenter"",""1"",""80259""
","
","
","""event"",""trial"",""time""
""fullscreenenter"",""1"",""80259""
","
","","","-1","","","25","19977","7202","&#9728;","elianto","#f73b6a7A","-1","-1","1","0","[]","0","1","","","19977","2","0","4","lose","no-go","0"
"pit-trial","120","1047669","0.0-6.0","battery-v0.2","","""event"",""trial"",""time""
""fullscreenenter"",""1"",""80259""
","
","
","""event"",""trial"",""time""
""fullscreenenter"",""1"",""80259""
","
","","","893.8000000119209","","","25","19977","7202","&#9730;","elianto","#3366ff99"," "," ","1","0","[1746.800000011921]","1","1","","","19977","3","1","1","win","go","1"
"pit-trial","121","1051459","0.0-7.0","battery-v0.2","","""event"",""trial"",""time""
""fullscreenenter"",""1"",""80259""
","
","
","""event"",""trial"",""time""
""fullscreenenter"",""1"",""80259""
","
","","","928.7999999523163","","","25","19977","7202","&#9752;","elianto","#f73b6a7A"," "," ","1","0","[1785.7999999523163]","1","1","","","19977","4","3","3","lose","go","0"
"pit-trial","122","1054934","0.0-8.0","battery-v0.2","","""event"",""trial"",""time""
""fullscreenenter"",""1"",""80259""
","
","
","""event"",""trial"",""time""
""fullscreenenter"",""1"",""80259""
","
","","","618.1999999880791","","","25","19977","7202","&#9730;","elianto","#3366ff99"," "," ","1","+10","[1470.300000011921]","1","1","","","19977","5","1","1","win","go","0"
"pit-trial","123","1058952","0.0-9.0","battery-v0.2","","""event"",""trial"",""time""
""fullscreenenter"",""1"",""80259""
","
","
","""event"",""trial"",""time""
""fullscreenenter"",""1"",""80259""
","
","","","1159.2000000476837","","","25","19977","7202","&#9728;","elianto","#f73b6a7A","-1"," ","0","-10","[2010.1000000238419]","1","1","","","19977","6","0","4","lose","no-go","0"
"pit-trial","124","1062724","0.0-10.0","battery-v0.2","","""event"",""trial"",""time""
""fullscreenenter"",""1"",""80259""
","
","
","""event"",""trial"",""time""
""fullscreenenter"",""1"",""80259""
","
","","","917.5999999642372","","","25","19977","7202","&#9752;","elianto","#f73b6a7A"," "," ","1","0","[1768.800000011921]","1","1","","","19977","7","3","3","lose","go","0"
"pit-trial","125","1066349","0.0-11.0","battery-v0.2","","""event"",""trial"",""time""
""fullscreenenter"",""1"",""80259""
","
","
","""event"",""trial"",""time""
""fullscreenenter"",""1"",""80259""
","
","","","770.6999999880791","","","25","19977","7202","&#9733;","elianto","#3366ff99","-1"," ","0","0","[1622.199999988079]","1","1","","","19977","8","2","2","win","no-go","0"
"pit-trial","126","1069917","0.0-12.0","battery-v0.2","","""event"",""trial"",""time""
""fullscreenenter"",""1"",""80259""
","
","
","""event"",""trial"",""time""
""fullscreenenter"",""1"",""80259""
","
","","","713.7999999523163","","","25","19977","7202","&#9733;","elianto","#3366ff99","-1"," ","0","0","[1564.3999999761581]","1","1","","","19977","9","2","2","win","no-go","0"
"pit-trial","127","1074773","0.0-13.0","battery-v0.2","","""event"",""trial"",""time""
""fullscreenenter"",""1"",""80259""
","
","
","""event"",""trial"",""time""
""fullscreenenter"",""1"",""80259""
","
","","","-1","","","25","19977","7202","&#9728;","elianto","#f73b6a7A","-1","-1","1","0","[]","0","1","","","19977","10","0","4","lose","no-go","0"
"pit-trial","128","1078225","0.0-14.0","battery-v0.2","","""event"",""trial"",""time""
""fullscreenenter"",""1"",""80259""
","
","
","""event"",""trial"",""time""
""fullscreenenter"",""1"",""80259""
","
","","","598.6999999880791","","","25","19977","7202","&#9752;","elianto","#f73b6a7A"," "," ","1","0","[1449]","1","1","","","19977","11","3","3","lose","go","0"
"pit-trial","129","1081792","0.0-15.0","battery-v0.2","","""event"",""trial"",""time""
""fullscreenenter"",""1"",""80259""
","
","
","""event"",""trial"",""time""
""fullscreenenter"",""1"",""80259""
","
","","","712.8000000119209","","","25","19977","7202","&#9730;","elianto","#3366ff99"," "," ","1","+10","[1563.5]","1","1","","","19977","12","1","1","win","go","0"
"pit-trial","130","1085523","0.0-16.0","battery-v0.2","","""event"",""trial"",""time""
""fullscreenenter"",""1"",""80259""
","
","
","""event"",""trial"",""time""
""fullscreenenter"",""1"",""80259""
","
","","","878.4000000357628","","","25","19977","7202","&#9730;","elianto","#3366ff99"," "," ","1","+10","[1729.1000000238419]","1","1","","","19977","13","1","1","win","go","0"
"pit-trial","131","1090379","0.0-17.0","battery-v0.2","","""event"",""trial"",""time""
""fullscreenenter"",""1"",""80259""
","
","
","""event"",""trial"",""time""
""fullscreenenter"",""1"",""80259""
","
","","","-1","","","25","19977","7202","&#9728;","elianto","#f73b6a7A","-1","-1","1","-10","[]","0","1","","","19977","14","0","4","lose","no-go","1"
"pit-trial","132","1094283","0.0-18.0","battery-v0.2","","""event"",""trial"",""time""
""fullscreenenter"",""1"",""80259""
","
","
","""event"",""trial"",""time""
""fullscreenenter"",""1"",""80259""
","
","","","1047.800000011921","","","25","19977","7202","&#9752;","elianto","#f73b6a7A"," "," ","1","0","[1897.7000000476837]","1","1","","","19977","15","3","3","lose","go","0"
"pit-trial","133","1097785","0.0-19.0","battery-v0.2","","""event"",""trial"",""time""
""fullscreenenter"",""1"",""80259""
","
","
","""event"",""trial"",""time""
""fullscreenenter"",""1"",""80259""
","
","","","644.8000000119209","","","25","19977","7202","&#9733;","elianto","#3366ff99","-1"," ","0","0","[1495]","1","1","","","19977","16","2","2","win","no-go","0"
"pit-trial","134","1101574","0.0-20.0","battery-v0.2","","""event"",""trial"",""time""
""fullscreenenter"",""1"",""80259""
","
","
","""event"",""trial"",""time""
""fullscreenenter"",""1"",""80259""
","
","","","934.8000000119209","","","25","19977","7202","&#9752;","elianto","#f73b6a7A"," "," ","1","0","[1785.1000000238419]","1","1","","","19977","17","3","3","lose","go","0"
"pit-trial","135","1105306","0.0-21.0","battery-v0.2","","""event"",""trial"",""time""
""fullscreenenter"",""1"",""80259""
","
","
","""event"",""trial"",""time""
""fullscreenenter"",""1"",""80259""
","
","","","879.4000000357628","","","25","19977","7202","&#9730;","elianto","#3366ff99"," "," ","1","+10","[1729.8999999761581]","1","1","","","19977","18","1","1","win","go","0"
"pit-trial","136","1109224","0.0-22.0","battery-v0.2","","""event"",""trial"",""time""
""fullscreenenter"",""1"",""80259""
","
","
","""event"",""trial"",""time""
""fullscreenenter"",""1"",""80259""
","
","","","1060.5999999642372","","","25","19977","7202","&#9728;","elianto","#f73b6a7A","-1"," ","0","-10","[1912]","1","1","","","19977","19","0","4","lose","no-go","0"
"pit-trial","137","1112833","0.0-23.0","battery-v0.2","","""event"",""trial"",""time""
""fullscreenenter"",""1"",""80259""
","
","
","""event"",""trial"",""time""
""fullscreenenter"",""1"",""80259""
","
","","","754.0999999642372","","","25","19977","7202","&#9733;","elianto","#3366ff99","-1"," ","0","0","[1604.5999999642372]","1","1","","","19977","20","2","2","win","no-go","0"
"pit-instructions","138","1126877","0.0-24.0","battery-v0.2","","""event"",""trial"",""time""
""fullscreenenter"",""1"",""80259""
","
","
","""event"",""trial"",""time""
""fullscreenenter"",""1"",""80259""
","
","","[{""page_index"":0,""viewing_time"":6797.300000011921},{""page_index"":1,""viewing_time"":7243.899999976158}]","14041.400000035763","","","","","","","","","","","","","","","","","","","","","","","",""
"pit-trial","139","1130809","0.0-25.0","battery-v0.2","","""event"",""trial"",""time""
""fullscreenenter"",""1"",""80259""
","
","
","""event"",""trial"",""time""
""fullscreenenter"",""1"",""80259""
","
","","","1070.3999999761581","","","25","19977","7202","g","elianto","#f73b6a7A","-1"," ","0","-10","[1926.5]","1","2","","","19977","21","3","4","lose","no-go","0"
"pit-trial","140","1134549","0.0-26.0","battery-v0.2","","""event"",""trial"",""time""
""fullscreenenter"",""1"",""80259""
","
","
","""event"",""trial"",""time""
""fullscreenenter"",""1"",""80259""
","
","","","883.6999999880791","","","25","19977","7202","a","elianto","#f73b6a7A"," "," ","1","0","[1735.5999999642372]","1","2","","","19977","22","2","3","lose","go","0"
"pit-trial","141","1138166","0.0-27.0","battery-v0.2","","""event"",""trial"",""time""
""fullscreenenter"",""1"",""80259""
","
","
","""event"",""trial"",""time""
""fullscreenenter"",""1"",""80259""
","
","","","759.1000000238419","","","25","19977","7202","l","elianto","#3366ff99","-1"," ","0","0","[1612.5]","1","2","","","19977","23","1","2","win","no-go","0"
"pit-trial","142","1141977","0.0-28.0","battery-v0.2","","""event"",""trial"",""time""
""fullscreenenter"",""1"",""80259""
","
","
","""event"",""trial"",""time""
""fullscreenenter"",""1"",""80259""
","
","","","956.6999999880791","","","25","19977","7202","u","elianto","#f73b6a7A"," "," ","1","0","[1808.699999988079]","1","2","","","19977","24","0","3","lose","go","0"
"pit-trial","143","1145823","0.0-29.0","battery-v0.2","","""event"",""trial"",""time""
""fullscreenenter"",""1"",""80259""
","
","
","""event"",""trial"",""time""
""fullscreenenter"",""1"",""80259""
","
","","","986","","","25","19977","7202","u","elianto","#f73b6a7A"," "," ","1","0","[1843.1000000238419]","1","2","","","19977","25","0","3","lose","go","0"
"pit-trial","144","1149281","0.0-30.0","battery-v0.2","","""event"",""trial"",""time""
""fullscreenenter"",""1"",""80259""
","
","
","""event"",""trial"",""time""
""fullscreenenter"",""1"",""80259""
","
","","","604.1999999880791","","","25","19977","7202","l","elianto","#3366ff99","-1"," ","0","0","[1454.5999999642372]","1","2","","","19977","26","1","2","win","no-go","0"
"pit-trial","145","1152811","0.0-31.0","battery-v0.2","","""event"",""trial"",""time""
""fullscreenenter"",""1"",""80259""
","
","
","""event"",""trial"",""time""
""fullscreenenter"",""1"",""80259""
","
","","","665.3999999761581","","","25","19977","7202","a","elianto","#f73b6a7A"," "," ","1","-10","[1526.800000011921]","1","2","","","19977","27","2","3","lose","go","1"
"pit-trial","146","1156557","0.0-32.0","battery-v0.2","","""event"",""trial"",""time""
""fullscreenenter"",""1"",""80259""
","
","
","""event"",""trial"",""time""
""fullscreenenter"",""1"",""80259""
","
","","","882.9000000357628","","","25","19977","7202","g","elianto","#f73b6a7A","-1"," ","0","-10","[1734.9000000357628]","1","2","","","19977","28","3","4","lose","no-go","0"
"pit-trial","147","1161413","0.0-33.0","battery-v0.2","","""event"",""trial"",""time""
""fullscreenenter"",""1"",""80259""
","
","
","""event"",""trial"",""time""
""fullscreenenter"",""1"",""80259""
","
","","","-1","","","25","19977","7202","g","elianto","#f73b6a7A","-1","-1","1","0","[]","0","2","","","19977","29","3","4","lose","no-go","0"
"pit-trial","148","1165533","0.0-34.0","battery-v0.2","","""event"",""trial"",""time""
""fullscreenenter"",""1"",""80259""
","
","
","""event"",""trial"",""time""
""fullscreenenter"",""1"",""80259""
","
","","","1264.300000011921","","","25","19977","7202","u","elianto","#f73b6a7A"," "," ","1","0","[2115.300000011921]","1","2","","","19977","30","0","3","lose","go","0"
"pit-trial","149","1169582","0.0-35.0","battery-v0.2","","""event"",""trial"",""time""
""fullscreenenter"",""1"",""80259""
","
","
","""event"",""trial"",""time""
""fullscreenenter"",""1"",""80259""
","
","","","1193.0999999642372","","","25","19977","7202","a","elianto","#f73b6a7A"," "," ","1","0","[2044.5999999642372]","1","2","","","19977","31","2","3","lose","go","0"
"pit-trial","150","1172995","0.0-36.0","battery-v0.2","","""event"",""trial"",""time""
""fullscreenenter"",""1"",""80259""
","
","
","""event"",""trial"",""time""
""fullscreenenter"",""1"",""80259""
","
","","","559.1000000238419","","","25","19977","7202","l","elianto","#3366ff99","-1"," ","0","0","[1409.6000000238419]","1","2","","","19977","32","1","2","win","no-go","0"
"pit-trial","151","1177850","0.0-37.0","battery-v0.2","","""event"",""trial"",""time""
""fullscreenenter"",""1"",""80259""
","
","
","""event"",""trial"",""time""
""fullscreenenter"",""1"",""80259""
","
","","","-1","","","25","19977","7202","l","elianto","#3366ff99","-1","-1","1","+10","[]","0","2","","","19977","33","1","2","win","no-go","0"
"pit-trial","152","1182706","0.0-38.0","battery-v0.2","","""event"",""trial"",""time""
""fullscreenenter"",""1"",""80259""
","
","
","""event"",""trial"",""time""
""fullscreenenter"",""1"",""80259""
","
","","","-1","","","25","19977","7202","g","elianto","#f73b6a7A","-1","-1","1","0","[]","0","2","","","19977","34","3","4","lose","no-go","0"
"pit-trial","153","1186575","0.0-39.0","battery-v0.2","","""event"",""trial"",""time""
""fullscreenenter"",""1"",""80259""
","
","
","""event"",""trial"",""time""
""fullscreenenter"",""1"",""80259""
","
","","","1015.1000000238419","","","25","19977","7202","a","elianto","#f73b6a7A"," "," ","1","0","[1865.6000000238419]","1","2","","","19977","35","2","3","lose","go","0"
"pit-trial","154","1191431","0.0-40.0","battery-v0.2","","""event"",""trial"",""time""
""fullscreenenter"",""1"",""80259""
","
","
","""event"",""trial"",""time""
""fullscreenenter"",""1"",""80259""
","
","","","-1","","","25","19977","7202","u","elianto","#f73b6a7A"," ","-1","0","0","[]","0","2","","","19977","36","0","3","lose","go","1"
"pit-trial","155","1196287","0.0-41.0","battery-v0.2","","""event"",""trial"",""time""
""fullscreenenter"",""1"",""80259""
","
","
","""event"",""trial"",""time""
""fullscreenenter"",""1"",""80259""
","
","","","-1","","","25","19977","7202","a","elianto","#f73b6a7A"," ","-1","0","-10","[]","0","2","","","19977","37","2","3","lose","go","0"
"pit-trial","156","1201144","0.0-42.0","battery-v0.2","","""event"",""trial"",""time""
""fullscreenenter"",""1"",""80259""
","
","
","""event"",""trial"",""time""
""fullscreenenter"",""1"",""80259""
","
","","","-1","","","25","19977","7202","g","elianto","#f73b6a7A","-1","-1","1","0","[]","0","2","","","19977","38","3","4","lose","no-go","0"
"pit-trial","157","1205997","0.0-43.0","battery-v0.2","","""event"",""trial"",""time""
""fullscreenenter"",""1"",""80259""
","
","
","""event"",""trial"",""time""
""fullscreenenter"",""1"",""80259""
","
","","","-1","","","25","19977","7202","u","elianto","#f73b6a7A"," ","-1","0","0","[]","0","2","","","19977","39","0","3","lose","go","1"
"pit-trial","158","1210850","0.0-44.0","battery-v0.2","","""event"",""trial"",""time""
""fullscreenenter"",""1"",""80259""
","
","
","""event"",""trial"",""time""
""fullscreenenter"",""1"",""80259""
","
","","","-1","","","25","19977","7202","l","elianto","#3366ff99","-1","-1","1","+10","[]","0","2","","","19977","40","1","2","win","no-go","0"
"pit-trial","159","1215708","0.0-45.0","battery-v0.2","","""event"",""trial"",""time""
""fullscreenenter"",""1"",""80259""
","
","
","""event"",""trial"",""time""
""fullscreenenter"",""1"",""80259""
","
","","","-1","","","25","19977","7202","g","elianto","#f73b6a7A","-1","-1","1","-10","[]","0","2","","","19977","41","3","4","lose","no-go","1"
"pit-trial","160","1220565","0.0-46.0","battery-v0.2","","""event"",""trial"",""time""
""fullscreenenter"",""1"",""80259""
","
","
","""event"",""trial"",""time""
""fullscreenenter"",""1"",""80259""
","
","","","-1","","","25","19977","7202","l","elianto","#3366ff99","-1","-1","1","+10","[]","0","2","","","19977","42","1","2","win","no-go","0"
"pit-trial","161","1225419","0.0-47.0","battery-v0.2","","""event"",""trial"",""time""
""fullscreenenter"",""1"",""80259""
","
","
","""event"",""trial"",""time""
""fullscreenenter"",""1"",""80259""
","
","","","-1","","","25","19977","7202","a","elianto","#f73b6a7A"," ","-1","0","-10","[]","0","2","","","19977","43","2","3","lose","go","0"
"pit-trial","162","1230276","0.0-48.0","battery-v0.2","","""event"",""trial"",""time""
""fullscreenenter"",""1"",""80259""
","
","
","""event"",""trial"",""time""
""fullscreenenter"",""1"",""80259""
","
","","","-1","","","25","19977","7202","u","elianto","#f73b6a7A"," ","-1","0","-10","[]","0","2","","","19977","44","0","3","lose","go","0"
"pit-trial","163","1234048","0.0-49.0","battery-v0.2","","""event"",""trial"",""time""
""fullscreenenter"",""1"",""80259""
","
","
","""event"",""trial"",""time""
""fullscreenenter"",""1"",""80259""
","
","","","919.6000000238419","","","25","19977","7202","a","elianto","#f73b6a7A"," "," ","1","0","[1770.1000000238419]","1","2","","","19977","45","2","3","lose","go","0"
"pit-trial","164","1237773","0.0-50.0","battery-v0.2","","""event"",""trial"",""time""
""fullscreenenter"",""1"",""80259""
","
","
","""event"",""trial"",""time""
""fullscreenenter"",""1"",""80259""
","
","","","871.4000000357628","","","25","19977","7202","u","elianto","#f73b6a7A"," "," ","1","0","[1721.9000000357628]","1","2","","","19977","46","0","3","lose","go","0"
"pit-trial","165","1241329","0.0-51.0","battery-v0.2","","""event"",""trial"",""time""
""fullscreenenter"",""1"",""80259""
","
","
","""event"",""trial"",""time""
""fullscreenenter"",""1"",""80259""
","
","","","698.4000000357628","","","25","19977","7202","g","elianto","#f73b6a7A","-1"," ","0","-10","[1550.6000000238419]","1","2","","","19977","47","3","4","lose","no-go","0"
"pit-trial","166","1246184","0.0-52.0","battery-v0.2","","""event"",""trial"",""time""
""fullscreenenter"",""1"",""80259""
","
","
","""event"",""trial"",""time""
""fullscreenenter"",""1"",""80259""
","
","","","-1","","","25","19977","7202","l","elianto","#3366ff99","-1","-1","1","+10","[]","0","2","","","19977","48","1","2","win","no-go","0"
"pit-trial","167","1250165","0.0-53.0","battery-v0.2","","""event"",""trial"",""time""
""fullscreenenter"",""1"",""80259""
","
","
","""event"",""trial"",""time""
""fullscreenenter"",""1"",""80259""
","
","","","1126.8999999761581","","","25","19977","7202","u","elianto","#f73b6a7A"," "," ","1","0","[1977.6000000238419]","1","2","","","19977","49","0","3","lose","go","0"
"pit-trial","168","1253973","0.0-54.0","battery-v0.2","","""event"",""trial"",""time""
""fullscreenenter"",""1"",""80259""
","
","
","""event"",""trial"",""time""
""fullscreenenter"",""1"",""80259""
","
","","","951.1999999880791","","","25","19977","7202","g","elianto","#f73b6a7A","-1"," ","0","-10","[1803.9000000357628]","1","2","","","19977","50","3","4","lose","no-go","0"
"pit-trial","169","1257543","0.0-55.0","battery-v0.2","","""event"",""trial"",""time""
""fullscreenenter"",""1"",""80259""
","
","
","""event"",""trial"",""time""
""fullscreenenter"",""1"",""80259""
","
","","","714.8000000119209","","","25","19977","7202","a","elianto","#f73b6a7A"," "," ","1","0","[1565.699999988079]","1","2","","","19977","51","2","3","lose","go","0"
"pit-trial","170","1262398","0.0-56.0","battery-v0.2","","""event"",""trial"",""time""
""fullscreenenter"",""1"",""80259""
","
","
","""event"",""trial"",""time""
""fullscreenenter"",""1"",""80259""
","
","","","-1","","","25","19977","7202","l","elianto","#3366ff99","-1","-1","1","+10","[]","0","2","","","19977","52","1","2","win","no-go","0"
"pit-trial","171","1265822","0.0-57.0","battery-v0.2","","""event"",""trial"",""time""
""fullscreenenter"",""1"",""80259""
","
","
","""event"",""trial"",""time""
""fullscreenenter"",""1"",""80259""
","
","","","569.1000000238419","","","25","19977","7202","a","elianto","#f73b6a7A"," "," ","1","0","[1419.5]","1","2","","","19977","53","2","3","lose","go","0"
"pit-trial","172","1269754","0.0-58.0","battery-v0.2","","""event"",""trial"",""time""
""fullscreenenter"",""1"",""80259""
","
","
","""event"",""trial"",""time""
""fullscreenenter"",""1"",""80259""
","
","","","1074.3999999761581","","","25","19977","7202","g","elianto","#f73b6a7A","-1"," ","0","-10","[1925.6000000238419]","1","2","","","19977","54","3","4","lose","no-go","0"
"pit-trial","173","1274611","0.0-59.0","battery-v0.2","","""event"",""trial"",""time""
""fullscreenenter"",""1"",""80259""
","
","
","""event"",""trial"",""time""
""fullscreenenter"",""1"",""80259""
","
","","","-1","","","25","19977","7202","l","elianto","#3366ff99","-1","-1","1","+10","[]","0","2","","","19977","55","1","2","win","no-go","0"
"pit-trial","174","1278352","0.0-60.0","battery-v0.2","","""event"",""trial"",""time""
""fullscreenenter"",""1"",""80259""
","
","
","""event"",""trial"",""time""
""fullscreenenter"",""1"",""80259""
","
","","","886.1999999880791","","","25","19977","7202","u","elianto","#f73b6a7A"," "," ","1","0","[1736.800000011921]","1","2","","","19977","56","0","3","lose","go","0"
"pit-trial","175","1282006","0.0-61.0","battery-v0.2","","""event"",""trial"",""time""
""fullscreenenter"",""1"",""80259""
","
","
","""event"",""trial"",""time""
""fullscreenenter"",""1"",""80259""
","
","","","798.6000000238419","","","25","19977","7202","p","elianto","#3366ff99"," "," ","1","0","[1648.699999988079]","1","2","","","19977","57","4","1","win","go","1"
"pit-trial","176","1285804","0.0-62.0","battery-v0.2","","""event"",""trial"",""time""
""fullscreenenter"",""1"",""80259""
","
","
","""event"",""trial"",""time""
""fullscreenenter"",""1"",""80259""
","
","","","943.8999999761581","","","25","19977","7202","a","elianto","#f73b6a7A"," "," ","1","0","[1795.199999988079]","1","2","","","19977","58","2","3","lose","go","0"
"pit-trial","177","1290660","0.0-63.0","battery-v0.2","","""event"",""trial"",""time""
""fullscreenenter"",""1"",""80259""
","
","
","""event"",""trial"",""time""
""fullscreenenter"",""1"",""80259""
","
","","","-1","","","25","19977","7202","g","elianto","#f73b6a7A","-1","-1","1","-10","[]","0","2","","","19977","59","3","4","lose","no-go","1"
"pit-trial","178","1294297","0.0-64.0","battery-v0.2","","""event"",""trial"",""time""
""fullscreenenter"",""1"",""80259""
","
","
","""event"",""trial"",""time""
""fullscreenenter"",""1"",""80259""
","
","","","781.1999999880791","","","25","19977","7202","u","elianto","#f73b6a7A"," "," ","1","-10","[1632.0999999642372]","1","2","","","19977","60","0","3","lose","go","1"
"pit-trial","179","1298192","0.0-65.0","battery-v0.2","","""event"",""trial"",""time""
""fullscreenenter"",""1"",""80259""
","
","
","""event"",""trial"",""time""
""fullscreenenter"",""1"",""80259""
","
","","","1038.699999988079","","","25","19977","7202","g","elianto","#f73b6a7A","-1"," ","0","-10","[1889.800000011921]","1","2","","","19977","61","3","4","lose","no-go","0"
"pit-trial","180","1301960","0.0-66.0","battery-v0.2","","""event"",""trial"",""time""
""fullscreenenter"",""1"",""80259""
","
","
","""event"",""trial"",""time""
""fullscreenenter"",""1"",""80259""
","
","","","912.4000000357628","","","25","19977","7202","a","elianto","#f73b6a7A"," "," ","1","-10","[1763.199999988079]","1","2","","","19977","62","2","3","lose","go","1"
"pit-trial","181","1306816","0.0-67.0","battery-v0.2","","""event"",""trial"",""time""
""fullscreenenter"",""1"",""80259""
","
","
","""event"",""trial"",""time""
""fullscreenenter"",""1"",""80259""
","
","","","-1","","","25","19977","7202","l","elianto","#3366ff99","-1","-1","1","0","[]","0","2","","","19977","63","1","2","win","no-go","1"
"pit-trial","182","1310314","0.0-68.0","battery-v0.2","","""event"",""trial"",""time""
""fullscreenenter"",""1"",""80259""
","
","
","""event"",""trial"",""time""
""fullscreenenter"",""1"",""80259""
","
","","","642.8000000119209","","","25","19977","7202","p","elianto","#3366ff99"," "," ","1","+10","[1493.199999988079]","1","2","","","19977","64","4","1","win","go","0"
"pit-trial","183","1314184","0.0-69.0","battery-v0.2","","""event"",""trial"",""time""
""fullscreenenter"",""1"",""80259""
","
","
","""event"",""trial"",""time""
""fullscreenenter"",""1"",""80259""
","
","","","1013.8000000119209","","","25","19977","7202","g","elianto","#f73b6a7A","-1"," ","0","0","[1864.6000000238419]","1","2","","","19977","65","3","4","lose","no-go","1"
"pit-trial","184","1317735","0.0-70.0","battery-v0.2","","""event"",""trial"",""time""
""fullscreenenter"",""1"",""80259""
","
","
","""event"",""trial"",""time""
""fullscreenenter"",""1"",""80259""
","
","","","696","","","25","19977","7202","p","elianto","#3366ff99"," "," ","1","+10","[1546.9000000357628]","1","2","","","19977","66","4","1","win","go","0"
"pit-trial","185","1321217","0.0-71.0","battery-v0.2","","""event"",""trial"",""time""
""fullscreenenter"",""1"",""80259""
","
","
","""event"",""trial"",""time""
""fullscreenenter"",""1"",""80259""
","
","","","627.3999999761581","","","25","19977","7202","s","elianto","#3366ff99","-1"," ","0","0","[1477.9000000357628]","1","2","","","19977","67","5","2","win","no-go","0"
"pit-trial","186","1326070","0.0-72.0","battery-v0.2","","""event"",""trial"",""time""
""fullscreenenter"",""1"",""80259""
","
","
","""event"",""trial"",""time""
""fullscreenenter"",""1"",""80259""
","
","","","-1","","","25","19977","7202","l","elianto","#3366ff99","-1","-1","1","+10","[]","0","2","","","19977","68","1","2","win","no-go","0"
"pit-trial","187","1329612","0.0-73.0","battery-v0.2","","""event"",""trial"",""time""
""fullscreenenter"",""1"",""80259""
","
","
","""event"",""trial"",""time""
""fullscreenenter"",""1"",""80259""
","
","","","686","","","25","19977","7202","p","elianto","#3366ff99"," "," ","1","+10","[1538.3999999761581]","1","2","","","19977","69","4","1","win","go","0"
"pit-trial","188","1333295","0.0-74.0","battery-v0.2","","""event"",""trial"",""time""
""fullscreenenter"",""1"",""80259""
","
","
","""event"",""trial"",""time""
""fullscreenenter"",""1"",""80259""
","
","","","825.8000000119209","","","25","19977","7202","a","elianto","#f73b6a7A"," "," ","1","-10","[1676.300000011921]","1","2","","","19977","70","2","3","lose","go","1"
"pit-trial","189","1336784","0.0-75.0","battery-v0.2","","""event"",""trial"",""time""
""fullscreenenter"",""1"",""80259""
","
","
","""event"",""trial"",""time""
""fullscreenenter"",""1"",""80259""
","
","","","631.3000000119209","","","25","19977","7202","s","elianto","#3366ff99","-1"," ","0","0","[1483.1000000238419]","1","2","","","19977","71","5","2","win","no-go","0"
"pit-trial","190","1341639","0.0-76.0","battery-v0.2","","""event"",""trial"",""time""
""fullscreenenter"",""1"",""80259""
","
","
","""event"",""trial"",""time""
""fullscreenenter"",""1"",""80259""
","
","","","-1","","","25","19977","7202","l","elianto","#3366ff99","-1","-1","1","0","[3743.599999964237]","1","2","","","19977","72","1","2","win","no-go","1"
"pit-trial","191","1345185","0.0-77.0","battery-v0.2","","""event"",""trial"",""time""
""fullscreenenter"",""1"",""80259""
","
","
","""event"",""trial"",""time""
""fullscreenenter"",""1"",""80259""
","
","","","692.5999999642372","","","25","19977","7202","s","elianto","#3366ff99","-1"," ","0","0","[1543.5999999642372]","1","2","","","19977","73","5","2","win","no-go","0"
"pit-trial","192","1348858","0.0-78.0","battery-v0.2","","""event"",""trial"",""time""
""fullscreenenter"",""1"",""80259""
","
","
","""event"",""trial"",""time""
""fullscreenenter"",""1"",""80259""
","
","","","818.6999999880791","","","25","19977","7202","p","elianto","#3366ff99"," "," ","1","+10","[1668.7999999523163]","1","2","","","19977","74","4","1","win","go","0"
"pit-trial","193","1352910","0.0-79.0","battery-v0.2","","""event"",""trial"",""time""
""fullscreenenter"",""1"",""80259""
","
","
","""event"",""trial"",""time""
""fullscreenenter"",""1"",""80259""
","
","","","1194.0999999642372","","","25","19977","7202","g","elianto","#f73b6a7A","-1"," ","0","0","[2045]","1","2","","","19977","75","3","4","lose","no-go","1"
"pit-trial","194","1356406","0.0-80.0","battery-v0.2","","""event"",""trial"",""time""
""fullscreenenter"",""1"",""80259""
","
","
","""event"",""trial"",""time""
""fullscreenenter"",""1"",""80259""
","
","","","639.0999999642372","","","25","19977","7202","l","elianto","#3366ff99","-1"," ","0","0","[1491.4000000357628]","1","2","","","19977","76","1","2","win","no-go","0"
"pit-trial","195","1360144","0.0-81.0","battery-v0.2","","""event"",""trial"",""time""
""fullscreenenter"",""1"",""80259""
","
","
","""event"",""trial"",""time""
""fullscreenenter"",""1"",""80259""
","
","","","877.5","","","25","19977","7202","g","elianto","#f73b6a7A","-1"," ","0","-10","[1732.5]","1","2","","","19977","77","3","4","lose","no-go","0"
"pit-trial","196","1363722","0.0-82.0","battery-v0.2","","""event"",""trial"",""time""
""fullscreenenter"",""1"",""80259""
","
","
","""event"",""trial"",""time""
""fullscreenenter"",""1"",""80259""
","
","","","724.9000000357628","","","25","19977","7202","p","elianto","#3366ff99"," "," ","1","+10","[1575.300000011921]","1","2","","","19977","78","4","1","win","go","0"
"pit-trial","197","1368578","0.0-83.0","battery-v0.2","","""event"",""trial"",""time""
""fullscreenenter"",""1"",""80259""
","
","
","""event"",""trial"",""time""
""fullscreenenter"",""1"",""80259""
","
","","","-1","","","25","19977","7202","p","elianto","#3366ff99"," ","-1","0","0","[3596]","1","2","","","19977","79","4","1","win","go","0"
"pit-trial","198","1372069","0.0-84.0","battery-v0.2","","""event"",""trial"",""time""
""fullscreenenter"",""1"",""80259""
","
","
","""event"",""trial"",""time""
""fullscreenenter"",""1"",""80259""
","
","","","637.2999999523163","","","25","19977","7202","s","elianto","#3366ff99","-1"," ","0","0","[1488.3999999761581]","1","2","","","19977","80","5","2","win","no-go","0"
"pit-trial","199","1376143","0.0-85.0","battery-v0.2","","""event"",""trial"",""time""
""fullscreenenter"",""1"",""80259""
","
","
","""event"",""trial"",""time""
""fullscreenenter"",""1"",""80259""
","
","","","1221.3999999761581","","","25","19977","7202","p","elianto","#3366ff99"," "," ","1","+10","[2071.899999976158]","1","2","","","19977","81","4","1","win","go","0"
"pit-trial","200","1380333","0.0-86.0","battery-v0.2","","""event"",""trial"",""time""
""fullscreenenter"",""1"",""80259""
","
","
","""event"",""trial"",""time""
""fullscreenenter"",""1"",""80259""
","
","","","1335.300000011921","","","25","19977","7202","g","elianto","#f73b6a7A","-1"," ","0","-10","[2186.699999988079]","1","2","","","19977","82","3","4","lose","no-go","0"
"pit-trial","201","1385188","0.0-87.0","battery-v0.2","","""event"",""trial"",""time""
""fullscreenenter"",""1"",""80259""
","
","
","""event"",""trial"",""time""
""fullscreenenter"",""1"",""80259""
","
","","","-1","","","25","19977","7202","s","elianto","#3366ff99","-1","-1","1","+10","[]","0","2","","","19977","83","5","2","win","no-go","0"
"pit-trial","202","1389602","0.0-88.0","battery-v0.2","","""event"",""trial"",""time""
""fullscreenenter"",""1"",""80259""
","
","
","""event"",""trial"",""time""
""fullscreenenter"",""1"",""80259""
","
","","","1559.300000011921","","","25","19977","7202","e","elianto","#f73b6a7A","-1"," ","0","-10","[2409.600000023842]","1","2","","","19977","84","7","4","lose","no-go","0"
"pit-trial","203","1394458","0.0-89.0","battery-v0.2","","""event"",""trial"",""time""
""fullscreenenter"",""1"",""80259""
","
","
","""event"",""trial"",""time""
""fullscreenenter"",""1"",""80259""
","
","","","-1","","","25","19977","7202","e","elianto","#f73b6a7A","-1","-1","1","0","[]","0","2","","","19977","85","7","4","lose","no-go","0"
"pit-trial","204","1398417","0.0-90.0","battery-v0.2","","""event"",""trial"",""time""
""fullscreenenter"",""1"",""80259""
","
","
","""event"",""trial"",""time""
""fullscreenenter"",""1"",""80259""
","
","","","1101.3999999761581","","","25","19977","7202","p","elianto","#3366ff99"," "," ","1","+10","[1953]","1","2","","","19977","86","4","1","win","go","0"
"pit-trial","205","1403273","0.0-91.0","battery-v0.2","","""event"",""trial"",""time""
""fullscreenenter"",""1"",""80259""
","
","
","""event"",""trial"",""time""
""fullscreenenter"",""1"",""80259""
","
","","","-1","","","25","19977","7202","s","elianto","#3366ff99","-1","-1","1","+10","[]","0","2","","","19977","87","5","2","win","no-go","0"
"pit-trial","206","1407810","0.0-92.0","battery-v0.2","","""event"",""trial"",""time""
""fullscreenenter"",""1"",""80259""
","
","
","""event"",""trial"",""time""
""fullscreenenter"",""1"",""80259""
","
","","","1679.8999999761581","","","25","19977","7202","w","elianto","#f73b6a7A"," "," ","1","0","[2531.5]","1","2","","","19977","88","6","3","lose","go","0"
"pit-trial","207","1412665","0.0-93.0","battery-v0.2","","""event"",""trial"",""time""
""fullscreenenter"",""1"",""80259""
","
","
","""event"",""trial"",""time""
""fullscreenenter"",""1"",""80259""
","
","","","-1","","","25","19977","7202","s","elianto","#3366ff99","-1","-1","1","+10","[]","0","2","","","19977","89","5","2","win","no-go","0"
"pit-trial","208","1417048","0.0-94.0","battery-v0.2","","""event"",""trial"",""time""
""fullscreenenter"",""1"",""80259""
","
","
","""event"",""trial"",""time""
""fullscreenenter"",""1"",""80259""
","
","","","1527.3999999761581","","","25","19977","7202","p","elianto","#3366ff99"," "," ","1","+10","[2378.5]","1","2","","","19977","90","4","1","win","go","0"
"pit-trial","209","1421902","0.0-95.0","battery-v0.2","","""event"",""trial"",""time""
""fullscreenenter"",""1"",""80259""
","
","
","""event"",""trial"",""time""
""fullscreenenter"",""1"",""80259""
","
","","","-1","","","25","19977","7202","w","elianto","#f73b6a7A"," ","-1","0","-10","[]","0","2","","","19977","91","6","3","lose","go","0"
"pit-trial","210","1425969","0.0-96.0","battery-v0.2","","""event"",""trial"",""time""
""fullscreenenter"",""1"",""80259""
","
","
","""event"",""trial"",""time""
""fullscreenenter"",""1"",""80259""
","
","","","1213.5","","","25","19977","7202","e","elianto","#f73b6a7A","-1"," ","0","-10","[2064.5]","1","2","","","19977","92","7","4","lose","no-go","0"
"pit-trial","211","1429865","0.0-97.0","battery-v0.2","","""event"",""trial"",""time""
""fullscreenenter"",""1"",""80259""
","
","
","""event"",""trial"",""time""
""fullscreenenter"",""1"",""80259""
","
","","","1041.199999988079","","","25","19977","7202","d","elianto","#3366ff99"," "," ","1","0","[1891.699999988079]","1","2","","","19977","93","8","1","win","go","1"
"pit-trial","212","1434720","0.0-98.0","battery-v0.2","","""event"",""trial"",""time""
""fullscreenenter"",""1"",""80259""
","
","
","""event"",""trial"",""time""
""fullscreenenter"",""1"",""80259""
","
","","","-1","","","25","19977","7202","e","elianto","#f73b6a7A","-1","-1","1","0","[]","0","2","","","19977","94","7","4","lose","no-go","0"
"pit-trial","213","1439576","0.0-99.0","battery-v0.2","","""event"",""trial"",""time""
""fullscreenenter"",""1"",""80259""
","
","
","""event"",""trial"",""time""
""fullscreenenter"",""1"",""80259""
","
","","","-1","","","25","19977","7202","s","elianto","#3366ff99","-1","-1","1","+10","[]","0","2","","","19977","95","5","2","win","no-go","0"
"pit-trial","214","1444434","0.0-100.0","battery-v0.2","","""event"",""trial"",""time""
""fullscreenenter"",""1"",""80259""
","
","
","""event"",""trial"",""time""
""fullscreenenter"",""1"",""80259""
","
","","","-1","","","25","19977","7202","w","elianto","#f73b6a7A"," ","-1","0","-10","[]","0","2","","","19977","96","6","3","lose","go","0"
"pit-trial","215","1449288","0.0-101.0","battery-v0.2","","""event"",""trial"",""time""
""fullscreenenter"",""1"",""80259""
","
","
","""event"",""trial"",""time""
""fullscreenenter"",""1"",""80259""
","
","","","-1","","","25","19977","7202","d","elianto","#3366ff99"," ","-1","0","0","[3395.699999988079]","1","2","","","19977","97","8","1","win","go","0"
"pit-trial","216","1452824","0.0-102.0","battery-v0.2","","""event"",""trial"",""time""
""fullscreenenter"",""1"",""80259""
","
","
","""event"",""trial"",""time""
""fullscreenenter"",""1"",""80259""
","
","","","681.8000000119209","","","25","19977","7202","w","elianto","#f73b6a7A"," "," ","1","0","[1533]","1","2","","","19977","98","6","3","lose","go","0"
"pit-trial","217","1457681","0.0-103.0","battery-v0.2","","""event"",""trial"",""time""
""fullscreenenter"",""1"",""80259""
","
","
","""event"",""trial"",""time""
""fullscreenenter"",""1"",""80259""
","
","","","-1","","","25","19977","7202","s","elianto","#3366ff99","-1","-1","1","+10","[]","0","2","","","19977","99","5","2","win","no-go","0"
"pit-trial","218","1462535","0.0-104.0","battery-v0.2","","""event"",""trial"",""time""
""fullscreenenter"",""1"",""80259""
","
","
","""event"",""trial"",""time""
""fullscreenenter"",""1"",""80259""
","
","","","-1","","","25","19977","7202","e","elianto","#f73b6a7A","-1","-1","1","-10","[]","0","2","","","19977","100","7","4","lose","no-go","1"
"pit-trial","219","1466181","0.0-105.0","battery-v0.2","","""event"",""trial"",""time""
""fullscreenenter"",""1"",""80259""
","
","
","""event"",""trial"",""time""
""fullscreenenter"",""1"",""80259""
","
","","","791.2999999523163","","","25","19977","7202","d","elianto","#3366ff99"," "," ","1","+10","[1641.5999999642372]","1","2","","","19977","101","8","1","win","go","0"
"pit-trial","220","1471034","0.0-106.0","battery-v0.2","","""event"",""trial"",""time""
""fullscreenenter"",""1"",""80259""
","
","
","""event"",""trial"",""time""
""fullscreenenter"",""1"",""80259""
","
","","","-1","","","25","19977","7202","s","elianto","#3366ff99","-1","-1","1","+10","[]","0","2","","","19977","102","5","2","win","no-go","0"
"pit-trial","221","1475887","0.0-107.0","battery-v0.2","","""event"",""trial"",""time""
""fullscreenenter"",""1"",""80259""
","
","
","""event"",""trial"",""time""
""fullscreenenter"",""1"",""80259""
","
","","","-1","","","25","19977","7202","e","elianto","#f73b6a7A","-1","-1","1","0","[]","0","2","","","19977","103","7","4","lose","no-go","0"
"pit-trial","222","1479641","0.0-108.0","battery-v0.2","","""event"",""trial"",""time""
""fullscreenenter"",""1"",""80259""
","
","
","""event"",""trial"",""time""
""fullscreenenter"",""1"",""80259""
","
","","","896.3999999761581","","","25","19977","7202","j","elianto","#3366ff99"," "," ","1","+10","[1747.300000011921]","1","2","","","19977","104","9","1","win","go","0"
"pit-trial","223","1484497","0.0-109.0","battery-v0.2","","""event"",""trial"",""time""
""fullscreenenter"",""1"",""80259""
","
","
","""event"",""trial"",""time""
""fullscreenenter"",""1"",""80259""
","
","","","-1","","","25","19977","7202","p","elianto","#3366ff99"," ","-1","0","0","[]","0","2","","","19977","105","4","1","win","go","0"
"pit-trial","224","1487986","0.0-110.0","battery-v0.2","","""event"",""trial"",""time""
""fullscreenenter"",""1"",""80259""
","
","
","""event"",""trial"",""time""
""fullscreenenter"",""1"",""80259""
","
","","","626","","","25","19977","7202","d","elianto","#3366ff99"," "," ","1","+10","[1475.8999999761581]","1","2","","","19977","106","8","1","win","go","0"
"pit-trial","225","1492161","0.0-111.0","battery-v0.2","","""event"",""trial"",""time""
""fullscreenenter"",""1"",""80259""
","
","
","""event"",""trial"",""time""
""fullscreenenter"",""1"",""80259""
","
","","","1319.199999988079","","","25","19977","7202","w","elianto","#f73b6a7A"," "," ","1","0","[2169.699999988079]","1","2","","","19977","107","6","3","lose","go","0"
"pit-trial","226","1495912","0.0-112.0","battery-v0.2","","""event"",""trial"",""time""
""fullscreenenter"",""1"",""80259""
","
","
","""event"",""trial"",""time""
""fullscreenenter"",""1"",""80259""
","
","","","895.1999999880791","","","25","19977","7202","j","elianto","#3366ff99"," "," ","1","+10","[1747.3999999761581]","1","2","","","19977","108","9","1","win","go","0"
"pit-trial","227","1500768","0.0-113.0","battery-v0.2","","""event"",""trial"",""time""
""fullscreenenter"",""1"",""80259""
","
","
","""event"",""trial"",""time""
""fullscreenenter"",""1"",""80259""
","
","","","-1","","","25","19977","7202","s","elianto","#3366ff99","-1","-1","1","+10","[]","0","2","","","19977","109","5","2","win","no-go","0"
"pit-trial","228","1504829","0.0-114.0","battery-v0.2","","""event"",""trial"",""time""
""fullscreenenter"",""1"",""80259""
","
","
","""event"",""trial"",""time""
""fullscreenenter"",""1"",""80259""
","
","","","1205.699999988079","","","25","19977","7202","j","elianto","#3366ff99"," "," ","1","0","[2056]","1","2","","","19977","110","9","1","win","go","1"
"pit-trial","229","1509327","0.0-115.0","battery-v0.2","","""event"",""trial"",""time""
""fullscreenenter"",""1"",""80259""
","
","
","""event"",""trial"",""time""
""fullscreenenter"",""1"",""80259""
","
","","","1644.2999999523163","","","25","19977","7202","w","elianto","#f73b6a7A"," "," ","1","0","[2494.5]","1","2","","","19977","111","6","3","lose","go","0"
"pit-trial","230","1512988","0.0-116.0","battery-v0.2","","""event"",""trial"",""time""
""fullscreenenter"",""1"",""80259""
","
","
","""event"",""trial"",""time""
""fullscreenenter"",""1"",""80259""
","
","","","805.9000000357628","","","25","19977","7202","d","elianto","#3366ff99"," "," ","1","+10","[1655.8999999761581]","1","2","","","19977","112","8","1","win","go","0"
"pit-trial","231","1517845","0.0-117.0","battery-v0.2","","""event"",""trial"",""time""
""fullscreenenter"",""1"",""80259""
","
","
","""event"",""trial"",""time""
""fullscreenenter"",""1"",""80259""
","
","","","-1","","","25","19977","7202","s","elianto","#3366ff99","-1","-1","1","+10","[]","0","2","","","19977","113","5","2","win","no-go","0"
"pit-trial","232","1521505","0.0-118.0","battery-v0.2","","""event"",""trial"",""time""
""fullscreenenter"",""1"",""80259""
","
","
","""event"",""trial"",""time""
""fullscreenenter"",""1"",""80259""
","
","","","801.5","","","25","19977","7202","j","elianto","#3366ff99"," "," ","1","+10","[1653.300000011921]","1","2","","","19977","114","9","1","win","go","0"
"pit-trial","233","1526361","0.0-119.0","battery-v0.2","","""event"",""trial"",""time""
""fullscreenenter"",""1"",""80259""
","
","
","""event"",""trial"",""time""
""fullscreenenter"",""1"",""80259""
","
","","","-1","","","25","19977","7202","w","elianto","#f73b6a7A"," ","-1","0","-10","[]","0","2","","","19977","115","6","3","lose","go","0"
"pit-trial","234","1529843","0.0-120.0","battery-v0.2","","""event"",""trial"",""time""
""fullscreenenter"",""1"",""80259""
","
","
","""event"",""trial"",""time""
""fullscreenenter"",""1"",""80259""
","
","","","629.8000000119209","","","25","19977","7202","d","elianto","#3366ff99"," "," ","1","+10","[1480]","1","2","","","19977","116","8","1","win","go","0"
"pit-trial","235","1533901","0.0-121.0","battery-v0.2","","""event"",""trial"",""time""
""fullscreenenter"",""1"",""80259""
","
","
","""event"",""trial"",""time""
""fullscreenenter"",""1"",""80259""
","
","","","1203.699999988079","","","25","19977","7202","s","elianto","#3366ff99","-1"," ","0","+10","[2054.600000023842]","1","2","","","19977","117","5","2","win","no-go","1"
"pit-trial","236","1537386","0.0-122.0","battery-v0.2","","""event"",""trial"",""time""
""fullscreenenter"",""1"",""80259""
","
","
","""event"",""trial"",""time""
""fullscreenenter"",""1"",""80259""
","
","","","626.7000000476837","","","25","19977","7202","d","elianto","#3366ff99"," "," ","1","0","[1477.7000000476837]","1","2","","","19977","118","8","1","win","go","1"
"pit-trial","237","1540961","0.0-123.0","battery-v0.2","","""event"",""trial"",""time""
""fullscreenenter"",""1"",""80259""
","
","
","""event"",""trial"",""time""
""fullscreenenter"",""1"",""80259""
","
","","","718.2999999523163","","","25","19977","7202","w","elianto","#f73b6a7A"," "," ","1","0","[1568.4000000357628]","1","2","","","19977","119","6","3","lose","go","0"
"pit-trial","238","1544483","0.0-124.0","battery-v0.2","","""event"",""trial"",""time""
""fullscreenenter"",""1"",""80259""
","
","
","""event"",""trial"",""time""
""fullscreenenter"",""1"",""80259""
","
","","","667.1999999880791","","","25","19977","7202","j","elianto","#3366ff99"," "," ","1","0","[1517.8999999761581]","1","2","","","19977","120","9","1","win","go","1"
"pit-trial","239","1548559","0.0-125.0","battery-v0.2","","""event"",""trial"",""time""
""fullscreenenter"",""1"",""80259""
","
","
","""event"",""trial"",""time""
""fullscreenenter"",""1"",""80259""
","
","","","1222.8999999761581","","","25","19977","7202","w","elianto","#f73b6a7A"," "," ","1","0","[2073.400000035763]","1","2","","","19977","121","6","3","lose","go","0"
"pit-trial","240","1553415","0.0-126.0","battery-v0.2","","""event"",""trial"",""time""
""fullscreenenter"",""1"",""80259""
","
","
","""event"",""trial"",""time""
""fullscreenenter"",""1"",""80259""
","
","","","-1","","","25","19977","7202","j","elianto","#3366ff99"," ","-1","0","+10","[]","0","2","","","19977","122","9","1","win","go","1"
"pit-trial","241","1557709","0.0-127.0","battery-v0.2","","""event"",""trial"",""time""
""fullscreenenter"",""1"",""80259""
","
","
","""event"",""trial"",""time""
""fullscreenenter"",""1"",""80259""
","
","","","1438.9000000357628","","","25","19977","7202","e","elianto","#f73b6a7A","-1"," ","0","-10","[2288.900000035763]","1","2","","","19977","123","7","4","lose","no-go","0"
"pit-trial","242","1561897","0.0-128.0","battery-v0.2","","""event"",""trial"",""time""
""fullscreenenter"",""1"",""80259""
","
","
","""event"",""trial"",""time""
""fullscreenenter"",""1"",""80259""
","
","","","1335","","","25","19977","7202","d","elianto","#3366ff99"," "," ","1","0","[2185.099999964237]","1","2","","","19977","124","8","1","win","go","1"
"pit-trial","243","1566752","0.0-129.0","battery-v0.2","","""event"",""trial"",""time""
""fullscreenenter"",""1"",""80259""
","
","
","""event"",""trial"",""time""
""fullscreenenter"",""1"",""80259""
","
","","","-1","","","25","19977","7202","d","elianto","#3366ff99"," ","-1","0","0","[]","0","2","","","19977","125","8","1","win","go","0"
"pit-trial","244","1571605","0.0-130.0","battery-v0.2","","""event"",""trial"",""time""
""fullscreenenter"",""1"",""80259""
","
","
","""event"",""trial"",""time""
""fullscreenenter"",""1"",""80259""
","
","","","-1","","","25","19977","7202","j","elianto","#3366ff99"," ","-1","0","0","[]","0","2","","","19977","126","9","1","win","go","0"
"pit-trial","245","1576460","0.0-131.0","battery-v0.2","","""event"",""trial"",""time""
""fullscreenenter"",""1"",""80259""
","
","
","""event"",""trial"",""time""
""fullscreenenter"",""1"",""80259""
","
","","","-1","","","25","19977","7202","e","elianto","#f73b6a7A","-1","-1","1","0","[]","0","2","","","19977","127","7","4","lose","no-go","0"
"pit-trial","246","1580212","0.0-132.0","battery-v0.2","","""event"",""trial"",""time""
""fullscreenenter"",""1"",""80259""
","
","
","""event"",""trial"",""time""
""fullscreenenter"",""1"",""80259""
","
","","","896.8000000119209","","","25","19977","7202","w","elianto","#f73b6a7A"," "," ","1","0","[1748.0999999642372]","1","2","","","19977","128","6","3","lose","go","0"
"pit-trial","247","1585067","0.0-133.0","battery-v0.2","","""event"",""trial"",""time""
""fullscreenenter"",""1"",""80259""
","
","
","""event"",""trial"",""time""
""fullscreenenter"",""1"",""80259""
","
","","","-1","","","25","19977","7202","e","elianto","#f73b6a7A","-1","-1","1","0","[]","0","2","","","19977","129","7","4","lose","no-go","0"
"pit-trial","248","1589327","0.0-134.0","battery-v0.2","","""event"",""trial"",""time""
""fullscreenenter"",""1"",""80259""
","
","
","""event"",""trial"",""time""
""fullscreenenter"",""1"",""80259""
","
","","","1408.0999999642372","","","25","19977","7202","d","elianto","#3366ff99"," "," ","1","+10","[2258.399999976158]","1","2","","","19977","130","8","1","win","go","0"
"pit-trial","249","1594180","0.0-135.0","battery-v0.2","","""event"",""trial"",""time""
""fullscreenenter"",""1"",""80259""
","
","
","""event"",""trial"",""time""
""fullscreenenter"",""1"",""80259""
","
","","","-1","","","25","19977","7202","j","elianto","#3366ff99"," ","-1","0","0","[]","0","2","","","19977","131","9","1","win","go","0"
"pit-trial","250","1598015","0.0-136.0","battery-v0.2","","""event"",""trial"",""time""
""fullscreenenter"",""1"",""80259""
","
","
","""event"",""trial"",""time""
""fullscreenenter"",""1"",""80259""
","
","","","981.8000000119209","","","25","19977","7202","w","elianto","#f73b6a7A"," "," ","1","0","[1832.199999988079]","1","2","","","19977","132","6","3","lose","go","0"
"pit-trial","251","1601602","0.0-137.0","battery-v0.2","","""event"",""trial"",""time""
""fullscreenenter"",""1"",""80259""
","
","
","""event"",""trial"",""time""
""fullscreenenter"",""1"",""80259""
","
","","","733.4000000357628","","","25","19977","7202","w","elianto","#f73b6a7A"," "," ","1","0","[1583.699999988079]","1","2","","","19977","133","6","3","lose","go","0"
"pit-trial","252","1606459","0.0-138.0","battery-v0.2","","""event"",""trial"",""time""
""fullscreenenter"",""1"",""80259""
","
","
","""event"",""trial"",""time""
""fullscreenenter"",""1"",""80259""
","
","","","-1","","","25","19977","7202","e","elianto","#f73b6a7A","-1","-1","1","0","[]","0","2","","","19977","134","7","4","lose","no-go","0"
"pit-trial","253","1610268","0.0-139.0","battery-v0.2","","""event"",""trial"",""time""
""fullscreenenter"",""1"",""80259""
","
","
","""event"",""trial"",""time""
""fullscreenenter"",""1"",""80259""
","
","","","952.7999999523163","","","25","19977","7202","d","elianto","#3366ff99"," "," ","1","0","[1803.1000000238419]","1","2","","","19977","135","8","1","win","go","1"
"pit-trial","254","1615126","0.0-140.0","battery-v0.2","","""event"",""trial"",""time""
""fullscreenenter"",""1"",""80259""
","
","
","""event"",""trial"",""time""
""fullscreenenter"",""1"",""80259""
","
","","","-1","","","25","19977","7202","j","elianto","#3366ff99"," ","-1","0","+10","[]","0","2","","","19977","136","9","1","win","go","1"
"pit-trial","255","1618952","0.0-141.0","battery-v0.2","","""event"",""trial"",""time""
""fullscreenenter"",""1"",""80259""
","
","
","""event"",""trial"",""time""
""fullscreenenter"",""1"",""80259""
","
","","","968.9000000357628","","","25","19977","7202","w","elianto","#f73b6a7A"," "," ","1","0","[1820,2100.599999964237]","2","2","","","19977","137","6","3","lose","go","0"
"pit-trial","256","1623811","0.0-142.0","battery-v0.2","","""event"",""trial"",""time""
""fullscreenenter"",""1"",""80259""
","
","
","""event"",""trial"",""time""
""fullscreenenter"",""1"",""80259""
","
","","","-1","","","25","19977","7202","j","elianto","#3366ff99"," ","-1","0","0","[]","0","2","","","19977","138","9","1","win","go","0"
"pit-trial","257","1627457","0.0-143.0","battery-v0.2","","""event"",""trial"",""time""
""fullscreenenter"",""1"",""80259""
","
","
","""event"",""trial"",""time""
""fullscreenenter"",""1"",""80259""
","
","","","789.6000000238419","","","25","19977","7202","e","elianto","#f73b6a7A","-1"," ","0","0","[1641.5]","1","2","","","19977","139","7","4","lose","no-go","1"
"pit-trial","258","1632003","0.0-144.0","battery-v0.2","","""event"",""trial"",""time""
""fullscreenenter"",""1"",""80259""
","
","
","""event"",""trial"",""time""
""fullscreenenter"",""1"",""80259""
","
","","","1688.699999988079","","","25","19977","7202","d","elianto","#3366ff99"," "," ","1","+10","[2539.800000011921]","1","2","","","19977","140","8","1","win","go","0"
"pit-instructions","259","1666786","0.0-145.0","battery-v0.2","","""event"",""trial"",""time""
""fullscreenenter"",""1"",""80259""
","
","
","""event"",""trial"",""time""
""fullscreenenter"",""1"",""80259""
","
","","[{""page_index"":0,""viewing_time"":11006.800000011921},{""page_index"":1,""viewing_time"":23771.69999998808}]","34778.80000001192","","","","","","","","","","","","","","","","","","","","","","","",""
"pit-trial","260","1670564","0.0-146.0","battery-v0.2","","""event"",""trial"",""time""
""fullscreenenter"",""1"",""80259""
","
","
","""event"",""trial"",""time""
""fullscreenenter"",""1"",""80259""
","
","","","922.9000000357628","","","25","19977","7202","m","elianto","#f73b6a7A","-1"," ","0","-10","[1773.300000011921]","1","3","","","19977","141","0","4","lose","no-go","0"
"pit-trial","261","1675416","0.0-147.0","battery-v0.2","","""event"",""trial"",""time""
""fullscreenenter"",""1"",""80259""
","
","
","""event"",""trial"",""time""
""fullscreenenter"",""1"",""80259""
","
","","","-1","","","25","19977","7202","h","elianto","#f73b6a7A"," ","-1","0","-10","[]","0","3","","","19977","142","3","3","lose","go","0"
"pit-trial","262","1679539","0.0-148.0","battery-v0.2","","""event"",""trial"",""time""
""fullscreenenter"",""1"",""80259""
","
","
","""event"",""trial"",""time""
""fullscreenenter"",""1"",""80259""
","
","","","1256.3999999761581","","","25","19977","7202","y","elianto","#f73b6a7A","-1"," ","0","-10","[2119]","1","3","","","19977","143","2","4","lose","no-go","0"
"pit-trial","263","1682761","0.0-149.0","battery-v0.2","","""event"",""trial"",""time""
""fullscreenenter"",""1"",""80259""
","
","
","""event"",""trial"",""time""
""fullscreenenter"",""1"",""80259""
","
","","","366.10000002384186","","","25","19977","7202","r","elianto","#3366ff99"," "," ","1","+10","[1218.9000000357628]","1","3","","","19977","144","1","1","win","go","0"
