"trial_type","trial_index","time_elapsed","internal_node_id","task_version","subject_id","interactions","blur_events","focus_events","fullscreenenter_events","fullscreenexit_events","success","view_history","rt","responses","num_errors","age","subject","participantId","rune","rune_set","hex","correct","choice","accuracy","outcome","keys","total_keys","block","practice","value","sub","trial","stimulus","robot","valence","action","sham"
"pavlovia","0","16","0.0-0.0","battery-v0.2","","""event"",""trial"",""time""
""fullscreenenter"",""1"",""2867""
","
","
","""event"",""trial"",""time""
""fullscreenenter"",""1"",""2867""
","
","","","","","","","","","","","","","","","","","","","","","","","","","","",""
"fullscreen","1","3820","0.0-1.0","battery-v0.2","","""event"",""trial"",""time""
""fullscreenenter"",""1"",""2867""
","
","
","""event"",""trial"",""time""
""fullscreenenter"",""1"",""2867""
","
","true","","","","","","","","","","","","","","","","","","","","","","","","","",""
"pit-instructions","2","8512","0.0-2.0-0.0","battery-v0.2","","""event"",""trial"",""time""
""fullscreenenter"",""1"",""2867""
","
","
","""event"",""trial"",""time""
""fullscreenenter"",""1"",""2867""
","
","","[{""page_index"":0,""viewing_time"":4684}]","4684.89999961853","","","","","","","","","","","","","","","","","","","","","","","",""
"pit-comprehension","3","12354","0.0-2.0-1.0-0.0","battery-v0.2","","""event"",""trial"",""time""
""fullscreenenter"",""1"",""2867""
","
","
","""event"",""trial"",""time""
""fullscreenenter"",""1"",""2867""
","
","","","3836.7000002861023","[""shark""]","0","17","3003","2423","","","","","","","","","","","","","","","","","","",""
"pit-instructions","4","15309","0.0-2.0-1.0-1.0","battery-v0.2","","""event"",""trial"",""time""
""fullscreenenter"",""1"",""2867""
","
","
","""event"",""trial"",""time""
""fullscreenenter"",""1"",""2867""
","
","","[{""page_index"":0,""viewing_time"":2889.7000002861023}]","2890.300000190735","","","","","","","","","","","","","","","","","","","","","","","",""
"pit-comprehension","5","17839","0.0-2.0-2.0-0.0","battery-v0.2","","""event"",""trial"",""time""
""fullscreenenter"",""1"",""2867""
","
","
","""event"",""trial"",""time""
""fullscreenenter"",""1"",""2867""
","
","","","2523.5","[""tiger""]","0","17","3003","2423","","","","","","","","","","","","","","","","","","",""
"pit-instructions","6","18596","0.0-2.0-2.0-1.0","battery-v0.2","","""event"",""trial"",""time""
""fullscreenenter"",""1"",""2867""
","
","
","""event"",""trial"",""time""
""fullscreenenter"",""1"",""2867""
","
","","[{""page_index"":0,""viewing_time"":751.3000001907349}]","751.9000000953674","","","","","","","","","","","","","","","","","","","","","","","",""
"pit-instructions","7","116374","0.0-2.0-3.0","battery-v0.2","","""event"",""trial"",""time""
""fullscreenenter"",""1"",""2867""
","
","
","""event"",""trial"",""time""
""fullscreenenter"",""1"",""2867""
","
","","[{""page_index"":0,""viewing_time"":9971.099999904633},{""page_index"":1,""viewing_time"":6188.699999809265},{""page_index"":2,""viewing_time"":6394.900000095367},{""page_index"":3,""viewing_time"":5412.300000190735},{""page_index"":4,""viewing_time"":5860.099999904633},{""page_index"":5,""viewing_time"":6149.099999904633},{""page_index"":6,""viewing_time"":9649.5},{""page_index"":7,""viewing_time"":6412},{""page_index"":8,""viewing_time"":6434.400000095367},{""page_index"":9,""viewing_time"":9185.099999904633},{""page_index"":10,""viewing_time"":7459},{""page_index"":11,""viewing_time"":7204.700000286102},{""page_index"":12,""viewing_time"":6624.5},{""page_index"":13,""viewing_time"":4827.5}]","97773.90000009537","","","","","","","","","","","","","","","","","","","","","","","",""
"pit-trial","8","119866","0.0-2.0-4.0-0.0","battery-v0.2","","""event"",""trial"",""time""
""fullscreenenter"",""1"",""2867""
","
","
","""event"",""trial"",""time""
""fullscreenenter"",""1"",""2867""
","
","","","630.5","","","17","3003","2423","&#9784;","elianto","#FFFFF080"," "," ","1","&#10004","[1487.1999998092651]","1","0","0","","","","","","","",""
"pit-trial","9","123333","0.0-2.0-4.1-0.1","battery-v0.2","","""event"",""trial"",""time""
""fullscreenenter"",""1"",""2867""
","
","
","""event"",""trial"",""time""
""fullscreenenter"",""1"",""2867""
","
","","","590.3000001907349","","","17","3003","2423","&#9784;","elianto","#FFFFF080"," "," ","1","&#10004","[1452.8000001907349]","1","0","0","","","","","","","",""
"pit-trial","10","126956","0.0-2.0-4.2-0.2","battery-v0.2","","""event"",""trial"",""time""
""fullscreenenter"",""1"",""2867""
","
","
","""event"",""trial"",""time""
""fullscreenenter"",""1"",""2867""
","
","","","763.5999999046326","","","17","3003","2423","&#9784;","elianto","#FFFFF080"," "," ","1","&#10004","[1614.5]","1","0","0","","","","","","","",""
"pit-trial","11","130359","0.0-2.0-4.3-0.3","battery-v0.2","","""event"",""trial"",""time""
""fullscreenenter"",""1"",""2867""
","
","
","""event"",""trial"",""time""
""fullscreenenter"",""1"",""2867""
","
","","","536.2000002861023","","","17","3003","2423","&#9784;","elianto","#FFFFF080"," "," ","1","&#10004","[1395.5]","1","0","0","","","","","","","",""
"pit-trial","12","133807","0.0-2.0-4.4-0.4","battery-v0.2","","""event"",""trial"",""time""
""fullscreenenter"",""1"",""2867""
","
","
","""event"",""trial"",""time""
""fullscreenenter"",""1"",""2867""
","
","","","585.0999999046326","","","17","3003","2423","&#9784;","elianto","#FFFFF080"," "," ","1","&#10004","[1441.2000002861023]","1","0","0","","","","","","","",""
"pit-instructions","13","173176","0.0-2.0-5.0","battery-v0.2","","""event"",""trial"",""time""
""fullscreenenter"",""1"",""2867""
","
","
","""event"",""trial"",""time""
""fullscreenenter"",""1"",""2867""
","
","","[{""page_index"":0,""viewing_time"":22693.099999904633},{""page_index"":1,""viewing_time"":6213.699999809265},{""page_index"":2,""viewing_time"":5367.200000286102},{""page_index"":3,""viewing_time"":5090.299999713898}]","39364.7999997139","","","","","","","","","","","","","","","","","","","","","","","",""
"pit-trial","14","178059","0.0-2.0-6.0-0.0","battery-v0.2","","""event"",""trial"",""time""
""fullscreenenter"",""1"",""2867""
","
","
","""event"",""trial"",""time""
""fullscreenenter"",""1"",""2867""
","
","","","-1","","","17","3003","2423","&#9854;","elianto","#FFFFF080","-1","-1","1","&#10004","[]","0","0","1","","","","","","","",""
"pit-trial","15","182928","0.0-2.0-6.1-0.1","battery-v0.2","","""event"",""trial"",""time""
""fullscreenenter"",""1"",""2867""
","
","
","""event"",""trial"",""time""
""fullscreenenter"",""1"",""2867""
","
","","","-1","","","17","3003","2423","&#9854;","elianto","#FFFFF080","-1","-1","1","&#10004","[]","0","0","1","","","","","","","",""
"pit-trial","16","187809","0.0-2.0-6.2-0.2","battery-v0.2","","""event"",""trial"",""time""
""fullscreenenter"",""1"",""2867""
","
","
","""event"",""trial"",""time""
""fullscreenenter"",""1"",""2867""
","
","","","-1","","","17","3003","2423","&#9854;","elianto","#FFFFF080","-1","-1","1","&#10004","[]","0","0","1","","","","","","","",""
"pit-trial","17","192672","0.0-2.0-6.3-0.3","battery-v0.2","","""event"",""trial"",""time""
""fullscreenenter"",""1"",""2867""
","
","
","""event"",""trial"",""time""
""fullscreenenter"",""1"",""2867""
","
","","","-1","","","17","3003","2423","&#9854;","elianto","#FFFFF080","-1","-1","1","&#10004","[]","0","0","1","","","","","","","",""
"pit-trial","18","197537","0.0-2.0-6.4-0.4","battery-v0.2","","""event"",""trial"",""time""
""fullscreenenter"",""1"",""2867""
","
","
","""event"",""trial"",""time""
""fullscreenenter"",""1"",""2867""
","
","","","-1","","","17","3003","2423","&#9854;","elianto","#FFFFF080","-1","-1","1","&#10004","[]","0","0","1","","","","","","","",""
"pit-instructions","19","323894","0.0-2.0-7.0","battery-v0.2","","""event"",""trial"",""time""
""fullscreenenter"",""1"",""2867""
","
","
","""event"",""trial"",""time""
""fullscreenenter"",""1"",""2867""
","
","","[{""page_index"":0,""viewing_time"":8700.199999809265},{""page_index"":1,""viewing_time"":8869.10000038147},{""page_index"":2,""viewing_time"":6316.299999713898},{""page_index"":3,""viewing_time"":7021.300000190735},{""page_index"":4,""viewing_time"":5888.599999904633},{""page_index"":5,""viewing_time"":5316.599999904633},{""page_index"":6,""viewing_time"":5205.200000286102},{""page_index"":7,""viewing_time"":7636.299999713898},{""page_index"":8,""viewing_time"":6490.200000286102},{""page_index"":9,""viewing_time"":5637.599999904633},{""page_index"":10,""viewing_time"":6584.799999713898},{""page_index"":11,""viewing_time"":4359.10000038147},{""page_index"":12,""viewing_time"":8517},{""page_index"":13,""viewing_time"":8110.699999809265},{""page_index"":14,""viewing_time"":7124.199999809265},{""page_index"":15,""viewing_time"":10414.800000190735},{""page_index"":16,""viewing_time"":6622},{""page_index"":17,""viewing_time"":7538.699999809265}]","126353.40000009537","","","","","","","","","","","","","","","","","","","","","","","",""
"pit-trial","20","327435","0.0-2.0-8.0-0.0","battery-v0.2","","""event"",""trial"",""time""
""fullscreenenter"",""1"",""2867""
","
","
","""event"",""trial"",""time""
""fullscreenenter"",""1"",""2867""
","
","","","680.9000000953674","","","17","3003","2423","&#9776;","elianto","#3366ff99"," "," ","1","+10","[1532.3000001907349]","1","0","1","","","","","","","",""
"pit-trial","21","330836","0.0-2.0-8.0-1.0","battery-v0.2","","""event"",""trial"",""time""
""fullscreenenter"",""1"",""2867""
","
","
","""event"",""trial"",""time""
""fullscreenenter"",""1"",""2867""
","
","","","522.7000002861023","","","17","3003","2423","&#9776;","elianto","#3366ff99"," "," ","1","+10","[1382.7000002861023]","1","0","1","","","","","","","",""
"pit-trial","22","334319","0.0-2.0-8.0-2.0","battery-v0.2","","""event"",""trial"",""time""
""fullscreenenter"",""1"",""2867""
","
","
","""event"",""trial"",""time""
""fullscreenenter"",""1"",""2867""
","
","","","606.9000000953674","","","17","3003","2423","&#9776;","elianto","#3366ff99"," "," ","1","+10","[1468.5]","1","0","1","","","","","","","",""
"pit-trial","23","337631","0.0-2.0-8.0-3.0","battery-v0.2","","""event"",""trial"",""time""
""fullscreenenter"",""1"",""2867""
","
","
","""event"",""trial"",""time""
""fullscreenenter"",""1"",""2867""
","
","","","429.7000002861023","","","17","3003","2423","&#9776;","elianto","#3366ff99"," "," ","1","0","[1288.6000003814697]","1","0","1","","","","","","","",""
"pit-trial","24","340939","0.0-2.0-8.0-4.0","battery-v0.2","","""event"",""trial"",""time""
""fullscreenenter"",""1"",""2867""
","
","
","""event"",""trial"",""time""
""fullscreenenter"",""1"",""2867""
","
","","","443.80000019073486","","","17","3003","2423","&#9776;","elianto","#3366ff99"," "," ","1","+10","[1293.7000002861023]","1","0","1","","","","","","","",""
"call-function","25","340941","0.0-2.0-9.0","battery-v0.2","","""event"",""trial"",""time""
""fullscreenenter"",""1"",""2867""
","
","
","""event"",""trial"",""time""
""fullscreenenter"",""1"",""2867""
","
","","","","","","","","","","","","","","","","","","","","","","","","","","",""
"pit-instructions","26","383544","0.0-2.0-10.0","battery-v0.2","","""event"",""trial"",""time""
""fullscreenenter"",""1"",""2867""
","
","
","""event"",""trial"",""time""
""fullscreenenter"",""1"",""2867""
","
","","[{""page_index"":0,""viewing_time"":6646},{""page_index"":1,""viewing_time"":6665.900000095367},{""page_index"":2,""viewing_time"":12129.099999904633},{""page_index"":3,""viewing_time"":8996.900000095367},{""page_index"":4,""viewing_time"":8163.200000286102}]","42601.7000002861","","","","","","","","","","","","","","","","","","","","","","","",""
"pit-trial","27","388410","0.0-2.0-11.0-0.0","battery-v0.2","","""event"",""trial"",""time""
""fullscreenenter"",""1"",""2867""
","
","
","""event"",""trial"",""time""
""fullscreenenter"",""1"",""2867""
","
","","","-1","","","17","3003","2423","&#9761;","elianto","#3366ff99","-1","-1","1","+10","[]","0","0","2","","","","","","","",""
"pit-trial","28","393269","0.0-2.0-11.0-1.0","battery-v0.2","","""event"",""trial"",""time""
""fullscreenenter"",""1"",""2867""
","
","
","""event"",""trial"",""time""
""fullscreenenter"",""1"",""2867""
","
","","","-1","","","17","3003","2423","&#9761;","elianto","#3366ff99","-1","-1","1","+10","[]","0","0","2","","","","","","","",""
"pit-trial","29","398133","0.0-2.0-11.0-2.0","battery-v0.2","","""event"",""trial"",""time""
""fullscreenenter"",""1"",""2867""
","
","
","""event"",""trial"",""time""
""fullscreenenter"",""1"",""2867""
","
","","","-1","","","17","3003","2423","&#9761;","elianto","#3366ff99","-1","-1","1","+10","[]","0","0","2","","","","","","","",""
"pit-trial","30","403007","0.0-2.0-11.0-3.0","battery-v0.2","","""event"",""trial"",""time""
""fullscreenenter"",""1"",""2867""
","
","
","""event"",""trial"",""time""
""fullscreenenter"",""1"",""2867""
","
","","","-1","","","17","3003","2423","&#9761;","elianto","#3366ff99","-1","-1","1","0","[]","0","0","2","","","","","","","",""
"pit-trial","31","407887","0.0-2.0-11.0-4.0","battery-v0.2","","""event"",""trial"",""time""
""fullscreenenter"",""1"",""2867""
","
","
","""event"",""trial"",""time""
""fullscreenenter"",""1"",""2867""
","
","","","-1","","","17","3003","2423","&#9761;","elianto","#3366ff99","-1","-1","1","+10","[]","0","0","2","","","","","","","",""
"call-function","32","407889","0.0-2.0-12.0","battery-v0.2","","""event"",""trial"",""time""
""fullscreenenter"",""1"",""2867""
","
","
","""event"",""trial"",""time""
""fullscreenenter"",""1"",""2867""
","
","","","","","","","","","","","","","","","","","","","","","","","","","","",""
"pit-instructions","33","439678","0.0-2.0-13.0","battery-v0.2","","""event"",""trial"",""time""
""fullscreenenter"",""1"",""2867""
","
","
","""event"",""trial"",""time""
""fullscreenenter"",""1"",""2867""
","
","","[{""page_index"":0,""viewing_time"":5390.299999713898},{""page_index"":1,""viewing_time"":7026.400000095367},{""page_index"":2,""viewing_time"":3455.5},{""page_index"":3,""viewing_time"":11128.900000095367},{""page_index"":4,""viewing_time"":4786.599999904633}]","31788.5","","","","","","","","","","","","","","","","","","","","","","","",""
"pit-trial","34","443060","0.0-2.0-14.0-0.0","battery-v0.2","","""event"",""trial"",""time""
""fullscreenenter"",""1"",""2867""
","
","
","""event"",""trial"",""time""
""fullscreenenter"",""1"",""2867""
","
","","","524.1000003814697","","","17","3003","2423","&#9826;","elianto","#f73b6a7A","-1"," ","0","-10","[1376.5999999046326]","1","0","3","","","","","","","",""
"pit-trial","35","446140","0.0-2.0-14.0-1.0","battery-v0.2","","""event"",""trial"",""time""
""fullscreenenter"",""1"",""2867""
","
","
","""event"",""trial"",""time""
""fullscreenenter"",""1"",""2867""
","
","","","220.69999980926514","","","17","3003","2423","&#9826;","elianto","#f73b6a7A","-1"," ","0","-10","[1072.9000000953674]","1","0","3","","","","","","","",""
"pit-trial","36","451002","0.0-2.0-14.0-2.0","battery-v0.2","","""event"",""trial"",""time""
""fullscreenenter"",""1"",""2867""
","
","
","""event"",""trial"",""time""
""fullscreenenter"",""1"",""2867""
","
","","","-1","","","17","3003","2423","&#9826;","elianto","#f73b6a7A","-1","-1","1","0","[]","0","0","3","","","","","","","",""
"pit-trial","37","455871","0.0-2.0-14.0-3.0","battery-v0.2","","""event"",""trial"",""time""
""fullscreenenter"",""1"",""2867""
","
","
","""event"",""trial"",""time""
""fullscreenenter"",""1"",""2867""
","
","","","-1","","","17","3003","2423","&#9826;","elianto","#f73b6a7A","-1","-1","1","-10","[]","0","0","3","","","","","","","",""
"pit-trial","38","460735","0.0-2.0-14.0-4.0","battery-v0.2","","""event"",""trial"",""time""
""fullscreenenter"",""1"",""2867""
","
","
","""event"",""trial"",""time""
""fullscreenenter"",""1"",""2867""
","
","","","-1","","","17","3003","2423","&#9826;","elianto","#f73b6a7A","-1","-1","1","0","[]","0","0","3","","","","","","","",""
"pit-trial","39","465609","0.0-2.0-14.1-0.1","battery-v0.2","","""event"",""trial"",""time""
""fullscreenenter"",""1"",""2867""
","
","
","""event"",""trial"",""time""
""fullscreenenter"",""1"",""2867""
","
","","","-1","","","17","3003","2423","&#9826;","elianto","#f73b6a7A","-1","-1","1","0","[]","0","0","3","","","","","","","",""
"pit-trial","40","470494","0.0-2.0-14.1-1.1","battery-v0.2","","""event"",""trial"",""time""
""fullscreenenter"",""1"",""2867""
","
","
","""event"",""trial"",""time""
""fullscreenenter"",""1"",""2867""
","
","","","-1","","","17","3003","2423","&#9826;","elianto","#f73b6a7A","-1","-1","1","0","[]","0","0","3","","","","","","","",""
"pit-trial","41","475359","0.0-2.0-14.1-2.1","battery-v0.2","","""event"",""trial"",""time""
""fullscreenenter"",""1"",""2867""
","
","
","""event"",""trial"",""time""
""fullscreenenter"",""1"",""2867""
","
","","","-1","","","17","3003","2423","&#9826;","elianto","#f73b6a7A","-1","-1","1","0","[]","0","0","3","","","","","","","",""
"pit-trial","42","480234","0.0-2.0-14.1-3.1","battery-v0.2","","""event"",""trial"",""time""
""fullscreenenter"",""1"",""2867""
","
","
","""event"",""trial"",""time""
""fullscreenenter"",""1"",""2867""
","
","","","-1","","","17","3003","2423","&#9826;","elianto","#f73b6a7A","-1","-1","1","-10","[]","0","0","3","","","","","","","",""
"pit-trial","43","485097","0.0-2.0-14.1-4.1","battery-v0.2","","""event"",""trial"",""time""
""fullscreenenter"",""1"",""2867""
","
","
","""event"",""trial"",""time""
""fullscreenenter"",""1"",""2867""
","
","","","-1","","","17","3003","2423","&#9826;","elianto","#f73b6a7A","-1","-1","1","0","[]","0","0","3","","","","","","","",""
"call-function","44","485100","0.0-2.0-15.0","battery-v0.2","","""event"",""trial"",""time""
""fullscreenenter"",""1"",""2867""
","
","
","""event"",""trial"",""time""
""fullscreenenter"",""1"",""2867""
","
","","","","","","","","","","","","","","","","","","","","","","","","","","",""
"pit-instructions","45","515868","0.0-2.0-16.0","battery-v0.2","","""event"",""trial"",""time""
""fullscreenenter"",""1"",""2867""
","
","
","""event"",""trial"",""time""
""fullscreenenter"",""1"",""2867""
","
","","[{""page_index"":0,""viewing_time"":8913.5},{""page_index"":1,""viewing_time"":9795.099999904633},{""page_index"":2,""viewing_time"":6964.5},{""page_index"":3,""viewing_time"":5093.699999809265}]","30767.599999904633","","","","","","","","","","","","","","","","","","","","","","","",""
"pit-trial","46","519195","0.0-2.0-17.0-0.0","battery-v0.2","","""event"",""trial"",""time""
""fullscreenenter"",""1"",""2867""
","
","
","""event"",""trial"",""time""
""fullscreenenter"",""1"",""2867""
","
","","","449.2999997138977","","","17","3003","2423","&#9789;","elianto","#f73b6a7A"," "," ","1","0","[1309.5]","1","0","4","","","","","","","",""
"pit-trial","47","522552","0.0-2.0-17.0-1.0","battery-v0.2","","""event"",""trial"",""time""
""fullscreenenter"",""1"",""2867""
","
","
","""event"",""trial"",""time""
""fullscreenenter"",""1"",""2867""
","
","","","491.69999980926514","","","17","3003","2423","&#9789;","elianto","#f73b6a7A"," "," ","1","0","[1342.9000000953674]","1","0","4","","","","","","","",""
"pit-trial","48","525940","0.0-2.0-17.0-2.0","battery-v0.2","","""event"",""trial"",""time""
""fullscreenenter"",""1"",""2867""
","
","
","""event"",""trial"",""time""
""fullscreenenter"",""1"",""2867""
","
","","","520.5","","","17","3003","2423","&#9789;","elianto","#f73b6a7A"," "," ","1","0","[1381.8000001907349]","1","0","4","","","","","","","",""
"pit-trial","49","529095","0.0-2.0-17.0-3.0","battery-v0.2","","""event"",""trial"",""time""
""fullscreenenter"",""1"",""2867""
","
","
","""event"",""trial"",""time""
""fullscreenenter"",""1"",""2867""
","
","","","291.19999980926514","","","17","3003","2423","&#9789;","elianto","#f73b6a7A"," "," ","1","-10","[1147.9000000953674]","1","0","4","","","","","","","",""
"pit-trial","50","532528","0.0-2.0-17.0-4.0","battery-v0.2","","""event"",""trial"",""time""
""fullscreenenter"",""1"",""2867""
","
","
","""event"",""trial"",""time""
""fullscreenenter"",""1"",""2867""
","
","","","567","","","17","3003","2423","&#9789;","elianto","#f73b6a7A"," "," ","1","0","[1418]","1","0","4","","","","","","","",""
"call-function","51","532530","0.0-2.0-18.0","battery-v0.2","","""event"",""trial"",""time""
""fullscreenenter"",""1"",""2867""
","
","
","""event"",""trial"",""time""
""fullscreenenter"",""1"",""2867""
","
","","","","","","","","","","","","","","","","","","","","","","","","","","",""
"pit-instructions","52","600483","0.0-2.0-19.0","battery-v0.2","","""event"",""trial"",""time""
""fullscreenenter"",""1"",""2867""
","
","
","""event"",""trial"",""time""
""fullscreenenter"",""1"",""2867""
","
","","[{""page_index"":0,""viewing_time"":11955.800000190735},{""page_index"":1,""viewing_time"":4643.599999904633},{""page_index"":2,""viewing_time"":8744.799999713898},{""page_index"":3,""viewing_time"":5877.400000095367},{""page_index"":4,""viewing_time"":8147.599999904633},{""page_index"":5,""viewing_time"":8735},{""page_index"":6,""viewing_time"":8237.60000038147},{""page_index"":7,""viewing_time"":6658.299999713898},{""page_index"":8,""viewing_time"":4948}]","67948.80000019073","","","","","","","","","","","","","","","","","","","","","","","",""
"pit-comprehension","53","605589","0.0-2.0-20.0-0.0","battery-v0.2","","""event"",""trial"",""time""
""fullscreenenter"",""1"",""2867""
","
","
","""event"",""trial"",""time""
""fullscreenenter"",""1"",""2867""
","
","","","5098.299999713898","[""SPACE""]","0","17","3003","2423","","","","","","","","","","","","","","","","","","",""
"pit-instructions","54","610421","0.0-2.0-20.0-1.0","battery-v0.2","","""event"",""trial"",""time""
""fullscreenenter"",""1"",""2867""
","
","
","""event"",""trial"",""time""
""fullscreenenter"",""1"",""2867""
","
","","[{""page_index"":0,""viewing_time"":4740.200000286102}]","4740.800000190735","","","","","","","","","","","","","","","","","","","","","","","",""
"pit-comprehension","55","614485","0.0-2.0-21.0-0.0","battery-v0.2","","""event"",""trial"",""time""
""fullscreenenter"",""1"",""2867""
","
","
","""event"",""trial"",""time""
""fullscreenenter"",""1"",""2867""
","
","","","4058.199999809265","[""10""]","0","17","3003","2423","","","","","","","","","","","","","","","","","","",""
"pit-instructions","56","615938","0.0-2.0-21.0-1.0","battery-v0.2","","""event"",""trial"",""time""
""fullscreenenter"",""1"",""2867""
","
","
","""event"",""trial"",""time""
""fullscreenenter"",""1"",""2867""
","
","","[{""page_index"":0,""viewing_time"":1417.4000000953674}]","1418","","","","","","","","","","","","","","","","","","","","","","","",""
"pit-comprehension","57","622500","0.0-2.0-22.0-0.0","battery-v0.2","","""event"",""trial"",""time""
""fullscreenenter"",""1"",""2867""
","
","
","""event"",""trial"",""time""
""fullscreenenter"",""1"",""2867""
","
","","","6557.099999904633","[""0""]","0","17","3003","2423","","","","","","","","","","","","","","","","","","",""
"pit-instructions","58","624295","0.0-2.0-22.0-1.0","battery-v0.2","","""event"",""trial"",""time""
""fullscreenenter"",""1"",""2867""
","
","
","""event"",""trial"",""time""
""fullscreenenter"",""1"",""2867""
","
","","[{""page_index"":0,""viewing_time"":1757.8000001907349}]","1758.3000001907349","","","","","","","","","","","","","","","","","","","","","","","",""
"pit-comprehension","59","632796","0.0-2.0-23.0-0.0","battery-v0.2","","""event"",""trial"",""time""
""fullscreenenter"",""1"",""2867""
","
","
","""event"",""trial"",""time""
""fullscreenenter"",""1"",""2867""
","
","","","8496.5","[""True""]","0","17","3003","2423","","","","","","","","","","","","","","","","","","",""
"pit-instructions","60","634349","0.0-2.0-23.0-1.0","battery-v0.2","","""event"",""trial"",""time""
""fullscreenenter"",""1"",""2867""
","
","
","""event"",""trial"",""time""
""fullscreenenter"",""1"",""2867""
","
","","[{""page_index"":0,""viewing_time"":1515.0999999046326}]","1515.7000002861023","","","","","","","","","","","","","","","","","","","","","","","",""
"pit-comprehension","61","641868","0.0-2.0-24.0-0.0","battery-v0.2","","""event"",""trial"",""time""
""fullscreenenter"",""1"",""2867""
","
","
","""event"",""trial"",""time""
""fullscreenenter"",""1"",""2867""
","
","","","7515.199999809265","[""True""]","0","17","3003","2423","","","","","","","","","","","","","","","","","","",""
"pit-instructions","62","643374","0.0-2.0-24.0-1.0","battery-v0.2","","""event"",""trial"",""time""
""fullscreenenter"",""1"",""2867""
","
","
","""event"",""trial"",""time""
""fullscreenenter"",""1"",""2867""
","
","","[{""page_index"":0,""viewing_time"":1467.5}]","1468.0999999046326","","","","","","","","","","","","","","","","","","","","","","","",""
"pit-comprehension","63","651041","0.0-2.0-25.0-0.0","battery-v0.2","","""event"",""trial"",""time""
""fullscreenenter"",""1"",""2867""
","
","
","""event"",""trial"",""time""
""fullscreenenter"",""1"",""2867""
","
","","","7662.89999961853","[""True""]","0","17","3003","2423","","","","","","","","","","","","","","","","","","",""
"pit-instructions","64","652681","0.0-2.0-25.0-1.0","battery-v0.2","","""event"",""trial"",""time""
""fullscreenenter"",""1"",""2867""
","
","
","""event"",""trial"",""time""
""fullscreenenter"",""1"",""2867""
","
","","[{""page_index"":0,""viewing_time"":1600}]","1600.4000000953674","","","","","","","","","","","","","","","","","","","","","","","",""
"pit-comprehension","65","657347","0.0-2.0-26.0-0.0","battery-v0.2","","""event"",""trial"",""time""
""fullscreenenter"",""1"",""2867""
","
","
","""event"",""trial"",""time""
""fullscreenenter"",""1"",""2867""
","
","","","4660.60000038147","[""False""]","0","17","3003","2423","","","","","","","","","","","","","","","","","","",""
"pit-instructions","66","659059","0.0-2.0-26.0-1.0","battery-v0.2","","""event"",""trial"",""time""
""fullscreenenter"",""1"",""2867""
","
","
","""event"",""trial"",""time""
""fullscreenenter"",""1"",""2867""
","
","","[{""page_index"":0,""viewing_time"":1674.4000000953674}]","1674.9000000953674","","","","","","","","","","","","","","","","","","","","","","","",""
"pit-instructions","67","674643","0.0-3.0","battery-v0.2","","""event"",""trial"",""time""
""fullscreenenter"",""1"",""2867""
","
","
","""event"",""trial"",""time""
""fullscreenenter"",""1"",""2867""
","
","","[{""page_index"":0,""viewing_time"":3979.8999996185303},{""page_index"":1,""viewing_time"":5282.700000286102},{""page_index"":2,""viewing_time"":6318.5}]","15581.599999904633","","","","","","","","","","","","","","","","","","","","","","","",""
"pit-trial","68","678114","0.0-4.0","battery-v0.2","","""event"",""trial"",""time""
""fullscreenenter"",""1"",""2867""
","
","
","""event"",""trial"",""time""
""fullscreenenter"",""1"",""2867""
","
","","","603.7999997138977","","","17","3003","2423","&#9752;","elianto","#f73b6a7A"," "," ","1","-10","[1455.6000003814697]","1","1","","","3003","1","3","3","lose","go","1"
"pit-trial","69","681681","0.0-5.0","battery-v0.2","","""event"",""trial"",""time""
""fullscreenenter"",""1"",""2867""
","
","
","""event"",""trial"",""time""
""fullscreenenter"",""1"",""2867""
","
","","","709.3000001907349","","","17","3003","2423","&#9733;","elianto","#3366ff99","-1"," ","0","0","[1559.7000002861023]","1","1","","","3003","2","2","2","win","no-go","0"
"pit-trial","70","685362","0.0-6.0","battery-v0.2","","""event"",""trial"",""time""
""fullscreenenter"",""1"",""2867""
","
","
","""event"",""trial"",""time""
""fullscreenenter"",""1"",""2867""
","
","","","816","","","17","3003","2423","&#9728;","elianto","#f73b6a7A","-1"," ","0","0","[1668.9000000953674]","1","1","","","3003","3","0","4","lose","no-go","1"
"pit-trial","71","689014","0.0-7.0","battery-v0.2","","""event"",""trial"",""time""
""fullscreenenter"",""1"",""2867""
","
","
","""event"",""trial"",""time""
""fullscreenenter"",""1"",""2867""
","
","","","782.3000001907349","","","17","3003","2423","&#9730;","elianto","#3366ff99"," "," ","1","0","[1633.7999997138977]","1","1","","","3003","4","1","1","win","go","1"
"pit-trial","72","693895","0.0-8.0","battery-v0.2","","""event"",""trial"",""time""
""fullscreenenter"",""1"",""2867""
","
","
","""event"",""trial"",""time""
""fullscreenenter"",""1"",""2867""
","
","","","-1","","","17","3003","2423","&#9730;","elianto","#3366ff99"," ","-1","0","0","[]","0","1","","","3003","5","1","1","win","go","0"
"pit-trial","73","697607","0.0-9.0","battery-v0.2","","""event"",""trial"",""time""
""fullscreenenter"",""1"",""2867""
","
","
","""event"",""trial"",""time""
""fullscreenenter"",""1"",""2867""
","
","","","843.5","","","17","3003","2423","&#9752;","elianto","#f73b6a7A"," "," ","1","0","[1694.6999998092651]","1","1","","","3003","6","3","3","lose","go","0"
"pit-trial","74","702481","0.0-10.0","battery-v0.2","","""event"",""trial"",""time""
""fullscreenenter"",""1"",""2867""
","
","
","""event"",""trial"",""time""
""fullscreenenter"",""1"",""2867""
","
","","","-1","","","17","3003","2423","&#9733;","elianto","#3366ff99","-1","-1","1","+10","[]","0","1","","","3003","7","2","2","win","no-go","0"
"pit-trial","75","707358","0.0-11.0","battery-v0.2","","""event"",""trial"",""time""
""fullscreenenter"",""1"",""2867""
","
","
","""event"",""trial"",""time""
""fullscreenenter"",""1"",""2867""
","
","","","-1","","","17","3003","2423","&#9728;","elianto","#f73b6a7A","-1","-1","1","0","[]","0","1","","","3003","8","0","4","lose","no-go","0"
"pit-trial","76","711245","0.0-12.0","battery-v0.2","","""event"",""trial"",""time""
""fullscreenenter"",""1"",""2867""
","
","
","""event"",""trial"",""time""
""fullscreenenter"",""1"",""2867""
","
","","","1024.5","","","17","3003","2423","&#9730;","elianto","#3366ff99"," "," ","1","+10","[1878.2000002861023]","1","1","","","3003","9","1","1","win","go","0"
"pit-trial","77","716107","0.0-13.0","battery-v0.2","","""event"",""trial"",""time""
""fullscreenenter"",""1"",""2867""
","
","
","""event"",""trial"",""time""
""fullscreenenter"",""1"",""2867""
","
","","","-1","","","17","3003","2423","&#9752;","elianto","#f73b6a7A"," ","-1","0","0","[]","0","1","","","3003","10","3","3","lose","go","1"
"pit-trial","78","719847","0.0-14.0","battery-v0.2","","""event"",""trial"",""time""
""fullscreenenter"",""1"",""2867""
","
","
","""event"",""trial"",""time""
""fullscreenenter"",""1"",""2867""
","
","","","876","","","17","3003","2423","&#9733;","elianto","#3366ff99","-1"," ","0","+10","[1727.4000000953674]","1","1","","","3003","11","2","2","win","no-go","1"
"pit-trial","79","724707","0.0-15.0","battery-v0.2","","""event"",""trial"",""time""
""fullscreenenter"",""1"",""2867""
","
","
","""event"",""trial"",""time""
""fullscreenenter"",""1"",""2867""
","
","","","-1","","","17","3003","2423","&#9728;","elianto","#f73b6a7A","-1","-1","1","0","[]","0","1","","","3003","12","0","4","lose","no-go","0"
"pit-trial","80","729298","0.0-16.0","battery-v0.2","","""event"",""trial"",""time""
""fullscreenenter"",""1"",""2867""
","
","
","""event"",""trial"",""time""
""fullscreenenter"",""1"",""2867""
","
","","","1730.8999996185303","","","17","3003","2423","&#9752;","elianto","#f73b6a7A"," "," ","1","0","[2581.4000000953674]","1","1","","","3003","13","3","3","lose","go","0"
"pit-trial","81","732894","0.0-17.0","battery-v0.2","","""event"",""trial"",""time""
""fullscreenenter"",""1"",""2867""
","
","
","""event"",""trial"",""time""
""fullscreenenter"",""1"",""2867""
","
","","","742.0999999046326","","","17","3003","2423","&#9733;","elianto","#3366ff99","-1"," ","0","+10","[1592.3000001907349]","1","1","","","3003","14","2","2","win","no-go","1"
"pit-trial","82","737758","0.0-18.0","battery-v0.2","","""event"",""trial"",""time""
""fullscreenenter"",""1"",""2867""
","
","
","""event"",""trial"",""time""
""fullscreenenter"",""1"",""2867""
","
","","","-1","","","17","3003","2423","&#9728;","elianto","#f73b6a7A","-1","-1","1","0","[]","0","1","","","3003","15","0","4","lose","no-go","0"
"pit-trial","83","741758","0.0-19.0","battery-v0.2","","""event"",""trial"",""time""
""fullscreenenter"",""1"",""2867""
","
","
","""event"",""trial"",""time""
""fullscreenenter"",""1"",""2867""
","
","","","1143","","","17","3003","2423","&#9730;","elianto","#3366ff99"," "," ","1","+10","[1993.1999998092651]","1","1","","","3003","16","1","1","win","go","0"
"pit-trial","84","745423","0.0-20.0","battery-v0.2","","""event"",""trial"",""time""
""fullscreenenter"",""1"",""2867""
","
","
","""event"",""trial"",""time""
""fullscreenenter"",""1"",""2867""
","
","","","791.7999997138977","","","17","3003","2423","&#9752;","elianto","#f73b6a7A"," "," ","1","0","[1645.7999997138977]","1","1","","","3003","17","3","3","lose","go","0"
"pit-trial","85","748929","0.0-21.0","battery-v0.2","","""event"",""trial"",""time""
""fullscreenenter"",""1"",""2867""
","
","
","""event"",""trial"",""time""
""fullscreenenter"",""1"",""2867""
","
","","","645.2000002861023","","","17","3003","2423","&#9733;","elianto","#3366ff99","-1"," ","0","0","[1497.5]","1","1","","","3003","18","2","2","win","no-go","0"
"pit-trial","86","753796","0.0-22.0","battery-v0.2","","""event"",""trial"",""time""
""fullscreenenter"",""1"",""2867""
","
","
","""event"",""trial"",""time""
""fullscreenenter"",""1"",""2867""
","
","","","-1","","","17","3003","2423","&#9728;","elianto","#f73b6a7A","-1","-1","1","0","[]","0","1","","","3003","19","0","4","lose","no-go","0"
"pit-trial","87","757509","0.0-23.0","battery-v0.2","","""event"",""trial"",""time""
""fullscreenenter"",""1"",""2867""
","
","
","""event"",""trial"",""time""
""fullscreenenter"",""1"",""2867""
","
","","","849.9000000953674","","","17","3003","2423","&#9730;","elianto","#3366ff99"," "," ","1","+10","[1700.2000002861023]","1","1","","","3003","20","1","1","win","go","0"
"pit-instructions","88","769657","0.0-24.0","battery-v0.2","","""event"",""trial"",""time""
""fullscreenenter"",""1"",""2867""
","
","
","""event"",""trial"",""time""
""fullscreenenter"",""1"",""2867""
","
","","[{""page_index"":0,""viewing_time"":5496.5},{""page_index"":1,""viewing_time"":6647.5}]","12144.599999904633","","","","","","","","","","","","","","","","","","","","","","","",""
"pit-trial","89","773528","0.0-25.0","battery-v0.2","","""event"",""trial"",""time""
""fullscreenenter"",""1"",""2867""
","
","
","""event"",""trial"",""time""
""fullscreenenter"",""1"",""2867""
","
","","","999.9000000953674","","","17","3003","2423","r","elianto","#3366ff99"," "," ","1","+10","[1851.9000000953674]","1","2","","","3003","21","1","1","win","go","0"
"pit-trial","90","778408","0.0-26.0","battery-v0.2","","""event"",""trial"",""time""
""fullscreenenter"",""1"",""2867""
","
","
","""event"",""trial"",""time""
""fullscreenenter"",""1"",""2867""
","
","","","-1","","","17","3003","2423","h","elianto","#f73b6a7A"," ","-1","0","-10","[]","0","2","","","3003","22","3","3","lose","go","0"
"pit-trial","91","782067","0.0-27.0","battery-v0.2","","""event"",""trial"",""time""
""fullscreenenter"",""1"",""2867""
","
","
","""event"",""trial"",""time""
""fullscreenenter"",""1"",""2867""
","
","","","794.4000000953674","","","17","3003","2423","m","elianto","#f73b6a7A","-1"," ","0","-10","[1650.5]","1","2","","","3003","23","0","4","lose","no-go","0"
"pit-trial","92","786007","0.0-28.0","battery-v0.2","","""event"",""trial"",""time""
""fullscreenenter"",""1"",""2867""
","
","
","""event"",""trial"",""time""
""fullscreenenter"",""1"",""2867""
","
","","","1075.5","","","17","3003","2423","y","elianto","#f73b6a7A","-1"," ","0","-10","[1925.6999998092651]","1","2","","","3003","24","2","4","lose","no-go","0"
"pit-trial","93","790003","0.0-29.0","battery-v0.2","","""event"",""trial"",""time""
""fullscreenenter"",""1"",""2867""
","
","
","""event"",""trial"",""time""
""fullscreenenter"",""1"",""2867""
","
","","","1132.9000000953674","","","17","3003","2423","r","elianto","#3366ff99"," "," ","1","+10","[1988.5]","1","2","","","3003","25","1","1","win","go","0"
"pit-trial","94","793559","0.0-30.0","battery-v0.2","","""event"",""trial"",""time""
""fullscreenenter"",""1"",""2867""
","
","
","""event"",""trial"",""time""
""fullscreenenter"",""1"",""2867""
","
","","","689.4000000953674","","","17","3003","2423","h","elianto","#f73b6a7A"," "," ","1","0","[1547.5999999046326]","1","2","","","3003","26","3","3","lose","go","0"
"pit-trial","95","798424","0.0-31.0","battery-v0.2","","""event"",""trial"",""time""
""fullscreenenter"",""1"",""2867""
","
","
","""event"",""trial"",""time""
""fullscreenenter"",""1"",""2867""
","
","","","-1","","","17","3003","2423","y","elianto","#f73b6a7A","-1","-1","1","0","[]","0","2","","","3003","27","2","4","lose","no-go","0"
"pit-trial","96","803285","0.0-32.0","battery-v0.2","","""event"",""trial"",""time""
""fullscreenenter"",""1"",""2867""
","
","
","""event"",""trial"",""time""
""fullscreenenter"",""1"",""2867""
","
","","","-1","","","17","3003","2423","m","elianto","#f73b6a7A","-1","-1","1","0","[]","0","2","","","3003","28","0","4","lose","no-go","0"
"pit-trial","97","808144","0.0-33.0","battery-v0.2","","""event"",""trial"",""time""
""fullscreenenter"",""1"",""2867""
","
","
","""event"",""trial"",""time""
""fullscreenenter"",""1"",""2867""
","
","","","-1","","","17","3003","2423","y","elianto","#f73b6a7A","-1","-1","1","0","[]","0","2","","","3003","29","2","4","lose","no-go","0"
"pit-trial","98","811820","0.0-34.0","battery-v0.2","","""event"",""trial"",""time""
""fullscreenenter"",""1"",""2867""
","
","
","""event"",""trial"",""time""
""fullscreenenter"",""1"",""2867""
","
","","","813.1999998092651","","","17","3003","2423","h","elianto","#f73b6a7A"," "," ","1","0","[1666]","1","2","","","3003","30","3","3","lose","go","0"
"pit-trial","99","815229","0.0-35.0","battery-v0.2","","""event"",""trial"",""time""
""fullscreenenter"",""1"",""2867""
","
","
","""event"",""trial"",""time""
""fullscreenenter"",""1"",""2867""
","
","","","544","","","17","3003","2423","r","elianto","#3366ff99"," "," ","1","0","[1400.3000001907349]","1","2","","","3003","31","1","1","win","go","1"
"pit-trial","100","820095","0.0-36.0","battery-v0.2","","""event"",""trial"",""time""
""fullscreenenter"",""1"",""2867""
","
","
","""event"",""trial"",""time""
""fullscreenenter"",""1"",""2867""
","
","","","-1","","","17","3003","2423","m","elianto","#f73b6a7A","-1","-1","1","0","[]","0","2","","","3003","32","0","4","lose","no-go","0"
"pit-trial","101","824954","0.0-37.0","battery-v0.2","","""event"",""trial"",""time""
""fullscreenenter"",""1"",""2867""
","
","
","""event"",""trial"",""time""
""fullscreenenter"",""1"",""2867""
","
","","","-1","","","17","3003","2423","y","elianto","#f73b6a7A","-1","-1","1","-10","[]","0","2","","","3003","33","2","4","lose","no-go","1"
"pit-trial","102","828448","0.0-38.0","battery-v0.2","","""event"",""trial"",""time""
""fullscreenenter"",""1"",""2867""
","
","
","""event"",""trial"",""time""
""fullscreenenter"",""1"",""2867""
","
","","","628.6999998092651","","","17","3003","2423","r","elianto","#3366ff99"," "," ","1","+10","[1485.1999998092651]","1","2","","","3003","34","1","1","win","go","0"
"pit-trial","103","833307","0.0-39.0","battery-v0.2","","""event"",""trial"",""time""
""fullscreenenter"",""1"",""2867""
","
","
","""event"",""trial"",""time""
""fullscreenenter"",""1"",""2867""
","
","","","-1","","","17","3003","2423","m","elianto","#f73b6a7A","-1","-1","1","-10","[]","0","2","","","3003","35","0","4","lose","no-go","1"
"pit-trial","104","837116","0.0-40.0","battery-v0.2","","""event"",""trial"",""time""
""fullscreenenter"",""1"",""2867""
","
","
","""event"",""trial"",""time""
""fullscreenenter"",""1"",""2867""
","
","","","947.1000003814697","","","17","3003","2423","h","elianto","#f73b6a7A"," "," ","1","0","[1801]","1","2","","","3003","36","3","3","lose","go","0"
"pit-trial","105","840760","0.0-41.0","battery-v0.2","","""event"",""trial"",""time""
""fullscreenenter"",""1"",""2867""
","
","
","""event"",""trial"",""time""
""fullscreenenter"",""1"",""2867""
","
","","","779.9000000953674","","","17","3003","2423","h","elianto","#f73b6a7A"," "," ","1","0","[1632.8000001907349]","1","2","","","3003","37","3","3","lose","go","0"
"pit-trial","106","845619","0.0-42.0","battery-v0.2","","""event"",""trial"",""time""
""fullscreenenter"",""1"",""2867""
","
","
","""event"",""trial"",""time""
""fullscreenenter"",""1"",""2867""
","
","","","-1","","","17","3003","2423","y","elianto","#f73b6a7A","-1","-1","1","0","[]","0","2","","","3003","38","2","4","lose","no-go","0"
"pit-trial","107","850479","0.0-43.0","battery-v0.2","","""event"",""trial"",""time""
""fullscreenenter"",""1"",""2867""
","
","
","""event"",""trial"",""time""
""fullscreenenter"",""1"",""2867""
","
","","","-1","","","17","3003","2423","m","elianto","#f73b6a7A","-1","-1","1","0","[]","0","2","","","3003","39","0","4","lose","no-go","0"
"pit-trial","108","853930","0.0-44.0","battery-v0.2","","""event"",""trial"",""time""
""fullscreenenter"",""1"",""2867""
","
","
","""event"",""trial"",""time""
""fullscreenenter"",""1"",""2867""
","
","","","594.3000001907349","","","17","3003","2423","r","elianto","#3366ff99"," "," ","1","+10","[1445.6999998092651]","1","2","","","3003","40","1","1","win","go","0"
"pit-trial","109","858797","0.0-45.0","battery-v0.2","","""event"",""trial"",""time""
""fullscreenenter"",""1"",""2867""
","
","
","""event"",""trial"",""time""
""fullscreenenter"",""1"",""2867""
","
","","","-1","","","17","3003","2423","m","elianto","#f73b6a7A","-1","-1","1","0","[]","0","2","","","3003","41","0","4","lose","no-go","0"
"pit-trial","110","862426","0.0-46.0","battery-v0.2","","""event"",""trial"",""time""
""fullscreenenter"",""1"",""2867""
","
","
","""event"",""trial"",""time""
""fullscreenenter"",""1"",""2867""
","
","","","771.5999999046326","","","17","3003","2423","h","elianto","#f73b6a7A"," "," ","1","0","[1624.0999999046326]","1","2","","","3003","42","3","3","lose","go","0"
"pit-trial","111","867286","0.0-47.0","battery-v0.2","","""event"",""trial"",""time""
""fullscreenenter"",""1"",""2867""
","
","
","""event"",""trial"",""time""
""fullscreenenter"",""1"",""2867""
","
","","","-1","","","17","3003","2423","y","elianto","#f73b6a7A","-1","-1","1","0","[]","0","2","","","3003","43","2","4","lose","no-go","0"
"pit-trial","112","870717","0.0-48.0","battery-v0.2","","""event"",""trial"",""time""
""fullscreenenter"",""1"",""2867""
","
","
","""event"",""trial"",""time""
""fullscreenenter"",""1"",""2867""
","
","","","569.2999997138977","","","17","3003","2423","r","elianto","#3366ff99"," "," ","1","+10","[1426.9000000953674]","1","2","","","3003","44","1","1","win","go","0"
"pit-trial","113","875573","0.0-49.0","battery-v0.2","","""event"",""trial"",""time""
""fullscreenenter"",""1"",""2867""
","
","
","""event"",""trial"",""time""
""fullscreenenter"",""1"",""2867""
","
","","","-1","","","17","3003","2423","z","elianto","#3366ff99","-1","-1","1","+10","[]","0","2","","","3003","45","4","2","win","no-go","0"
"pit-trial","114","880434","0.0-50.0","battery-v0.2","","""event"",""trial"",""time""
""fullscreenenter"",""1"",""2867""
","
","
","""event"",""trial"",""time""
""fullscreenenter"",""1"",""2867""
","
","","","-1","","","17","3003","2423","y","elianto","#f73b6a7A","-1","-1","1","0","[]","0","2","","","3003","46","2","4","lose","no-go","0"
"pit-trial","115","884238","0.0-51.0","battery-v0.2","","""event"",""trial"",""time""
""fullscreenenter"",""1"",""2867""
","
","
","""event"",""trial"",""time""
""fullscreenenter"",""1"",""2867""
","
","","","933","","","17","3003","2423","h","elianto","#f73b6a7A"," "," ","1","0","[1792.8999996185303]","1","2","","","3003","47","3","3","lose","go","0"
"pit-trial","116","889109","0.0-52.0","battery-v0.2","","""event"",""trial"",""time""
""fullscreenenter"",""1"",""2867""
","
","
","""event"",""trial"",""time""
""fullscreenenter"",""1"",""2867""
","
","","","-1","","","17","3003","2423","m","elianto","#f73b6a7A","-1","-1","1","0","[]","0","2","","","3003","48","0","4","lose","no-go","0"
"pit-trial","117","893974","0.0-53.0","battery-v0.2","","""event"",""trial"",""time""
""fullscreenenter"",""1"",""2867""
","
","
","""event"",""trial"",""time""
""fullscreenenter"",""1"",""2867""
","
","","","-1","","","17","3003","2423","m","elianto","#f73b6a7A","-1","-1","1","-10","[]","0","2","","","3003","49","0","4","lose","no-go","1"
"pit-trial","118","897437","0.0-54.0","battery-v0.2","","""event"",""trial"",""time""
""fullscreenenter"",""1"",""2867""
","
","
","""event"",""trial"",""time""
""fullscreenenter"",""1"",""2867""
","
","","","600.5","","","17","3003","2423","r","elianto","#3366ff99"," "," ","1","+10","[1452.2000002861023]","1","2","","","3003","50","1","1","win","go","0"
"pit-trial","119","902299","0.0-55.0","battery-v0.2","","""event"",""trial"",""time""
""fullscreenenter"",""1"",""2867""
","
","
","""event"",""trial"",""time""
""fullscreenenter"",""1"",""2867""
","
","","","-1","","","17","3003","2423","z","elianto","#3366ff99","-1","-1","1","+10","[]","0","2","","","3003","51","4","2","win","no-go","0"
"pit-trial","120","905889","0.0-56.0","battery-v0.2","","""event"",""trial"",""time""
""fullscreenenter"",""1"",""2867""
","
","
","""event"",""trial"",""time""
""fullscreenenter"",""1"",""2867""
","
","","","732.5","","","17","3003","2423","h","elianto","#f73b6a7A"," "," ","1","0","[1582.8000001907349]","1","2","","","3003","52","3","3","lose","go","0"
"pit-trial","121","910753","0.0-57.0","battery-v0.2","","""event"",""trial"",""time""
""fullscreenenter"",""1"",""2867""
","
","
","""event"",""trial"",""time""
""fullscreenenter"",""1"",""2867""
","
","","","-1","","","17","3003","2423","z","elianto","#3366ff99","-1","-1","1","+10","[]","0","2","","","3003","53","4","2","win","no-go","0"
"pit-trial","122","914269","0.0-58.0","battery-v0.2","","""event"",""trial"",""time""
""fullscreenenter"",""1"",""2867""
","
","
","""event"",""trial"",""time""
""fullscreenenter"",""1"",""2867""
","
","","","654.2000002861023","","","17","3003","2423","r","elianto","#3366ff99"," "," ","1","+10","[1509.1999998092651]","1","2","","","3003","54","1","1","win","go","0"
"pit-trial","123","919134","0.0-59.0","battery-v0.2","","""event"",""trial"",""time""
""fullscreenenter"",""1"",""2867""
","
","
","""event"",""trial"",""time""
""fullscreenenter"",""1"",""2867""
","
","","","-1","","","17","3003","2423","y","elianto","#f73b6a7A","-1","-1","1","0","[]","0","2","","","3003","55","2","4","lose","no-go","0"
"pit-trial","124","924000","0.0-60.0","battery-v0.2","","""event"",""trial"",""time""
""fullscreenenter"",""1"",""2867""
","
","
","""event"",""trial"",""time""
""fullscreenenter"",""1"",""2867""
","
","","","-1","","","17","3003","2423","m","elianto","#f73b6a7A","-1","-1","1","0","[]","0","2","","","3003","56","0","4","lose","no-go","0"
"pit-trial","125","927598","0.0-61.0","battery-v0.2","","""event"",""trial"",""time""
""fullscreenenter"",""1"",""2867""
","
","
","""event"",""trial"",""time""
""fullscreenenter"",""1"",""2867""
","
","","","739.9000000953674","","","17","3003","2423","h","elianto","#f73b6a7A"," "," ","1","0","[1590.4000000953674]","1","2","","","3003","57","3","3","lose","go","0"
"pit-trial","126","932457","0.0-62.0","battery-v0.2","","""event"",""trial"",""time""
""fullscreenenter"",""1"",""2867""
","
","
","""event"",""trial"",""time""
""fullscreenenter"",""1"",""2867""
","
","","","-1","","","17","3003","2423","z","elianto","#3366ff99","-1","-1","1","+10","[]","0","2","","","3003","58","4","2","win","no-go","0"
"pit-trial","127","935996","0.0-63.0","battery-v0.2","","""event"",""trial"",""time""
""fullscreenenter"",""1"",""2867""
","
","
","""event"",""trial"",""time""
""fullscreenenter"",""1"",""2867""
","
","","","678.6000003814697","","","17","3003","2423","r","elianto","#3366ff99"," "," ","1","+10","[1529.9000000953674]","1","2","","","3003","59","1","1","win","go","0"
"pit-trial","128","940865","0.0-64.0","battery-v0.2","","""event"",""trial"",""time""
""fullscreenenter"",""1"",""2867""
","
","
","""event"",""trial"",""time""
""fullscreenenter"",""1"",""2867""
","
","","","-1","","","17","3003","2423","m","elianto","#f73b6a7A","-1","-1","1","0","[]","0","2","","","3003","60","0","4","lose","no-go","0"
"pit-trial","129","945726","0.0-65.0","battery-v0.2","","""event"",""trial"",""time""
""fullscreenenter"",""1"",""2867""
","
","
","""event"",""trial"",""time""
""fullscreenenter"",""1"",""2867""
","
","","","-1","","","17","3003","2423","z","elianto","#3366ff99","-1","-1","1","0","[]","0","2","","","3003","61","4","2","win","no-go","1"
"pit-trial","130","949329","0.0-66.0","battery-v0.2","","""event"",""trial"",""time""
""fullscreenenter"",""1"",""2867""
","
","
","""event"",""trial"",""time""
""fullscreenenter"",""1"",""2867""
","
","","","741.8000001907349","","","17","3003","2423","r","elianto","#3366ff99"," "," ","1","+10","[1595.5]","1","2","","","3003","62","1","1","win","go","0"
"pit-trial","131","954197","0.0-67.0","battery-v0.2","","""event"",""trial"",""time""
""fullscreenenter"",""1"",""2867""
","
","
","""event"",""trial"",""time""
""fullscreenenter"",""1"",""2867""
","
","","","-1","","","17","3003","2423","y","elianto","#f73b6a7A","-1","-1","1","0","[]","0","2","","","3003","63","2","4","lose","no-go","0"
"pit-trial","132","957770","0.0-68.0","battery-v0.2","","""event"",""trial"",""time""
""fullscreenenter"",""1"",""2867""
","
","
","""event"",""trial"",""time""
""fullscreenenter"",""1"",""2867""
","
","","","709.6999998092651","","","17","3003","2423","h","elianto","#f73b6a7A"," "," ","1","0","[1562.7999997138977]","1","2","","","3003","64","3","3","lose","go","0"
"pit-trial","133","962641","0.0-69.0","battery-v0.2","","""event"",""trial"",""time""
""fullscreenenter"",""1"",""2867""
","
","
","""event"",""trial"",""time""
""fullscreenenter"",""1"",""2867""
","
","","","-1","","","17","3003","2423","z","elianto","#3366ff99","-1","-1","1","+10","[]","0","2","","","3003","65","4","2","win","no-go","0"
"pit-trial","134","967504","0.0-70.0","battery-v0.2","","""event"",""trial"",""time""
""fullscreenenter"",""1"",""2867""
","
","
","""event"",""trial"",""time""
""fullscreenenter"",""1"",""2867""
","
","","","-1","","","17","3003","2423","y","elianto","#f73b6a7A","-1","-1","1","0","[]","0","2","","","3003","66","2","4","lose","no-go","0"
"pit-trial","135","971220","0.0-71.0","battery-v0.2","","""event"",""trial"",""time""
""fullscreenenter"",""1"",""2867""
","
","
","""event"",""trial"",""time""
""fullscreenenter"",""1"",""2867""
","
","","","852.9000000953674","","","17","3003","2423","h","elianto","#f73b6a7A"," "," ","1","0","[1708.7000002861023]","1","2","","","3003","67","3","3","lose","go","0"
"pit-trial","136","974739","0.0-72.0","battery-v0.2","","""event"",""trial"",""time""
""fullscreenenter"",""1"",""2867""
","
","
","""event"",""trial"",""time""
""fullscreenenter"",""1"",""2867""
","
","","","650.1000003814697","","","17","3003","2423","r","elianto","#3366ff99"," "," ","1","0","[1506.7000002861023]","1","2","","","3003","68","1","1","win","go","1"
"pit-trial","137","979605","0.0-73.0","battery-v0.2","","""event"",""trial"",""time""
""fullscreenenter"",""1"",""2867""
","
","
","""event"",""trial"",""time""
""fullscreenenter"",""1"",""2867""
","
","","","-1","","","17","3003","2423","z","elianto","#3366ff99","-1","-1","1","+10","[]","0","2","","","3003","69","4","2","win","no-go","0"
"pit-trial","138","984465","0.0-74.0","battery-v0.2","","""event"",""trial"",""time""
""fullscreenenter"",""1"",""2867""
","
","
","""event"",""trial"",""time""
""fullscreenenter"",""1"",""2867""
","
","","","-1","","","17","3003","2423","c","elianto","#3366ff99"," ","-1","0","0","[]","0","2","","","3003","70","5","1","win","go","0"
"pit-trial","139","988102","0.0-75.0","battery-v0.2","","""event"",""trial"",""time""
""fullscreenenter"",""1"",""2867""
","
","
","""event"",""trial"",""time""
""fullscreenenter"",""1"",""2867""
","
","","","778.7999997138977","","","17","3003","2423","r","elianto","#3366ff99"," "," ","1","0","[1629.7999997138977]","1","2","","","3003","71","1","1","win","go","1"
"pit-trial","140","991661","0.0-76.0","battery-v0.2","","""event"",""trial"",""time""
""fullscreenenter"",""1"",""2867""
","
","
","""event"",""trial"",""time""
""fullscreenenter"",""1"",""2867""
","
","","","696.8000001907349","","","17","3003","2423","h","elianto","#f73b6a7A"," "," ","1","0","[1555.9000000953674]","1","2","","","3003","72","3","3","lose","go","0"
"pit-trial","141","995419","0.0-77.0","battery-v0.2","","""event"",""trial"",""time""
""fullscreenenter"",""1"",""2867""
","
","
","""event"",""trial"",""time""
""fullscreenenter"",""1"",""2867""
","
","","","898.2999997138977","","","17","3003","2423","h","elianto","#f73b6a7A"," "," ","1","0","[1750.5999999046326]","1","2","","","3003","73","3","3","lose","go","0"
"pit-trial","142","999357","0.0-78.0","battery-v0.2","","""event"",""trial"",""time""
""fullscreenenter"",""1"",""2867""
","
","
","""event"",""trial"",""time""
""fullscreenenter"",""1"",""2867""
","
","","","1071.0999999046326","","","17","3003","2423","c","elianto","#3366ff99"," "," ","1","+10","[1928.1999998092651]","1","2","","","3003","74","5","1","win","go","0"
"pit-trial","143","1002835","0.0-79.0","battery-v0.2","","""event"",""trial"",""time""
""fullscreenenter"",""1"",""2867""
","
","
","""event"",""trial"",""time""
""fullscreenenter"",""1"",""2867""
","
","","","618.8000001907349","","","17","3003","2423","r","elianto","#3366ff99"," "," ","1","+10","[1472.7000002861023]","1","2","","","3003","75","1","1","win","go","0"
"pit-trial","144","1007697","0.0-80.0","battery-v0.2","","""event"",""trial"",""time""
""fullscreenenter"",""1"",""2867""
","
","
","""event"",""trial"",""time""
""fullscreenenter"",""1"",""2867""
","
","","","-1","","","17","3003","2423","z","elianto","#3366ff99","-1","-1","1","0","[]","0","2","","","3003","76","4","2","win","no-go","1"
"pit-trial","145","1012563","0.0-81.0","battery-v0.2","","""event"",""trial"",""time""
""fullscreenenter"",""1"",""2867""
","
","
","""event"",""trial"",""time""
""fullscreenenter"",""1"",""2867""
","
","","","-1","","","17","3003","2423","z","elianto","#3366ff99","-1","-1","1","+10","[]","0","2","","","3003","77","4","2","win","no-go","0"
"pit-trial","146","1016678","0.0-82.0","battery-v0.2","","""event"",""trial"",""time""
""fullscreenenter"",""1"",""2867""
","
","
","""event"",""trial"",""time""
""fullscreenenter"",""1"",""2867""
","
","","","1254.9000000953674","","","17","3003","2423","c","elianto","#3366ff99"," "," ","1","+10","[2105]","1","2","","","3003","78","5","1","win","go","0"
"pit-trial","147","1020313","0.0-83.0","battery-v0.2","","""event"",""trial"",""time""
""fullscreenenter"",""1"",""2867""
","
","
","""event"",""trial"",""time""
""fullscreenenter"",""1"",""2867""
","
","","","780.5","","","17","3003","2423","h","elianto","#f73b6a7A"," "," ","1","0","[1631.3000001907349]","1","2","","","3003","79","3","3","lose","go","0"
"pit-trial","148","1025173","0.0-84.0","battery-v0.2","","""event"",""trial"",""time""
""fullscreenenter"",""1"",""2867""
","
","
","""event"",""trial"",""time""
""fullscreenenter"",""1"",""2867""
","
","","","-1","","","17","3003","2423","b","elianto","#f73b6a7A","-1","-1","1","0","[]","0","2","","","3003","80","6","4","lose","no-go","0"
"pit-trial","149","1029293","0.0-85.0","battery-v0.2","","""event"",""trial"",""time""
""fullscreenenter"",""1"",""2867""
","
","
","""event"",""trial"",""time""
""fullscreenenter"",""1"",""2867""
","
","","","1261.9000000953674","","","17","3003","2423","t","elianto","#f73b6a7A"," "," ","1","-10","[2113.9000000953674]","1","2","","","3003","81","7","3","lose","go","1"
"pit-trial","150","1034149","0.0-86.0","battery-v0.2","","""event"",""trial"",""time""
""fullscreenenter"",""1"",""2867""
","
","
","""event"",""trial"",""time""
""fullscreenenter"",""1"",""2867""
","
","","","-1","","","17","3003","2423","b","elianto","#f73b6a7A","-1","-1","1","0","[]","0","2","","","3003","82","6","4","lose","no-go","0"
"pit-trial","151","1037729","0.0-87.0","battery-v0.2","","""event"",""trial"",""time""
""fullscreenenter"",""1"",""2867""
","
","
","""event"",""trial"",""time""
""fullscreenenter"",""1"",""2867""
","
","","","725.4000000953674","","","17","3003","2423","c","elianto","#3366ff99"," "," ","1","+10","[1575.4000000953674]","1","2","","","3003","83","5","1","win","go","0"
"pit-trial","152","1042587","0.0-88.0","battery-v0.2","","""event"",""trial"",""time""
""fullscreenenter"",""1"",""2867""
","
","
","""event"",""trial"",""time""
""fullscreenenter"",""1"",""2867""
","
","","","-1","","","17","3003","2423","z","elianto","#3366ff99","-1","-1","1","+10","[]","0","2","","","3003","84","4","2","win","no-go","0"
"pit-trial","153","1047446","0.0-89.0","battery-v0.2","","""event"",""trial"",""time""
""fullscreenenter"",""1"",""2867""
","
","
","""event"",""trial"",""time""
""fullscreenenter"",""1"",""2867""
","
","","","-1","","","17","3003","2423","b","elianto","#f73b6a7A","-1","-1","1","0","[]","0","2","","","3003","85","6","4","lose","no-go","0"
"pit-trial","154","1050956","0.0-90.0","battery-v0.2","","""event"",""trial"",""time""
""fullscreenenter"",""1"",""2867""
","
","
","""event"",""trial"",""time""
""fullscreenenter"",""1"",""2867""
","
","","","654","","","17","3003","2423","c","elianto","#3366ff99"," "," ","1","+10","[1505.1000003814697]","1","2","","","3003","86","5","1","win","go","0"
"pit-trial","155","1055812","0.0-91.0","battery-v0.2","","""event"",""trial"",""time""
""fullscreenenter"",""1"",""2867""
","
","
","""event"",""trial"",""time""
""fullscreenenter"",""1"",""2867""
","
","","","-1","","","17","3003","2423","z","elianto","#3366ff99","-1","-1","1","0","[]","0","2","","","3003","87","4","2","win","no-go","1"
"pit-trial","156","1060675","0.0-92.0","battery-v0.2","","""event"",""trial"",""time""
""fullscreenenter"",""1"",""2867""
","
","
","""event"",""trial"",""time""
""fullscreenenter"",""1"",""2867""
","
","","","-1","","","17","3003","2423","t","elianto","#f73b6a7A"," ","-1","0","0","[]","0","2","","","3003","88","7","3","lose","go","1"
"pit-trial","157","1065531","0.0-93.0","battery-v0.2","","""event"",""trial"",""time""
""fullscreenenter"",""1"",""2867""
","
","
","""event"",""trial"",""time""
""fullscreenenter"",""1"",""2867""
","
","","","-1","","","17","3003","2423","t","elianto","#f73b6a7A"," ","-1","0","-10","[]","0","2","","","3003","89","7","3","lose","go","0"
"pit-trial","158","1070393","0.0-94.0","battery-v0.2","","""event"",""trial"",""time""
""fullscreenenter"",""1"",""2867""
","
","
","""event"",""trial"",""time""
""fullscreenenter"",""1"",""2867""
","
","","","-1","","","17","3003","2423","b","elianto","#f73b6a7A","-1","-1","1","0","[]","0","2","","","3003","90","6","4","lose","no-go","0"
"pit-trial","159","1073944","0.0-95.0","battery-v0.2","","""event"",""trial"",""time""
""fullscreenenter"",""1"",""2867""
","
","
","""event"",""trial"",""time""
""fullscreenenter"",""1"",""2867""
","
","","","693.5","","","17","3003","2423","c","elianto","#3366ff99"," "," ","1","+10","[1545.1999998092651]","1","2","","","3003","91","5","1","win","go","0"
"pit-trial","160","1078804","0.0-96.0","battery-v0.2","","""event"",""trial"",""time""
""fullscreenenter"",""1"",""2867""
","
","
","""event"",""trial"",""time""
""fullscreenenter"",""1"",""2867""
","
","","","-1","","","17","3003","2423","z","elianto","#3366ff99","-1","-1","1","+10","[]","0","2","","","3003","92","4","2","win","no-go","0"
"pit-trial","161","1082170","0.0-97.0","battery-v0.2","","""event"",""trial"",""time""
""fullscreenenter"",""1"",""2867""
","
","
","""event"",""trial"",""time""
""fullscreenenter"",""1"",""2867""
","
","","","505.69999980926514","","","17","3003","2423","c","elianto","#3366ff99"," "," ","1","+10","[1360.5999999046326]","1","2","","","3003","93","5","1","win","go","0"
"pit-trial","162","1086336","0.0-98.0","battery-v0.2","","""event"",""trial"",""time""
""fullscreenenter"",""1"",""2867""
","
","
","""event"",""trial"",""time""
""fullscreenenter"",""1"",""2867""
","
","","","1299.3000001907349","","","17","3003","2423","f","elianto","#3366ff99","-1"," ","0","+10","[2155.4000000953674]","1","2","","","3003","94","8","2","win","no-go","1"
"pit-trial","163","1091207","0.0-99.0","battery-v0.2","","""event"",""trial"",""time""
""fullscreenenter"",""1"",""2867""
","
","
","""event"",""trial"",""time""
""fullscreenenter"",""1"",""2867""
","
","","","-1","","","17","3003","2423","t","elianto","#f73b6a7A"," ","-1","0","0","[]","0","2","","","3003","95","7","3","lose","go","1"
"pit-trial","164","1096072","0.0-100.0","battery-v0.2","","""event"",""trial"",""time""
""fullscreenenter"",""1"",""2867""
","
","
","""event"",""trial"",""time""
""fullscreenenter"",""1"",""2867""
","
","","","-1","","","17","3003","2423","b","elianto","#f73b6a7A","-1","-1","1","0","[]","0","2","","","3003","96","6","4","lose","no-go","0"
"pit-trial","165","1099583","0.0-101.0","battery-v0.2","","""event"",""trial"",""time""
""fullscreenenter"",""1"",""2867""
","
","
","""event"",""trial"",""time""
""fullscreenenter"",""1"",""2867""
","
","","","653.5999999046326","","","17","3003","2423","c","elianto","#3366ff99"," "," ","1","+10","[1507.8000001907349]","1","2","","","3003","97","5","1","win","go","0"
"pit-trial","166","1104448","0.0-102.0","battery-v0.2","","""event"",""trial"",""time""
""fullscreenenter"",""1"",""2867""
","
","
","""event"",""trial"",""time""
""fullscreenenter"",""1"",""2867""
","
","","","-1","","","17","3003","2423","t","elianto","#f73b6a7A"," ","-1","0","-10","[]","0","2","","","3003","98","7","3","lose","go","0"
"pit-trial","167","1109312","0.0-103.0","battery-v0.2","","""event"",""trial"",""time""
""fullscreenenter"",""1"",""2867""
","
","
","""event"",""trial"",""time""
""fullscreenenter"",""1"",""2867""
","
","","","-1","","","17","3003","2423","b","elianto","#f73b6a7A","-1","-1","1","-10","[]","0","2","","","3003","99","6","4","lose","no-go","1"
"pit-trial","168","1113193","0.0-104.0","battery-v0.2","","""event"",""trial"",""time""
""fullscreenenter"",""1"",""2867""
","
","
","""event"",""trial"",""time""
""fullscreenenter"",""1"",""2867""
","
","","","1022.0999999046326","","","17","3003","2423","f","elianto","#3366ff99","-1"," ","0","0","[1873.0999999046326]","1","2","","","3003","100","8","2","win","no-go","0"
"pit-trial","169","1118057","0.0-105.0","battery-v0.2","","""event"",""trial"",""time""
""fullscreenenter"",""1"",""2867""
","
","
","""event"",""trial"",""time""
""fullscreenenter"",""1"",""2867""
","
","","","-1","","","17","3003","2423","b","elianto","#f73b6a7A","-1","-1","1","0","[]","0","2","","","3003","101","6","4","lose","no-go","0"
"pit-trial","170","1122918","0.0-106.0","battery-v0.2","","""event"",""trial"",""time""
""fullscreenenter"",""1"",""2867""
","
","
","""event"",""trial"",""time""
""fullscreenenter"",""1"",""2867""
","
","","","-1","","","17","3003","2423","f","elianto","#3366ff99","-1","-1","1","+10","[]","0","2","","","3003","102","8","2","win","no-go","0"
"pit-trial","171","1127777","0.0-107.0","battery-v0.2","","""event"",""trial"",""time""
""fullscreenenter"",""1"",""2867""
","
","
","""event"",""trial"",""time""
""fullscreenenter"",""1"",""2867""
","
","","","1998.5","","","17","3003","2423","n","elianto","#3366ff99","-1"," ","0","+10","[2849.0999999046326]","1","2","","","3003","103","9","2","win","no-go","1"
"pit-trial","172","1131440","0.0-108.0","battery-v0.2","","""event"",""trial"",""time""
""fullscreenenter"",""1"",""2867""
","
","
","""event"",""trial"",""time""
""fullscreenenter"",""1"",""2867""
","
","","","805","","","17","3003","2423","c","elianto","#3366ff99"," "," ","1","+10","[1656.3000001907349]","1","2","","","3003","104","5","1","win","go","0"
"pit-trial","173","1135098","0.0-109.0","battery-v0.2","","""event"",""trial"",""time""
""fullscreenenter"",""1"",""2867""
","
","
","""event"",""trial"",""time""
""fullscreenenter"",""1"",""2867""
","
","","","794.8999996185303","","","17","3003","2423","c","elianto","#3366ff99"," "," ","1","+10","[1647.0999999046326]","1","2","","","3003","105","5","1","win","go","0"
"pit-trial","174","1139338","0.0-110.0","battery-v0.2","","""event"",""trial"",""time""
""fullscreenenter"",""1"",""2867""
","
","
","""event"",""trial"",""time""
""fullscreenenter"",""1"",""2867""
","
","","","1384.2000002861023","","","17","3003","2423","n","elianto","#3366ff99","-1"," ","0","0","[2234.800000190735]","1","2","","","3003","106","9","2","win","no-go","0"
"pit-trial","175","1144205","0.0-111.0","battery-v0.2","","""event"",""trial"",""time""
""fullscreenenter"",""1"",""2867""
","
","
","""event"",""trial"",""time""
""fullscreenenter"",""1"",""2867""
","
","","","-1","","","17","3003","2423","b","elianto","#f73b6a7A","-1","-1","1","0","[]","0","2","","","3003","107","6","4","lose","no-go","0"
"pit-trial","176","1149071","0.0-112.0","battery-v0.2","","""event"",""trial"",""time""
""fullscreenenter"",""1"",""2867""
","
","
","""event"",""trial"",""time""
""fullscreenenter"",""1"",""2867""
","
","","","-1","","","17","3003","2423","f","elianto","#3366ff99","-1","-1","1","0","[]","0","2","","","3003","108","8","2","win","no-go","1"
"pit-trial","177","1153927","0.0-113.0","battery-v0.2","","""event"",""trial"",""time""
""fullscreenenter"",""1"",""2867""
","
","
","""event"",""trial"",""time""
""fullscreenenter"",""1"",""2867""
","
","","","-1","","","17","3003","2423","f","elianto","#3366ff99","-1","-1","1","+10","[]","0","2","","","3003","109","8","2","win","no-go","0"
"pit-trial","178","1157466","0.0-114.0","battery-v0.2","","""event"",""trial"",""time""
""fullscreenenter"",""1"",""2867""
","
","
","""event"",""trial"",""time""
""fullscreenenter"",""1"",""2867""
","
","","","676.5","","","17","3003","2423","c","elianto","#3366ff99"," "," ","1","0","[1529]","1","2","","","3003","110","5","1","win","go","1"
"pit-trial","179","1162197","0.0-115.0","battery-v0.2","","""event"",""trial"",""time""
""fullscreenenter"",""1"",""2867""
","
","
","""event"",""trial"",""time""
""fullscreenenter"",""1"",""2867""
","
","","","1871.4000000953674","","","17","3003","2423","n","elianto","#3366ff99","-1"," ","0","0","[2723.5999999046326]","1","2","","","3003","111","9","2","win","no-go","0"
"pit-trial","180","1167062","0.0-116.0","battery-v0.2","","""event"",""trial"",""time""
""fullscreenenter"",""1"",""2867""
","
","
","""event"",""trial"",""time""
""fullscreenenter"",""1"",""2867""
","
","","","-1","","","17","3003","2423","b","elianto","#f73b6a7A","-1","-1","1","0","[]","0","2","","","3003","112","6","4","lose","no-go","0"
"pit-trial","181","1171920","0.0-117.0","battery-v0.2","","""event"",""trial"",""time""
""fullscreenenter"",""1"",""2867""
","
","
","""event"",""trial"",""time""
""fullscreenenter"",""1"",""2867""
","
","","","-1","","","17","3003","2423","n","elianto","#3366ff99","-1","-1","1","+10","[]","0","2","","","3003","113","9","2","win","no-go","0"
"pit-trial","182","1176789","0.0-118.0","battery-v0.2","","""event"",""trial"",""time""
""fullscreenenter"",""1"",""2867""
","
","
","""event"",""trial"",""time""
""fullscreenenter"",""1"",""2867""
","
","","","-1","","","17","3003","2423","t","elianto","#f73b6a7A"," ","-1","0","0","[]","0","2","","","3003","114","7","3","lose","go","1"
"pit-trial","183","1181651","0.0-119.0","battery-v0.2","","""event"",""trial"",""time""
""fullscreenenter"",""1"",""2867""
","
","
","""event"",""trial"",""time""
""fullscreenenter"",""1"",""2867""
","
","","","-1","","","17","3003","2423","f","elianto","#3366ff99","-1","-1","1","+10","[]","0","2","","","3003","115","8","2","win","no-go","0"
"pit-trial","184","1185293","0.0-120.0","battery-v0.2","","""event"",""trial"",""time""
""fullscreenenter"",""1"",""2867""
","
","
","""event"",""trial"",""time""
""fullscreenenter"",""1"",""2867""
","
","","","780.5999999046326","","","17","3003","2423","c","elianto","#3366ff99"," "," ","1","+10","[1632.5999999046326]","1","2","","","3003","116","5","1","win","go","0"
"pit-trial","185","1190154","0.0-121.0","battery-v0.2","","""event"",""trial"",""time""
""fullscreenenter"",""1"",""2867""
","
","
","""event"",""trial"",""time""
""fullscreenenter"",""1"",""2867""
","
","","","-1","","","17","3003","2423","n","elianto","#3366ff99","-1","-1","1","0","[]","0","2","","","3003","117","9","2","win","no-go","1"
"pit-trial","186","1195014","0.0-122.0","battery-v0.2","","""event"",""trial"",""time""
""fullscreenenter"",""1"",""2867""
","
","
","""event"",""trial"",""time""
""fullscreenenter"",""1"",""2867""
","
","","","-1","","","17","3003","2423","f","elianto","#3366ff99","-1","-1","1","+10","[]","0","2","","","3003","118","8","2","win","no-go","0"
"pit-trial","187","1198647","0.0-123.0","battery-v0.2","","""event"",""trial"",""time""
""fullscreenenter"",""1"",""2867""
","
","
","""event"",""trial"",""time""
""fullscreenenter"",""1"",""2867""
","
","","","773.7000002861023","","","17","3003","2423","c","elianto","#3366ff99"," "," ","1","+10","[1624.5999999046326]","1","2","","","3003","119","5","1","win","go","0"
"pit-trial","188","1203521","0.0-124.0","battery-v0.2","","""event"",""trial"",""time""
""fullscreenenter"",""1"",""2867""
","
","
","""event"",""trial"",""time""
""fullscreenenter"",""1"",""2867""
","
","","","-1","","","17","3003","2423","b","elianto","#f73b6a7A","-1","-1","1","0","[]","0","2","","","3003","120","6","4","lose","no-go","0"
"pit-trial","189","1208385","0.0-125.0","battery-v0.2","","""event"",""trial"",""time""
""fullscreenenter"",""1"",""2867""
","
","
","""event"",""trial"",""time""
""fullscreenenter"",""1"",""2867""
","
","","","-1","","","17","3003","2423","n","elianto","#3366ff99","-1","-1","1","+10","[]","0","2","","","3003","121","9","2","win","no-go","0"
"pit-trial","190","1212247","0.0-126.0","battery-v0.2","","""event"",""trial"",""time""
""fullscreenenter"",""1"",""2867""
","
","
","""event"",""trial"",""time""
""fullscreenenter"",""1"",""2867""
","
","","","1000.2999997138977","","","17","3003","2423","c","elianto","#3366ff99"," "," ","1","+10","[1856.7999997138977]","1","2","","","3003","122","5","1","win","go","0"
"pit-trial","191","1217109","0.0-127.0","battery-v0.2","","""event"",""trial"",""time""
""fullscreenenter"",""1"",""2867""
","
","
","""event"",""trial"",""time""
""fullscreenenter"",""1"",""2867""
","
","","","-1","","","17","3003","2423","f","elianto","#3366ff99","-1","-1","1","+10","[]","0","2","","","3003","123","8","2","win","no-go","0"
"pit-trial","192","1221974","0.0-128.0","battery-v0.2","","""event"",""trial"",""time""
""fullscreenenter"",""1"",""2867""
","
","
","""event"",""trial"",""time""
""fullscreenenter"",""1"",""2867""
","
","","","-1","","","17","3003","2423","t","elianto","#f73b6a7A"," ","-1","0","-10","[]","0","2","","","3003","124","7","3","lose","go","0"
"pit-trial","193","1226834","0.0-129.0","battery-v0.2","","""event"",""trial"",""time""
""fullscreenenter"",""1"",""2867""
","
","
","""event"",""trial"",""time""
""fullscreenenter"",""1"",""2867""
","
","","","-1","","","17","3003","2423","n","elianto","#3366ff99","-1","-1","1","+10","[]","0","2","","","3003","125","9","2","win","no-go","0"
"pit-trial","194","1231699","0.0-130.0","battery-v0.2","","""event"",""trial"",""time""
""fullscreenenter"",""1"",""2867""
","
","
","""event"",""trial"",""time""
""fullscreenenter"",""1"",""2867""
","
","","","-1","","","17","3003","2423","t","elianto","#f73b6a7A"," ","-1","0","-10","[]","0","2","","","3003","126","7","3","lose","go","0"
"pit-trial","195","1236572","0.0-131.0","battery-v0.2","","""event"",""trial"",""time""
""fullscreenenter"",""1"",""2867""
","
","
","""event"",""trial"",""time""
""fullscreenenter"",""1"",""2867""
","
","","","-1","","","17","3003","2423","b","elianto","#f73b6a7A","-1","-1","1","0","[]","0","2","","","3003","127","6","4","lose","no-go","0"
"pit-trial","196","1241438","0.0-132.0","battery-v0.2","","""event"",""trial"",""time""
""fullscreenenter"",""1"",""2867""
","
","
","""event"",""trial"",""time""
""fullscreenenter"",""1"",""2867""
","
","","","-1","","","17","3003","2423","f","elianto","#3366ff99","-1","-1","1","0","[]","0","2","","","3003","128","8","2","win","no-go","1"
"pit-trial","197","1246304","0.0-133.0","battery-v0.2","","""event"",""trial"",""time""
""fullscreenenter"",""1"",""2867""
","
","
","""event"",""trial"",""time""
""fullscreenenter"",""1"",""2867""
","
","","","-1","","","17","3003","2423","b","elianto","#f73b6a7A","-1","-1","1","-10","[]","0","2","","","3003","129","6","4","lose","no-go","1"
"pit-trial","198","1251166","0.0-134.0","battery-v0.2","","""event"",""trial"",""time""
""fullscreenenter"",""1"",""2867""
","
","
","""event"",""trial"",""time""
""fullscreenenter"",""1"",""2867""
","
","","","-1","","","17","3003","2423","t","elianto","#f73b6a7A"," ","-1","0","-10","[]","0","2","","","3003","130","7","3","lose","go","0"
"pit-trial","199","1256021","0.0-135.0","battery-v0.2","","""event"",""trial"",""time""
""fullscreenenter"",""1"",""2867""
","
","
","""event"",""trial"",""time""
""fullscreenenter"",""1"",""2867""
","
","","","-1","","","17","3003","2423","n","elianto","#3366ff99","-1","-1","1","+10","[]","0","2","","","3003","131","9","2","win","no-go","0"
"pit-trial","200","1260886","0.0-136.0","battery-v0.2","","""event"",""trial"",""time""
""fullscreenenter"",""1"",""2867""
","
","
","""event"",""trial"",""time""
""fullscreenenter"",""1"",""2867""
","
","","","-1","","","17","3003","2423","f","elianto","#3366ff99","-1","-1","1","+10","[]","0","2","","","3003","132","8","2","win","no-go","0"
"pit-trial","201","1265748","0.0-137.0","battery-v0.2","","""event"",""trial"",""time""
""fullscreenenter"",""1"",""2867""
","
","
","""event"",""trial"",""time""
""fullscreenenter"",""1"",""2867""
","
","","","-1","","","17","3003","2423","n","elianto","#3366ff99","-1","-1","1","+10","[]","0","2","","","3003","133","9","2","win","no-go","0"
"pit-trial","202","1270606","0.0-138.0","battery-v0.2","","""event"",""trial"",""time""
""fullscreenenter"",""1"",""2867""
","
","
","""event"",""trial"",""time""
""fullscreenenter"",""1"",""2867""
","
","","","-1","","","17","3003","2423","b","elianto","#f73b6a7A","-1","-1","1","-10","[]","0","2","","","3003","134","6","4","lose","no-go","1"
"pit-trial","203","1275465","0.0-139.0","battery-v0.2","","""event"",""trial"",""time""
""fullscreenenter"",""1"",""2867""
","
","
","""event"",""trial"",""time""
""fullscreenenter"",""1"",""2867""
","
","","","-1","","","17","3003","2423","t","elianto","#f73b6a7A"," ","-1","0","-10","[]","0","2","","","3003","135","7","3","lose","go","0"
"pit-trial","204","1280326","0.0-140.0","battery-v0.2","","""event"",""trial"",""time""
""fullscreenenter"",""1"",""2867""
","
","
","""event"",""trial"",""time""
""fullscreenenter"",""1"",""2867""
","
","","","-1","","","17","3003","2423","f","elianto","#3366ff99","-1","-1","1","+10","[]","0","2","","","3003","136","8","2","win","no-go","0"
"pit-trial","205","1285190","0.0-141.0","battery-v0.2","","""event"",""trial"",""time""
""fullscreenenter"",""1"",""2867""
","
","
","""event"",""trial"",""time""
""fullscreenenter"",""1"",""2867""
","
","","","-1","","","17","3003","2423","f","elianto","#3366ff99","-1","-1","1","+10","[]","0","2","","","3003","137","8","2","win","no-go","0"
"pit-trial","206","1290051","0.0-142.0","battery-v0.2","","""event"",""trial"",""time""
""fullscreenenter"",""1"",""2867""
","
","
","""event"",""trial"",""time""
""fullscreenenter"",""1"",""2867""
","
","","","-1","","","17","3003","2423","t","elianto","#f73b6a7A"," ","-1","0","0","[]","0","2","","","3003","138","7","3","lose","go","1"
"pit-trial","207","1294913","0.0-143.0","battery-v0.2","","""event"",""trial"",""time""
""fullscreenenter"",""1"",""2867""
","
","
","""event"",""trial"",""time""
""fullscreenenter"",""1"",""2867""
","
","","","-1","","","17","3003","2423","n","elianto","#3366ff99","-1","-1","1","+10","[]","0","2","","","3003","139","9","2","win","no-go","0"
"pit-trial","208","1299771","0.0-144.0","battery-v0.2","","""event"",""trial"",""time""
""fullscreenenter"",""1"",""2867""
","
","
","""event"",""trial"",""time""
""fullscreenenter"",""1"",""2867""
","
","","","-1","","","17","3003","2423","b","elianto","#f73b6a7A","-1","-1","1","0","[]","0","2","","","3003","140","6","4","lose","no-go","0"
"pit-instructions","209","1316119","0.0-145.0","battery-v0.2","","""event"",""trial"",""time""
""fullscreenenter"",""1"",""2867""
","
","
","""event"",""trial"",""time""
""fullscreenenter"",""1"",""2867""
","
","","[{""page_index"":0,""viewing_time"":5894.5},{""page_index"":1,""viewing_time"":10449.800000190735}]","16345.199999809265","","","","","","","","","","","","","","","","","","","","","","","",""
"pit-trial","210","1320727","0.0-146.0","battery-v0.2","","""event"",""trial"",""time""
""fullscreenenter"",""1"",""2867""
","
","
","""event"",""trial"",""time""
""fullscreenenter"",""1"",""2867""
","
","","","1738.8000001907349","","","17","3003","2423","d","elianto","#3366ff99","-1"," ","0","0","[2590.4000000953674]","1","3","","","3003","141","1","2","win","no-go","0"
"pit-trial","211","1324608","0.0-147.0","battery-v0.2","","""event"",""trial"",""time""
""fullscreenenter"",""1"",""2867""
","
","
","""event"",""trial"",""time""
""fullscreenenter"",""1"",""2867""
","
","","","1016.6999998092651","","","17","3003","2423","j","elianto","#f73b6a7A"," "," ","1","0","[1868.6999998092651]","1","3","","","3003","142","0","3","lose","go","0"
"pit-trial","212","1328726","0.0-148.0","battery-v0.2","","""event"",""trial"",""time""
""fullscreenenter"",""1"",""2867""
","
","
","""event"",""trial"",""time""
""fullscreenenter"",""1"",""2867""
","
","","","1250.9000000953674","","","17","3003","2423","e","elianto","#f73b6a7A"," "," ","1","0","[2104.7000002861023]","1","3","","","3003","143","2","3","lose","go","0"
"pit-trial","213","1333596","0.0-149.0","battery-v0.2","","""event"",""trial"",""time""
""fullscreenenter"",""1"",""2867""
","
","
","""event"",""trial"",""time""
""fullscreenenter"",""1"",""2867""
","
","","","-1","","","17","3003","2423","w","elianto","#f73b6a7A","-1","-1","1","0","[]","0","3","","","3003","144","3","4","lose","no-go","0"
"pit-trial","214","1337478","0.0-150.0","battery-v0.2","","""event"",""trial"",""time""
""fullscreenenter"",""1"",""2867""
","
","
","""event"",""trial"",""time""
""fullscreenenter"",""1"",""2867""
","
","","","1024.4000000953674","","","17","3003","2423","e","elianto","#f73b6a7A"," "," ","1","0","[1876.5]","1","3","","","3003","145","2","3","lose","go","0"
"pit-trial","215","1342344","0.0-151.0","battery-v0.2","","""event"",""trial"",""time""
""fullscreenenter"",""1"",""2867""
","
","
","""event"",""trial"",""time""
""fullscreenenter"",""1"",""2867""
","
","","","-1","","","17","3003","2423","w","elianto","#f73b6a7A","-1","-1","1","0","[]","0","3","","","3003","146","3","4","lose","no-go","0"
"pit-trial","216","1346376","0.0-152.0","battery-v0.2","","""event"",""trial"",""time""
""fullscreenenter"",""1"",""2867""
","
","
","""event"",""trial"",""time""
""fullscreenenter"",""1"",""2867""
","
","","","1177.8999996185303","","","17","3003","2423","d","elianto","#3366ff99","-1"," ","0","0","[2028.5]","1","3","","","3003","147","1","2","win","no-go","0"
"pit-trial","217","1350109","0.0-153.0","battery-v0.2","","""event"",""trial"",""time""
""fullscreenenter"",""1"",""2867""
","
","
","""event"",""trial"",""time""
""fullscreenenter"",""1"",""2867""
","
","","","877.0999999046326","","","17","3003","2423","j","elianto","#f73b6a7A"," "," ","1","0","[1729.5999999046326]","1","3","","","3003","148","0","3","lose","go","0"
"pit-trial","218","1353820","0.0-154.0","battery-v0.2","","""event"",""trial"",""time""
""fullscreenenter"",""1"",""2867""
","
","
","""event"",""trial"",""time""
""fullscreenenter"",""1"",""2867""
","
","","","848.9000000953674","","","17","3003","2423","j","elianto","#f73b6a7A"," "," ","1","0","[1701.3999996185303]","1","3","","","3003","149","0","3","lose","go","0"
"pit-trial","219","1358684","0.0-155.0","battery-v0.2","","""event"",""trial"",""time""
""fullscreenenter"",""1"",""2867""
","
","
","""event"",""trial"",""time""
""fullscreenenter"",""1"",""2867""
","
","","","-1","","","17","3003","2423","w","elianto","#f73b6a7A","-1","-1","1","0","[]","0","3","","","3003","150","3","4","lose","no-go","0"
"pit-trial","220","1362535","0.0-156.0","battery-v0.2","","""event"",""trial"",""time""
""fullscreenenter"",""1"",""2867""
","
","
","""event"",""trial"",""time""
""fullscreenenter"",""1"",""2867""
","
","","","996.2999997138977","","","17","3003","2423","e","elianto","#f73b6a7A"," "," ","1","0","[1847]","1","3","","","3003","151","2","3","lose","go","0"
"pit-trial","221","1367399","0.0-157.0","battery-v0.2","","""event"",""trial"",""time""
""fullscreenenter"",""1"",""2867""
","
","
","""event"",""trial"",""time""
""fullscreenenter"",""1"",""2867""
","
","","","-1","","","17","3003","2423","d","elianto","#3366ff99","-1","-1","1","+10","[]","0","3","","","3003","152","1","2","win","no-go","0"
"pit-trial","222","1372267","0.0-158.0","battery-v0.2","","""event"",""trial"",""time""
""fullscreenenter"",""1"",""2867""
","
","
","""event"",""trial"",""time""
""fullscreenenter"",""1"",""2867""
","
","","","-1","","","17","3003","2423","w","elianto","#f73b6a7A","-1","-1","1","0","[]","0","3","","","3003","153","3","4","lose","no-go","0"
"pit-trial","223","1377127","0.0-159.0","battery-v0.2","","""event"",""trial"",""time""
""fullscreenenter"",""1"",""2867""
","
","
","""event"",""trial"",""time""
""fullscreenenter"",""1"",""2867""
","
","","","-1","","","17","3003","2423","d","elianto","#3366ff99","-1","-1","1","+10","[]","0","3","","","3003","154","1","2","win","no-go","0"
"pit-trial","224","1380870","0.0-160.0","battery-v0.2","","""event"",""trial"",""time""
""fullscreenenter"",""1"",""2867""
","
","
","""event"",""trial"",""time""
""fullscreenenter"",""1"",""2867""
","
","","","886.8000001907349","","","17","3003","2423","j","elianto","#f73b6a7A"," "," ","1","0","[1737.8000001907349]","1","3","","","3003","155","0","3","lose","go","0"
"pit-trial","225","1384442","0.0-161.0","battery-v0.2","","""event"",""trial"",""time""
""fullscreenenter"",""1"",""2867""
","
","
","""event"",""trial"",""time""
""fullscreenenter"",""1"",""2867""
","
","","","704.5999999046326","","","17","3003","2423","e","elianto","#f73b6a7A"," "," ","1","0","[1560.8000001907349]","1","3","","","3003","156","2","3","lose","go","0"
"pit-trial","226","1389303","0.0-162.0","battery-v0.2","","""event"",""trial"",""time""
""fullscreenenter"",""1"",""2867""
","
","
","""event"",""trial"",""time""
""fullscreenenter"",""1"",""2867""
","
","","","-1","","","17","3003","2423","d","elianto","#3366ff99","-1","-1","1","+10","[]","0","3","","","3003","157","1","2","win","no-go","0"
"pit-trial","227","1394161","0.0-163.0","battery-v0.2","","""event"",""trial"",""time""
""fullscreenenter"",""1"",""2867""
","
","
","""event"",""trial"",""time""
""fullscreenenter"",""1"",""2867""
","
","","","-1","","","17","3003","2423","w","elianto","#f73b6a7A","-1","-1","1","0","[]","0","3","","","3003","158","3","4","lose","no-go","0"
"pit-trial","228","1397566","0.0-164.0","battery-v0.2","","""event"",""trial"",""time""
""fullscreenenter"",""1"",""2867""
","
","
","""event"",""trial"",""time""
""fullscreenenter"",""1"",""2867""
","
","","","549.1999998092651","","","17","3003","2423","e","elianto","#f73b6a7A"," "," ","1","-10","[1400.3000001907349]","1","3","","","3003","159","2","3","lose","go","1"
"pit-trial","229","1401317","0.0-165.0","battery-v0.2","","""event"",""trial"",""time""
""fullscreenenter"",""1"",""2867""
","
","
","""event"",""trial"",""time""
""fullscreenenter"",""1"",""2867""
","
","","","891","","","17","3003","2423","j","elianto","#f73b6a7A"," "," ","1","0","[1741.5]","1","3","","","3003","160","0","3","lose","go","0"
"pit-trial","230","1406177","0.0-166.0","battery-v0.2","","""event"",""trial"",""time""
""fullscreenenter"",""1"",""2867""
","
","
","""event"",""trial"",""time""
""fullscreenenter"",""1"",""2867""
","
","","","-1","","","17","3003","2423","d","elianto","#3366ff99","-1","-1","1","+10","[]","0","3","","","3003","161","1","2","win","no-go","0"
"pit-trial","231","1409762","0.0-167.0","battery-v0.2","","""event"",""trial"",""time""
""fullscreenenter"",""1"",""2867""
","
","
","""event"",""trial"",""time""
""fullscreenenter"",""1"",""2867""
","
","","","725.5","","","17","3003","2423","e","elianto","#f73b6a7A"," "," ","1","0","[1576.8000001907349]","1","3","","","3003","162","2","3","lose","go","0"
"pit-trial","232","1413212","0.0-168.0","battery-v0.2","","""event"",""trial"",""time""
""fullscreenenter"",""1"",""2867""
","
","
","""event"",""trial"",""time""
""fullscreenenter"",""1"",""2867""
","
","","","589.9000000953674","","","17","3003","2423","j","elianto","#f73b6a7A"," "," ","1","0","[1441.7000002861023]","1","3","","","3003","163","0","3","lose","go","0"
"pit-trial","233","1418070","0.0-169.0","battery-v0.2","","""event"",""trial"",""time""
""fullscreenenter"",""1"",""2867""
","
","
","""event"",""trial"",""time""
""fullscreenenter"",""1"",""2867""
","
","","","-1","","","17","3003","2423","w","elianto","#f73b6a7A","-1","-1","1","0","[]","0","3","","","3003","164","3","4","lose","no-go","0"
"pit-trial","234","1421602","0.0-170.0","battery-v0.2","","""event"",""trial"",""time""
""fullscreenenter"",""1"",""2867""
","
","
","""event"",""trial"",""time""
""fullscreenenter"",""1"",""2867""
","
","","","670.9000000953674","","","17","3003","2423","j","elianto","#f73b6a7A"," "," ","1","0","[1524.9000000953674]","1","3","","","3003","165","0","3","lose","go","0"
"pit-trial","235","1426466","0.0-171.0","battery-v0.2","","""event"",""trial"",""time""
""fullscreenenter"",""1"",""2867""
","
","
","""event"",""trial"",""time""
""fullscreenenter"",""1"",""2867""
","
","","","-1","","","17","3003","2423","d","elianto","#3366ff99","-1","-1","1","+10","[]","0","3","","","3003","166","1","2","win","no-go","0"
"pit-trial","236","1430058","0.0-172.0","battery-v0.2","","""event"",""trial"",""time""
""fullscreenenter"",""1"",""2867""
","
","
","""event"",""trial"",""time""
""fullscreenenter"",""1"",""2867""
","
","","","732.2000002861023","","","17","3003","2423","e","elianto","#f73b6a7A"," "," ","1","0","[1584.3000001907349]","1","3","","","3003","167","2","3","lose","go","0"
"pit-trial","237","1434924","0.0-173.0","battery-v0.2","","""event"",""trial"",""time""
""fullscreenenter"",""1"",""2867""
","
","
","""event"",""trial"",""time""
""fullscreenenter"",""1"",""2867""
","
","","","-1","","","17","3003","2423","w","elianto","#f73b6a7A","-1","-1","1","0","[]","0","3","","","3003","168","3","4","lose","no-go","0"
"pit-trial","238","1438424","0.0-174.0","battery-v0.2","","""event"",""trial"",""time""
""fullscreenenter"",""1"",""2867""
","
","
","""event"",""trial"",""time""
""fullscreenenter"",""1"",""2867""
","
","","","634.6999998092651","","","17","3003","2423","j","elianto","#f73b6a7A"," "," ","1","0","[1488.6999998092651]","1","3","","","3003","169","0","3","lose","go","0"
"pit-trial","239","1443279","0.0-175.0","battery-v0.2","","""event"",""trial"",""time""
""fullscreenenter"",""1"",""2867""
","
","
","""event"",""trial"",""time""
""fullscreenenter"",""1"",""2867""
","
","","","-1","","","17","3003","2423","d","elianto","#3366ff99","-1","-1","1","+10","[]","0","3","","","3003","170","1","2","win","no-go","0"
"pit-trial","240","1446874","0.0-176.0","battery-v0.2","","""event"",""trial"",""time""
""fullscreenenter"",""1"",""2867""
","
","
","""event"",""trial"",""time""
""fullscreenenter"",""1"",""2867""
","
","","","739.5999999046326","","","17","3003","2423","e","elianto","#f73b6a7A"," "," ","1","0","[1591.1999998092651]","1","3","","","3003","171","2","3","lose","go","0"
"pit-trial","241","1451735","0.0-177.0","battery-v0.2","","""event"",""trial"",""time""
""fullscreenenter"",""1"",""2867""
","
","
","""event"",""trial"",""time""
""fullscreenenter"",""1"",""2867""
","
","","","-1","","","17","3003","2423","w","elianto","#f73b6a7A","-1","-1","1","0","[]","0","3","","","3003","172","3","4","lose","no-go","0"
"pit-trial","242","1455167","0.0-178.0","battery-v0.2","","""event"",""trial"",""time""
""fullscreenenter"",""1"",""2867""
","
","
","""event"",""trial"",""time""
""fullscreenenter"",""1"",""2867""
","
","","","565.6999998092651","","","17","3003","2423","e","elianto","#f73b6a7A"," "," ","1","0","[1420.8000001907349]","1","3","","","3003","173","2","3","lose","go","0"
"pit-trial","243","1460030","0.0-179.0","battery-v0.2","","""event"",""trial"",""time""
""fullscreenenter"",""1"",""2867""
","
","
","""event"",""trial"",""time""
""fullscreenenter"",""1"",""2867""
","
","","","-1","","","17","3003","2423","d","elianto","#3366ff99","-1","-1","1","+10","[]","0","3","","","3003","174","1","2","win","no-go","0"
"pit-trial","244","1463572","0.0-180.0","battery-v0.2","","""event"",""trial"",""time""
""fullscreenenter"",""1"",""2867""
","
","
","""event"",""trial"",""time""
""fullscreenenter"",""1"",""2867""
","
","","","678.8000001907349","","","17","3003","2423","j","elianto","#f73b6a7A"," "," ","1","0","[1530.3000001907349]","1","3","","","3003","175","0","3","lose","go","0"
"pit-trial","245","1468433","0.0-181.0","battery-v0.2","","""event"",""trial"",""time""
""fullscreenenter"",""1"",""2867""
","
","
","""event"",""trial"",""time""
""fullscreenenter"",""1"",""2867""
","
","","","-1","","","17","3003","2423","w","elianto","#f73b6a7A","-1","-1","1","-10","[]","0","3","","","3003","176","3","4","lose","no-go","1"
"pit-trial","246","1471913","0.0-182.0","battery-v0.2","","""event"",""trial"",""time""
""fullscreenenter"",""1"",""2867""
","
","
","""event"",""trial"",""time""
""fullscreenenter"",""1"",""2867""
","
","","","617.5","","","17","3003","2423","j","elianto","#f73b6a7A"," "," ","1","-10","[1468.8000001907349]","1","3","","","3003","177","0","3","lose","go","1"
"pit-trial","247","1475354","0.0-183.0","battery-v0.2","","""event"",""trial"",""time""
""fullscreenenter"",""1"",""2867""
","
","
","""event"",""trial"",""time""
""fullscreenenter"",""1"",""2867""
","
","","","581.8999996185303","","","17","3003","2423","e","elianto","#f73b6a7A"," "," ","1","0","[1432.2999997138977]","1","3","","","3003","178","2","3","lose","go","0"
"pit-trial","248","1480222","0.0-184.0","battery-v0.2","","""event"",""trial"",""time""
""fullscreenenter"",""1"",""2867""
","
","
","""event"",""trial"",""time""
""fullscreenenter"",""1"",""2867""
","
","","","-1","","","17","3003","2423","w","elianto","#f73b6a7A","-1","-1","1","0","[]","0","3","","","3003","179","3","4","lose","no-go","0"
"pit-trial","249","1484035","0.0-185.0","battery-v0.2","","""event"",""trial"",""time""
""fullscreenenter"",""1"",""2867""
","
","
","""event"",""trial"",""time""
""fullscreenenter"",""1"",""2867""
","
","","","953.8000001907349","","","17","3003","2423","s","elianto","#3366ff99"," "," ","1","+10","[1807.3000001907349]","1","3","","","3003","180","4","1","win","go","0"
"pit-trial","250","1487538","0.0-186.0","battery-v0.2","","""event"",""trial"",""time""
""fullscreenenter"",""1"",""2867""
","
","
","""event"",""trial"",""time""
""fullscreenenter"",""1"",""2867""
","
","","","633.4000000953674","","","17","3003","2423","s","elianto","#3366ff99"," "," ","1","+10","[1490.5]","1","3","","","3003","181","4","1","win","go","0"
"pit-trial","251","1492403","0.0-187.0","battery-v0.2","","""event"",""trial"",""time""
""fullscreenenter"",""1"",""2867""
","
","
","""event"",""trial"",""time""
""fullscreenenter"",""1"",""2867""
","
","","","-1","","","17","3003","2423","d","elianto","#3366ff99","-1","-1","1","+10","[]","0","3","","","3003","182","1","2","win","no-go","0"
"pit-trial","252","1496194","0.0-188.0","battery-v0.2","","""event"",""trial"",""time""
""fullscreenenter"",""1"",""2867""
","
","
","""event"",""trial"",""time""
""fullscreenenter"",""1"",""2867""
","
","","","922.9000000953674","","","17","3003","2423","e","elianto","#f73b6a7A"," "," ","1","0","[1779.7999997138977]","1","3","","","3003","183","2","3","lose","go","0"
"pit-trial","253","1501056","0.0-189.0","battery-v0.2","","""event"",""trial"",""time""
""fullscreenenter"",""1"",""2867""
","
","
","""event"",""trial"",""time""
""fullscreenenter"",""1"",""2867""
","
","","","-1","","","17","3003","2423","w","elianto","#f73b6a7A","-1","-1","1","0","[]","0","3","","","3003","184","3","4","lose","no-go","0"
"pit-trial","254","1505920","0.0-190.0","battery-v0.2","","""event"",""trial"",""time""
""fullscreenenter"",""1"",""2867""
","
","
","""event"",""trial"",""time""
""fullscreenenter"",""1"",""2867""
","
","","","-1","","","17","3003","2423","d","elianto","#3366ff99","-1","-1","1","+10","[]","0","3","","","3003","185","1","2","win","no-go","0"
"pit-trial","255","1509940","0.0-191.0","battery-v0.2","","""event"",""trial"",""time""
""fullscreenenter"",""1"",""2867""
","
","
","""event"",""trial"",""time""
""fullscreenenter"",""1"",""2867""
","
","","","1161.5","","","17","3003","2423","p","elianto","#3366ff99","-1"," ","0","+10","[2014.5]","1","3","","","3003","186","5","2","win","no-go","1"
"pit-trial","256","1514801","0.0-192.0","battery-v0.2","","""event"",""trial"",""time""
""fullscreenenter"",""1"",""2867""
","
","
","""event"",""trial"",""time""
""fullscreenenter"",""1"",""2867""
","
","","","-1","","","17","3003","2423","w","elianto","#f73b6a7A","-1","-1","1","-10","[]","0","3","","","3003","187","3","4","lose","no-go","1"
"pit-trial","257","1518341","0.0-193.0","battery-v0.2","","""event"",""trial"",""time""
""fullscreenenter"",""1"",""2867""
","
","
","""event"",""trial"",""time""
""fullscreenenter"",""1"",""2867""
","
","","","673.9000000953674","","","17","3003","2423","s","elianto","#3366ff99"," "," ","1","+10","[1531.3999996185303]","1","3","","","3003","188","4","1","win","go","0"
"pit-trial","258","1522160","0.0-194.0","battery-v0.2","","""event"",""trial"",""time""
""fullscreenenter"",""1"",""2867""
","
","
","""event"",""trial"",""time""
""fullscreenenter"",""1"",""2867""
","
","","","955.1999998092651","","","17","3003","2423","p","elianto","#3366ff99","-1"," ","0","0","[1808.3000001907349]","1","3","","","3003","189","5","2","win","no-go","0"
"pit-trial","259","1525880","0.0-195.0","battery-v0.2","","""event"",""trial"",""time""
""fullscreenenter"",""1"",""2867""
","
","
","""event"",""trial"",""time""
""fullscreenenter"",""1"",""2867""
","
","","","850.0999999046326","","","17","3003","2423","s","elianto","#3366ff99"," "," ","1","+10","[1701.1999998092651]","1","3","","","3003","190","4","1","win","go","0"
"pit-trial","260","1530744","0.0-196.0","battery-v0.2","","""event"",""trial"",""time""
""fullscreenenter"",""1"",""2867""
","
","
","""event"",""trial"",""time""
""fullscreenenter"",""1"",""2867""
","
","","","-1","","","17","3003","2423","d","elianto","#3366ff99","-1","-1","1","0","[]","0","3","","","3003","191","1","2","win","no-go","1"
"pit-trial","261","1534626","0.0-197.0","battery-v0.2","","""event"",""trial"",""time""
""fullscreenenter"",""1"",""2867""
","
","
","""event"",""trial"",""time""
""fullscreenenter"",""1"",""2867""
","
","","","1018","","","17","3003","2423","e","elianto","#f73b6a7A"," "," ","1","0","[1870.6999998092651]","1","3","","","3003","192","2","3","lose","go","0"
"pit-trial","262","1538209","0.0-198.0","battery-v0.2","","""event"",""trial"",""time""
""fullscreenenter"",""1"",""2867""
","
","
","""event"",""trial"",""time""
""fullscreenenter"",""1"",""2867""
","
","","","726.2000002861023","","","17","3003","2423","s","elianto","#3366ff99"," "," ","1","+10","[1577.3000001907349]","1","3","","","3003","193","4","1","win","go","0"
"pit-trial","263","1543078","0.0-199.0","battery-v0.2","","""event"",""trial"",""time""
""fullscreenenter"",""1"",""2867""
","
","
","""event"",""trial"",""time""
""fullscreenenter"",""1"",""2867""
","
","","","-1","","","17","3003","2423","d","elianto","#3366ff99","-1","-1","1","+10","[]","0","3","","","3003","194","1","2","win","no-go","0"
"pit-trial","264","1547937","0.0-200.0","battery-v0.2","","""event"",""trial"",""time""
""fullscreenenter"",""1"",""2867""
","
","
","""event"",""trial"",""time""
""fullscreenenter"",""1"",""2867""
","
","","","-1","","","17","3003","2423","w","elianto","#f73b6a7A","-1","-1","1","0","[]","0","3","","","3003","195","3","4","lose","no-go","0"
"pit-trial","265","1551637","0.0-201.0","battery-v0.2","","""event"",""trial"",""time""
""fullscreenenter"",""1"",""2867""
","
","
","""event"",""trial"",""time""
""fullscreenenter"",""1"",""2867""
","
","","","834.6999998092651","","","17","3003","2423","p","elianto","#3366ff99","-1"," ","0","+10","[1689.0999999046326]","1","3","","","3003","196","5","2","win","no-go","1"
"pit-trial","266","1555421","0.0-202.0","battery-v0.2","","""event"",""trial"",""time""
""fullscreenenter"",""1"",""2867""
","
","
","""event"",""trial"",""time""
""fullscreenenter"",""1"",""2867""
","
","","","919.5","","","17","3003","2423","s","elianto","#3366ff99"," "," ","1","+10","[1776.2000002861023]","1","3","","","3003","197","4","1","win","go","0"
"pit-trial","267","1558953","0.0-203.0","battery-v0.2","","""event"",""trial"",""time""
""fullscreenenter"",""1"",""2867""
","
","
","""event"",""trial"",""time""
""fullscreenenter"",""1"",""2867""
","
","","","669.1000003814697","","","17","3003","2423","p","elianto","#3366ff99","-1"," ","0","+10","[1522.0999999046326]","1","3","","","3003","198","5","2","win","no-go","1"
"pit-trial","268","1563815","0.0-204.0","battery-v0.2","","""event"",""trial"",""time""
""fullscreenenter"",""1"",""2867""
","
","
","""event"",""trial"",""time""
""fullscreenenter"",""1"",""2867""
","
