"trial_type","trial_index","time_elapsed","internal_node_id","task_version","subject_id","interactions","blur_events","focus_events","fullscreenenter_events","fullscreenexit_events","success","view_history","rt","responses","num_errors","age","subject","participantId","rune","rune_set","hex","correct","choice","accuracy","outcome","keys","total_keys","block","practice","value","sub","trial","stimulus","robot","valence","action","sham"
"pavlovia","0","11","0.0-0.0","battery-v0.2","","""event"",""trial"",""time""
""fullscreenenter"",""1"",""2763""
","
","
","""event"",""trial"",""time""
""fullscreenenter"",""1"",""2763""
","
","","","","","","","","","","","","","","","","","","","","","","","","","","",""
"fullscreen","1","3744","0.0-1.0","battery-v0.2","","""event"",""trial"",""time""
""fullscreenenter"",""1"",""2763""
","
","
","""event"",""trial"",""time""
""fullscreenenter"",""1"",""2763""
","
","true","","","","","","","","","","","","","","","","","","","","","","","","","",""
"pit-instructions","2","8689","0.0-2.0-0.0","battery-v0.2","","""event"",""trial"",""time""
""fullscreenenter"",""1"",""2763""
","
","
","""event"",""trial"",""time""
""fullscreenenter"",""1"",""2763""
","
","","[{""page_index"":0,""viewing_time"":4942.5}]","4942.899999856949","","","","","","","","","","","","","","","","","","","","","","","",""
"pit-comprehension","3","11962","0.0-2.0-1.0-0.0","battery-v0.2","","""event"",""trial"",""time""
""fullscreenenter"",""1"",""2763""
","
","
","""event"",""trial"",""time""
""fullscreenenter"",""1"",""2763""
","
","","","3268.800000190735","[""shark""]","0","14","15151","4921","","","","","","","","","","","","","","","","","","",""
"pit-instructions","4","14326","0.0-2.0-1.0-1.0","battery-v0.2","","""event"",""trial"",""time""
""fullscreenenter"",""1"",""2763""
","
","
","""event"",""trial"",""time""
""fullscreenenter"",""1"",""2763""
","
","","[{""page_index"":0,""viewing_time"":2341.7999999523163}]","2342.0999999046326","","","","","","","","","","","","","","","","","","","","","","","",""
"pit-comprehension","5","18285","0.0-2.0-2.0-0.0","battery-v0.2","","""event"",""trial"",""time""
""fullscreenenter"",""1"",""2763""
","
","
","""event"",""trial"",""time""
""fullscreenenter"",""1"",""2763""
","
","","","3955.9000000953674","[""tiger""]","0","14","15151","4921","","","","","","","","","","","","","","","","","","",""
"pit-instructions","6","19906","0.0-2.0-2.0-1.0","battery-v0.2","","""event"",""trial"",""time""
""fullscreenenter"",""1"",""2763""
","
","
","""event"",""trial"",""time""
""fullscreenenter"",""1"",""2763""
","
","","[{""page_index"":0,""viewing_time"":1618.2999999523163}]","1618.7000000476837","","","","","","","","","","","","","","","","","","","","","","","",""
"pit-instructions","7","128998","0.0-2.0-3.0","battery-v0.2","","""event"",""trial"",""time""
""fullscreenenter"",""1"",""2763""
","
","
","""event"",""trial"",""time""
""fullscreenenter"",""1"",""2763""
","
","","[{""page_index"":0,""viewing_time"":7931.200000047684},{""page_index"":1,""viewing_time"":5771.099999904633},{""page_index"":2,""viewing_time"":6876.800000190735},{""page_index"":3,""viewing_time"":5566.699999809265},{""page_index"":4,""viewing_time"":6092.400000095367},{""page_index"":5,""viewing_time"":5916},{""page_index"":6,""viewing_time"":7836.299999952316},{""page_index"":7,""viewing_time"":7711.299999952316},{""page_index"":8,""viewing_time"":14872.400000095367},{""page_index"":9,""viewing_time"":11745.200000047684},{""page_index"":10,""viewing_time"":8747.599999904633},{""page_index"":11,""viewing_time"":8996.5},{""page_index"":12,""viewing_time"":6237.600000143051},{""page_index"":13,""viewing_time"":4787.299999952316}]","109088.79999995232","","","","","","","","","","","","","","","","","","","","","","","",""
"pit-trial","8","131864","0.0-2.0-4.0-0.0","battery-v0.2","","""event"",""trial"",""time""
""fullscreenenter"",""1"",""2763""
","
","
","""event"",""trial"",""time""
""fullscreenenter"",""1"",""2763""
","
","","","3.700000047683716","","","14","15151","4921","&#9784;","elianto","#FFFFF080"," "," ","1","&#10004","[857.6000001430511]","1","0","0","","","","","","","",""
"pit-trial","9","136407","0.0-2.0-4.1-0.1","battery-v0.2","","""event"",""trial"",""time""
""fullscreenenter"",""1"",""2763""
","
","
","""event"",""trial"",""time""
""fullscreenenter"",""1"",""2763""
","
","","","1679.5999999046326","","","14","15151","4921","&#9784;","elianto","#FFFFF080"," "," ","1","&#10004","[587.8000001907349,2536.9000000953674]","2","0","0","","","","","","","",""
"pit-trial","10","139976","0.0-2.0-4.2-0.2","battery-v0.2","","""event"",""trial"",""time""
""fullscreenenter"",""1"",""2763""
","
","
","""event"",""trial"",""time""
""fullscreenenter"",""1"",""2763""
","
","","","701.2999999523163","","","14","15151","4921","&#9784;","elianto","#FFFFF080"," "," ","1","&#10004","[1561.2999999523163]","1","0","0","","","","","","","",""
"pit-trial","11","143563","0.0-2.0-4.3-0.3","battery-v0.2","","""event"",""trial"",""time""
""fullscreenenter"",""1"",""2763""
","
","
","""event"",""trial"",""time""
""fullscreenenter"",""1"",""2763""
","
","","","719.2000000476837","","","14","15151","4921","&#9784;","elianto","#FFFFF080"," "," ","1","&#10004","[1582.2000000476837]","1","0","0","","","","","","","",""
"pit-trial","12","147047","0.0-2.0-4.4-0.4","battery-v0.2","","""event"",""trial"",""time""
""fullscreenenter"",""1"",""2763""
","
","
","""event"",""trial"",""time""
""fullscreenenter"",""1"",""2763""
","
","","","617.9000000953674","","","14","15151","4921","&#9784;","elianto","#FFFFF080"," "," ","1","&#10004","[1470]","1","0","0","","","","","","","",""
"pit-instructions","13","168031","0.0-2.0-5.0","battery-v0.2","","""event"",""trial"",""time""
""fullscreenenter"",""1"",""2763""
","
","
","""event"",""trial"",""time""
""fullscreenenter"",""1"",""2763""
","
","","[{""page_index"":0,""viewing_time"":4703.300000190735},{""page_index"":1,""viewing_time"":6149.399999856949},{""page_index"":2,""viewing_time"":5075.400000095367},{""page_index"":3,""viewing_time"":5052.899999856949}]","20981.200000047684","","","","","","","","","","","","","","","","","","","","","","","",""
"pit-trial","14","172886","0.0-2.0-6.0-0.0","battery-v0.2","","""event"",""trial"",""time""
""fullscreenenter"",""1"",""2763""
","
","
","""event"",""trial"",""time""
""fullscreenenter"",""1"",""2763""
","
","","","-1","","","14","15151","4921","&#9854;","elianto","#FFFFF080","-1","-1","1","&#10004","[]","0","0","1","","","","","","","",""
"pit-trial","15","177748","0.0-2.0-6.1-0.1","battery-v0.2","","""event"",""trial"",""time""
""fullscreenenter"",""1"",""2763""
","
","
","""event"",""trial"",""time""
""fullscreenenter"",""1"",""2763""
","
","","","-1","","","14","15151","4921","&#9854;","elianto","#FFFFF080","-1","-1","1","&#10004","[]","0","0","1","","","","","","","",""
"pit-trial","16","182625","0.0-2.0-6.2-0.2","battery-v0.2","","""event"",""trial"",""time""
""fullscreenenter"",""1"",""2763""
","
","
","""event"",""trial"",""time""
""fullscreenenter"",""1"",""2763""
","
","","","-1","","","14","15151","4921","&#9854;","elianto","#FFFFF080","-1","-1","1","&#10004","[]","0","0","1","","","","","","","",""
"pit-trial","17","187498","0.0-2.0-6.3-0.3","battery-v0.2","","""event"",""trial"",""time""
""fullscreenenter"",""1"",""2763""
","
","
","""event"",""trial"",""time""
""fullscreenenter"",""1"",""2763""
","
","","","-1","","","14","15151","4921","&#9854;","elianto","#FFFFF080","-1","-1","1","&#10004","[]","0","0","1","","","","","","","",""
"pit-trial","18","192358","0.0-2.0-6.4-0.4","battery-v0.2","","""event"",""trial"",""time""
""fullscreenenter"",""1"",""2763""
","
","
","""event"",""trial"",""time""
""fullscreenenter"",""1"",""2763""
","
","","","-1","","","14","15151","4921","&#9854;","elianto","#FFFFF080","-1","-1","1","&#10004","[]","0","0","1","","","","","","","",""
"pit-instructions","19","306883","0.0-2.0-7.0","battery-v0.2","","""event"",""trial"",""time""
""fullscreenenter"",""1"",""2763""
","
","
","""event"",""trial"",""time""
""fullscreenenter"",""1"",""2763""
","
","","[{""page_index"":0,""viewing_time"":5806},{""page_index"":1,""viewing_time"":7211.799999952316},{""page_index"":2,""viewing_time"":6108.5},{""page_index"":3,""viewing_time"":6516.599999904633},{""page_index"":4,""viewing_time"":5538.400000095367},{""page_index"":5,""viewing_time"":5832.799999952316},{""page_index"":6,""viewing_time"":4442.900000095367},{""page_index"":7,""viewing_time"":7740.399999856949},{""page_index"":8,""viewing_time"":6484.5},{""page_index"":9,""viewing_time"":6024.100000143051},{""page_index"":10,""viewing_time"":6430},{""page_index"":11,""viewing_time"":4874.099999904633},{""page_index"":12,""viewing_time"":6731.799999952316},{""page_index"":13,""viewing_time"":6782.200000047684},{""page_index"":14,""viewing_time"":7847},{""page_index"":15,""viewing_time"":6182},{""page_index"":16,""viewing_time"":6377.700000047684},{""page_index"":17,""viewing_time"":7590}]","114521.09999990463","","","","","","","","","","","","","","","","","","","","","","","",""
"pit-trial","20","310387","0.0-2.0-8.0-0.0","battery-v0.2","","""event"",""trial"",""time""
""fullscreenenter"",""1"",""2763""
","
","
","""event"",""trial"",""time""
""fullscreenenter"",""1"",""2763""
","
","","","645","","","14","15151","4921","&#9776;","elianto","#3366ff99"," "," ","1","+10","[1500.8999998569489]","1","0","1","","","","","","","",""
"pit-trial","21","313889","0.0-2.0-8.0-1.0","battery-v0.2","","""event"",""trial"",""time""
""fullscreenenter"",""1"",""2763""
","
","
","""event"",""trial"",""time""
""fullscreenenter"",""1"",""2763""
","
","","","633.2999999523163","","","14","15151","4921","&#9776;","elianto","#3366ff99"," "," ","1","+10","[1495.7999999523163]","1","0","1","","","","","","","",""
"pit-trial","22","317414","0.0-2.0-8.0-2.0","battery-v0.2","","""event"",""trial"",""time""
""fullscreenenter"",""1"",""2763""
","
","
","""event"",""trial"",""time""
""fullscreenenter"",""1"",""2763""
","
","","","663.3000001907349","","","14","15151","4921","&#9776;","elianto","#3366ff99"," "," ","1","+10","[1513.6000001430511]","1","0","1","","","","","","","",""
"pit-trial","23","320886","0.0-2.0-8.0-3.0","battery-v0.2","","""event"",""trial"",""time""
""fullscreenenter"",""1"",""2763""
","
","
","""event"",""trial"",""time""
""fullscreenenter"",""1"",""2763""
","
","","","605.5","","","14","15151","4921","&#9776;","elianto","#3366ff99"," "," ","1","0","[1462.2999999523163]","1","0","1","","","","","","","",""
"pit-trial","24","324499","0.0-2.0-8.0-4.0","battery-v0.2","","""event"",""trial"",""time""
""fullscreenenter"",""1"",""2763""
","
","
","""event"",""trial"",""time""
""fullscreenenter"",""1"",""2763""
","
","","","742.5999999046326","","","14","15151","4921","&#9776;","elianto","#3366ff99"," "," ","1","+10","[1602.7000000476837]","1","0","1","","","","","","","",""
"pit-trial","25","328017","0.0-2.0-8.1-0.1","battery-v0.2","","""event"",""trial"",""time""
""fullscreenenter"",""1"",""2763""
","
","
","""event"",""trial"",""time""
""fullscreenenter"",""1"",""2763""
","
","","","659.4000000953674","","","14","15151","4921","&#9776;","elianto","#3366ff99"," "," ","1","+10","[1510]","1","0","1","","","","","","","",""
"pit-trial","26","331911","0.0-2.0-8.1-1.1","battery-v0.2","","""event"",""trial"",""time""
""fullscreenenter"",""1"",""2763""
","
","
","""event"",""trial"",""time""
""fullscreenenter"",""1"",""2763""
","
","","","1029.0999999046326","","","14","15151","4921","&#9776;","elianto","#3366ff99"," "," ","1","+10","[1883.5]","1","0","1","","","","","","","",""
"pit-trial","27","335710","0.0-2.0-8.1-2.1","battery-v0.2","","""event"",""trial"",""time""
""fullscreenenter"",""1"",""2763""
","
","
","""event"",""trial"",""time""
""fullscreenenter"",""1"",""2763""
","
","","","937.9000000953674","","","14","15151","4921","&#9776;","elianto","#3366ff99"," "," ","1","+10","[1788.0999999046326]","1","0","1","","","","","","","",""
"pit-trial","28","339060","0.0-2.0-8.1-3.1","battery-v0.2","","""event"",""trial"",""time""
""fullscreenenter"",""1"",""2763""
","
","
","""event"",""trial"",""time""
""fullscreenenter"",""1"",""2763""
","
","","","494.7000000476837","","","14","15151","4921","&#9776;","elianto","#3366ff99"," "," ","1","0","[1346.6000001430511]","1","0","1","","","","","","","",""
"pit-trial","29","342326","0.0-2.0-8.1-4.1","battery-v0.2","","""event"",""trial"",""time""
""fullscreenenter"",""1"",""2763""
","
","
","""event"",""trial"",""time""
""fullscreenenter"",""1"",""2763""
","
","","","414.09999990463257","","","14","15151","4921","&#9776;","elianto","#3366ff99"," "," ","1","+10","[1264.2999999523163]","1","0","1","","","","","","","",""
"pit-trial","30","345640","0.0-2.0-8.2-0.2","battery-v0.2","","""event"",""trial"",""time""
""fullscreenenter"",""1"",""2763""
","
","
","""event"",""trial"",""time""
""fullscreenenter"",""1"",""2763""
","
","","","460.89999985694885","","","14","15151","4921","&#9776;","elianto","#3366ff99"," "," ","1","+10","[1311.0999999046326]","1","0","1","","","","","","","",""
"pit-trial","31","349115","0.0-2.0-8.2-1.2","battery-v0.2","","""event"",""trial"",""time""
""fullscreenenter"",""1"",""2763""
","
","
","""event"",""trial"",""time""
""fullscreenenter"",""1"",""2763""
","
","","","621","","","14","15151","4921","&#9776;","elianto","#3366ff99"," "," ","1","+10","[1471.9000000953674]","1","0","1","","","","","","","",""
"pit-trial","32","352367","0.0-2.0-8.2-2.2","battery-v0.2","","""event"",""trial"",""time""
""fullscreenenter"",""1"",""2763""
","
","
","""event"",""trial"",""time""
""fullscreenenter"",""1"",""2763""
","
","","","390","","","14","15151","4921","&#9776;","elianto","#3366ff99"," "," ","1","+10","[1240.1000001430511]","1","0","1","","","","","","","",""
"pit-trial","33","355647","0.0-2.0-8.2-3.2","battery-v0.2","","""event"",""trial"",""time""
""fullscreenenter"",""1"",""2763""
","
","
","""event"",""trial"",""time""
""fullscreenenter"",""1"",""2763""
","
","","","427.90000009536743","","","14","15151","4921","&#9776;","elianto","#3366ff99"," "," ","1","0","[1278.2999999523163]","1","0","1","","","","","","","",""
"pit-trial","34","358916","0.0-2.0-8.2-4.2","battery-v0.2","","""event"",""trial"",""time""
""fullscreenenter"",""1"",""2763""
","
","
","""event"",""trial"",""time""
""fullscreenenter"",""1"",""2763""
","
","","","415.5","","","14","15151","4921","&#9776;","elianto","#3366ff99"," "," ","1","+10","[1266.6999998092651]","1","0","1","","","","","","","",""
"call-function","35","358918","0.0-2.0-9.0","battery-v0.2","","""event"",""trial"",""time""
""fullscreenenter"",""1"",""2763""
","
","
","""event"",""trial"",""time""
""fullscreenenter"",""1"",""2763""
","
","","","","","","","","","","","","","","","","","","","","","","","","","","",""
"pit-instructions","36","399407","0.0-2.0-10.0","battery-v0.2","","""event"",""trial"",""time""
""fullscreenenter"",""1"",""2763""
","
","
","""event"",""trial"",""time""
""fullscreenenter"",""1"",""2763""
","
","","[{""page_index"":0,""viewing_time"":6497.900000095367},{""page_index"":1,""viewing_time"":7340.299999952316},{""page_index"":2,""viewing_time"":9553.700000047684},{""page_index"":3,""viewing_time"":9286.199999809265},{""page_index"":4,""viewing_time"":7810}]","40488.299999952316","","","","","","","","","","","","","","","","","","","","","","","",""
"pit-trial","37","403009","0.0-2.0-11.0-0.0","battery-v0.2","","""event"",""trial"",""time""
""fullscreenenter"",""1"",""2763""
","
","
","""event"",""trial"",""time""
""fullscreenenter"",""1"",""2763""
","
","","","733.1000001430511","","","14","15151","4921","&#9761;","elianto","#3366ff99","-1"," ","0","0","[1585.8999998569489]","1","0","2","","","","","","","",""
"pit-trial","38","406549","0.0-2.0-11.0-1.0","battery-v0.2","","""event"",""trial"",""time""
""fullscreenenter"",""1"",""2763""
","
","
","""event"",""trial"",""time""
""fullscreenenter"",""1"",""2763""
","
","","","668","","","14","15151","4921","&#9761;","elianto","#3366ff99","-1"," ","0","0","[1526.7000000476837]","1","0","2","","","","","","","",""
"pit-trial","39","410046","0.0-2.0-11.0-2.0","battery-v0.2","","""event"",""trial"",""time""
""fullscreenenter"",""1"",""2763""
","
","
","""event"",""trial"",""time""
""fullscreenenter"",""1"",""2763""
","
","","","627.0999999046326","","","14","15151","4921","&#9761;","elianto","#3366ff99","-1"," ","0","0","[1483.2000000476837]","1","0","2","","","","","","","",""
"pit-trial","40","414922","0.0-2.0-11.0-3.0","battery-v0.2","","""event"",""trial"",""time""
""fullscreenenter"",""1"",""2763""
","
","
","""event"",""trial"",""time""
""fullscreenenter"",""1"",""2763""
","
","","","-1","","","14","15151","4921","&#9761;","elianto","#3366ff99","-1","-1","1","0","[]","0","0","2","","","","","","","",""
"pit-trial","41","419785","0.0-2.0-11.0-4.0","battery-v0.2","","""event"",""trial"",""time""
""fullscreenenter"",""1"",""2763""
","
","
","""event"",""trial"",""time""
""fullscreenenter"",""1"",""2763""
","
","","","-1","","","14","15151","4921","&#9761;","elianto","#3366ff99","-1","-1","1","+10","[]","0","0","2","","","","","","","",""
"pit-trial","42","423588","0.0-2.0-11.1-0.1","battery-v0.2","","""event"",""trial"",""time""
""fullscreenenter"",""1"",""2763""
","
","
","""event"",""trial"",""time""
""fullscreenenter"",""1"",""2763""
","
","","","940.1000001430511","","","14","15151","4921","&#9761;","elianto","#3366ff99","-1"," ","0","0","[1794.8000001907349]","1","0","2","","","","","","","",""
"pit-trial","43","428466","0.0-2.0-11.1-1.1","battery-v0.2","","""event"",""trial"",""time""
""fullscreenenter"",""1"",""2763""
","
","
","""event"",""trial"",""time""
""fullscreenenter"",""1"",""2763""
","
","","","-1","","","14","15151","4921","&#9761;","elianto","#3366ff99","-1","-1","1","+10","[]","0","0","2","","","","","","","",""
"pit-trial","44","433319","0.0-2.0-11.1-2.1","battery-v0.2","","""event"",""trial"",""time""
""fullscreenenter"",""1"",""2763""
","
","
","""event"",""trial"",""time""
""fullscreenenter"",""1"",""2763""
","
","","","-1","","","14","15151","4921","&#9761;","elianto","#3366ff99","-1","-1","1","+10","[]","0","0","2","","","","","","","",""
"pit-trial","45","438171","0.0-2.0-11.1-3.1","battery-v0.2","","""event"",""trial"",""time""
""fullscreenenter"",""1"",""2763""
","
","
","""event"",""trial"",""time""
""fullscreenenter"",""1"",""2763""
","
","","","-1","","","14","15151","4921","&#9761;","elianto","#3366ff99","-1","-1","1","0","[]","0","0","2","","","","","","","",""
"pit-trial","46","441615","0.0-2.0-11.1-4.1","battery-v0.2","","""event"",""trial"",""time""
""fullscreenenter"",""1"",""2763""
","
","
","""event"",""trial"",""time""
""fullscreenenter"",""1"",""2763""
","
","","","588.7000000476837","","","14","15151","4921","&#9761;","elianto","#3366ff99","-1"," ","0","0","[1440.5999999046326]","1","0","2","","","","","","","",""
"pit-trial","47","445876","0.0-2.0-11.2-0.2","battery-v0.2","","""event"",""trial"",""time""
""fullscreenenter"",""1"",""2763""
","
","
","""event"",""trial"",""time""
""fullscreenenter"",""1"",""2763""
","
","","","1406.6000001430511","","","14","15151","4921","&#9761;","elianto","#3366ff99","-1"," ","0","0","[2258.100000143051]","1","0","2","","","","","","","",""
"pit-trial","48","450728","0.0-2.0-11.2-1.2","battery-v0.2","","""event"",""trial"",""time""
""fullscreenenter"",""1"",""2763""
","
","
","""event"",""trial"",""time""
""fullscreenenter"",""1"",""2763""
","
","","","-1","","","14","15151","4921","&#9761;","elianto","#3366ff99","-1","-1","1","+10","[]","0","0","2","","","","","","","",""
"pit-trial","49","455581","0.0-2.0-11.2-2.2","battery-v0.2","","""event"",""trial"",""time""
""fullscreenenter"",""1"",""2763""
","
","
","""event"",""trial"",""time""
""fullscreenenter"",""1"",""2763""
","
","","","-1","","","14","15151","4921","&#9761;","elianto","#3366ff99","-1","-1","1","+10","[]","0","0","2","","","","","","","",""
"pit-trial","50","459931","0.0-2.0-11.2-3.2","battery-v0.2","","""event"",""trial"",""time""
""fullscreenenter"",""1"",""2763""
","
","
","""event"",""trial"",""time""
""fullscreenenter"",""1"",""2763""
","
","","","1497","","","14","15151","4921","&#9761;","elianto","#3366ff99","-1"," ","0","+10","[2348.5999999046326]","1","0","2","","","","","","","",""
"pit-trial","51","464783","0.0-2.0-11.2-4.2","battery-v0.2","","""event"",""trial"",""time""
""fullscreenenter"",""1"",""2763""
","
","
","""event"",""trial"",""time""
""fullscreenenter"",""1"",""2763""
","
","","","-1","","","14","15151","4921","&#9761;","elianto","#3366ff99","-1","-1","1","+10","[]","0","0","2","","","","","","","",""
"pit-trial","52","469637","0.0-2.0-11.3-0.3","battery-v0.2","","""event"",""trial"",""time""
""fullscreenenter"",""1"",""2763""
","
","
","""event"",""trial"",""time""
""fullscreenenter"",""1"",""2763""
","
","","","-1","","","14","15151","4921","&#9761;","elianto","#3366ff99","-1","-1","1","+10","[]","0","0","2","","","","","","","",""
"pit-trial","53","473942","0.0-2.0-11.3-1.3","battery-v0.2","","""event"",""trial"",""time""
""fullscreenenter"",""1"",""2763""
","
","
","""event"",""trial"",""time""
""fullscreenenter"",""1"",""2763""
","
","","","1451.4000000953674","","","14","15151","4921","&#9761;","elianto","#3366ff99","-1"," ","0","0","[2302.7999999523163]","1","0","2","","","","","","","",""
"pit-trial","54","478796","0.0-2.0-11.3-2.3","battery-v0.2","","""event"",""trial"",""time""
""fullscreenenter"",""1"",""2763""
","
","
","""event"",""trial"",""time""
""fullscreenenter"",""1"",""2763""
","
","","","-1","","","14","15151","4921","&#9761;","elianto","#3366ff99","-1","-1","1","+10","[]","0","0","2","","","","","","","",""
"pit-trial","55","483648","0.0-2.0-11.3-3.3","battery-v0.2","","""event"",""trial"",""time""
""fullscreenenter"",""1"",""2763""
","
","
","""event"",""trial"",""time""
""fullscreenenter"",""1"",""2763""
","
","","","-1","","","14","15151","4921","&#9761;","elianto","#3366ff99","-1","-1","1","0","[]","0","0","2","","","","","","","",""
"pit-trial","56","488502","0.0-2.0-11.3-4.3","battery-v0.2","","""event"",""trial"",""time""
""fullscreenenter"",""1"",""2763""
","
","
","""event"",""trial"",""time""
""fullscreenenter"",""1"",""2763""
","
","","","-1","","","14","15151","4921","&#9761;","elianto","#3366ff99","-1","-1","1","+10","[]","0","0","2","","","","","","","",""
"call-function","57","488503","0.0-2.0-12.0","battery-v0.2","","""event"",""trial"",""time""
""fullscreenenter"",""1"",""2763""
","
","
","""event"",""trial"",""time""
""fullscreenenter"",""1"",""2763""
","
","","","","","","","","","","","","","","","","","","","","","","","","","","",""
"pit-instructions","58","525977","0.0-2.0-13.0","battery-v0.2","","""event"",""trial"",""time""
""fullscreenenter"",""1"",""2763""
","
","
","""event"",""trial"",""time""
""fullscreenenter"",""1"",""2763""
","
","","[{""page_index"":0,""viewing_time"":6443},{""page_index"":1,""viewing_time"":8555.200000047684},{""page_index"":2,""viewing_time"":3702.0999999046326},{""page_index"":3,""viewing_time"":14067},{""page_index"":4,""viewing_time"":4706.299999952316}]","37473.799999952316","","","","","","","","","","","","","","","","","","","","","","","",""
"pit-trial","59","530841","0.0-2.0-14.0-0.0","battery-v0.2","","""event"",""trial"",""time""
""fullscreenenter"",""1"",""2763""
","
","
","""event"",""trial"",""time""
""fullscreenenter"",""1"",""2763""
","
","","","-1","","","14","15151","4921","&#9826;","elianto","#f73b6a7A","-1","-1","1","0","[]","0","0","3","","","","","","","",""
"pit-trial","60","535701","0.0-2.0-14.0-1.0","battery-v0.2","","""event"",""trial"",""time""
""fullscreenenter"",""1"",""2763""
","
","
","""event"",""trial"",""time""
""fullscreenenter"",""1"",""2763""
","
","","","-1","","","14","15151","4921","&#9826;","elianto","#f73b6a7A","-1","-1","1","0","[]","0","0","3","","","","","","","",""
"pit-trial","61","540567","0.0-2.0-14.0-2.0","battery-v0.2","","""event"",""trial"",""time""
""fullscreenenter"",""1"",""2763""
","
","
","""event"",""trial"",""time""
""fullscreenenter"",""1"",""2763""
","
","","","-1","","","14","15151","4921","&#9826;","elianto","#f73b6a7A","-1","-1","1","0","[]","0","0","3","","","","","","","",""
"pit-trial","62","545426","0.0-2.0-14.0-3.0","battery-v0.2","","""event"",""trial"",""time""
""fullscreenenter"",""1"",""2763""
","
","
","""event"",""trial"",""time""
""fullscreenenter"",""1"",""2763""
","
","","","-1","","","14","15151","4921","&#9826;","elianto","#f73b6a7A","-1","-1","1","-10","[]","0","0","3","","","","","","","",""
"pit-trial","63","550306","0.0-2.0-14.0-4.0","battery-v0.2","","""event"",""trial"",""time""
""fullscreenenter"",""1"",""2763""
","
","
","""event"",""trial"",""time""
""fullscreenenter"",""1"",""2763""
","
","","","-1","","","14","15151","4921","&#9826;","elianto","#f73b6a7A","-1","-1","1","0","[]","0","0","3","","","","","","","",""
"pit-trial","64","555162","0.0-2.0-14.1-0.1","battery-v0.2","","""event"",""trial"",""time""
""fullscreenenter"",""1"",""2763""
","
","
","""event"",""trial"",""time""
""fullscreenenter"",""1"",""2763""
","
","","","-1","","","14","15151","4921","&#9826;","elianto","#f73b6a7A","-1","-1","1","0","[]","0","0","3","","","","","","","",""
"pit-trial","65","560015","0.0-2.0-14.1-1.1","battery-v0.2","","""event"",""trial"",""time""
""fullscreenenter"",""1"",""2763""
","
","
","""event"",""trial"",""time""
""fullscreenenter"",""1"",""2763""
","
","","","-1","","","14","15151","4921","&#9826;","elianto","#f73b6a7A","-1","-1","1","0","[]","0","0","3","","","","","","","",""
"pit-trial","66","564867","0.0-2.0-14.1-2.1","battery-v0.2","","""event"",""trial"",""time""
""fullscreenenter"",""1"",""2763""
","
","
","""event"",""trial"",""time""
""fullscreenenter"",""1"",""2763""
","
","","","-1","","","14","15151","4921","&#9826;","elianto","#f73b6a7A","-1","-1","1","0","[]","0","0","3","","","","","","","",""
"pit-trial","67","569721","0.0-2.0-14.1-3.1","battery-v0.2","","""event"",""trial"",""time""
""fullscreenenter"",""1"",""2763""
","
","
","""event"",""trial"",""time""
""fullscreenenter"",""1"",""2763""
","
","","","-1","","","14","15151","4921","&#9826;","elianto","#f73b6a7A","-1","-1","1","-10","[]","0","0","3","","","","","","","",""
"pit-trial","68","574574","0.0-2.0-14.1-4.1","battery-v0.2","","""event"",""trial"",""time""
""fullscreenenter"",""1"",""2763""
","
","
","""event"",""trial"",""time""
""fullscreenenter"",""1"",""2763""
","
","","","-1","","","14","15151","4921","&#9826;","elianto","#f73b6a7A","-1","-1","1","0","[]","0","0","3","","","","","","","",""
"pit-trial","69","579427","0.0-2.0-14.2-0.2","battery-v0.2","","""event"",""trial"",""time""
""fullscreenenter"",""1"",""2763""
","
","
","""event"",""trial"",""time""
""fullscreenenter"",""1"",""2763""
","
","","","-1","","","14","15151","4921","&#9826;","elianto","#f73b6a7A","-1","-1","1","0","[]","0","0","3","","","","","","","",""
"pit-trial","70","584280","0.0-2.0-14.2-1.2","battery-v0.2","","""event"",""trial"",""time""
""fullscreenenter"",""1"",""2763""
","
","
","""event"",""trial"",""time""
""fullscreenenter"",""1"",""2763""
","
","","","-1","","","14","15151","4921","&#9826;","elianto","#f73b6a7A","-1","-1","1","0","[]","0","0","3","","","","","","","",""
"pit-trial","71","589133","0.0-2.0-14.2-2.2","battery-v0.2","","""event"",""trial"",""time""
""fullscreenenter"",""1"",""2763""
","
","
","""event"",""trial"",""time""
""fullscreenenter"",""1"",""2763""
","
","","","-1","","","14","15151","4921","&#9826;","elianto","#f73b6a7A","-1","-1","1","0","[]","0","0","3","","","","","","","",""
"pit-trial","72","593988","0.0-2.0-14.2-3.2","battery-v0.2","","""event"",""trial"",""time""
""fullscreenenter"",""1"",""2763""
","
","
","""event"",""trial"",""time""
""fullscreenenter"",""1"",""2763""
","
","","","-1","","","14","15151","4921","&#9826;","elianto","#f73b6a7A","-1","-1","1","-10","[]","0","0","3","","","","","","","",""
"pit-trial","73","598839","0.0-2.0-14.2-4.2","battery-v0.2","","""event"",""trial"",""time""
""fullscreenenter"",""1"",""2763""
","
","
","""event"",""trial"",""time""
""fullscreenenter"",""1"",""2763""
","
","","","-1","","","14","15151","4921","&#9826;","elianto","#f73b6a7A","-1","-1","1","0","[]","0","0","3","","","","","","","",""
"pit-trial","74","603694","0.0-2.0-14.3-0.3","battery-v0.2","","""event"",""trial"",""time""
""fullscreenenter"",""1"",""2763""
","
","
","""event"",""trial"",""time""
""fullscreenenter"",""1"",""2763""
","
","","","-1","","","14","15151","4921","&#9826;","elianto","#f73b6a7A","-1","-1","1","0","[]","0","0","3","","","","","","","",""
"pit-trial","75","608548","0.0-2.0-14.3-1.3","battery-v0.2","","""event"",""trial"",""time""
""fullscreenenter"",""1"",""2763""
","
","
","""event"",""trial"",""time""
""fullscreenenter"",""1"",""2763""
","
","","","-1","","","14","15151","4921","&#9826;","elianto","#f73b6a7A","-1","-1","1","0","[]","0","0","3","","","","","","","",""
"pit-trial","76","613401","0.0-2.0-14.3-2.3","battery-v0.2","","""event"",""trial"",""time""
""fullscreenenter"",""1"",""2763""
","
","
","""event"",""trial"",""time""
""fullscreenenter"",""1"",""2763""
","
","","","-1","","","14","15151","4921","&#9826;","elianto","#f73b6a7A","-1","-1","1","0","[]","0","0","3","","","","","","","",""
"pit-trial","77","618255","0.0-2.0-14.3-3.3","battery-v0.2","","""event"",""trial"",""time""
""fullscreenenter"",""1"",""2763""
","
","
","""event"",""trial"",""time""
""fullscreenenter"",""1"",""2763""
","
","","","-1","","","14","15151","4921","&#9826;","elianto","#f73b6a7A","-1","-1","1","-10","[]","0","0","3","","","","","","","",""
"pit-trial","78","623109","0.0-2.0-14.3-4.3","battery-v0.2","","""event"",""trial"",""time""
""fullscreenenter"",""1"",""2763""
","
","
","""event"",""trial"",""time""
""fullscreenenter"",""1"",""2763""
","
","","","-1","","","14","15151","4921","&#9826;","elianto","#f73b6a7A","-1","-1","1","0","[]","0","0","3","","","","","","","",""
"call-function","79","623110","0.0-2.0-15.0","battery-v0.2","","""event"",""trial"",""time""
""fullscreenenter"",""1"",""2763""
","
","
","""event"",""trial"",""time""
""fullscreenenter"",""1"",""2763""
","
","","","","","","","","","","","","","","","","","","","","","","","","","","",""
"pit-instructions","80","651700","0.0-2.0-16.0","battery-v0.2","","""event"",""trial"",""time""
""fullscreenenter"",""1"",""2763""
","
","
","""event"",""trial"",""time""
""fullscreenenter"",""1"",""2763""
","
","","[{""page_index"":0,""viewing_time"":9132.700000047684},{""page_index"":1,""viewing_time"":8829.900000095367},{""page_index"":2,""viewing_time"":5260},{""page_index"":3,""viewing_time"":5367.099999904633}]","28589.900000095367","","","","","","","","","","","","","","","","","","","","","","","",""
"pit-trial","81","656566","0.0-2.0-17.0-0.0","battery-v0.2","","""event"",""trial"",""time""
""fullscreenenter"",""1"",""2763""
","
","
","""event"",""trial"",""time""
""fullscreenenter"",""1"",""2763""
","
","","","-1","","","14","15151","4921","&#9789;","elianto","#f73b6a7A"," ","-1","0","-10","[]","0","0","4","","","","","","","",""
"pit-trial","82","661439","0.0-2.0-17.0-1.0","battery-v0.2","","""event"",""trial"",""time""
""fullscreenenter"",""1"",""2763""
","
","
","""event"",""trial"",""time""
""fullscreenenter"",""1"",""2763""
","
","","","-1","","","14","15151","4921","&#9789;","elianto","#f73b6a7A"," ","-1","0","-10","[]","0","0","4","","","","","","","",""
"pit-trial","83","666313","0.0-2.0-17.0-2.0","battery-v0.2","","""event"",""trial"",""time""
""fullscreenenter"",""1"",""2763""
","
","
","""event"",""trial"",""time""
""fullscreenenter"",""1"",""2763""
","
","","","-1","","","14","15151","4921","&#9789;","elianto","#f73b6a7A"," ","-1","0","-10","[]","0","0","4","","","","","","","",""
"pit-trial","84","671185","0.0-2.0-17.0-3.0","battery-v0.2","","""event"",""trial"",""time""
""fullscreenenter"",""1"",""2763""
","
","
","""event"",""trial"",""time""
""fullscreenenter"",""1"",""2763""
","
","","","-1","","","14","15151","4921","&#9789;","elianto","#f73b6a7A"," ","-1","0","0","[]","0","0","4","","","","","","","",""
"pit-trial","85","676052","0.0-2.0-17.0-4.0","battery-v0.2","","""event"",""trial"",""time""
""fullscreenenter"",""1"",""2763""
","
","
","""event"",""trial"",""time""
""fullscreenenter"",""1"",""2763""
","
","","","-1","","","14","15151","4921","&#9789;","elianto","#f73b6a7A"," ","-1","0","-10","[]","0","0","4","","","","","","","",""
"pit-trial","86","680923","0.0-2.0-17.1-0.1","battery-v0.2","","""event"",""trial"",""time""
""fullscreenenter"",""1"",""2763""
","
","
","""event"",""trial"",""time""
""fullscreenenter"",""1"",""2763""
","
","","","-1","","","14","15151","4921","&#9789;","elianto","#f73b6a7A"," ","-1","0","-10","[]","0","0","4","","","","","","","",""
"pit-trial","87","685774","0.0-2.0-17.1-1.1","battery-v0.2","","""event"",""trial"",""time""
""fullscreenenter"",""1"",""2763""
","
","
","""event"",""trial"",""time""
""fullscreenenter"",""1"",""2763""
","
","","","-1","","","14","15151","4921","&#9789;","elianto","#f73b6a7A"," ","-1","0","-10","[]","0","0","4","","","","","","","",""
"pit-trial","88","690627","0.0-2.0-17.1-2.1","battery-v0.2","","""event"",""trial"",""time""
""fullscreenenter"",""1"",""2763""
","
","
","""event"",""trial"",""time""
""fullscreenenter"",""1"",""2763""
","
","","","-1","","","14","15151","4921","&#9789;","elianto","#f73b6a7A"," ","-1","0","-10","[]","0","0","4","","","","","","","",""
"pit-trial","89","695481","0.0-2.0-17.1-3.1","battery-v0.2","","""event"",""trial"",""time""
""fullscreenenter"",""1"",""2763""
","
","
","""event"",""trial"",""time""
""fullscreenenter"",""1"",""2763""
","
","","","-1","","","14","15151","4921","&#9789;","elianto","#f73b6a7A"," ","-1","0","0","[]","0","0","4","","","","","","","",""
"pit-trial","90","700333","0.0-2.0-17.1-4.1","battery-v0.2","","""event"",""trial"",""time""
""fullscreenenter"",""1"",""2763""
","
","
","""event"",""trial"",""time""
""fullscreenenter"",""1"",""2763""
","
","","","-1","","","14","15151","4921","&#9789;","elianto","#f73b6a7A"," ","-1","0","-10","[]","0","0","4","","","","","","","",""
"pit-trial","91","705187","0.0-2.0-17.2-0.2","battery-v0.2","","""event"",""trial"",""time""
""fullscreenenter"",""1"",""2763""
","
","
","""event"",""trial"",""time""
""fullscreenenter"",""1"",""2763""
","
","","","-1","","","14","15151","4921","&#9789;","elianto","#f73b6a7A"," ","-1","0","-10","[]","0","0","4","","","","","","","",""
"pit-trial","92","710039","0.0-2.0-17.2-1.2","battery-v0.2","","""event"",""trial"",""time""
""fullscreenenter"",""1"",""2763""
","
","
","""event"",""trial"",""time""
""fullscreenenter"",""1"",""2763""
","
","","","-1","","","14","15151","4921","&#9789;","elianto","#f73b6a7A"," ","-1","0","-10","[]","0","0","4","","","","","","","",""
"pit-trial","93","714891","0.0-2.0-17.2-2.2","battery-v0.2","","""event"",""trial"",""time""
""fullscreenenter"",""1"",""2763""
","
","
","""event"",""trial"",""time""
""fullscreenenter"",""1"",""2763""
","
","","","-1","","","14","15151","4921","&#9789;","elianto","#f73b6a7A"," ","-1","0","-10","[]","0","0","4","","","","","","","",""
"pit-trial","94","719745","0.0-2.0-17.2-3.2","battery-v0.2","","""event"",""trial"",""time""
""fullscreenenter"",""1"",""2763""
","
","
","""event"",""trial"",""time""
""fullscreenenter"",""1"",""2763""
","
","","","-1","","","14","15151","4921","&#9789;","elianto","#f73b6a7A"," ","-1","0","0","[]","0","0","4","","","","","","","",""
"pit-trial","95","724598","0.0-2.0-17.2-4.2","battery-v0.2","","""event"",""trial"",""time""
""fullscreenenter"",""1"",""2763""
","
","
","""event"",""trial"",""time""
""fullscreenenter"",""1"",""2763""
","
","","","-1","","","14","15151","4921","&#9789;","elianto","#f73b6a7A"," ","-1","0","-10","[]","0","0","4","","","","","","","",""
"pit-trial","96","729451","0.0-2.0-17.3-0.3","battery-v0.2","","""event"",""trial"",""time""
""fullscreenenter"",""1"",""2763""
","
","
","""event"",""trial"",""time""
""fullscreenenter"",""1"",""2763""
","
","","","-1","","","14","15151","4921","&#9789;","elianto","#f73b6a7A"," ","-1","0","-10","[]","0","0","4","","","","","","","",""
"pit-trial","97","734305","0.0-2.0-17.3-1.3","battery-v0.2","","""event"",""trial"",""time""
""fullscreenenter"",""1"",""2763""
","
","
","""event"",""trial"",""time""
""fullscreenenter"",""1"",""2763""
","
","","","-1","","","14","15151","4921","&#9789;","elianto","#f73b6a7A"," ","-1","0","-10","[]","0","0","4","","","","","","","",""
"pit-trial","98","739159","0.0-2.0-17.3-2.3","battery-v0.2","","""event"",""trial"",""time""
""fullscreenenter"",""1"",""2763""
","
","
","""event"",""trial"",""time""
""fullscreenenter"",""1"",""2763""
","
","","","-1","","","14","15151","4921","&#9789;","elianto","#f73b6a7A"," ","-1","0","-10","[]","0","0","4","","","","","","","",""
"pit-trial","99","744011","0.0-2.0-17.3-3.3","battery-v0.2","","""event"",""trial"",""time""
""fullscreenenter"",""1"",""2763""
","
","
","""event"",""trial"",""time""
""fullscreenenter"",""1"",""2763""
","
","","","-1","","","14","15151","4921","&#9789;","elianto","#f73b6a7A"," ","-1","0","0","[]","0","0","4","","","","","","","",""
"pit-trial","100","748863","0.0-2.0-17.3-4.3","battery-v0.2","","""event"",""trial"",""time""
""fullscreenenter"",""1"",""2763""
","
","
","""event"",""trial"",""time""
""fullscreenenter"",""1"",""2763""
","
","","","-1","","","14","15151","4921","&#9789;","elianto","#f73b6a7A"," ","-1","0","-10","[]","0","0","4","","","","","","","",""
"call-function","101","748865","0.0-2.0-18.0","battery-v0.2","","""event"",""trial"",""time""
""fullscreenenter"",""1"",""2763""
","
","
","""event"",""trial"",""time""
""fullscreenenter"",""1"",""2763""
","
","","","","","","","","","","","","","","","","","","","","","","","","","","",""
"pit-instructions","102","816041","0.0-2.0-19.0","battery-v0.2","","""event"",""trial"",""time""
""fullscreenenter"",""1"",""2763""
","
","
","""event"",""trial"",""time""
""fullscreenenter"",""1"",""2763""
","
","","[{""page_index"":0,""viewing_time"":6666.799999952316},{""page_index"":1,""viewing_time"":7126.5},{""page_index"":2,""viewing_time"":13774.200000047684},{""page_index"":3,""viewing_time"":4049},{""page_index"":4,""viewing_time"":8540.900000095367},{""page_index"":5,""viewing_time"":8031.099999904633},{""page_index"":6,""viewing_time"":8484},{""page_index"":7,""viewing_time"":6367.799999952316},{""page_index"":8,""viewing_time"":4135}]","67175.70000004768","","","","","","","","","","","","","","","","","","","","","","","",""
"pit-comprehension","103","820308","0.0-2.0-20.0-0.0","battery-v0.2","","""event"",""trial"",""time""
""fullscreenenter"",""1"",""2763""
","
","
","""event"",""trial"",""time""
""fullscreenenter"",""1"",""2763""
","
","","","4262.600000143051","[""SPACE""]","0","14","15151","4921","","","","","","","","","","","","","","","","","","",""
"pit-instructions","104","823284","0.0-2.0-20.0-1.0","battery-v0.2","","""event"",""trial"",""time""
""fullscreenenter"",""1"",""2763""
","
","
","""event"",""trial"",""time""
""fullscreenenter"",""1"",""2763""
","
","","[{""page_index"":0,""viewing_time"":2929.5}]","2930","","","","","","","","","","","","","","","","","","","","","","","",""
"pit-comprehension","105","830138","0.0-2.0-21.0-0.0","battery-v0.2","","""event"",""trial"",""time""
""fullscreenenter"",""1"",""2763""
","
","
","""event"",""trial"",""time""
""fullscreenenter"",""1"",""2763""
","
","","","6851.5","[""10""]","0","14","15151","4921","","","","","","","","","","","","","","","","","","",""
"pit-instructions","106","831931","0.0-2.0-21.0-1.0","battery-v0.2","","""event"",""trial"",""time""
""fullscreenenter"",""1"",""2763""
","
","
","""event"",""trial"",""time""
""fullscreenenter"",""1"",""2763""
","
","","[{""page_index"":0,""viewing_time"":1755}]","1755.2000000476837","","","","","","","","","","","","","","","","","","","","","","","",""
"pit-comprehension","107","838727","0.0-2.0-22.0-0.0","battery-v0.2","","""event"",""trial"",""time""
""fullscreenenter"",""1"",""2763""
","
","
","""event"",""trial"",""time""
""fullscreenenter"",""1"",""2763""
","
","","","6791.299999952316","[""0""]","0","14","15151","4921","","","","","","","","","","","","","","","","","","",""
"pit-instructions","108","840706","0.0-2.0-22.0-1.0","battery-v0.2","","""event"",""trial"",""time""
""fullscreenenter"",""1"",""2763""
","
","
","""event"",""trial"",""time""
""fullscreenenter"",""1"",""2763""
","
","","[{""page_index"":0,""viewing_time"":1944}]","1944.2000000476837","","","","","","","","","","","","","","","","","","","","","","","",""
"pit-comprehension","109","851548","0.0-2.0-23.0-0.0","battery-v0.2","","""event"",""trial"",""time""
""fullscreenenter"",""1"",""2763""
""blur"",""110"",""854577""
""fullscreenexit"",""110"",""854582""
""focus"",""110"",""854585""
","""event"",""trial"",""time""
""blur"",""110"",""854577""
","""event"",""trial"",""time""
""focus"",""110"",""854585""
","""event"",""trial"",""time""
""fullscreenenter"",""1"",""2763""
","""event"",""trial"",""time""
""fullscreenexit"",""110"",""854582""
","","","10838.400000095367","[""True""]","0","14","15151","4921","","","","","","","","","","","","","","","","","","",""
"pit-instructions","110","856495","0.0-2.0-23.0-1.0","battery-v0.2","","""event"",""trial"",""time""
""fullscreenenter"",""1"",""2763""
""blur"",""110"",""854577""
""fullscreenexit"",""110"",""854582""
""focus"",""110"",""854585""
","""event"",""trial"",""time""
""blur"",""110"",""854577""
","""event"",""trial"",""time""
""focus"",""110"",""854585""
","""event"",""trial"",""time""
""fullscreenenter"",""1"",""2763""
","""event"",""trial"",""time""
""fullscreenexit"",""110"",""854582""
","","[{""page_index"":0,""viewing_time"":4911.100000143051}]","4911.299999952316","","","","","","","","","","","","","","","","","","","","","","","",""
"pit-comprehension","111","864658","0.0-2.0-24.0-0.0","battery-v0.2","","""event"",""trial"",""time""
""fullscreenenter"",""1"",""2763""
""blur"",""110"",""854577""
""fullscreenexit"",""110"",""854582""
""focus"",""110"",""854585""
","""event"",""trial"",""time""
""blur"",""110"",""854577""
","""event"",""trial"",""time""
""focus"",""110"",""854585""
","""event"",""trial"",""time""
""fullscreenenter"",""1"",""2763""
","""event"",""trial"",""time""
""fullscreenexit"",""110"",""854582""
","","","8160","[""True""]","0","14","15151","4921","","","","","","","","","","","","","","","","","","",""
"pit-instructions","112","868913","0.0-2.0-24.0-1.0","battery-v0.2","","""event"",""trial"",""time""
""fullscreenenter"",""1"",""2763""
""blur"",""110"",""854577""
""fullscreenexit"",""110"",""854582""
""focus"",""110"",""854585""
","""event"",""trial"",""time""
""blur"",""110"",""854577""
","""event"",""trial"",""time""
""focus"",""110"",""854585""
","""event"",""trial"",""time""
""fullscreenenter"",""1"",""2763""
","""event"",""trial"",""time""
""fullscreenexit"",""110"",""854582""
","","[{""page_index"":0,""viewing_time"":4217.899999856949}]","4218.099999904633","","","","","","","","","","","","","","","","","","","","","","","",""
"pit-comprehension","113","875850","0.0-2.0-25.0-0.0","battery-v0.2","","""event"",""trial"",""time""
""fullscreenenter"",""1"",""2763""
""blur"",""110"",""854577""
""fullscreenexit"",""110"",""854582""
""focus"",""110"",""854585""
","""event"",""trial"",""time""
""blur"",""110"",""854577""
","""event"",""trial"",""time""
""focus"",""110"",""854585""
","""event"",""trial"",""time""
""fullscreenenter"",""1"",""2763""
","""event"",""trial"",""time""
""fullscreenexit"",""110"",""854582""
","","","6933.5","[""True""]","0","14","15151","4921","","","","","","","","","","","","","","","","","","",""
"pit-instructions","114","877853","0.0-2.0-25.0-1.0","battery-v0.2","","""event"",""trial"",""time""
""fullscreenenter"",""1"",""2763""
""blur"",""110"",""854577""
""fullscreenexit"",""110"",""854582""
""focus"",""110"",""854585""
","""event"",""trial"",""time""
""blur"",""110"",""854577""
","""event"",""trial"",""time""
""focus"",""110"",""854585""
","""event"",""trial"",""time""
""fullscreenenter"",""1"",""2763""
","""event"",""trial"",""time""
""fullscreenexit"",""110"",""854582""
","","[{""page_index"":0,""viewing_time"":1960.9000000953674}]","1961.1000001430511","","","","","","","","","","","","","","","","","","","","","","","",""
"pit-comprehension","115","882899","0.0-2.0-26.0-0.0","battery-v0.2","","""event"",""trial"",""time""
""fullscreenenter"",""1"",""2763""
""blur"",""110"",""854577""
""fullscreenexit"",""110"",""854582""
""focus"",""110"",""854585""
","""event"",""trial"",""time""
""blur"",""110"",""854577""
","""event"",""trial"",""time""
""focus"",""110"",""854585""
","""event"",""trial"",""time""
""fullscreenenter"",""1"",""2763""
","""event"",""trial"",""time""
""fullscreenexit"",""110"",""854582""
","","","5042.699999809265","[""False""]","0","14","15151","4921","","","","","","","","","","","","","","","","","","",""
"pit-instructions","116","884489","0.0-2.0-26.0-1.0","battery-v0.2","","""event"",""trial"",""time""
""fullscreenenter"",""1"",""2763""
""blur"",""110"",""854577""
""fullscreenexit"",""110"",""854582""
""focus"",""110"",""854585""
","""event"",""trial"",""time""
""blur"",""110"",""854577""
","""event"",""trial"",""time""
""focus"",""110"",""854585""
","""event"",""trial"",""time""
""fullscreenenter"",""1"",""2763""
","""event"",""trial"",""time""
""fullscreenexit"",""110"",""854582""
","","[{""page_index"":0,""viewing_time"":1548.9000000953674}]","1549.2000000476837","","","","","","","","","","","","","","","","","","","","","","","",""
"pit-instructions","117","902716","0.0-3.0","battery-v0.2","","""event"",""trial"",""time""
""fullscreenenter"",""1"",""2763""
""blur"",""110"",""854577""
""fullscreenexit"",""110"",""854582""
""focus"",""110"",""854585""
","""event"",""trial"",""time""
""blur"",""110"",""854577""
","""event"",""trial"",""time""
""focus"",""110"",""854585""
","""event"",""trial"",""time""
""fullscreenenter"",""1"",""2763""
","""event"",""trial"",""time""
""fullscreenexit"",""110"",""854582""
","","[{""page_index"":0,""viewing_time"":5539.399999856949},{""page_index"":1,""viewing_time"":5081.5},{""page_index"":2,""viewing_time"":7604.299999952316}]","18225.39999985695","","","","","","","","","","","","","","","","","","","","","","","",""
"pit-trial","118","906278","0.0-4.0","battery-v0.2","","""event"",""trial"",""time""
""fullscreenenter"",""1"",""2763""
""blur"",""110"",""854577""
""fullscreenexit"",""110"",""854582""
""focus"",""110"",""854585""
","""event"",""trial"",""time""
""blur"",""110"",""854577""
","""event"",""trial"",""time""
""focus"",""110"",""854585""
","""event"",""trial"",""time""
""fullscreenenter"",""1"",""2763""
","""event"",""trial"",""time""
""fullscreenexit"",""110"",""854582""
","","","699.2000000476837","","","14","15151","4921","&#9733;","elianto","#3366ff99","-1"," ","0","0","[1554.8000001907349]","1","1","","","15151","1","2","2","win","no-go","0"
"pit-trial","119","911151","0.0-5.0","battery-v0.2","","""event"",""trial"",""time""
""fullscreenenter"",""1"",""2763""
""blur"",""110"",""854577""
""fullscreenexit"",""110"",""854582""
""focus"",""110"",""854585""
","""event"",""trial"",""time""
""blur"",""110"",""854577""
","""event"",""trial"",""time""
""focus"",""110"",""854585""
","""event"",""trial"",""time""
""fullscreenenter"",""1"",""2763""
","""event"",""trial"",""time""
""fullscreenexit"",""110"",""854582""
","","","-1","","","14","15151","4921","&#9752;","elianto","#f73b6a7A"," ","-1","0","-10","[]","0","1","","","15151","2","3","3","lose","go","0"
"pit-trial","120","915090","0.0-6.0","battery-v0.2","","""event"",""trial"",""time""
""fullscreenenter"",""1"",""2763""
""blur"",""110"",""854577""
""fullscreenexit"",""110"",""854582""
""focus"",""110"",""854585""
","""event"",""trial"",""time""
""blur"",""110"",""854577""
","""event"",""trial"",""time""
""focus"",""110"",""854585""
","""event"",""trial"",""time""
""fullscreenenter"",""1"",""2763""
","""event"",""trial"",""time""
""fullscreenexit"",""110"",""854582""
","","","1076.2999999523163","","","14","15151","4921","&#9730;","elianto","#3366ff99"," "," ","1","+10","[1933.2999999523163]","1","1","","","15151","3","1","1","win","go","0"
"pit-trial","121","919953","0.0-7.0","battery-v0.2","","""event"",""trial"",""time""
""fullscreenenter"",""1"",""2763""
""blur"",""110"",""854577""
""fullscreenexit"",""110"",""854582""
""focus"",""110"",""854585""
","""event"",""trial"",""time""
""blur"",""110"",""854577""
","""event"",""trial"",""time""
""focus"",""110"",""854585""
","""event"",""trial"",""time""
""fullscreenenter"",""1"",""2763""
","""event"",""trial"",""time""
""fullscreenexit"",""110"",""854582""
","","","-1","","","14","15151","4921","&#9728;","elianto","#f73b6a7A","-1","-1","1","-10","[]","0","1","","","15151","4","0","4","lose","no-go","1"
"pit-trial","122","923645","0.0-8.0","battery-v0.2","","""event"",""trial"",""time""
""fullscreenenter"",""1"",""2763""
""blur"",""110"",""854577""
""fullscreenexit"",""110"",""854582""
""focus"",""110"",""854585""
","""event"",""trial"",""time""
""blur"",""110"",""854577""
","""event"",""trial"",""time""
""focus"",""110"",""854585""
","""event"",""trial"",""time""
""fullscreenenter"",""1"",""2763""
","""event"",""trial"",""time""
""fullscreenexit"",""110"",""854582""
","","","832","","","14","15151","4921","&#9733;","elianto","#3366ff99","-1"," ","0","0","[1689.2999999523163]","1","1","","","15151","5","2","2","win","no-go","0"
"pit-trial","123","928187","0.0-9.0","battery-v0.2","","""event"",""trial"",""time""
""fullscreenenter"",""1"",""2763""
""blur"",""110"",""854577""
""fullscreenexit"",""110"",""854582""
""focus"",""110"",""854585""
","""event"",""trial"",""time""
""blur"",""110"",""854577""
","""event"",""trial"",""time""
""focus"",""110"",""854585""
","""event"",""trial"",""time""
""fullscreenenter"",""1"",""2763""
","""event"",""trial"",""time""
""fullscreenexit"",""110"",""854582""
","","","1679.0999999046326","","","14","15151","4921","&#9730;","elianto","#3366ff99"," "," ","1","+10","[2534.5999999046326]","1","1","","","15151","6","1","1","win","go","0"
"pit-trial","124","932927","0.0-10.0","battery-v0.2","","""event"",""trial"",""time""
""fullscreenenter"",""1"",""2763""
""blur"",""110"",""854577""
""fullscreenexit"",""110"",""854582""
""focus"",""110"",""854585""
","""event"",""trial"",""time""
""blur"",""110"",""854577""
","""event"",""trial"",""time""
""focus"",""110"",""854585""
","""event"",""trial"",""time""
""fullscreenenter"",""1"",""2763""
","""event"",""trial"",""time""
""fullscreenexit"",""110"",""854582""
","","","1881.7000000476837","","","14","15151","4921","&#9728;","elianto","#f73b6a7A","-1"," ","0","0","[2738]","1","1","","","15151","7","0","4","lose","no-go","1"
"pit-trial","125","937780","0.0-11.0","battery-v0.2","","""event"",""trial"",""time""
""fullscreenenter"",""1"",""2763""
""blur"",""110"",""854577""
""fullscreenexit"",""110"",""854582""
""focus"",""110"",""854585""
","""event"",""trial"",""time""
""blur"",""110"",""854577""
","""event"",""trial"",""time""
""focus"",""110"",""854585""
","""event"",""trial"",""time""
""fullscreenenter"",""1"",""2763""
","""event"",""trial"",""time""
""fullscreenexit"",""110"",""854582""
","","","-1","","","14","15151","4921","&#9752;","elianto","#f73b6a7A"," ","-1","0","-10","[]","0","1","","","15151","8","3","3","lose","go","0"
"pit-trial","126","942632","0.0-12.0","battery-v0.2","","""event"",""trial"",""time""
""fullscreenenter"",""1"",""2763""
""blur"",""110"",""854577""
""fullscreenexit"",""110"",""854582""
""focus"",""110"",""854585""
","""event"",""trial"",""time""
""blur"",""110"",""854577""
","""event"",""trial"",""time""
""focus"",""110"",""854585""
","""event"",""trial"",""time""
""fullscreenenter"",""1"",""2763""
","""event"",""trial"",""time""
""fullscreenexit"",""110"",""854582""
","","","-1","","","14","15151","4921","&#9733;","elianto","#3366ff99","-1","-1","1","+10","[]","0","1","","","15151","9","2","2","win","no-go","0"
"pit-trial","127","946038","0.0-13.0","battery-v0.2","","""event"",""trial"",""time""
""fullscreenenter"",""1"",""2763""
""blur"",""110"",""854577""
""fullscreenexit"",""110"",""854582""
""focus"",""110"",""854585""
","""event"",""trial"",""time""
""blur"",""110"",""854577""
","""event"",""trial"",""time""
""focus"",""110"",""854585""
","""event"",""trial"",""time""
""fullscreenenter"",""1"",""2763""
","""event"",""trial"",""time""
""fullscreenexit"",""110"",""854582""
","","","553.5999999046326","","","14","15151","4921","&#9730;","elianto","#3366ff99"," "," ","1","+10","[1403.9000000953674]","1","1","","","15151","10","1","1","win","go","0"
"pit-trial","128","950252","0.0-14.0","battery-v0.2","","""event"",""trial"",""time""
""fullscreenenter"",""1"",""2763""
""blur"",""110"",""854577""
""fullscreenexit"",""110"",""854582""
""focus"",""110"",""854585""
","""event"",""trial"",""time""
""blur"",""110"",""854577""
","""event"",""trial"",""time""
""focus"",""110"",""854585""
","""event"",""trial"",""time""
""fullscreenenter"",""1"",""2763""
","""event"",""trial"",""time""
""fullscreenexit"",""110"",""854582""
","","","1359.2999999523163","","","14","15151","4921","&#9752;","elianto","#f73b6a7A"," "," ","1","0","[2211.2000000476837]","1","1","","","15151","11","3","3","lose","go","0"
"pit-trial","129","955106","0.0-15.0","battery-v0.2","","""event"",""trial"",""time""
""fullscreenenter"",""1"",""2763""
""blur"",""110"",""854577""
""fullscreenexit"",""110"",""854582""
""focus"",""110"",""854585""
","""event"",""trial"",""time""
""blur"",""110"",""854577""
","""event"",""trial"",""time""
""focus"",""110"",""854585""
","""event"",""trial"",""time""
""fullscreenenter"",""1"",""2763""
","""event"",""trial"",""time""
""fullscreenexit"",""110"",""854582""
","","","-1","","","14","15151","4921","&#9728;","elianto","#f73b6a7A","-1","-1","1","0","[]","0","1","","","15151","12","0","4","lose","no-go","0"
"pit-trial","130","959961","0.0-16.0","battery-v0.2","","""event"",""trial"",""time""
""fullscreenenter"",""1"",""2763""
""blur"",""110"",""854577""
""fullscreenexit"",""110"",""854582""
""focus"",""110"",""854585""
","""event"",""trial"",""time""
""blur"",""110"",""854577""
","""event"",""trial"",""time""
""focus"",""110"",""854585""
","""event"",""trial"",""time""
""fullscreenenter"",""1"",""2763""
","""event"",""trial"",""time""
""fullscreenexit"",""110"",""854582""
","","","-1","","","14","15151","4921","&#9733;","elianto","#3366ff99","-1","-1","1","+10","[]","0","1","","","15151","13","2","2","win","no-go","0"
"pit-trial","131","963599","0.0-17.0","battery-v0.2","","""event"",""trial"",""time""
""fullscreenenter"",""1"",""2763""
""blur"",""110"",""854577""
""fullscreenexit"",""110"",""854582""
""focus"",""110"",""854585""
","""event"",""trial"",""time""
""blur"",""110"",""854577""
","""event"",""trial"",""time""
""focus"",""110"",""854585""
","""event"",""trial"",""time""
""fullscreenenter"",""1"",""2763""
","""event"",""trial"",""time""
""fullscreenexit"",""110"",""854582""
","","","783.7999999523163","","","14","15151","4921","&#9730;","elianto","#3366ff99"," "," ","1","+10","[1635.6999998092651]","1","1","","","15151","14","1","1","win","go","0"
"pit-trial","132","967601","0.0-18.0","battery-v0.2","","""event"",""trial"",""time""
""fullscreenenter"",""1"",""2763""
""blur"",""110"",""854577""
""fullscreenexit"",""110"",""854582""
""focus"",""110"",""854585""
","""event"",""trial"",""time""
""blur"",""110"",""854577""
","""event"",""trial"",""time""
""focus"",""110"",""854585""
","""event"",""trial"",""time""
""fullscreenenter"",""1"",""2763""
","""event"",""trial"",""time""
""fullscreenexit"",""110"",""854582""
","","","1147.7999999523163","","","14","15151","4921","&#9752;","elianto","#f73b6a7A"," "," ","1","0","[1998.8999998569489]","1","1","","","15151","15","3","3","lose","go","0"
"pit-trial","133","972454","0.0-19.0","battery-v0.2","","""event"",""trial"",""time""
""fullscreenenter"",""1"",""2763""
""blur"",""110"",""854577""
""fullscreenexit"",""110"",""854582""
""focus"",""110"",""854585""
","""event"",""trial"",""time""
""blur"",""110"",""854577""
","""event"",""trial"",""time""
""focus"",""110"",""854585""
","""event"",""trial"",""time""
""fullscreenenter"",""1"",""2763""
","""event"",""trial"",""time""
""fullscreenexit"",""110"",""854582""
","","","-1","","","14","15151","4921","&#9728;","elianto","#f73b6a7A","-1","-1","1","-10","[]","0","1","","","15151","16","0","4","lose","no-go","1"
"pit-trial","134","976530","0.0-20.0","battery-v0.2","","""event"",""trial"",""time""
""fullscreenenter"",""1"",""2763""
""blur"",""110"",""854577""
""fullscreenexit"",""110"",""854582""
""focus"",""110"",""854585""
","""event"",""trial"",""time""
""blur"",""110"",""854577""
","""event"",""trial"",""time""
""focus"",""110"",""854585""
","""event"",""trial"",""time""
""fullscreenenter"",""1"",""2763""
","""event"",""trial"",""time""
""fullscreenexit"",""110"",""854582""
","","","1222.8000001907349","","","14","15151","4921","&#9752;","elianto","#f73b6a7A"," "," ","1","-10","[2073.7000000476837]","1","1","","","15151","17","3","3","lose","go","1"
"pit-trial","135","981381","0.0-21.0","battery-v0.2","","""event"",""trial"",""time""
""fullscreenenter"",""1"",""2763""
""blur"",""110"",""854577""
""fullscreenexit"",""110"",""854582""
""focus"",""110"",""854585""
","""event"",""trial"",""time""
""blur"",""110"",""854577""
","""event"",""trial"",""time""
""focus"",""110"",""854585""
","""event"",""trial"",""time""
""fullscreenenter"",""1"",""2763""
","""event"",""trial"",""time""
""fullscreenexit"",""110"",""854582""
","","","-1","","","14","15151","4921","&#9733;","elianto","#3366ff99","-1","-1","1","0","[]","0","1","","","15151","18","2","2","win","no-go","1"
"pit-trial","136","984972","0.0-22.0","battery-v0.2","","""event"",""trial"",""time""
""fullscreenenter"",""1"",""2763""
""blur"",""110"",""854577""
""fullscreenexit"",""110"",""854582""
""focus"",""110"",""854585""
","""event"",""trial"",""time""
""blur"",""110"",""854577""
","""event"",""trial"",""time""
""focus"",""110"",""854585""
","""event"",""trial"",""time""
""fullscreenenter"",""1"",""2763""
","""event"",""trial"",""time""
""fullscreenexit"",""110"",""854582""
","","","738.5999999046326","","","14","15151","4921","&#9730;","elianto","#3366ff99"," "," ","1","+10","[1589.2000000476837]","1","1","","","15151","19","1","1","win","go","0"
"pit-trial","137","989826","0.0-23.0","battery-v0.2","","""event"",""trial"",""time""
""fullscreenenter"",""1"",""2763""
""blur"",""110"",""854577""
""fullscreenexit"",""110"",""854582""
""focus"",""110"",""854585""
","""event"",""trial"",""time""
""blur"",""110"",""854577""
","""event"",""trial"",""time""
""focus"",""110"",""854585""
","""event"",""trial"",""time""
""fullscreenenter"",""1"",""2763""
","""event"",""trial"",""time""
""fullscreenexit"",""110"",""854582""
","","","-1","","","14","15151","4921","&#9728;","elianto","#f73b6a7A","-1","-1","1","0","[]","0","1","","","15151","20","0","4","lose","no-go","0"
"pit-instructions","138","1003216","0.0-24.0","battery-v0.2","","""event"",""trial"",""time""
""fullscreenenter"",""1"",""2763""
""blur"",""110"",""854577""
""fullscreenexit"",""110"",""854582""
""focus"",""110"",""854585""
","""event"",""trial"",""time""
""blur"",""110"",""854577""
","""event"",""trial"",""time""
""focus"",""110"",""854585""
","""event"",""trial"",""time""
""fullscreenenter"",""1"",""2763""
","""event"",""trial"",""time""
""fullscreenexit"",""110"",""854582""
","","[{""page_index"":0,""viewing_time"":6023.300000190735},{""page_index"":1,""viewing_time"":7366.099999904633}]","13389.600000143051","","","","","","","","","","","","","","","","","","","","","","","",""
"pit-trial","139","1008081","0.0-25.0","battery-v0.2","","""event"",""trial"",""time""
""fullscreenenter"",""1"",""2763""
""blur"",""110"",""854577""
""fullscreenexit"",""110"",""854582""
""focus"",""110"",""854585""
","""event"",""trial"",""time""
""blur"",""110"",""854577""
","""event"",""trial"",""time""
""focus"",""110"",""854585""
","""event"",""trial"",""time""
""fullscreenenter"",""1"",""2763""
","""event"",""trial"",""time""
""fullscreenexit"",""110"",""854582""
","","","-1","","","14","15151","4921","g","elianto","#f73b6a7A"," ","-1","0","0","[]","0","2","","","15151","21","3","3","lose","go","1"
"pit-trial","140","1012237","0.0-26.0","battery-v0.2","","""event"",""trial"",""time""
""fullscreenenter"",""1"",""2763""
""blur"",""110"",""854577""
""fullscreenexit"",""110"",""854582""
""focus"",""110"",""854585""
","""event"",""trial"",""time""
""blur"",""110"",""854577""
","""event"",""trial"",""time""
""focus"",""110"",""854585""
","""event"",""trial"",""time""
""fullscreenenter"",""1"",""2763""
","""event"",""trial"",""time""
""fullscreenexit"",""110"",""854582""
","","","1285.9000000953674","","","14","15151","4921","l","elianto","#3366ff99"," "," ","1","0","[2143.2000000476837]","1","2","","","15151","22","1","1","win","go","1"
"pit-trial","141","1016639","0.0-27.0","battery-v0.2","","""event"",""trial"",""time""
""fullscreenenter"",""1"",""2763""
""blur"",""110"",""854577""
""fullscreenexit"",""110"",""854582""
""focus"",""110"",""854585""
","""event"",""trial"",""time""
""blur"",""110"",""854577""
","""event"",""trial"",""time""
""focus"",""110"",""854585""
","""event"",""trial"",""time""
""fullscreenenter"",""1"",""2763""
","""event"",""trial"",""time""
""fullscreenexit"",""110"",""854582""
","","","1527.9000000953674","","","14","15151","4921","a","elianto","#f73b6a7A","-1"," ","0","-10","[2386.100000143051]","1","2","","","15151","23","2","4","lose","no-go","0"
"pit-trial","142","1021508","0.0-28.0","battery-v0.2","","""event"",""trial"",""time""
""fullscreenenter"",""1"",""2763""
""blur"",""110"",""854577""
""fullscreenexit"",""110"",""854582""
""focus"",""110"",""854585""
","""event"",""trial"",""time""
""blur"",""110"",""854577""
","""event"",""trial"",""time""
""focus"",""110"",""854585""
","""event"",""trial"",""time""
""fullscreenenter"",""1"",""2763""
","""event"",""trial"",""time""
""fullscreenexit"",""110"",""854582""
","","","-1","","","14","15151","4921","u","elianto","#f73b6a7A","-1","-1","1","-10","[]","0","2","","","15151","24","0","4","lose","no-go","1"
"pit-trial","143","1026381","0.0-29.0","battery-v0.2","","""event"",""trial"",""time""
""fullscreenenter"",""1"",""2763""
""blur"",""110"",""854577""
""fullscreenexit"",""110"",""854582""
""focus"",""110"",""854585""
","""event"",""trial"",""time""
""blur"",""110"",""854577""
","""event"",""trial"",""time""
""focus"",""110"",""854585""
","""event"",""trial"",""time""
""fullscreenenter"",""1"",""2763""
","""event"",""trial"",""time""
""fullscreenexit"",""110"",""854582""
","","","-1","","","14","15151","4921","g","elianto","#f73b6a7A"," ","-1","0","-10","[]","0","2","","","15151","25","3","3","lose","go","0"
"pit-trial","144","1031240","0.0-30.0","battery-v0.2","","""event"",""trial"",""time""
""fullscreenenter"",""1"",""2763""
""blur"",""110"",""854577""
""fullscreenexit"",""110"",""854582""
""focus"",""110"",""854585""
","""event"",""trial"",""time""
""blur"",""110"",""854577""
","""event"",""trial"",""time""
""focus"",""110"",""854585""
","""event"",""trial"",""time""
""fullscreenenter"",""1"",""2763""
","""event"",""trial"",""time""
""fullscreenexit"",""110"",""854582""
","","","-1","","","14","15151","4921","l","elianto","#3366ff99"," ","-1","0","0","[]","0","2","","","15151","26","1","1","win","go","0"
"pit-trial","145","1035421","0.0-31.0","battery-v0.2","","""event"",""trial"",""time""
""fullscreenenter"",""1"",""2763""
""blur"",""110"",""854577""
""fullscreenexit"",""110"",""854582""
""focus"",""110"",""854585""
","""event"",""trial"",""time""
""blur"",""110"",""854577""
","""event"",""trial"",""time""
""focus"",""110"",""854585""
","""event"",""trial"",""time""
""fullscreenenter"",""1"",""2763""
","""event"",""trial"",""time""
""fullscreenexit"",""110"",""854582""
","","","1323.0999999046326","","","14","15151","4921","u","elianto","#f73b6a7A","-1"," ","0","0","[2178.399999856949]","1","2","","","15151","27","0","4","lose","no-go","1"
"pit-trial","146","1040274","0.0-32.0","battery-v0.2","","""event"",""trial"",""time""
""fullscreenenter"",""1"",""2763""
""blur"",""110"",""854577""
""fullscreenexit"",""110"",""854582""
""focus"",""110"",""854585""
","""event"",""trial"",""time""
""blur"",""110"",""854577""
","""event"",""trial"",""time""
""focus"",""110"",""854585""
","""event"",""trial"",""time""
""fullscreenenter"",""1"",""2763""
","""event"",""trial"",""time""
""fullscreenexit"",""110"",""854582""
","","","-1","","","14","15151","4921","a","elianto","#f73b6a7A","-1","-1","1","0","[]","0","2","","","15151","28","2","4","lose","no-go","0"
"pit-trial","147","1045126","0.0-33.0","battery-v0.2","","""event"",""trial"",""time""
""fullscreenenter"",""1"",""2763""
""blur"",""110"",""854577""
""fullscreenexit"",""110"",""854582""
""focus"",""110"",""854585""
","""event"",""trial"",""time""
""blur"",""110"",""854577""
","""event"",""trial"",""time""
""focus"",""110"",""854585""
","""event"",""trial"",""time""
""fullscreenenter"",""1"",""2763""
","""event"",""trial"",""time""
""fullscreenexit"",""110"",""854582""
","","","-1","","","14","15151","4921","g","elianto","#f73b6a7A"," ","-1","0","-10","[3109.7999999523163]","1","2","","","15151","29","3","3","lose","go","0"
"pit-trial","148","1049601","0.0-34.0","battery-v0.2","","""event"",""trial"",""time""
""fullscreenenter"",""1"",""2763""
""blur"",""110"",""854577""
""fullscreenexit"",""110"",""854582""
""focus"",""110"",""854585""
","""event"",""trial"",""time""
""blur"",""110"",""854577""
","""event"",""trial"",""time""
""focus"",""110"",""854585""
","""event"",""trial"",""time""
""fullscreenenter"",""1"",""2763""
","""event"",""trial"",""time""
""fullscreenexit"",""110"",""854582""
","","","1621.7999999523163","","","14","15151","4921","u","elianto","#f73b6a7A","-1"," ","0","-10","[2472.2000000476837]","1","2","","","15151","30","0","4","lose","no-go","0"
"pit-trial","149","1053374","0.0-35.0","battery-v0.2","","""event"",""trial"",""time""
""fullscreenenter"",""1"",""2763""
""blur"",""110"",""854577""
""fullscreenexit"",""110"",""854582""
""focus"",""110"",""854585""
","""event"",""trial"",""time""
""blur"",""110"",""854577""
","""event"",""trial"",""time""
""focus"",""110"",""854585""
","""event"",""trial"",""time""
""fullscreenenter"",""1"",""2763""
","""event"",""trial"",""time""
""fullscreenexit"",""110"",""854582""
","","","918.7000000476837","","","14","15151","4921","a","elianto","#f73b6a7A","-1"," ","0","-10","[1770.7999999523163]","1","2","","","15151","31","2","4","lose","no-go","0"
"pit-trial","150","1058094","0.0-36.0","battery-v0.2","","""event"",""trial"",""time""
""fullscreenenter"",""1"",""2763""
""blur"",""110"",""854577""
""fullscreenexit"",""110"",""854582""
""focus"",""110"",""854585""
","""event"",""trial"",""time""
""blur"",""110"",""854577""
","""event"",""trial"",""time""
""focus"",""110"",""854585""
","""event"",""trial"",""time""
""fullscreenenter"",""1"",""2763""
","""event"",""trial"",""time""
""fullscreenexit"",""110"",""854582""
","","","1865.8999998569489","","","14","15151","4921","l","elianto","#3366ff99"," "," ","1","+10","[2717.899999856949]","1","2","","","15151","32","1","1","win","go","0"
"pit-trial","151","1062946","0.0-37.0","battery-v0.2","","""event"",""trial"",""time""
""fullscreenenter"",""1"",""2763""
""blur"",""110"",""854577""
""fullscreenexit"",""110"",""854582""
""focus"",""110"",""854585""
","""event"",""trial"",""time""
""blur"",""110"",""854577""
","""event"",""trial"",""time""
""focus"",""110"",""854585""
","""event"",""trial"",""time""
""fullscreenenter"",""1"",""2763""
","""event"",""trial"",""time""
""fullscreenexit"",""110"",""854582""
","","","-1","","","14","15151","4921","g","elianto","#f73b6a7A"," ","-1","0","-10","[]","0","2","","","15151","33","3","3","lose","go","0"
"pit-trial","152","1067113","0.0-38.0","battery-v0.2","","""event"",""trial"",""time""
""fullscreenenter"",""1"",""2763""
""blur"",""110"",""854577""
""fullscreenexit"",""110"",""854582""
""focus"",""110"",""854585""
","""event"",""trial"",""time""
""blur"",""110"",""854577""
","""event"",""trial"",""time""
""focus"",""110"",""854585""
","""event"",""trial"",""time""
""fullscreenenter"",""1"",""2763""
","""event"",""trial"",""time""
""fullscreenexit"",""110"",""854582""
","","","1314.5","","","14","15151","4921","u","elianto","#f73b6a7A","-1"," ","0","0","[2164.7999999523163]","1","2","","","15151","34","0","4","lose","no-go","1"
"pit-trial","153","1071967","0.0-39.0","battery-v0.2","","""event"",""trial"",""time""
""fullscreenenter"",""1"",""2763""
""blur"",""110"",""854577""
""fullscreenexit"",""110"",""854582""
""focus"",""110"",""854585""
","""event"",""trial"",""time""
""blur"",""110"",""854577""
","""event"",""trial"",""time""
""focus"",""110"",""854585""
","""event"",""trial"",""time""
""fullscreenenter"",""1"",""2763""
","""event"",""trial"",""time""
""fullscreenexit"",""110"",""854582""
","","","-1","","","14","15151","4921","a","elianto","#f73b6a7A","-1","-1","1","-10","[]","0","2","","","15151","35","2","4","lose","no-go","1"
"pit-trial","154","1076525","0.0-40.0","battery-v0.2","","""event"",""trial"",""time""
""fullscreenenter"",""1"",""2763""
""blur"",""110"",""854577""
""fullscreenexit"",""110"",""854582""
""focus"",""110"",""854585""
","""event"",""trial"",""time""
""blur"",""110"",""854577""
","""event"",""trial"",""time""
""focus"",""110"",""854585""
","""event"",""trial"",""time""
""fullscreenenter"",""1"",""2763""
","""event"",""trial"",""time""
""fullscreenexit"",""110"",""854582""
","","","1703.8000001907349","","","14","15151","4921","l","elianto","#3366ff99"," "," ","1","+10","[2555.300000190735]","1","2","","","15151","36","1","1","win","go","0"
"pit-trial","155","1081391","0.0-41.0","battery-v0.2","","""event"",""trial"",""time""
""fullscreenenter"",""1"",""2763""
""blur"",""110"",""854577""
""fullscreenexit"",""110"",""854582""
""focus"",""110"",""854585""
","""event"",""trial"",""time""
""blur"",""110"",""854577""
","""event"",""trial"",""time""
""focus"",""110"",""854585""
","""event"",""trial"",""time""
""fullscreenenter"",""1"",""2763""
","""event"",""trial"",""time""
""fullscreenexit"",""110"",""854582""
","","","-1","","","14","15151","4921","a","elianto","#f73b6a7A","-1","-1","1","0","[]","0","2","","","15151","37","2","4","lose","no-go","0"
"pit-trial","156","1085036","0.0-42.0","battery-v0.2","","""event"",""trial"",""time""
""fullscreenenter"",""1"",""2763""
""blur"",""110"",""854577""
""fullscreenexit"",""110"",""854582""
""focus"",""110"",""854585""
","""event"",""trial"",""time""
""blur"",""110"",""854577""
","""event"",""trial"",""time""
""focus"",""110"",""854585""
","""event"",""trial"",""time""
""fullscreenenter"",""1"",""2763""
","""event"",""trial"",""time""
""fullscreenexit"",""110"",""854582""
","","","791.4000000953674","","","14","15151","4921","u","elianto","#f73b6a7A","-1"," ","0","-10","[1641.9000000953674]","1","2","","","15151","38","0","4","lose","no-go","0"
"pit-trial","157","1088856","0.0-43.0","battery-v0.2","","""event"",""trial"",""time""
""fullscreenenter"",""1"",""2763""
""blur"",""110"",""854577""
""fullscreenexit"",""110"",""854582""
""focus"",""110"",""854585""
","""event"",""trial"",""time""
""blur"",""110"",""854577""
","""event"",""trial"",""time""
""focus"",""110"",""854585""
","""event"",""trial"",""time""
""fullscreenenter"",""1"",""2763""
","""event"",""trial"",""time""
""fullscreenexit"",""110"",""854582""
","","","967.2999999523163","","","14","15151","4921","l","elianto","#3366ff99"," "," ","1","+10","[1818]","1","2","","","15151","39","1","1","win","go","0"
"pit-trial","158","1093093","0.0-44.0","battery-v0.2","","""event"",""trial"",""time""
""fullscreenenter"",""1"",""2763""
""blur"",""110"",""854577""
""fullscreenexit"",""110"",""854582""
""focus"",""110"",""854585""
","""event"",""trial"",""time""
""blur"",""110"",""854577""
","""event"",""trial"",""time""
""focus"",""110"",""854585""
","""event"",""trial"",""time""
""fullscreenenter"",""1"",""2763""
","""event"",""trial"",""time""
""fullscreenexit"",""110"",""854582""
","","","1383.9000000953674","","","14","15151","4921","g","elianto","#f73b6a7A"," "," ","1","0","[2234.7000000476837]","1","2","","","15151","40","3","3","lose","go","0"
"pit-trial","159","1097631","0.0-45.0","battery-v0.2","","""event"",""trial"",""time""
""fullscreenenter"",""1"",""2763""
""blur"",""110"",""854577""
""fullscreenexit"",""110"",""854582""
""focus"",""110"",""854585""
","""event"",""trial"",""time""
""blur"",""110"",""854577""
","""event"",""trial"",""time""
""focus"",""110"",""854585""
","""event"",""trial"",""time""
""fullscreenenter"",""1"",""2763""
","""event"",""trial"",""time""
""fullscreenexit"",""110"",""854582""
","","","1684.2999999523163","","","14","15151","4921","a","elianto","#f73b6a7A","-1"," ","0","-10","[2535.5]","1","2","","","15151","41","2","4","lose","no-go","0"
"pit-trial","160","1101428","0.0-46.0","battery-v0.2","","""event"",""trial"",""time""
""fullscreenenter"",""1"",""2763""
""blur"",""110"",""854577""
""fullscreenexit"",""110"",""854582""
""focus"",""110"",""854585""
","""event"",""trial"",""time""
""blur"",""110"",""854577""
","""event"",""trial"",""time""
""focus"",""110"",""854585""
","""event"",""trial"",""time""
""fullscreenenter"",""1"",""2763""
","""event"",""trial"",""time""
""fullscreenexit"",""110"",""854582""
","","","944.7000000476837","","","14","15151","4921","l","elianto","#3366ff99"," "," ","1","+10","[1794.8000001907349]","1","2","","","15151","42","1","1","win","go","0"
"pit-trial","161","1105919","0.0-47.0","battery-v0.2","","""event"",""trial"",""time""
""fullscreenenter"",""1"",""2763""
""blur"",""110"",""854577""
""fullscreenexit"",""110"",""854582""
""focus"",""110"",""854585""
","""event"",""trial"",""time""
""blur"",""110"",""854577""
","""event"",""trial"",""time""
""focus"",""110"",""854585""
","""event"",""trial"",""time""
""fullscreenenter"",""1"",""2763""
","""event"",""trial"",""time""
""fullscreenexit"",""110"",""854582""
","","","1639","","","14","15151","4921","u","elianto","#f73b6a7A","-1"," ","0","0","[2489.2999999523163]","1","2","","","15151","43","0","4","lose","no-go","1"
"pit-trial","162","1110773","0.0-48.0","battery-v0.2","","""event"",""trial"",""time""
""fullscreenenter"",""1"",""2763""
""blur"",""110"",""854577""
""fullscreenexit"",""110"",""854582""
""focus"",""110"",""854585""
","""event"",""trial"",""time""
""blur"",""110"",""854577""
","""event"",""trial"",""time""
""focus"",""110"",""854585""
","""event"",""trial"",""time""
""fullscreenenter"",""1"",""2763""
","""event"",""trial"",""time""
""fullscreenexit"",""110"",""854582""
","","","-1","","","14","15151","4921","g","elianto","#f73b6a7A"," ","-1","0","-10","[]","0","2","","","15151","44","3","3","lose","go","0"
"pit-trial","163","1114570","0.0-49.0","battery-v0.2","","""event"",""trial"",""time""
""fullscreenenter"",""1"",""2763""
""blur"",""110"",""854577""
""fullscreenexit"",""110"",""854582""
""focus"",""110"",""854585""
","""event"",""trial"",""time""
""blur"",""110"",""854577""
","""event"",""trial"",""time""
""focus"",""110"",""854585""
","""event"",""trial"",""time""
""fullscreenenter"",""1"",""2763""
","""event"",""trial"",""time""
""fullscreenexit"",""110"",""854582""
","","","943.8999998569489","","","14","15151","4921","g","elianto","#f73b6a7A"," "," ","1","0","[1794.8999998569489]","1","2","","","15151","45","3","3","lose","go","0"
"pit-trial","164","1118528","0.0-50.0","battery-v0.2","","""event"",""trial"",""time""
""fullscreenenter"",""1"",""2763""
""blur"",""110"",""854577""
""fullscreenexit"",""110"",""854582""
""focus"",""110"",""854585""
","""event"",""trial"",""time""
""blur"",""110"",""854577""
","""event"",""trial"",""time""
""focus"",""110"",""854585""
","""event"",""trial"",""time""
""fullscreenenter"",""1"",""2763""
","""event"",""trial"",""time""
""fullscreenexit"",""110"",""854582""
","","","1104.5","","","14","15151","4921","u","elianto","#f73b6a7A","-1"," ","0","-10","[1955.5999999046326]","1","2","","","15151","46","0","4","lose","no-go","0"
"pit-trial","165","1123381","0.0-51.0","battery-v0.2","","""event"",""trial"",""time""
""fullscreenenter"",""1"",""2763""
""blur"",""110"",""854577""
""fullscreenexit"",""110"",""854582""
""focus"",""110"",""854585""
","""event"",""trial"",""time""
""blur"",""110"",""854577""
","""event"",""trial"",""time""
""focus"",""110"",""854585""
","""event"",""trial"",""time""
""fullscreenenter"",""1"",""2763""
","""event"",""trial"",""time""
""fullscreenexit"",""110"",""854582""
","","","-1","","","14","15151","4921","a","elianto","#f73b6a7A","-1","-1","1","0","[]","0","2","","","15151","47","2","4","lose","no-go","0"
"pit-trial","166","1128234","0.0-52.0","battery-v0.2","","""event"",""trial"",""time""
""fullscreenenter"",""1"",""2763""
""blur"",""110"",""854577""
""fullscreenexit"",""110"",""854582""
""focus"",""110"",""854585""
","""event"",""trial"",""time""
""blur"",""110"",""854577""
","""event"",""trial"",""time""
""focus"",""110"",""854585""
","""event"",""trial"",""time""
""fullscreenenter"",""1"",""2763""
","""event"",""trial"",""time""
""fullscreenexit"",""110"",""854582""
","","","-1","","","14","15151","4921","p","elianto","#3366ff99","-1","-1","1","+10","[2858.5]","1","2","","","15151","48","4","2","win","no-go","0"
"pit-trial","167","1132501","0.0-53.0","battery-v0.2","","""event"",""trial"",""time""
""fullscreenenter"",""1"",""2763""
""blur"",""110"",""854577""
""fullscreenexit"",""110"",""854582""
""focus"",""110"",""854585""
","""event"",""trial"",""time""
""blur"",""110"",""854577""
","""event"",""trial"",""time""
""focus"",""110"",""854585""
","""event"",""trial"",""time""
""fullscreenenter"",""1"",""2763""
","""event"",""trial"",""time""
""fullscreenexit"",""110"",""854582""
","","","1413.7000000476837","","","14","15151","4921","u","elianto","#f73b6a7A","-1"," ","0","0","[2265.4000000953674]","1","2","","","15151","49","0","4","lose","no-go","1"
"pit-trial","168","1137271","0.0-54.0","battery-v0.2","","""event"",""trial"",""time""
""fullscreenenter"",""1"",""2763""
""blur"",""110"",""854577""
""fullscreenexit"",""110"",""854582""
""focus"",""110"",""854585""
","""event"",""trial"",""time""
""blur"",""110"",""854577""
","""event"",""trial"",""time""
""focus"",""110"",""854585""
","""event"",""trial"",""time""
""fullscreenenter"",""1"",""2763""
","""event"",""trial"",""time""
""fullscreenexit"",""110"",""854582""
","","","1916.6000001430511","","","14","15151","4921","g","elianto","#f73b6a7A"," "," ","1","0","[2766.7000000476837]","1","2","","","15151","50","3","3","lose","go","0"
"pit-trial","169","1141139","0.0-55.0","battery-v0.2","","""event"",""trial"",""time""
""fullscreenenter"",""1"",""2763""
""blur"",""110"",""854577""
""fullscreenexit"",""110"",""854582""
""focus"",""110"",""854585""
","""event"",""trial"",""time""
""blur"",""110"",""854577""
","""event"",""trial"",""time""
""focus"",""110"",""854585""
","""event"",""trial"",""time""
""fullscreenenter"",""1"",""2763""
","""event"",""trial"",""time""
""fullscreenexit"",""110"",""854582""
","","","1014.3999998569489","","","14","15151","4921","l","elianto","#3366ff99"," "," ","1","+10","[1865]","1","2","","","15151","51","1","1","win","go","0"
"pit-trial","170","1145028","0.0-56.0","battery-v0.2","","""event"",""trial"",""time""
""fullscreenenter"",""1"",""2763""
""blur"",""110"",""854577""
""fullscreenexit"",""110"",""854582""
""focus"",""110"",""854585""
","""event"",""trial"",""time""
""blur"",""110"",""854577""
","""event"",""trial"",""time""
""focus"",""110"",""854585""
","""event"",""trial"",""time""
""fullscreenenter"",""1"",""2763""
","""event"",""trial"",""time""
""fullscreenexit"",""110"",""854582""
","","","1036.9000000953674","","","14","15151","4921","p","elianto","#3366ff99","-1"," ","0","0","[1887]","1","2","","","15151","52","4","2","win","no-go","0"
"pit-trial","171","1148919","0.0-57.0","battery-v0.2","","""event"",""trial"",""time""
""fullscreenenter"",""1"",""2763""
""blur"",""110"",""854577""
""fullscreenexit"",""110"",""854582""
""focus"",""110"",""854585""
","""event"",""trial"",""time""
""blur"",""110"",""854577""
","""event"",""trial"",""time""
""focus"",""110"",""854585""
","""event"",""trial"",""time""
""fullscreenenter"",""1"",""2763""
","""event"",""trial"",""time""
""fullscreenexit"",""110"",""854582""
","","","1038.2999999523163","","","14","15151","4921","p","elianto","#3366ff99","-1"," ","0","0","[1888.4000000953674]","1","2","","","15151","53","4","2","win","no-go","0"
"pit-trial","172","1153772","0.0-58.0","battery-v0.2","","""event"",""trial"",""time""
""fullscreenenter"",""1"",""2763""
""blur"",""110"",""854577""
""fullscreenexit"",""110"",""854582""
""focus"",""110"",""854585""
","""event"",""trial"",""time""
""blur"",""110"",""854577""
","""event"",""trial"",""time""
""focus"",""110"",""854585""
","""event"",""trial"",""time""
""fullscreenenter"",""1"",""2763""
","""event"",""trial"",""time""
""fullscreenexit"",""110"",""854582""
","","","-1","","","14","15151","4921","a","elianto","#f73b6a7A","-1","-1","1","0","[]","0","2","","","15151","54","2","4","lose","no-go","0"
"pit-trial","173","1157502","0.0-59.0","battery-v0.2","","""event"",""trial"",""time""
""fullscreenenter"",""1"",""2763""
""blur"",""110"",""854577""
""fullscreenexit"",""110"",""854582""
""focus"",""110"",""854585""
","""event"",""trial"",""time""
""blur"",""110"",""854577""
","""event"",""trial"",""time""
""focus"",""110"",""854585""
","""event"",""trial"",""time""
""fullscreenenter"",""1"",""2763""
","""event"",""trial"",""time""
""fullscreenexit"",""110"",""854582""
","","","877.5","","","14","15151","4921","l","elianto","#3366ff99"," "," ","1","0","[1728.6000001430511]","1","2","","","15151","55","1","1","win","go","1"
"pit-trial","174","1162355","0.0-60.0","battery-v0.2","","""event"",""trial"",""time""
""fullscreenenter"",""1"",""2763""
""blur"",""110"",""854577""
""fullscreenexit"",""110"",""854582""
""focus"",""110"",""854585""
","""event"",""trial"",""time""
""blur"",""110"",""854577""
","""event"",""trial"",""time""
""focus"",""110"",""854585""
","""event"",""trial"",""time""
""fullscreenenter"",""1"",""2763""
","""event"",""trial"",""time""
""fullscreenexit"",""110"",""854582""
","","","-1","","","14","15151","4921","u","elianto","#f73b6a7A","-1","-1","1","-10","[]","0","2","","","15151","56","0","4","lose","no-go","1"
"pit-trial","175","1166087","0.0-61.0","battery-v0.2","","""event"",""trial"",""time""
""fullscreenenter"",""1"",""2763""
""blur"",""110"",""854577""
""fullscreenexit"",""110"",""854582""
""focus"",""110"",""854585""
","""event"",""trial"",""time""
""blur"",""110"",""854577""
","""event"",""trial"",""time""
""focus"",""110"",""854585""
","""event"",""trial"",""time""
""fullscreenenter"",""1"",""2763""
","""event"",""trial"",""time""
""fullscreenexit"",""110"",""854582""
","","","879.6000001430511","","","14","15151","4921","p","elianto","#3366ff99","-1"," ","0","0","[1729.8999998569489]","1","2","","","15151","57","4","2","win","no-go","0"
"pit-trial","176","1170926","0.0-62.0","battery-v0.2","","""event"",""trial"",""time""
""fullscreenenter"",""1"",""2763""
""blur"",""110"",""854577""
""fullscreenexit"",""110"",""854582""
""focus"",""110"",""854585""
","""event"",""trial"",""time""
""blur"",""110"",""854577""
","""event"",""trial"",""time""
""focus"",""110"",""854585""
","""event"",""trial"",""time""
""fullscreenenter"",""1"",""2763""
","""event"",""trial"",""time""
""fullscreenexit"",""110"",""854582""
","","","1986.1000001430511","","","14","15151","4921","u","elianto","#f73b6a7A","-1"," ","0","0","[2836.9000000953674]","1","2","","","15151","58","0","4","lose","no-go","1"
"pit-trial","177","1175303","0.0-63.0","battery-v0.2","","""event"",""trial"",""time""
""fullscreenenter"",""1"",""2763""
""blur"",""110"",""854577""
""fullscreenexit"",""110"",""854582""
""focus"",""110"",""854585""
","""event"",""trial"",""time""
""blur"",""110"",""854577""
","""event"",""trial"",""time""
""focus"",""110"",""854585""
","""event"",""trial"",""time""
""fullscreenenter"",""1"",""2763""
","""event"",""trial"",""time""
""fullscreenexit"",""110"",""854582""
","","","1523.2999999523163","","","14","15151","4921","g","elianto","#f73b6a7A"," "," ","1","0","[2374.2999999523163]","1","2","","","15151","59","3","3","lose","go","0"
"pit-trial","178","1179658","0.0-64.0","battery-v0.2","","""event"",""trial"",""time""
""fullscreenenter"",""1"",""2763""
""blur"",""110"",""854577""
""fullscreenexit"",""110"",""854582""
""focus"",""110"",""854585""
","""event"",""trial"",""time""
""blur"",""110"",""854577""
","""event"",""trial"",""time""
""focus"",""110"",""854585""
","""event"",""trial"",""time""
""fullscreenenter"",""1"",""2763""
","""event"",""trial"",""time""
""fullscreenexit"",""110"",""854582""
","","","1500.2999999523163","","","14","15151","4921","l","elianto","#3366ff99"," "," ","1","+10","[2352]","1","2","","","15151","60","1","1","win","go","0"
"pit-trial","179","1183594","0.0-65.0","battery-v0.2","","""event"",""trial"",""time""
""fullscreenenter"",""1"",""2763""
""blur"",""110"",""854577""
""fullscreenexit"",""110"",""854582""
""focus"",""110"",""854585""
","""event"",""trial"",""time""
""blur"",""110"",""854577""
","""event"",""trial"",""time""
""focus"",""110"",""854585""
","""event"",""trial"",""time""
""fullscreenenter"",""1"",""2763""
","""event"",""trial"",""time""
""fullscreenexit"",""110"",""854582""
","","","1083.1999998092651","","","14","15151","4921","g","elianto","#f73b6a7A"," "," ","1","0","[1934.0999999046326]","1","2","","","15151","61","3","3","lose","go","0"
"pit-trial","180","1188451","0.0-66.0","battery-v0.2","","""event"",""trial"",""time""
""fullscreenenter"",""1"",""2763""
""blur"",""110"",""854577""
""fullscreenexit"",""110"",""854582""
""focus"",""110"",""854585""
","""event"",""trial"",""time""
""blur"",""110"",""854577""
","""event"",""trial"",""time""
""focus"",""110"",""854585""
","""event"",""trial"",""time""
""fullscreenenter"",""1"",""2763""
","""event"",""trial"",""time""
""fullscreenexit"",""110"",""854582""
","","","-1","","","14","15151","4921","p","elianto","#3366ff99","-1","-1","1","0","[]","0","2","","","15151","62","4","2","win","no-go","1"
"pit-trial","181","1193304","0.0-67.0","battery-v0.2","","""event"",""trial"",""time""
""fullscreenenter"",""1"",""2763""
""blur"",""110"",""854577""
""fullscreenexit"",""110"",""854582""
""focus"",""110"",""854585""
","""event"",""trial"",""time""
""blur"",""110"",""854577""
","""event"",""trial"",""time""
""focus"",""110"",""854585""
","""event"",""trial"",""time""
""fullscreenenter"",""1"",""2763""
","""event"",""trial"",""time""
""fullscreenexit"",""110"",""854582""
","","","-1","","","14","15151","4921","a","elianto","#f73b6a7A","-1","-1","1","0","[]","0","2","","","15151","63","2","4","lose","no-go","0"
"pit-trial","182","1196801","0.0-68.0","battery-v0.2","","""event"",""trial"",""time""
""fullscreenenter"",""1"",""2763""
""blur"",""110"",""854577""
""fullscreenexit"",""110"",""854582""
""focus"",""110"",""854585""
","""event"",""trial"",""time""
""blur"",""110"",""854577""
","""event"",""trial"",""time""
""focus"",""110"",""854585""
","""event"",""trial"",""time""
""fullscreenenter"",""1"",""2763""
","""event"",""trial"",""time""
""fullscreenexit"",""110"",""854582""
","","","644.5","","","14","15151","4921","l","elianto","#3366ff99"," "," ","1","0","[1494.9000000953674]","1","2","","","15151","64","1","1","win","go","1"
"pit-trial","183","1201674","0.0-69.0","battery-v0.2","","""event"",""trial"",""time""
""fullscreenenter"",""1"",""2763""
""blur"",""110"",""854577""
""fullscreenexit"",""110"",""854582""
""focus"",""110"",""854585""
","""event"",""trial"",""time""
""blur"",""110"",""854577""
","""event"",""trial"",""time""
""focus"",""110"",""854585""
","""event"",""trial"",""time""
""fullscreenenter"",""1"",""2763""
","""event"",""trial"",""time""
""fullscreenexit"",""110"",""854582""
","","","-1","","","14","15151","4921","a","elianto","#f73b6a7A","-1","-1","1","0","[]","0","2","","","15151","65","2","4","lose","no-go","0"
"pit-trial","184","1205474","0.0-70.0","battery-v0.2","","""event"",""trial"",""time""
""fullscreenenter"",""1"",""2763""
""blur"",""110"",""854577""
""fullscreenexit"",""110"",""854582""
""focus"",""110"",""854585""
","""event"",""trial"",""time""
""blur"",""110"",""854577""
","""event"",""trial"",""time""
""focus"",""110"",""854585""
","""event"",""trial"",""time""
""fullscreenenter"",""1"",""2763""
","""event"",""trial"",""time""
""fullscreenexit"",""110"",""854582""
","","","947.7000000476837","","","14","15151","4921","g","elianto","#f73b6a7A"," "," ","1","0","[1798.3000001907349]","1","2","","","15151","66","3","3","lose","go","0"
"pit-trial","185","1210328","0.0-71.0","battery-v0.2","","""event"",""trial"",""time""
""fullscreenenter"",""1"",""2763""
""blur"",""110"",""854577""
""fullscreenexit"",""110"",""854582""
""focus"",""110"",""854585""
","""event"",""trial"",""time""
""blur"",""110"",""854577""
","""event"",""trial"",""time""
""focus"",""110"",""854585""
","""event"",""trial"",""time""
""fullscreenenter"",""1"",""2763""
","""event"",""trial"",""time""
""fullscreenexit"",""110"",""854582""
","","","-1","","","14","15151","4921","p","elianto","#3366ff99","-1","-1","1","+10","[]","0","2","","","15151","67","4","2","win","no-go","0"
"pit-trial","186","1213963","0.0-72.0","battery-v0.2","","""event"",""trial"",""time""
""fullscreenenter"",""1"",""2763""
""blur"",""110"",""854577""
""fullscreenexit"",""110"",""854582""
""focus"",""110"",""854585""
","""event"",""trial"",""time""
""blur"",""110"",""854577""
","""event"",""trial"",""time""
""focus"",""110"",""854585""
","""event"",""trial"",""time""
""fullscreenenter"",""1"",""2763""
","""event"",""trial"",""time""
""fullscreenexit"",""110"",""854582""
","","","782.3999998569489","","","14","15151","4921","l","elianto","#3366ff99"," "," ","1","+10","[1633.6999998092651]","1","2","","","15151","68","1","1","win","go","0"
"pit-trial","187","1218500","0.0-73.0","battery-v0.2","","""event"",""trial"",""time""
""fullscreenenter"",""1"",""2763""
""blur"",""110"",""854577""
""fullscreenexit"",""110"",""854582""
""focus"",""110"",""854585""
","""event"",""trial"",""time""
""blur"",""110"",""854577""
","""event"",""trial"",""time""
""focus"",""110"",""854585""
","""event"",""trial"",""time""
""fullscreenenter"",""1"",""2763""
","""event"",""trial"",""time""
""fullscreenexit"",""110"",""854582""
","","","1684","","","14","15151","4921","s","elianto","#3366ff99"," "," ","1","+10","[2535.2000000476837]","1","2","","","15151","69","5","1","win","go","0"
"pit-trial","188","1223353","0.0-74.0","battery-v0.2","","""event"",""trial"",""time""
""fullscreenenter"",""1"",""2763""
""blur"",""110"",""854577""
""fullscreenexit"",""110"",""854582""
""focus"",""110"",""854585""
","""event"",""trial"",""time""
""blur"",""110"",""854577""
","""event"",""trial"",""time""
""focus"",""110"",""854585""
","""event"",""trial"",""time""
""fullscreenenter"",""1"",""2763""
","""event"",""trial"",""time""
""fullscreenexit"",""110"",""854582""
","","","-1","","","14","15151","4921","p","elianto","#3366ff99","-1","-1","1","+10","[]","0","2","","","15151","70","4","2","win","no-go","0"
"pit-trial","189","1227545","0.0-75.0","battery-v0.2","","""event"",""trial"",""time""
""fullscreenenter"",""1"",""2763""
""blur"",""110"",""854577""
""fullscreenexit"",""110"",""854582""
""focus"",""110"",""854585""
","""event"",""trial"",""time""
""blur"",""110"",""854577""
","""event"",""trial"",""time""
""focus"",""110"",""854585""
","""event"",""trial"",""time""
""fullscreenenter"",""1"",""2763""
","""event"",""trial"",""time""
""fullscreenexit"",""110"",""854582""
","","","1339.2999999523163","","","14","15151","4921","g","elianto","#f73b6a7A"," "," ","1","0","[2189.5999999046326]","1","2","","","15151","71","3","3","lose","go","0"
"pit-trial","190","1231782","0.0-76.0","battery-v0.2","","""event"",""trial"",""time""
""fullscreenenter"",""1"",""2763""
""blur"",""110"",""854577""
""fullscreenexit"",""110"",""854582""
""focus"",""110"",""854585""
","""event"",""trial"",""time""
""blur"",""110"",""854577""
","""event"",""trial"",""time""
""focus"",""110"",""854585""
","""event"",""trial"",""time""
""fullscreenenter"",""1"",""2763""
","""event"",""trial"",""time""
""fullscreenexit"",""110"",""854582""
","","","1383","","","14","15151","4921","l","elianto","#3366ff99"," "," ","1","0","[2234.2000000476837]","1","2","","","15151","72","1","1","win","go","1"
"pit-trial","191","1235905","0.0-77.0","battery-v0.2","","""event"",""trial"",""time""
""fullscreenenter"",""1"",""2763""
""blur"",""110"",""854577""
""fullscreenexit"",""110"",""854582""
""focus"",""110"",""854585""
","""event"",""trial"",""time""
""blur"",""110"",""854577""
","""event"",""trial"",""time""
""focus"",""110"",""854585""
","""event"",""trial"",""time""
""fullscreenenter"",""1"",""2763""
","""event"",""trial"",""time""
""fullscreenexit"",""110"",""854582""
","","","1269.4000000953674","","","14","15151","4921","s","elianto","#3366ff99"," "," ","1","+10","[2121.4000000953674]","1","2","","","15151","73","5","1","win","go","0"
"pit-trial","192","1240120","0.0-78.0","battery-v0.2","","""event"",""trial"",""time""
""fullscreenenter"",""1"",""2763""
""blur"",""110"",""854577""
""fullscreenexit"",""110"",""854582""
""focus"",""110"",""854585""
","""event"",""trial"",""time""
""blur"",""110"",""854577""
","""event"",""trial"",""time""
""focus"",""110"",""854585""
","""event"",""trial"",""time""
""fullscreenenter"",""1"",""2763""
","""event"",""trial"",""time""
""fullscreenexit"",""110"",""854582""
","","","1360.7999999523163","","","14","15151","4921","l","elianto","#3366ff99"," "," ","1","+10","[2211.5999999046326]","1","2","","","15151","74","1","1","win","go","0"
"pit-trial","193","1244972","0.0-79.0","battery-v0.2","","""event"",""trial"",""time""
""fullscreenenter"",""1"",""2763""
""blur"",""110"",""854577""
""fullscreenexit"",""110"",""854582""
""focus"",""110"",""854585""
","""event"",""trial"",""time""
""blur"",""110"",""854577""
","""event"",""trial"",""time""
""focus"",""110"",""854585""
","""event"",""trial"",""time""
""fullscreenenter"",""1"",""2763""
","""event"",""trial"",""time""
""fullscreenexit"",""110"",""854582""
","","","-1","","","14","15151","4921","g","elianto","#f73b6a7A"," ","-1","0","0","[]","0","2","","","15151","75","3","3","lose","go","1"
"pit-trial","194","1249825","0.0-80.0","battery-v0.2","","""event"",""trial"",""time""
""fullscreenenter"",""1"",""2763""
""blur"",""110"",""854577""
""fullscreenexit"",""110"",""854582""
""focus"",""110"",""854585""
","""event"",""trial"",""time""
""blur"",""110"",""854577""
","""event"",""trial"",""time""
""focus"",""110"",""854585""
","""event"",""trial"",""time""
""fullscreenenter"",""1"",""2763""
","""event"",""trial"",""time""
""fullscreenexit"",""110"",""854582""
","","","-1","","","14","15151","4921","p","elianto","#3366ff99","-1","-1","1","+10","[]","0","2","","","15151","76","4","2","win","no-go","0"
"pit-trial","195","1254224","0.0-81.0","battery-v0.2","","""event"",""trial"",""time""
""fullscreenenter"",""1"",""2763""
""blur"",""110"",""854577""
""fullscreenexit"",""110"",""854582""
""focus"",""110"",""854585""
","""event"",""trial"",""time""
""blur"",""110"",""854577""
","""event"",""trial"",""time""
""focus"",""110"",""854585""
","""event"",""trial"",""time""
""fullscreenenter"",""1"",""2763""
","""event"",""trial"",""time""
""fullscreenexit"",""110"",""854582""
","","","1545.7999999523163","","","14","15151","4921","w","elianto","#f73b6a7A","-1"," ","0","0","[2396.199999809265]","1","2","","","15151","77","6","4","lose","no-go","1"
"pit-trial","196","1259077","0.0-82.0","battery-v0.2","","""event"",""trial"",""time""
""fullscreenenter"",""1"",""2763""
""blur"",""110"",""854577""
""fullscreenexit"",""110"",""854582""
""focus"",""110"",""854585""
","""event"",""trial"",""time""
""blur"",""110"",""854577""
","""event"",""trial"",""time""
""focus"",""110"",""854585""
","""event"",""trial"",""time""
""fullscreenenter"",""1"",""2763""
","""event"",""trial"",""time""
""fullscreenexit"",""110"",""854582""
","","","-1","","","14","15151","4921","p","elianto","#3366ff99","-1","-1","1","+10","[]","0","2","","","15151","78","4","2","win","no-go","0"
"pit-trial","197","1263566","0.0-83.0","battery-v0.2","","""event"",""trial"",""time""
""fullscreenenter"",""1"",""2763""
""blur"",""110"",""854577""
""fullscreenexit"",""110"",""854582""
""focus"",""110"",""854585""
","""event"",""trial"",""time""
""blur"",""110"",""854577""
","""event"",""trial"",""time""
""focus"",""110"",""854585""
","""event"",""trial"",""time""
""fullscreenenter"",""1"",""2763""
","""event"",""trial"",""time""
""fullscreenexit"",""110"",""854582""
","","","1636.7000000476837","","","14","15151","4921","s","elianto","#3366ff99"," "," ","1","+10","[2487.2000000476837]","1","2","","","15151","79","5","1","win","go","0"
"pit-trial","198","1267480","0.0-84.0","battery-v0.2","","""event"",""trial"",""time""
""fullscreenenter"",""1"",""2763""
""blur"",""110"",""854577""
""fullscreenexit"",""110"",""854582""
""focus"",""110"",""854585""
","""event"",""trial"",""time""
""blur"",""110"",""854577""
","""event"",""trial"",""time""
""focus"",""110"",""854585""
","""event"",""trial"",""time""
""fullscreenenter"",""1"",""2763""
","""event"",""trial"",""time""
""fullscreenexit"",""110"",""854582""
","","","1061","","","14","15151","4921","g","elianto","#f73b6a7A"," "," ","1","0","[1911.9000000953674]","1","2","","","15151","80","3","3","lose","go","0"
