"trial_type","trial_index","time_elapsed","internal_node_id","task_version","subject_id","interactions","blur_events","focus_events","fullscreenenter_events","fullscreenexit_events","success","view_history","rt","responses","num_errors","age","subject","participantId","rune","rune_set","hex","correct","choice","accuracy","outcome","keys","total_keys","block","practice","value","sub","trial","stimulus","robot","valence","action","sham"
"pavlovia","0","6","0.0-0.0","battery-v0.2","","""event"",""trial"",""time""
""fullscreenenter"",""1"",""4432""
","
","
","""event"",""trial"",""time""
""fullscreenenter"",""1"",""4432""
","
","","","","","","","","","","","","","","","","","","","","","","","","","","",""
"fullscreen","1","5426","0.0-1.0","battery-v0.2","","""event"",""trial"",""time""
""fullscreenenter"",""1"",""4432""
""blur"",""2"",""14369""
""focus"",""2"",""28815""
","""event"",""trial"",""time""
""blur"",""2"",""14369""
","""event"",""trial"",""time""
""focus"",""2"",""28815""
","""event"",""trial"",""time""
""fullscreenenter"",""1"",""4432""
","
","true","","","","","","","","","","","","","","","","","","","","","","","","","",""
"pit-instructions","2","28918","0.0-2.0-0.0","battery-v0.2","","""event"",""trial"",""time""
""fullscreenenter"",""1"",""4432""
""blur"",""2"",""14369""
""focus"",""2"",""28815""
","""event"",""trial"",""time""
""blur"",""2"",""14369""
","""event"",""trial"",""time""
""focus"",""2"",""28815""
","""event"",""trial"",""time""
""fullscreenenter"",""1"",""4432""
","
","","[{""page_index"":0,""viewing_time"":23489.20000000298}]","23489.5","","","","","","","","","","","","","","","","","","","","","","","",""
"pit-comprehension","3","31513","0.0-2.0-1.0-0.0","battery-v0.2","","""event"",""trial"",""time""
""fullscreenenter"",""1"",""4432""
""blur"",""2"",""14369""
""focus"",""2"",""28815""
","""event"",""trial"",""time""
""blur"",""2"",""14369""
","""event"",""trial"",""time""
""focus"",""2"",""28815""
","""event"",""trial"",""time""
""fullscreenenter"",""1"",""4432""
","
","","","2592.2000000029802","[""shark""]","0","21","10383","4893","","","","","","","","","","","","","","","","","","",""
"pit-instructions","4","32766","0.0-2.0-1.0-1.0","battery-v0.2","","""event"",""trial"",""time""
""fullscreenenter"",""1"",""4432""
""blur"",""2"",""14369""
""focus"",""2"",""28815""
","""event"",""trial"",""time""
""blur"",""2"",""14369""
","""event"",""trial"",""time""
""focus"",""2"",""28815""
","""event"",""trial"",""time""
""fullscreenenter"",""1"",""4432""
","
","","[{""page_index"":0,""viewing_time"":1246.6000000089407}]","1246.7999999970198","","","","","","","","","","","","","","","","","","","","","","","",""
"pit-comprehension","5","35181","0.0-2.0-2.0-0.0","battery-v0.2","","""event"",""trial"",""time""
""fullscreenenter"",""1"",""4432""
""blur"",""2"",""14369""
""focus"",""2"",""28815""
","""event"",""trial"",""time""
""blur"",""2"",""14369""
","""event"",""trial"",""time""
""focus"",""2"",""28815""
","""event"",""trial"",""time""
""fullscreenenter"",""1"",""4432""
","
","","","2412.7999999970198","[""tiger""]","0","21","10383","4893","","","","","","","","","","","","","","","","","","",""
"pit-instructions","6","36554","0.0-2.0-2.0-1.0","battery-v0.2","","""event"",""trial"",""time""
""fullscreenenter"",""1"",""4432""
""blur"",""2"",""14369""
""focus"",""2"",""28815""
","""event"",""trial"",""time""
""blur"",""2"",""14369""
","""event"",""trial"",""time""
""focus"",""2"",""28815""
","""event"",""trial"",""time""
""fullscreenenter"",""1"",""4432""
","
","","[{""page_index"":0,""viewing_time"":1370.300000011921}]","1370.7000000029802","","","","","","","","","","","","","","","","","","","","","","","",""
"pit-instructions","7","142285","0.0-2.0-3.0","battery-v0.2","","""event"",""trial"",""time""
""fullscreenenter"",""1"",""4432""
""blur"",""2"",""14369""
""focus"",""2"",""28815""
","""event"",""trial"",""time""
""blur"",""2"",""14369""
","""event"",""trial"",""time""
""focus"",""2"",""28815""
","""event"",""trial"",""time""
""fullscreenenter"",""1"",""4432""
","
","","[{""page_index"":0,""viewing_time"":14564.20000000298},{""page_index"":1,""viewing_time"":6331.9000000059605},{""page_index"":2,""viewing_time"":7282.699999988079},{""page_index"":3,""viewing_time"":5385.4000000059605},{""page_index"":4,""viewing_time"":5938},{""page_index"":5,""viewing_time"":7426.0999999940395},{""page_index"":6,""viewing_time"":9373.90000000596},{""page_index"":7,""viewing_time"":6360},{""page_index"":8,""viewing_time"":6587.79999999702},{""page_index"":9,""viewing_time"":10162.20000000298},{""page_index"":10,""viewing_time"":7257.9000000059605},{""page_index"":11,""viewing_time"":6851.29999999702},{""page_index"":12,""viewing_time"":6095.899999991059},{""page_index"":13,""viewing_time"":6112.20000000298}]","105730","","","","","","","","","","","","","","","","","","","","","","","",""
"pit-trial","8","145682","0.0-2.0-4.0-0.0","battery-v0.2","","""event"",""trial"",""time""
""fullscreenenter"",""1"",""4432""
""blur"",""2"",""14369""
""focus"",""2"",""28815""
","""event"",""trial"",""time""
""blur"",""2"",""14369""
","""event"",""trial"",""time""
""focus"",""2"",""28815""
","""event"",""trial"",""time""
""fullscreenenter"",""1"",""4432""
","
","","","536.2000000029802","","","21","10383","4893","&#9784;","elianto","#FFFFF080"," "," ","1","&#10004","[1390.0999999940395]","1","0","0","","","","","","","",""
"pit-trial","9","149036","0.0-2.0-4.1-0.1","battery-v0.2","","""event"",""trial"",""time""
""fullscreenenter"",""1"",""4432""
""blur"",""2"",""14369""
""focus"",""2"",""28815""
","""event"",""trial"",""time""
""blur"",""2"",""14369""
","""event"",""trial"",""time""
""focus"",""2"",""28815""
","""event"",""trial"",""time""
""fullscreenenter"",""1"",""4432""
","
","","","478.69999998807907","","","21","10383","4893","&#9784;","elianto","#FFFFF080"," "," ","1","&#10004","[1337.0999999940395]","1","0","0","","","","","","","",""
"pit-trial","10","152410","0.0-2.0-4.2-0.2","battery-v0.2","","""event"",""trial"",""time""
""fullscreenenter"",""1"",""4432""
""blur"",""2"",""14369""
""focus"",""2"",""28815""
","""event"",""trial"",""time""
""blur"",""2"",""14369""
","""event"",""trial"",""time""
""focus"",""2"",""28815""
","""event"",""trial"",""time""
""fullscreenenter"",""1"",""4432""
","
","","","499.1000000089407","","","21","10383","4893","&#9784;","elianto","#FFFFF080"," "," ","1","&#10004","[1359.5]","1","0","0","","","","","","","",""
"pit-trial","11","155740","0.0-2.0-4.3-0.3","battery-v0.2","","""event"",""trial"",""time""
""fullscreenenter"",""1"",""4432""
""blur"",""2"",""14369""
""focus"",""2"",""28815""
","""event"",""trial"",""time""
""blur"",""2"",""14369""
","""event"",""trial"",""time""
""focus"",""2"",""28815""
","""event"",""trial"",""time""
""fullscreenenter"",""1"",""4432""
","
","","","453","","","21","10383","4893","&#9784;","elianto","#FFFFF080"," "," ","1","&#10004","[1314.7999999970198]","1","0","0","","","","","","","",""
"pit-trial","12","159177","0.0-2.0-4.4-0.4","battery-v0.2","","""event"",""trial"",""time""
""fullscreenenter"",""1"",""4432""
""blur"",""2"",""14369""
""focus"",""2"",""28815""
","""event"",""trial"",""time""
""blur"",""2"",""14369""
","""event"",""trial"",""time""
""focus"",""2"",""28815""
","""event"",""trial"",""time""
""fullscreenenter"",""1"",""4432""
","
","","","567.3999999910593","","","21","10383","4893","&#9784;","elianto","#FFFFF080"," "," ","1","&#10004","[1423.4000000059605]","1","0","0","","","","","","","",""
"pit-instructions","13","185502","0.0-2.0-5.0","battery-v0.2","","""event"",""trial"",""time""
""fullscreenenter"",""1"",""4432""
""blur"",""2"",""14369""
""focus"",""2"",""28815""
","""event"",""trial"",""time""
""blur"",""2"",""14369""
","""event"",""trial"",""time""
""focus"",""2"",""28815""
","""event"",""trial"",""time""
""fullscreenenter"",""1"",""4432""
","
","","[{""page_index"":0,""viewing_time"":10447.10000000894},{""page_index"":1,""viewing_time"":5211.899999991059},{""page_index"":2,""viewing_time"":4508.4000000059605},{""page_index"":3,""viewing_time"":6156.0999999940395}]","26323.70000000298","","","","","","","","","","","","","","","","","","","","","","","",""
"pit-trial","14","190372","0.0-2.0-6.0-0.0","battery-v0.2","","""event"",""trial"",""time""
""fullscreenenter"",""1"",""4432""
""blur"",""2"",""14369""
""focus"",""2"",""28815""
","""event"",""trial"",""time""
""blur"",""2"",""14369""
","""event"",""trial"",""time""
""focus"",""2"",""28815""
","""event"",""trial"",""time""
""fullscreenenter"",""1"",""4432""
","
","","","-1","","","21","10383","4893","&#9854;","elianto","#FFFFF080","-1","-1","1","&#10004","[]","0","0","1","","","","","","","",""
"pit-trial","15","193858","0.0-2.0-6.1-0.1","battery-v0.2","","""event"",""trial"",""time""
""fullscreenenter"",""1"",""4432""
""blur"",""2"",""14369""
""focus"",""2"",""28815""
","""event"",""trial"",""time""
""blur"",""2"",""14369""
","""event"",""trial"",""time""
""focus"",""2"",""28815""
","""event"",""trial"",""time""
""fullscreenenter"",""1"",""4432""
","
","","","629.2000000029802","","","21","10383","4893","&#9854;","elianto","#FFFFF080","-1"," ","0","&#10060","[1480.7000000029802]","1","0","1","","","","","","","",""
"pit-trial","16","198732","0.0-2.0-6.2-0.2","battery-v0.2","","""event"",""trial"",""time""
""fullscreenenter"",""1"",""4432""
""blur"",""2"",""14369""
""focus"",""2"",""28815""
","""event"",""trial"",""time""
""blur"",""2"",""14369""
","""event"",""trial"",""time""
""focus"",""2"",""28815""
","""event"",""trial"",""time""
""fullscreenenter"",""1"",""4432""
","
","","","-1","","","21","10383","4893","&#9854;","elianto","#FFFFF080","-1","-1","1","&#10004","[]","0","0","1","","","","","","","",""
"pit-trial","17","203598","0.0-2.0-6.3-0.3","battery-v0.2","","""event"",""trial"",""time""
""fullscreenenter"",""1"",""4432""
""blur"",""2"",""14369""
""focus"",""2"",""28815""
","""event"",""trial"",""time""
""blur"",""2"",""14369""
","""event"",""trial"",""time""
""focus"",""2"",""28815""
","""event"",""trial"",""time""
""fullscreenenter"",""1"",""4432""
","
","","","-1","","","21","10383","4893","&#9854;","elianto","#FFFFF080","-1","-1","1","&#10004","[]","0","0","1","","","","","","","",""
"pit-trial","18","208451","0.0-2.0-6.4-0.4","battery-v0.2","","""event"",""trial"",""time""
""fullscreenenter"",""1"",""4432""
""blur"",""2"",""14369""
""focus"",""2"",""28815""
","""event"",""trial"",""time""
""blur"",""2"",""14369""
","""event"",""trial"",""time""
""focus"",""2"",""28815""
","""event"",""trial"",""time""
""fullscreenenter"",""1"",""4432""
","
","","","-1","","","21","10383","4893","&#9854;","elianto","#FFFFF080","-1","-1","1","&#10004","[]","0","0","1","","","","","","","",""
"pit-instructions","19","337226","0.0-2.0-7.0","battery-v0.2","","""event"",""trial"",""time""
""fullscreenenter"",""1"",""4432""
""blur"",""2"",""14369""
""focus"",""2"",""28815""
","""event"",""trial"",""time""
""blur"",""2"",""14369""
","""event"",""trial"",""time""
""focus"",""2"",""28815""
","""event"",""trial"",""time""
""fullscreenenter"",""1"",""4432""
","
","","[{""page_index"":0,""viewing_time"":6143.199999988079},{""page_index"":1,""viewing_time"":8082.800000011921},{""page_index"":2,""viewing_time"":7373},{""page_index"":3,""viewing_time"":6864.29999999702},{""page_index"":4,""viewing_time"":5189.899999991059},{""page_index"":5,""viewing_time"":5922.9000000059605},{""page_index"":6,""viewing_time"":4683.79999999702},{""page_index"":7,""viewing_time"":7579.29999999702},{""page_index"":8,""viewing_time"":8938.10000000894},{""page_index"":9,""viewing_time"":7040.20000000298},{""page_index"":10,""viewing_time"":7325.899999991059},{""page_index"":11,""viewing_time"":6977.9000000059605},{""page_index"":12,""viewing_time"":8388.09999999404},{""page_index"":13,""viewing_time"":7975.9000000059605},{""page_index"":14,""viewing_time"":8393.79999999702},{""page_index"":15,""viewing_time"":7706.29999999702},{""page_index"":16,""viewing_time"":6922.100000008941},{""page_index"":17,""viewing_time"":7265.899999991059}]","128773.69999998808","","","","","","","","","","","","","","","","","","","","","","","",""
"pit-trial","20","340654","0.0-2.0-8.0-0.0","battery-v0.2","","""event"",""trial"",""time""
""fullscreenenter"",""1"",""4432""
""blur"",""2"",""14369""
""focus"",""2"",""28815""
","""event"",""trial"",""time""
""blur"",""2"",""14369""
","""event"",""trial"",""time""
""focus"",""2"",""28815""
","""event"",""trial"",""time""
""fullscreenenter"",""1"",""4432""
","
","","","558.7999999970198","","","21","10383","4893","&#9776;","elianto","#3366ff99"," "," ","1","+10","[1410.7999999970198]","1","0","1","","","","","","","",""
"pit-trial","21","343990","0.0-2.0-8.0-1.0","battery-v0.2","","""event"",""trial"",""time""
""fullscreenenter"",""1"",""4432""
""blur"",""2"",""14369""
""focus"",""2"",""28815""
","""event"",""trial"",""time""
""blur"",""2"",""14369""
","""event"",""trial"",""time""
""focus"",""2"",""28815""
","""event"",""trial"",""time""
""fullscreenenter"",""1"",""4432""
","
","","","473.29999999701977","","","21","10383","4893","&#9776;","elianto","#3366ff99"," "," ","1","+10","[1325.6000000089407]","1","0","1","","","","","","","",""
"pit-trial","22","347307","0.0-2.0-8.0-2.0","battery-v0.2","","""event"",""trial"",""time""
""fullscreenenter"",""1"",""4432""
""blur"",""2"",""14369""
""focus"",""2"",""28815""
","""event"",""trial"",""time""
""blur"",""2"",""14369""
","""event"",""trial"",""time""
""focus"",""2"",""28815""
","""event"",""trial"",""time""
""fullscreenenter"",""1"",""4432""
","
","","","441.70000000298023","","","21","10383","4893","&#9776;","elianto","#3366ff99"," "," ","1","+10","[1301.9000000059605]","1","0","1","","","","","","","",""
"pit-trial","23","350649","0.0-2.0-8.0-3.0","battery-v0.2","","""event"",""trial"",""time""
""fullscreenenter"",""1"",""4432""
""blur"",""2"",""14369""
""focus"",""2"",""28815""
","""event"",""trial"",""time""
""blur"",""2"",""14369""
","""event"",""trial"",""time""
""focus"",""2"",""28815""
","""event"",""trial"",""time""
""fullscreenenter"",""1"",""4432""
","
","","","474.79999999701977","","","21","10383","4893","&#9776;","elianto","#3366ff99"," "," ","1","0","[1329]","1","0","1","","","","","","","",""
"pit-trial","24","354024","0.0-2.0-8.0-4.0","battery-v0.2","","""event"",""trial"",""time""
""fullscreenenter"",""1"",""4432""
""blur"",""2"",""14369""
""focus"",""2"",""28815""
","""event"",""trial"",""time""
""blur"",""2"",""14369""
","""event"",""trial"",""time""
""focus"",""2"",""28815""
","""event"",""trial"",""time""
""fullscreenenter"",""1"",""4432""
","
","","","505.29999999701977","","","21","10383","4893","&#9776;","elianto","#3366ff99"," "," ","1","+10","[1363.6000000089407]","1","0","1","","","","","","","",""
"pit-trial","25","357366","0.0-2.0-8.1-0.1","battery-v0.2","","""event"",""trial"",""time""
""fullscreenenter"",""1"",""4432""
""blur"",""2"",""14369""
""focus"",""2"",""28815""
","""event"",""trial"",""time""
""blur"",""2"",""14369""
","""event"",""trial"",""time""
""focus"",""2"",""28815""
","""event"",""trial"",""time""
""fullscreenenter"",""1"",""4432""
","
","","","481","","","21","10383","4893","&#9776;","elianto","#3366ff99"," "," ","1","+10","[1331.199999988079]","1","0","1","","","","","","","",""
"pit-trial","26","360719","0.0-2.0-8.1-1.1","battery-v0.2","","""event"",""trial"",""time""
""fullscreenenter"",""1"",""4432""
""blur"",""2"",""14369""
""focus"",""2"",""28815""
","""event"",""trial"",""time""
""blur"",""2"",""14369""
","""event"",""trial"",""time""
""focus"",""2"",""28815""
","""event"",""trial"",""time""
""fullscreenenter"",""1"",""4432""
","
","","","499.19999998807907","","","21","10383","4893","&#9776;","elianto","#3366ff99"," "," ","1","+10","[1350.0999999940395]","1","0","1","","","","","","","",""
"pit-trial","27","364055","0.0-2.0-8.1-2.1","battery-v0.2","","""event"",""trial"",""time""
""fullscreenenter"",""1"",""4432""
""blur"",""2"",""14369""
""focus"",""2"",""28815""
","""event"",""trial"",""time""
""blur"",""2"",""14369""
","""event"",""trial"",""time""
""focus"",""2"",""28815""
","""event"",""trial"",""time""
""fullscreenenter"",""1"",""4432""
","
","","","462.6000000089407","","","21","10383","4893","&#9776;","elianto","#3366ff99"," "," ","1","+10","[1326.7000000029802]","1","0","1","","","","","","","",""
"pit-trial","28","367407","0.0-2.0-8.1-3.1","battery-v0.2","","""event"",""trial"",""time""
""fullscreenenter"",""1"",""4432""
""blur"",""2"",""14369""
""focus"",""2"",""28815""
","""event"",""trial"",""time""
""blur"",""2"",""14369""
","""event"",""trial"",""time""
""focus"",""2"",""28815""
","""event"",""trial"",""time""
""fullscreenenter"",""1"",""4432""
","
","","","496","","","21","10383","4893","&#9776;","elianto","#3366ff99"," "," ","1","0","[1348.7999999970198]","1","0","1","","","","","","","",""
"pit-trial","29","370766","0.0-2.0-8.1-4.1","battery-v0.2","","""event"",""trial"",""time""
""fullscreenenter"",""1"",""4432""
""blur"",""2"",""14369""
""focus"",""2"",""28815""
","""event"",""trial"",""time""
""blur"",""2"",""14369""
","""event"",""trial"",""time""
""focus"",""2"",""28815""
","""event"",""trial"",""time""
""fullscreenenter"",""1"",""4432""
","
","","","506.70000000298023","","","21","10383","4893","&#9776;","elianto","#3366ff99"," "," ","1","+10","[1357.5]","1","0","1","","","","","","","",""
"pit-trial","30","374112","0.0-2.0-8.2-0.2","battery-v0.2","","""event"",""trial"",""time""
""fullscreenenter"",""1"",""4432""
""blur"",""2"",""14369""
""focus"",""2"",""28815""
","""event"",""trial"",""time""
""blur"",""2"",""14369""
","""event"",""trial"",""time""
""focus"",""2"",""28815""
","""event"",""trial"",""time""
""fullscreenenter"",""1"",""4432""
","
","","","492.40000000596046","","","21","10383","4893","&#9776;","elianto","#3366ff99"," "," ","1","+10","[1343.4000000059605]","1","0","1","","","","","","","",""
"pit-trial","31","377471","0.0-2.0-8.2-1.2","battery-v0.2","","""event"",""trial"",""time""
""fullscreenenter"",""1"",""4432""
""blur"",""2"",""14369""
""focus"",""2"",""28815""
","""event"",""trial"",""time""
""blur"",""2"",""14369""
","""event"",""trial"",""time""
""focus"",""2"",""28815""
","""event"",""trial"",""time""
""fullscreenenter"",""1"",""4432""
","
","","","505.70000000298023","","","21","10383","4893","&#9776;","elianto","#3366ff99"," "," ","1","+10","[1356.3999999910593]","1","0","1","","","","","","","",""
"pit-trial","32","381151","0.0-2.0-8.2-2.2","battery-v0.2","","""event"",""trial"",""time""
""fullscreenenter"",""1"",""4432""
""blur"",""2"",""14369""
""focus"",""2"",""28815""
","""event"",""trial"",""time""
""blur"",""2"",""14369""
","""event"",""trial"",""time""
""focus"",""2"",""28815""
","""event"",""trial"",""time""
""fullscreenenter"",""1"",""4432""
","
","","","826.5","","","21","10383","4893","&#9776;","elianto","#3366ff99"," "," ","1","+10","[1677.4000000059605]","1","0","1","","","","","","","",""
"pit-trial","33","384490","0.0-2.0-8.2-3.2","battery-v0.2","","""event"",""trial"",""time""
""fullscreenenter"",""1"",""4432""
""blur"",""2"",""14369""
""focus"",""2"",""28815""
","""event"",""trial"",""time""
""blur"",""2"",""14369""
","""event"",""trial"",""time""
""focus"",""2"",""28815""
","""event"",""trial"",""time""
""fullscreenenter"",""1"",""4432""
","
","","","475.79999999701977","","","21","10383","4893","&#9776;","elianto","#3366ff99"," "," ","1","0","[1326.0999999940395]","1","0","1","","","","","","","",""
"pit-trial","34","387630","0.0-2.0-8.2-4.2","battery-v0.2","","""event"",""trial"",""time""
""fullscreenenter"",""1"",""4432""
""blur"",""2"",""14369""
""focus"",""2"",""28815""
","""event"",""trial"",""time""
""blur"",""2"",""14369""
","""event"",""trial"",""time""
""focus"",""2"",""28815""
","""event"",""trial"",""time""
""fullscreenenter"",""1"",""4432""
","
","","","287.69999998807907","","","21","10383","4893","&#9776;","elianto","#3366ff99"," "," ","1","+10","[1139]","1","0","1","","","","","","","",""
"call-function","35","387631","0.0-2.0-9.0","battery-v0.2","","""event"",""trial"",""time""
""fullscreenenter"",""1"",""4432""
""blur"",""2"",""14369""
""focus"",""2"",""28815""
","""event"",""trial"",""time""
""blur"",""2"",""14369""
","""event"",""trial"",""time""
""focus"",""2"",""28815""
","""event"",""trial"",""time""
""fullscreenenter"",""1"",""4432""
","
","","","","","","","","","","","","","","","","","","","","","","","","","","",""
"pit-instructions","36","427105","0.0-2.0-10.0","battery-v0.2","","""event"",""trial"",""time""
""fullscreenenter"",""1"",""4432""
""blur"",""2"",""14369""
""focus"",""2"",""28815""
","""event"",""trial"",""time""
""blur"",""2"",""14369""
","""event"",""trial"",""time""
""focus"",""2"",""28815""
","""event"",""trial"",""time""
""fullscreenenter"",""1"",""4432""
","
","","[{""page_index"":0,""viewing_time"":6716.29999999702},{""page_index"":1,""viewing_time"":6740},{""page_index"":2,""viewing_time"":10264.10000000894},{""page_index"":3,""viewing_time"":8354.199999988079},{""page_index"":4,""viewing_time"":7398.100000008941}]","39473.09999999404","","","","","","","","","","","","","","","","","","","","","","","",""
"pit-trial","37","431976","0.0-2.0-11.0-0.0","battery-v0.2","","""event"",""trial"",""time""
""fullscreenenter"",""1"",""4432""
""blur"",""2"",""14369""
""focus"",""2"",""28815""
","""event"",""trial"",""time""
""blur"",""2"",""14369""
","""event"",""trial"",""time""
""focus"",""2"",""28815""
","""event"",""trial"",""time""
""fullscreenenter"",""1"",""4432""
","
","","","-1","","","21","10383","4893","&#9761;","elianto","#3366ff99","-1","-1","1","+10","[]","0","0","2","","","","","","","",""
"pit-trial","38","436844","0.0-2.0-11.0-1.0","battery-v0.2","","""event"",""trial"",""time""
""fullscreenenter"",""1"",""4432""
""blur"",""2"",""14369""
""focus"",""2"",""28815""
","""event"",""trial"",""time""
""blur"",""2"",""14369""
","""event"",""trial"",""time""
""focus"",""2"",""28815""
","""event"",""trial"",""time""
""fullscreenenter"",""1"",""4432""
","
","","","-1","","","21","10383","4893","&#9761;","elianto","#3366ff99","-1","-1","1","+10","[]","0","0","2","","","","","","","",""
"pit-trial","39","441707","0.0-2.0-11.0-2.0","battery-v0.2","","""event"",""trial"",""time""
""fullscreenenter"",""1"",""4432""
""blur"",""2"",""14369""
""focus"",""2"",""28815""
","""event"",""trial"",""time""
""blur"",""2"",""14369""
","""event"",""trial"",""time""
""focus"",""2"",""28815""
","""event"",""trial"",""time""
""fullscreenenter"",""1"",""4432""
","
","","","-1","","","21","10383","4893","&#9761;","elianto","#3366ff99","-1","-1","1","+10","[]","0","0","2","","","","","","","",""
"pit-trial","40","446582","0.0-2.0-11.0-3.0","battery-v0.2","","""event"",""trial"",""time""
""fullscreenenter"",""1"",""4432""
""blur"",""2"",""14369""
""focus"",""2"",""28815""
","""event"",""trial"",""time""
""blur"",""2"",""14369""
","""event"",""trial"",""time""
""focus"",""2"",""28815""
","""event"",""trial"",""time""
""fullscreenenter"",""1"",""4432""
","
","","","-1","","","21","10383","4893","&#9761;","elianto","#3366ff99","-1","-1","1","0","[]","0","0","2","","","","","","","",""
"pit-trial","41","451453","0.0-2.0-11.0-4.0","battery-v0.2","","""event"",""trial"",""time""
""fullscreenenter"",""1"",""4432""
""blur"",""2"",""14369""
""focus"",""2"",""28815""
","""event"",""trial"",""time""
""blur"",""2"",""14369""
","""event"",""trial"",""time""
""focus"",""2"",""28815""
","""event"",""trial"",""time""
""fullscreenenter"",""1"",""4432""
","
","","","-1","","","21","10383","4893","&#9761;","elianto","#3366ff99","-1","-1","1","+10","[]","0","0","2","","","","","","","",""
"pit-trial","42","456321","0.0-2.0-11.1-0.1","battery-v0.2","","""event"",""trial"",""time""
""fullscreenenter"",""1"",""4432""
""blur"",""2"",""14369""
""focus"",""2"",""28815""
","""event"",""trial"",""time""
""blur"",""2"",""14369""
","""event"",""trial"",""time""
""focus"",""2"",""28815""
","""event"",""trial"",""time""
""fullscreenenter"",""1"",""4432""
","
","","","-1","","","21","10383","4893","&#9761;","elianto","#3366ff99","-1","-1","1","+10","[]","0","0","2","","","","","","","",""
"pit-trial","43","461175","0.0-2.0-11.1-1.1","battery-v0.2","","""event"",""trial"",""time""
""fullscreenenter"",""1"",""4432""
""blur"",""2"",""14369""
""focus"",""2"",""28815""
","""event"",""trial"",""time""
""blur"",""2"",""14369""
","""event"",""trial"",""time""
""focus"",""2"",""28815""
","""event"",""trial"",""time""
""fullscreenenter"",""1"",""4432""
","
","","","-1","","","21","10383","4893","&#9761;","elianto","#3366ff99","-1","-1","1","+10","[]","0","0","2","","","","","","","",""
"pit-trial","44","466028","0.0-2.0-11.1-2.1","battery-v0.2","","""event"",""trial"",""time""
""fullscreenenter"",""1"",""4432""
""blur"",""2"",""14369""
""focus"",""2"",""28815""
","""event"",""trial"",""time""
""blur"",""2"",""14369""
","""event"",""trial"",""time""
""focus"",""2"",""28815""
","""event"",""trial"",""time""
""fullscreenenter"",""1"",""4432""
","
","","","-1","","","21","10383","4893","&#9761;","elianto","#3366ff99","-1","-1","1","+10","[]","0","0","2","","","","","","","",""
"pit-trial","45","470881","0.0-2.0-11.1-3.1","battery-v0.2","","""event"",""trial"",""time""
""fullscreenenter"",""1"",""4432""
""blur"",""2"",""14369""
""focus"",""2"",""28815""
","""event"",""trial"",""time""
""blur"",""2"",""14369""
","""event"",""trial"",""time""
""focus"",""2"",""28815""
","""event"",""trial"",""time""
""fullscreenenter"",""1"",""4432""
","
","","","-1","","","21","10383","4893","&#9761;","elianto","#3366ff99","-1","-1","1","0","[]","0","0","2","","","","","","","",""
"pit-trial","46","475734","0.0-2.0-11.1-4.1","battery-v0.2","","""event"",""trial"",""time""
""fullscreenenter"",""1"",""4432""
""blur"",""2"",""14369""
""focus"",""2"",""28815""
","""event"",""trial"",""time""
""blur"",""2"",""14369""
","""event"",""trial"",""time""
""focus"",""2"",""28815""
","""event"",""trial"",""time""
""fullscreenenter"",""1"",""4432""
","
","","","-1","","","21","10383","4893","&#9761;","elianto","#3366ff99","-1","-1","1","+10","[]","0","0","2","","","","","","","",""
"pit-trial","47","480588","0.0-2.0-11.2-0.2","battery-v0.2","","""event"",""trial"",""time""
""fullscreenenter"",""1"",""4432""
""blur"",""2"",""14369""
""focus"",""2"",""28815""
","""event"",""trial"",""time""
""blur"",""2"",""14369""
","""event"",""trial"",""time""
""focus"",""2"",""28815""
","""event"",""trial"",""time""
""fullscreenenter"",""1"",""4432""
","
","","","-1","","","21","10383","4893","&#9761;","elianto","#3366ff99","-1","-1","1","+10","[]","0","0","2","","","","","","","",""
"pit-trial","48","485442","0.0-2.0-11.2-1.2","battery-v0.2","","""event"",""trial"",""time""
""fullscreenenter"",""1"",""4432""
""blur"",""2"",""14369""
""focus"",""2"",""28815""
","""event"",""trial"",""time""
""blur"",""2"",""14369""
","""event"",""trial"",""time""
""focus"",""2"",""28815""
","""event"",""trial"",""time""
""fullscreenenter"",""1"",""4432""
","
","","","-1","","","21","10383","4893","&#9761;","elianto","#3366ff99","-1","-1","1","+10","[]","0","0","2","","","","","","","",""
"pit-trial","49","490296","0.0-2.0-11.2-2.2","battery-v0.2","","""event"",""trial"",""time""
""fullscreenenter"",""1"",""4432""
""blur"",""2"",""14369""
""focus"",""2"",""28815""
","""event"",""trial"",""time""
""blur"",""2"",""14369""
","""event"",""trial"",""time""
""focus"",""2"",""28815""
","""event"",""trial"",""time""
""fullscreenenter"",""1"",""4432""
","
","","","-1","","","21","10383","4893","&#9761;","elianto","#3366ff99","-1","-1","1","+10","[]","0","0","2","","","","","","","",""
"pit-trial","50","495151","0.0-2.0-11.2-3.2","battery-v0.2","","""event"",""trial"",""time""
""fullscreenenter"",""1"",""4432""
""blur"",""2"",""14369""
""focus"",""2"",""28815""
","""event"",""trial"",""time""
""blur"",""2"",""14369""
","""event"",""trial"",""time""
""focus"",""2"",""28815""
","""event"",""trial"",""time""
""fullscreenenter"",""1"",""4432""
","
","","","-1","","","21","10383","4893","&#9761;","elianto","#3366ff99","-1","-1","1","0","[]","0","0","2","","","","","","","",""
"pit-trial","51","500002","0.0-2.0-11.2-4.2","battery-v0.2","","""event"",""trial"",""time""
""fullscreenenter"",""1"",""4432""
""blur"",""2"",""14369""
""focus"",""2"",""28815""
","""event"",""trial"",""time""
""blur"",""2"",""14369""
","""event"",""trial"",""time""
""focus"",""2"",""28815""
","""event"",""trial"",""time""
""fullscreenenter"",""1"",""4432""
","
","","","-1","","","21","10383","4893","&#9761;","elianto","#3366ff99","-1","-1","1","+10","[]","0","0","2","","","","","","","",""
"pit-trial","52","504855","0.0-2.0-11.3-0.3","battery-v0.2","","""event"",""trial"",""time""
""fullscreenenter"",""1"",""4432""
""blur"",""2"",""14369""
""focus"",""2"",""28815""
","""event"",""trial"",""time""
""blur"",""2"",""14369""
","""event"",""trial"",""time""
""focus"",""2"",""28815""
","""event"",""trial"",""time""
""fullscreenenter"",""1"",""4432""
","
","","","-1","","","21","10383","4893","&#9761;","elianto","#3366ff99","-1","-1","1","+10","[]","0","0","2","","","","","","","",""
"pit-trial","53","509707","0.0-2.0-11.3-1.3","battery-v0.2","","""event"",""trial"",""time""
""fullscreenenter"",""1"",""4432""
""blur"",""2"",""14369""
""focus"",""2"",""28815""
","""event"",""trial"",""time""
""blur"",""2"",""14369""
","""event"",""trial"",""time""
""focus"",""2"",""28815""
","""event"",""trial"",""time""
""fullscreenenter"",""1"",""4432""
","
","","","-1","","","21","10383","4893","&#9761;","elianto","#3366ff99","-1","-1","1","+10","[]","0","0","2","","","","","","","",""
"pit-trial","54","514560","0.0-2.0-11.3-2.3","battery-v0.2","","""event"",""trial"",""time""
""fullscreenenter"",""1"",""4432""
""blur"",""2"",""14369""
""focus"",""2"",""28815""
","""event"",""trial"",""time""
""blur"",""2"",""14369""
","""event"",""trial"",""time""
""focus"",""2"",""28815""
","""event"",""trial"",""time""
""fullscreenenter"",""1"",""4432""
","
","","","-1","","","21","10383","4893","&#9761;","elianto","#3366ff99","-1","-1","1","+10","[]","0","0","2","","","","","","","",""
"pit-trial","55","519413","0.0-2.0-11.3-3.3","battery-v0.2","","""event"",""trial"",""time""
""fullscreenenter"",""1"",""4432""
""blur"",""2"",""14369""
""focus"",""2"",""28815""
","""event"",""trial"",""time""
""blur"",""2"",""14369""
","""event"",""trial"",""time""
""focus"",""2"",""28815""
","""event"",""trial"",""time""
""fullscreenenter"",""1"",""4432""
","
","","","-1","","","21","10383","4893","&#9761;","elianto","#3366ff99","-1","-1","1","0","[]","0","0","2","","","","","","","",""
"pit-trial","56","524265","0.0-2.0-11.3-4.3","battery-v0.2","","""event"",""trial"",""time""
""fullscreenenter"",""1"",""4432""
""blur"",""2"",""14369""
""focus"",""2"",""28815""
","""event"",""trial"",""time""
""blur"",""2"",""14369""
","""event"",""trial"",""time""
""focus"",""2"",""28815""
","""event"",""trial"",""time""
""fullscreenenter"",""1"",""4432""
","
","","","-1","","","21","10383","4893","&#9761;","elianto","#3366ff99","-1","-1","1","+10","[]","0","0","2","","","","","","","",""
"call-function","57","524266","0.0-2.0-12.0","battery-v0.2","","""event"",""trial"",""time""
""fullscreenenter"",""1"",""4432""
""blur"",""2"",""14369""
""focus"",""2"",""28815""
","""event"",""trial"",""time""
""blur"",""2"",""14369""
","""event"",""trial"",""time""
""focus"",""2"",""28815""
","""event"",""trial"",""time""
""fullscreenenter"",""1"",""4432""
","
","","","","","","","","","","","","","","","","","","","","","","","","","","",""
"pit-instructions","58","556442","0.0-2.0-13.0","battery-v0.2","","""event"",""trial"",""time""
""fullscreenenter"",""1"",""4432""
""blur"",""2"",""14369""
""focus"",""2"",""28815""
","""event"",""trial"",""time""
""blur"",""2"",""14369""
","""event"",""trial"",""time""
""focus"",""2"",""28815""
","""event"",""trial"",""time""
""fullscreenenter"",""1"",""4432""
","
","","[{""page_index"":0,""viewing_time"":6081.79999999702},{""page_index"":1,""viewing_time"":7113.70000000298},{""page_index"":2,""viewing_time"":3621},{""page_index"":3,""viewing_time"":10407.59999999404},{""page_index"":4,""viewing_time"":4951.5}]","32175.90000000596","","","","","","","","","","","","","","","","","","","","","","","",""
"pit-trial","59","559873","0.0-2.0-14.0-0.0","battery-v0.2","","""event"",""trial"",""time""
""fullscreenenter"",""1"",""4432""
""blur"",""2"",""14369""
""focus"",""2"",""28815""
","""event"",""trial"",""time""
""blur"",""2"",""14369""
","""event"",""trial"",""time""
""focus"",""2"",""28815""
","""event"",""trial"",""time""
""fullscreenenter"",""1"",""4432""
","
","","","570.2000000029802","","","21","10383","4893","&#9826;","elianto","#f73b6a7A","-1"," ","0","-10","[1426.0999999940395]","1","0","3","","","","","","","",""
"pit-trial","60","564751","0.0-2.0-14.0-1.0","battery-v0.2","","""event"",""trial"",""time""
""fullscreenenter"",""1"",""4432""
""blur"",""2"",""14369""
""focus"",""2"",""28815""
","""event"",""trial"",""time""
""blur"",""2"",""14369""
","""event"",""trial"",""time""
""focus"",""2"",""28815""
","""event"",""trial"",""time""
""fullscreenenter"",""1"",""4432""
","
","","","-1","","","21","10383","4893","&#9826;","elianto","#f73b6a7A","-1","-1","1","0","[]","0","0","3","","","","","","","",""
"pit-trial","61","569623","0.0-2.0-14.0-2.0","battery-v0.2","","""event"",""trial"",""time""
""fullscreenenter"",""1"",""4432""
""blur"",""2"",""14369""
""focus"",""2"",""28815""
","""event"",""trial"",""time""
""blur"",""2"",""14369""
","""event"",""trial"",""time""
""focus"",""2"",""28815""
","""event"",""trial"",""time""
""fullscreenenter"",""1"",""4432""
","
","","","-1","","","21","10383","4893","&#9826;","elianto","#f73b6a7A","-1","-1","1","0","[]","0","0","3","","","","","","","",""
"pit-trial","62","574495","0.0-2.0-14.0-3.0","battery-v0.2","","""event"",""trial"",""time""
""fullscreenenter"",""1"",""4432""
""blur"",""2"",""14369""
""focus"",""2"",""28815""
","""event"",""trial"",""time""
""blur"",""2"",""14369""
","""event"",""trial"",""time""
""focus"",""2"",""28815""
","""event"",""trial"",""time""
""fullscreenenter"",""1"",""4432""
","
","","","-1","","","21","10383","4893","&#9826;","elianto","#f73b6a7A","-1","-1","1","-10","[]","0","0","3","","","","","","","",""
"pit-trial","63","579371","0.0-2.0-14.0-4.0","battery-v0.2","","""event"",""trial"",""time""
""fullscreenenter"",""1"",""4432""
""blur"",""2"",""14369""
""focus"",""2"",""28815""
","""event"",""trial"",""time""
""blur"",""2"",""14369""
","""event"",""trial"",""time""
""focus"",""2"",""28815""
","""event"",""trial"",""time""
""fullscreenenter"",""1"",""4432""
","
","","","-1","","","21","10383","4893","&#9826;","elianto","#f73b6a7A","-1","-1","1","0","[]","0","0","3","","","","","","","",""
"pit-trial","64","584249","0.0-2.0-14.1-0.1","battery-v0.2","","""event"",""trial"",""time""
""fullscreenenter"",""1"",""4432""
""blur"",""2"",""14369""
""focus"",""2"",""28815""
","""event"",""trial"",""time""
""blur"",""2"",""14369""
","""event"",""trial"",""time""
""focus"",""2"",""28815""
","""event"",""trial"",""time""
""fullscreenenter"",""1"",""4432""
","
","","","-1","","","21","10383","4893","&#9826;","elianto","#f73b6a7A","-1","-1","1","0","[]","0","0","3","","","","","","","",""
"pit-trial","65","589102","0.0-2.0-14.1-1.1","battery-v0.2","","""event"",""trial"",""time""
""fullscreenenter"",""1"",""4432""
""blur"",""2"",""14369""
""focus"",""2"",""28815""
","""event"",""trial"",""time""
""blur"",""2"",""14369""
","""event"",""trial"",""time""
""focus"",""2"",""28815""
","""event"",""trial"",""time""
""fullscreenenter"",""1"",""4432""
","
","","","-1","","","21","10383","4893","&#9826;","elianto","#f73b6a7A","-1","-1","1","0","[]","0","0","3","","","","","","","",""
"pit-trial","66","593955","0.0-2.0-14.1-2.1","battery-v0.2","","""event"",""trial"",""time""
""fullscreenenter"",""1"",""4432""
""blur"",""2"",""14369""
""focus"",""2"",""28815""
","""event"",""trial"",""time""
""blur"",""2"",""14369""
","""event"",""trial"",""time""
""focus"",""2"",""28815""
","""event"",""trial"",""time""
""fullscreenenter"",""1"",""4432""
","
","","","-1","","","21","10383","4893","&#9826;","elianto","#f73b6a7A","-1","-1","1","0","[]","0","0","3","","","","","","","",""
"pit-trial","67","598807","0.0-2.0-14.1-3.1","battery-v0.2","","""event"",""trial"",""time""
""fullscreenenter"",""1"",""4432""
""blur"",""2"",""14369""
""focus"",""2"",""28815""
","""event"",""trial"",""time""
""blur"",""2"",""14369""
","""event"",""trial"",""time""
""focus"",""2"",""28815""
","""event"",""trial"",""time""
""fullscreenenter"",""1"",""4432""
","
","","","-1","","","21","10383","4893","&#9826;","elianto","#f73b6a7A","-1","-1","1","-10","[]","0","0","3","","","","","","","",""
"pit-trial","68","603659","0.0-2.0-14.1-4.1","battery-v0.2","","""event"",""trial"",""time""
""fullscreenenter"",""1"",""4432""
""blur"",""2"",""14369""
""focus"",""2"",""28815""
","""event"",""trial"",""time""
""blur"",""2"",""14369""
","""event"",""trial"",""time""
""focus"",""2"",""28815""
","""event"",""trial"",""time""
""fullscreenenter"",""1"",""4432""
","
","","","-1","","","21","10383","4893","&#9826;","elianto","#f73b6a7A","-1","-1","1","0","[]","0","0","3","","","","","","","",""
"pit-trial","69","608514","0.0-2.0-14.2-0.2","battery-v0.2","","""event"",""trial"",""time""
""fullscreenenter"",""1"",""4432""
""blur"",""2"",""14369""
""focus"",""2"",""28815""
","""event"",""trial"",""time""
""blur"",""2"",""14369""
","""event"",""trial"",""time""
""focus"",""2"",""28815""
","""event"",""trial"",""time""
""fullscreenenter"",""1"",""4432""
","
","","","-1","","","21","10383","4893","&#9826;","elianto","#f73b6a7A","-1","-1","1","0","[]","0","0","3","","","","","","","",""
"pit-trial","70","613368","0.0-2.0-14.2-1.2","battery-v0.2","","""event"",""trial"",""time""
""fullscreenenter"",""1"",""4432""
""blur"",""2"",""14369""
""focus"",""2"",""28815""
","""event"",""trial"",""time""
""blur"",""2"",""14369""
","""event"",""trial"",""time""
""focus"",""2"",""28815""
","""event"",""trial"",""time""
""fullscreenenter"",""1"",""4432""
","
","","","-1","","","21","10383","4893","&#9826;","elianto","#f73b6a7A","-1","-1","1","0","[]","0","0","3","","","","","","","",""
"pit-trial","71","618221","0.0-2.0-14.2-2.2","battery-v0.2","","""event"",""trial"",""time""
""fullscreenenter"",""1"",""4432""
""blur"",""2"",""14369""
""focus"",""2"",""28815""
","""event"",""trial"",""time""
""blur"",""2"",""14369""
","""event"",""trial"",""time""
""focus"",""2"",""28815""
","""event"",""trial"",""time""
""fullscreenenter"",""1"",""4432""
","
","","","-1","","","21","10383","4893","&#9826;","elianto","#f73b6a7A","-1","-1","1","0","[]","0","0","3","","","","","","","",""
"pit-trial","72","623074","0.0-2.0-14.2-3.2","battery-v0.2","","""event"",""trial"",""time""
""fullscreenenter"",""1"",""4432""
""blur"",""2"",""14369""
""focus"",""2"",""28815""
","""event"",""trial"",""time""
""blur"",""2"",""14369""
","""event"",""trial"",""time""
""focus"",""2"",""28815""
","""event"",""trial"",""time""
""fullscreenenter"",""1"",""4432""
","
","","","-1","","","21","10383","4893","&#9826;","elianto","#f73b6a7A","-1","-1","1","-10","[]","0","0","3","","","","","","","",""
"pit-trial","73","627935","0.0-2.0-14.2-4.2","battery-v0.2","","""event"",""trial"",""time""
""fullscreenenter"",""1"",""4432""
""blur"",""2"",""14369""
""focus"",""2"",""28815""
","""event"",""trial"",""time""
""blur"",""2"",""14369""
","""event"",""trial"",""time""
""focus"",""2"",""28815""
","""event"",""trial"",""time""
""fullscreenenter"",""1"",""4432""
","
","","","-1","","","21","10383","4893","&#9826;","elianto","#f73b6a7A","-1","-1","1","0","[]","0","0","3","","","","","","","",""
"pit-trial","74","632788","0.0-2.0-14.3-0.3","battery-v0.2","","""event"",""trial"",""time""
""fullscreenenter"",""1"",""4432""
""blur"",""2"",""14369""
""focus"",""2"",""28815""
","""event"",""trial"",""time""
""blur"",""2"",""14369""
","""event"",""trial"",""time""
""focus"",""2"",""28815""
","""event"",""trial"",""time""
""fullscreenenter"",""1"",""4432""
","
","","","-1","","","21","10383","4893","&#9826;","elianto","#f73b6a7A","-1","-1","1","0","[]","0","0","3","","","","","","","",""
"pit-trial","75","637640","0.0-2.0-14.3-1.3","battery-v0.2","","""event"",""trial"",""time""
""fullscreenenter"",""1"",""4432""
""blur"",""2"",""14369""
""focus"",""2"",""28815""
","""event"",""trial"",""time""
""blur"",""2"",""14369""
","""event"",""trial"",""time""
""focus"",""2"",""28815""
","""event"",""trial"",""time""
""fullscreenenter"",""1"",""4432""
","
","","","-1","","","21","10383","4893","&#9826;","elianto","#f73b6a7A","-1","-1","1","0","[]","0","0","3","","","","","","","",""
"pit-trial","76","642492","0.0-2.0-14.3-2.3","battery-v0.2","","""event"",""trial"",""time""
""fullscreenenter"",""1"",""4432""
""blur"",""2"",""14369""
""focus"",""2"",""28815""
","""event"",""trial"",""time""
""blur"",""2"",""14369""
","""event"",""trial"",""time""
""focus"",""2"",""28815""
","""event"",""trial"",""time""
""fullscreenenter"",""1"",""4432""
","
","","","-1","","","21","10383","4893","&#9826;","elianto","#f73b6a7A","-1","-1","1","0","[]","0","0","3","","","","","","","",""
"pit-trial","77","647344","0.0-2.0-14.3-3.3","battery-v0.2","","""event"",""trial"",""time""
""fullscreenenter"",""1"",""4432""
""blur"",""2"",""14369""
""focus"",""2"",""28815""
","""event"",""trial"",""time""
""blur"",""2"",""14369""
","""event"",""trial"",""time""
""focus"",""2"",""28815""
","""event"",""trial"",""time""
""fullscreenenter"",""1"",""4432""
","
","","","-1","","","21","10383","4893","&#9826;","elianto","#f73b6a7A","-1","-1","1","-10","[]","0","0","3","","","","","","","",""
"pit-trial","78","652197","0.0-2.0-14.3-4.3","battery-v0.2","","""event"",""trial"",""time""
""fullscreenenter"",""1"",""4432""
""blur"",""2"",""14369""
""focus"",""2"",""28815""
","""event"",""trial"",""time""
""blur"",""2"",""14369""
","""event"",""trial"",""time""
""focus"",""2"",""28815""
","""event"",""trial"",""time""
""fullscreenenter"",""1"",""4432""
","
","","","-1","","","21","10383","4893","&#9826;","elianto","#f73b6a7A","-1","-1","1","0","[]","0","0","3","","","","","","","",""
"call-function","79","652198","0.0-2.0-15.0","battery-v0.2","","""event"",""trial"",""time""
""fullscreenenter"",""1"",""4432""
""blur"",""2"",""14369""
""focus"",""2"",""28815""
","""event"",""trial"",""time""
""blur"",""2"",""14369""
","""event"",""trial"",""time""
""focus"",""2"",""28815""
","""event"",""trial"",""time""
""fullscreenenter"",""1"",""4432""
","
","","","","","","","","","","","","","","","","","","","","","","","","","","",""
"pit-instructions","80","677063","0.0-2.0-16.0","battery-v0.2","","""event"",""trial"",""time""
""fullscreenenter"",""1"",""4432""
""blur"",""2"",""14369""
""focus"",""2"",""28815""
","""event"",""trial"",""time""
""blur"",""2"",""14369""
","""event"",""trial"",""time""
""focus"",""2"",""28815""
","""event"",""trial"",""time""
""fullscreenenter"",""1"",""4432""
","
","","[{""page_index"":0,""viewing_time"":7330.5999999940395},{""page_index"":1,""viewing_time"":8123.70000000298},{""page_index"":2,""viewing_time"":4432},{""page_index"":3,""viewing_time"":4978.0999999940395}]","24864.69999998808","","","","","","","","","","","","","","","","","","","","","","","",""
"pit-trial","81","681058","0.0-2.0-17.0-0.0","battery-v0.2","","""event"",""trial"",""time""
""fullscreenenter"",""1"",""4432""
""blur"",""2"",""14369""
""focus"",""2"",""28815""
","""event"",""trial"",""time""
""blur"",""2"",""14369""
","""event"",""trial"",""time""
""focus"",""2"",""28815""
","""event"",""trial"",""time""
""fullscreenenter"",""1"",""4432""
","
","","","1133.5","","","21","10383","4893","&#9789;","elianto","#f73b6a7A"," "," ","1","0","[1990]","1","0","4","","","","","","","",""
"pit-trial","82","684400","0.0-2.0-17.0-1.0","battery-v0.2","","""event"",""trial"",""time""
""fullscreenenter"",""1"",""4432""
""blur"",""2"",""14369""
""focus"",""2"",""28815""
","""event"",""trial"",""time""
""blur"",""2"",""14369""
","""event"",""trial"",""time""
""focus"",""2"",""28815""
","""event"",""trial"",""time""
""fullscreenenter"",""1"",""4432""
","
","","","489","","","21","10383","4893","&#9789;","elianto","#f73b6a7A"," "," ","1","0","[1339.2000000029802]","1","0","4","","","","","","","",""
"pit-trial","83","687690","0.0-2.0-17.0-2.0","battery-v0.2","","""event"",""trial"",""time""
""fullscreenenter"",""1"",""4432""
""blur"",""2"",""14369""
""focus"",""2"",""28815""
","""event"",""trial"",""time""
""blur"",""2"",""14369""
","""event"",""trial"",""time""
""focus"",""2"",""28815""
","""event"",""trial"",""time""
""fullscreenenter"",""1"",""4432""
","
","","","415","","","21","10383","4893","&#9789;","elianto","#f73b6a7A"," "," ","1","0","[1275.9000000059605]","1","0","4","","","","","","","",""
"pit-trial","84","690848","0.0-2.0-17.0-3.0","battery-v0.2","","""event"",""trial"",""time""
""fullscreenenter"",""1"",""4432""
""blur"",""2"",""14369""
""focus"",""2"",""28815""
","""event"",""trial"",""time""
""blur"",""2"",""14369""
","""event"",""trial"",""time""
""focus"",""2"",""28815""
","""event"",""trial"",""time""
""fullscreenenter"",""1"",""4432""
","
","","","293.20000000298023","","","21","10383","4893","&#9789;","elianto","#f73b6a7A"," "," ","1","-10","[1154.9000000059605]","1","0","4","","","","","","","",""
"pit-trial","85","694190","0.0-2.0-17.0-4.0","battery-v0.2","","""event"",""trial"",""time""
""fullscreenenter"",""1"",""4432""
""blur"",""2"",""14369""
""focus"",""2"",""28815""
","""event"",""trial"",""time""
""blur"",""2"",""14369""
","""event"",""trial"",""time""
""focus"",""2"",""28815""
","""event"",""trial"",""time""
""fullscreenenter"",""1"",""4432""
","
","","","461.20000000298023","","","21","10383","4893","&#9789;","elianto","#f73b6a7A"," "," ","1","0","[1324]","1","0","4","","","","","","","",""
"pit-trial","86","697503","0.0-2.0-17.1-0.1","battery-v0.2","","""event"",""trial"",""time""
""fullscreenenter"",""1"",""4432""
""blur"",""2"",""14369""
""focus"",""2"",""28815""
","""event"",""trial"",""time""
""blur"",""2"",""14369""
","""event"",""trial"",""time""
""focus"",""2"",""28815""
","""event"",""trial"",""time""
""fullscreenenter"",""1"",""4432""
","
","","","437.6000000089407","","","21","10383","4893","&#9789;","elianto","#f73b6a7A"," "," ","1","0","[1295.699999988079]","1","0","4","","","","","","","",""
"pit-trial","87","700868","0.0-2.0-17.1-1.1","battery-v0.2","","""event"",""trial"",""time""
""fullscreenenter"",""1"",""4432""
""blur"",""2"",""14369""
""focus"",""2"",""28815""
","""event"",""trial"",""time""
""blur"",""2"",""14369""
","""event"",""trial"",""time""
""focus"",""2"",""28815""
","""event"",""trial"",""time""
""fullscreenenter"",""1"",""4432""
","
","","","501.79999999701977","","","21","10383","4893","&#9789;","elianto","#f73b6a7A"," "," ","1","0","[1357.199999988079]","1","0","4","","","","","","","",""
"pit-trial","88","704173","0.0-2.0-17.1-2.1","battery-v0.2","","""event"",""trial"",""time""
""fullscreenenter"",""1"",""4432""
""blur"",""2"",""14369""
""focus"",""2"",""28815""
","""event"",""trial"",""time""
""blur"",""2"",""14369""
","""event"",""trial"",""time""
""focus"",""2"",""28815""
","""event"",""trial"",""time""
""fullscreenenter"",""1"",""4432""
","
","","","430.79999999701977","","","21","10383","4893","&#9789;","elianto","#f73b6a7A"," "," ","1","0","[1287.7000000029802]","1","0","4","","","","","","","",""
"pit-trial","89","707280","0.0-2.0-17.1-3.1","battery-v0.2","","""event"",""trial"",""time""
""fullscreenenter"",""1"",""4432""
""blur"",""2"",""14369""
""focus"",""2"",""28815""
","""event"",""trial"",""time""
""blur"",""2"",""14369""
","""event"",""trial"",""time""
""focus"",""2"",""28815""
","""event"",""trial"",""time""
""fullscreenenter"",""1"",""4432""
","
","","","253.20000000298023","","","21","10383","4893","&#9789;","elianto","#f73b6a7A"," "," ","1","-10","[1104.2999999970198]","1","0","4","","","","","","","",""
"pit-trial","90","710415","0.0-2.0-17.1-4.1","battery-v0.2","","""event"",""trial"",""time""
""fullscreenenter"",""1"",""4432""
""blur"",""2"",""14369""
""focus"",""2"",""28815""
","""event"",""trial"",""time""
""blur"",""2"",""14369""
","""event"",""trial"",""time""
""focus"",""2"",""28815""
","""event"",""trial"",""time""
""fullscreenenter"",""1"",""4432""
","
","","","282.5","","","21","10383","4893","&#9789;","elianto","#f73b6a7A"," "," ","1","0","[1134]","1","0","4","","","","","","","",""
"pit-trial","91","713551","0.0-2.0-17.2-0.2","battery-v0.2","","""event"",""trial"",""time""
""fullscreenenter"",""1"",""4432""
""blur"",""2"",""14369""
""focus"",""2"",""28815""
","""event"",""trial"",""time""
""blur"",""2"",""14369""
","""event"",""trial"",""time""
""focus"",""2"",""28815""
","""event"",""trial"",""time""
""fullscreenenter"",""1"",""4432""
","
","","","283.09999999403954","","","21","10383","4893","&#9789;","elianto","#f73b6a7A"," "," ","1","0","[1133.5]","1","0","4","","","","","","","",""
"pit-trial","92","716670","0.0-2.0-17.2-1.2","battery-v0.2","","""event"",""trial"",""time""
""fullscreenenter"",""1"",""4432""
""blur"",""2"",""14369""
""focus"",""2"",""28815""
","""event"",""trial"",""time""
""blur"",""2"",""14369""
","""event"",""trial"",""time""
""focus"",""2"",""28815""
","""event"",""trial"",""time""
""fullscreenenter"",""1"",""4432""
","
","","","251.90000000596046","","","21","10383","4893","&#9789;","elianto","#f73b6a7A"," "," ","1","0","[1102.5]","1","0","4","","","","","","","",""
"pit-trial","93","719775","0.0-2.0-17.2-2.2","battery-v0.2","","""event"",""trial"",""time""
""fullscreenenter"",""1"",""4432""
""blur"",""2"",""14369""
""focus"",""2"",""28815""
","""event"",""trial"",""time""
""blur"",""2"",""14369""
","""event"",""trial"",""time""
""focus"",""2"",""28815""
","""event"",""trial"",""time""
""fullscreenenter"",""1"",""4432""
","
","","","251.40000000596046","","","21","10383","4893","&#9789;","elianto","#f73b6a7A"," "," ","1","0","[1102.6000000089407]","1","0","4","","","","","","","",""
"pit-trial","94","722961","0.0-2.0-17.2-3.2","battery-v0.2","","""event"",""trial"",""time""
""fullscreenenter"",""1"",""4432""
""blur"",""2"",""14369""
""focus"",""2"",""28815""
","""event"",""trial"",""time""
""blur"",""2"",""14369""
","""event"",""trial"",""time""
""focus"",""2"",""28815""
","""event"",""trial"",""time""
""fullscreenenter"",""1"",""4432""
","
","","","333.09999999403954","","","21","10383","4893","&#9789;","elianto","#f73b6a7A"," "," ","1","-10","[1183.8999999910593]","1","0","4","","","","","","","",""
"pit-trial","95","726287","0.0-2.0-17.2-4.2","battery-v0.2","","""event"",""trial"",""time""
""fullscreenenter"",""1"",""4432""
""blur"",""2"",""14369""
""focus"",""2"",""28815""
","""event"",""trial"",""time""
""blur"",""2"",""14369""
","""event"",""trial"",""time""
""focus"",""2"",""28815""
","""event"",""trial"",""time""
""fullscreenenter"",""1"",""4432""
","
","","","473.90000000596046","","","21","10383","4893","&#9789;","elianto","#f73b6a7A"," "," ","1","0","[1324.0999999940395]","1","0","4","","","","","","","",""
"pit-trial","96","729615","0.0-2.0-17.3-0.3","battery-v0.2","","""event"",""trial"",""time""
""fullscreenenter"",""1"",""4432""
""blur"",""2"",""14369""
""focus"",""2"",""28815""
","""event"",""trial"",""time""
""blur"",""2"",""14369""
","""event"",""trial"",""time""
""focus"",""2"",""28815""
","""event"",""trial"",""time""
""fullscreenenter"",""1"",""4432""
","
","","","474.59999999403954","","","21","10383","4893","&#9789;","elianto","#f73b6a7A"," "," ","1","0","[1325.0999999940395]","1","0","4","","","","","","","",""
"pit-trial","97","732968","0.0-2.0-17.3-1.3","battery-v0.2","","""event"",""trial"",""time""
""fullscreenenter"",""1"",""4432""
""blur"",""2"",""14369""
""focus"",""2"",""28815""
","""event"",""trial"",""time""
""blur"",""2"",""14369""
","""event"",""trial"",""time""
""focus"",""2"",""28815""
","""event"",""trial"",""time""
""fullscreenenter"",""1"",""4432""
","
","","","492","","","21","10383","4893","&#9789;","elianto","#f73b6a7A"," "," ","1","0","[1342.0999999940395]","1","0","4","","","","","","","",""
"pit-trial","98","736336","0.0-2.0-17.3-2.3","battery-v0.2","","""event"",""trial"",""time""
""fullscreenenter"",""1"",""4432""
""blur"",""2"",""14369""
""focus"",""2"",""28815""
","""event"",""trial"",""time""
""blur"",""2"",""14369""
","""event"",""trial"",""time""
""focus"",""2"",""28815""
","""event"",""trial"",""time""
""fullscreenenter"",""1"",""4432""
","
","","","514.3000000119209","","","21","10383","4893","&#9789;","elianto","#f73b6a7A"," "," ","1","0","[1365.0999999940395]","1","0","4","","","","","","","",""
"pit-trial","99","739726","0.0-2.0-17.3-3.3","battery-v0.2","","""event"",""trial"",""time""
""fullscreenenter"",""1"",""4432""
""blur"",""2"",""14369""
""focus"",""2"",""28815""
","""event"",""trial"",""time""
""blur"",""2"",""14369""
","""event"",""trial"",""time""
""focus"",""2"",""28815""
","""event"",""trial"",""time""
""fullscreenenter"",""1"",""4432""
","
","","","538","","","21","10383","4893","&#9789;","elianto","#f73b6a7A"," "," ","1","-10","[1388.8999999910593]","1","0","4","","","","","","","",""
"pit-trial","100","743007","0.0-2.0-17.3-4.3","battery-v0.2","","""event"",""trial"",""time""
""fullscreenenter"",""1"",""4432""
""blur"",""2"",""14369""
""focus"",""2"",""28815""
","""event"",""trial"",""time""
""blur"",""2"",""14369""
","""event"",""trial"",""time""
""focus"",""2"",""28815""
","""event"",""trial"",""time""
""fullscreenenter"",""1"",""4432""
","
","","","427.3999999910593","","","21","10383","4893","&#9789;","elianto","#f73b6a7A"," "," ","1","0","[1278.5999999940395]","1","0","4","","","","","","","",""
"call-function","101","743008","0.0-2.0-18.0","battery-v0.2","","""event"",""trial"",""time""
""fullscreenenter"",""1"",""4432""
""blur"",""2"",""14369""
""focus"",""2"",""28815""
","""event"",""trial"",""time""
""blur"",""2"",""14369""
","""event"",""trial"",""time""
""focus"",""2"",""28815""
","""event"",""trial"",""time""
""fullscreenenter"",""1"",""4432""
","
","","","","","","","","","","","","","","","","","","","","","","","","","","",""
"pit-instructions","102","815551","0.0-2.0-19.0","battery-v0.2","","""event"",""trial"",""time""
""fullscreenenter"",""1"",""4432""
""blur"",""2"",""14369""
""focus"",""2"",""28815""
","""event"",""trial"",""time""
""blur"",""2"",""14369""
","""event"",""trial"",""time""
""focus"",""2"",""28815""
","""event"",""trial"",""time""
""fullscreenenter"",""1"",""4432""
","
","","[{""page_index"":0,""viewing_time"":9121.79999999702},{""page_index"":1,""viewing_time"":8159.9000000059605},{""page_index"":2,""viewing_time"":12708.199999988079},{""page_index"":3,""viewing_time"":6997.9000000059605},{""page_index"":4,""viewing_time"":8874.09999999404},{""page_index"":5,""viewing_time"":8567.800000011921},{""page_index"":6,""viewing_time"":7928.0999999940395},{""page_index"":7,""viewing_time"":6474},{""page_index"":8,""viewing_time"":3710.0999999940395}]","72542.09999999404","","","","","","","","","","","","","","","","","","","","","","","",""
"pit-comprehension","103","819924","0.0-2.0-20.0-0.0","battery-v0.2","","""event"",""trial"",""time""
""fullscreenenter"",""1"",""4432""
""blur"",""2"",""14369""
""focus"",""2"",""28815""
","""event"",""trial"",""time""
""blur"",""2"",""14369""
","""event"",""trial"",""time""
""focus"",""2"",""28815""
","""event"",""trial"",""time""
""fullscreenenter"",""1"",""4432""
","
","","","4370.600000008941","[""SPACE""]","0","21","10383","4893","","","","","","","","","","","","","","","","","","",""
"pit-instructions","104","824275","0.0-2.0-20.0-1.0","battery-v0.2","","""event"",""trial"",""time""
""fullscreenenter"",""1"",""4432""
""blur"",""2"",""14369""
""focus"",""2"",""28815""
","""event"",""trial"",""time""
""blur"",""2"",""14369""
","""event"",""trial"",""time""
""focus"",""2"",""28815""
","""event"",""trial"",""time""
""fullscreenenter"",""1"",""4432""
","
","","[{""page_index"":0,""viewing_time"":4327.5}]","4327.70000000298","","","","","","","","","","","","","","","","","","","","","","","",""
"pit-comprehension","105","828957","0.0-2.0-21.0-0.0","battery-v0.2","","""event"",""trial"",""time""
""fullscreenenter"",""1"",""4432""
""blur"",""2"",""14369""
""focus"",""2"",""28815""
","""event"",""trial"",""time""
""blur"",""2"",""14369""
","""event"",""trial"",""time""
""focus"",""2"",""28815""
","""event"",""trial"",""time""
""fullscreenenter"",""1"",""4432""
","
","","","4680.4000000059605","[""10""]","0","21","10383","4893","","","","","","","","","","","","","","","","","","",""
"pit-instructions","106","830647","0.0-2.0-21.0-1.0","battery-v0.2","","""event"",""trial"",""time""
""fullscreenenter"",""1"",""4432""
""blur"",""2"",""14369""
""focus"",""2"",""28815""
","""event"",""trial"",""time""
""blur"",""2"",""14369""
","""event"",""trial"",""time""
""focus"",""2"",""28815""
","""event"",""trial"",""time""
""fullscreenenter"",""1"",""4432""
","
","","[{""page_index"":0,""viewing_time"":1665}]","1665.2000000029802","","","","","","","","","","","","","","","","","","","","","","","",""
"pit-comprehension","107","837086","0.0-2.0-22.0-0.0","battery-v0.2","","""event"",""trial"",""time""
""fullscreenenter"",""1"",""4432""
""blur"",""2"",""14369""
""focus"",""2"",""28815""
","""event"",""trial"",""time""
""blur"",""2"",""14369""
","""event"",""trial"",""time""
""focus"",""2"",""28815""
","""event"",""trial"",""time""
""fullscreenenter"",""1"",""4432""
","
","","","6437.100000008941","[""0""]","0","21","10383","4893","","","","","","","","","","","","","","","","","","",""
"pit-instructions","108","838563","0.0-2.0-22.0-1.0","battery-v0.2","","""event"",""trial"",""time""
""fullscreenenter"",""1"",""4432""
""blur"",""2"",""14369""
""focus"",""2"",""28815""
","""event"",""trial"",""time""
""blur"",""2"",""14369""
","""event"",""trial"",""time""
""focus"",""2"",""28815""
","""event"",""trial"",""time""
""fullscreenenter"",""1"",""4432""
","
","","[{""page_index"":0,""viewing_time"":1453.5}]","1453.7000000029802","","","","","","","","","","","","","","","","","","","","","","","",""
"pit-comprehension","109","847181","0.0-2.0-23.0-0.0","battery-v0.2","","""event"",""trial"",""time""
""fullscreenenter"",""1"",""4432""
""blur"",""2"",""14369""
""focus"",""2"",""28815""
","""event"",""trial"",""time""
""blur"",""2"",""14369""
","""event"",""trial"",""time""
""focus"",""2"",""28815""
","""event"",""trial"",""time""
""fullscreenenter"",""1"",""4432""
","
","","","8616.40000000596","[""True""]","0","21","10383","4893","","","","","","","","","","","","","","","","","","",""
"pit-instructions","110","849683","0.0-2.0-23.0-1.0","battery-v0.2","","""event"",""trial"",""time""
""fullscreenenter"",""1"",""4432""
""blur"",""2"",""14369""
""focus"",""2"",""28815""
","""event"",""trial"",""time""
""blur"",""2"",""14369""
","""event"",""trial"",""time""
""focus"",""2"",""28815""
","""event"",""trial"",""time""
""fullscreenenter"",""1"",""4432""
","
","","[{""page_index"":0,""viewing_time"":2477.7999999970198}]","2478.0999999940395","","","","","","","","","","","","","","","","","","","","","","","",""
"pit-comprehension","111","857183","0.0-2.0-24.0-0.0","battery-v0.2","","""event"",""trial"",""time""
""fullscreenenter"",""1"",""4432""
""blur"",""2"",""14369""
""focus"",""2"",""28815""
","""event"",""trial"",""time""
""blur"",""2"",""14369""
","""event"",""trial"",""time""
""focus"",""2"",""28815""
","""event"",""trial"",""time""
""fullscreenenter"",""1"",""4432""
","
","","","7498.5","[""True""]","0","21","10383","4893","","","","","","","","","","","","","","","","","","",""
"pit-instructions","112","859729","0.0-2.0-24.0-1.0","battery-v0.2","","""event"",""trial"",""time""
""fullscreenenter"",""1"",""4432""
""blur"",""2"",""14369""
""focus"",""2"",""28815""
","""event"",""trial"",""time""
""blur"",""2"",""14369""
","""event"",""trial"",""time""
""focus"",""2"",""28815""
","""event"",""trial"",""time""
""fullscreenenter"",""1"",""4432""
","
","","[{""page_index"":0,""viewing_time"":2520.6000000089407}]","2520.7999999970198","","","","","","","","","","","","","","","","","","","","","","","",""
"pit-comprehension","113","866201","0.0-2.0-25.0-0.0","battery-v0.2","","""event"",""trial"",""time""
""fullscreenenter"",""1"",""4432""
""blur"",""2"",""14369""
""focus"",""2"",""28815""
","""event"",""trial"",""time""
""blur"",""2"",""14369""
","""event"",""trial"",""time""
""focus"",""2"",""28815""
","""event"",""trial"",""time""
""fullscreenenter"",""1"",""4432""
","
","","","6470.0999999940395","[""True""]","0","21","10383","4893","","","","","","","","","","","","","","","","","","",""
"pit-instructions","114","868587","0.0-2.0-25.0-1.0","battery-v0.2","","""event"",""trial"",""time""
""fullscreenenter"",""1"",""4432""
""blur"",""2"",""14369""
""focus"",""2"",""28815""
","""event"",""trial"",""time""
""blur"",""2"",""14369""
","""event"",""trial"",""time""
""focus"",""2"",""28815""
","""event"",""trial"",""time""
""fullscreenenter"",""1"",""4432""
","
","","[{""page_index"":0,""viewing_time"":2360.7000000029802}]","2360.8999999910593","","","","","","","","","","","","","","","","","","","","","","","",""
"pit-comprehension","115","873328","0.0-2.0-26.0-0.0","battery-v0.2","","""event"",""trial"",""time""
""fullscreenenter"",""1"",""4432""
""blur"",""2"",""14369""
""focus"",""2"",""28815""
","""event"",""trial"",""time""
""blur"",""2"",""14369""
","""event"",""trial"",""time""
""focus"",""2"",""28815""
","""event"",""trial"",""time""
""fullscreenenter"",""1"",""4432""
","
","","","4739.100000008941","[""False""]","0","21","10383","4893","","","","","","","","","","","","","","","","","","",""
"pit-instructions","116","875853","0.0-2.0-26.0-1.0","battery-v0.2","","""event"",""trial"",""time""
""fullscreenenter"",""1"",""4432""
""blur"",""2"",""14369""
""focus"",""2"",""28815""
","""event"",""trial"",""time""
""blur"",""2"",""14369""
","""event"",""trial"",""time""
""focus"",""2"",""28815""
","""event"",""trial"",""time""
""fullscreenenter"",""1"",""4432""
","
","","[{""page_index"":0,""viewing_time"":2499.2000000029802}]","2499.3999999910593","","","","","","","","","","","","","","","","","","","","","","","",""
"pit-instructions","117","893231","0.0-3.0","battery-v0.2","","""event"",""trial"",""time""
""fullscreenenter"",""1"",""4432""
""blur"",""2"",""14369""
""focus"",""2"",""28815""
","""event"",""trial"",""time""
""blur"",""2"",""14369""
","""event"",""trial"",""time""
""focus"",""2"",""28815""
","""event"",""trial"",""time""
""fullscreenenter"",""1"",""4432""
","
","","[{""page_index"":0,""viewing_time"":4844.5},{""page_index"":1,""viewing_time"":5170.300000011921},{""page_index"":2,""viewing_time"":7361.699999988079}]","17376.70000000298","","","","","","","","","","","","","","","","","","","","","","","",""
"pit-trial","118","896658","0.0-4.0","battery-v0.2","","""event"",""trial"",""time""
""fullscreenenter"",""1"",""4432""
""blur"",""2"",""14369""
""focus"",""2"",""28815""
","""event"",""trial"",""time""
""blur"",""2"",""14369""
","""event"",""trial"",""time""
""focus"",""2"",""28815""
","""event"",""trial"",""time""
""fullscreenenter"",""1"",""4432""
","
","","","561.7999999970198","","","21","10383","4893","&#9730;","elianto","#3366ff99"," "," ","1","+10","[1421.6000000089407]","1","1","","","10383","1","1","1","win","go","0"
"pit-trial","119","901353","0.0-5.0","battery-v0.2","","""event"",""trial"",""time""
""fullscreenenter"",""1"",""4432""
""blur"",""2"",""14369""
""focus"",""2"",""28815""
","""event"",""trial"",""time""
""blur"",""2"",""14369""
","""event"",""trial"",""time""
""focus"",""2"",""28815""
","""event"",""trial"",""time""
""fullscreenenter"",""1"",""4432""
","
","","","1821.7000000029802","","","21","10383","4893","&#9733;","elianto","#3366ff99","-1"," ","0","0","[2683.0999999940395]","1","1","","","10383","2","2","2","win","no-go","0"
"pit-trial","120","905093","0.0-6.0","battery-v0.2","","""event"",""trial"",""time""
""fullscreenenter"",""1"",""4432""
""blur"",""2"",""14369""
""focus"",""2"",""28815""
","""event"",""trial"",""time""
""blur"",""2"",""14369""
","""event"",""trial"",""time""
""focus"",""2"",""28815""
","""event"",""trial"",""time""
""fullscreenenter"",""1"",""4432""
","
","","","872.7999999970198","","","21","10383","4893","&#9752;","elianto","#f73b6a7A"," "," ","1","0","[1732]","1","1","","","10383","3","3","3","lose","go","0"
"pit-trial","121","908606","0.0-7.0","battery-v0.2","","""event"",""trial"",""time""
""fullscreenenter"",""1"",""4432""
""blur"",""2"",""14369""
""focus"",""2"",""28815""
","""event"",""trial"",""time""
""blur"",""2"",""14369""
","""event"",""trial"",""time""
""focus"",""2"",""28815""
","""event"",""trial"",""time""
""fullscreenenter"",""1"",""4432""
","
","","","640.2999999970198","","","21","10383","4893","&#9728;","elianto","#f73b6a7A","-1"," ","0","-10","[1496.0999999940395]","1","1","","","10383","4","0","4","lose","no-go","0"
"pit-trial","122","912811","0.0-8.0","battery-v0.2","","""event"",""trial"",""time""
""fullscreenenter"",""1"",""4432""
""blur"",""2"",""14369""
""focus"",""2"",""28815""
","""event"",""trial"",""time""
""blur"",""2"",""14369""
","""event"",""trial"",""time""
""focus"",""2"",""28815""
","""event"",""trial"",""time""
""fullscreenenter"",""1"",""4432""
","
","","","1337.9000000059605","","","21","10383","4893","&#9752;","elianto","#f73b6a7A"," "," ","1","0","[2191.1000000089407]","1","1","","","10383","5","3","3","lose","go","0"
"pit-trial","123","917689","0.0-9.0","battery-v0.2","","""event"",""trial"",""time""
""fullscreenenter"",""1"",""4432""
""blur"",""2"",""14369""
""focus"",""2"",""28815""
","""event"",""trial"",""time""
""blur"",""2"",""14369""
","""event"",""trial"",""time""
""focus"",""2"",""28815""
","""event"",""trial"",""time""
""fullscreenenter"",""1"",""4432""
","
","","","-1","","","21","10383","4893","&#9728;","elianto","#f73b6a7A","-1","-1","1","0","[]","0","1","","","10383","6","0","4","lose","no-go","0"
"pit-trial","124","922560","0.0-10.0","battery-v0.2","","""event"",""trial"",""time""
""fullscreenenter"",""1"",""4432""
""blur"",""2"",""14369""
""focus"",""2"",""28815""
","""event"",""trial"",""time""
""blur"",""2"",""14369""
","""event"",""trial"",""time""
""focus"",""2"",""28815""
","""event"",""trial"",""time""
""fullscreenenter"",""1"",""4432""
","
","","","-1","","","21","10383","4893","&#9733;","elianto","#3366ff99","-1","-1","1","0","[]","0","1","","","10383","7","2","2","win","no-go","1"
"pit-trial","125","925904","0.0-11.0","battery-v0.2","","""event"",""trial"",""time""
""fullscreenenter"",""1"",""4432""
""blur"",""2"",""14369""
""focus"",""2"",""28815""
","""event"",""trial"",""time""
""blur"",""2"",""14369""
","""event"",""trial"",""time""
""focus"",""2"",""28815""
","""event"",""trial"",""time""
""fullscreenenter"",""1"",""4432""
","
","","","477.20000000298023","","","21","10383","4893","&#9730;","elianto","#3366ff99"," "," ","1","+10","[1342.1000000089407]","1","1","","","10383","8","1","1","win","go","0"
"pit-trial","126","930757","0.0-12.0","battery-v0.2","","""event"",""trial"",""time""
""fullscreenenter"",""1"",""4432""
""blur"",""2"",""14369""
""focus"",""2"",""28815""
","""event"",""trial"",""time""
""blur"",""2"",""14369""
","""event"",""trial"",""time""
""focus"",""2"",""28815""
","""event"",""trial"",""time""
""fullscreenenter"",""1"",""4432""
","
","","","-1","","","21","10383","4893","&#9752;","elianto","#f73b6a7A"," ","-1","0","-10","[]","0","1","","","10383","9","3","3","lose","go","0"
"pit-trial","127","934750","0.0-13.0","battery-v0.2","","""event"",""trial"",""time""
""fullscreenenter"",""1"",""4432""
""blur"",""2"",""14369""
""focus"",""2"",""28815""
","""event"",""trial"",""time""
""blur"",""2"",""14369""
","""event"",""trial"",""time""
""focus"",""2"",""28815""
","""event"",""trial"",""time""
""fullscreenenter"",""1"",""4432""
","
","","","1141","","","21","10383","4893","&#9733;","elianto","#3366ff99","-1"," ","0","+10","[1991.9000000059605]","1","1","","","10383","10","2","2","win","no-go","1"
"pit-trial","128","939603","0.0-14.0","battery-v0.2","","""event"",""trial"",""time""
""fullscreenenter"",""1"",""4432""
""blur"",""2"",""14369""
""focus"",""2"",""28815""
","""event"",""trial"",""time""
""blur"",""2"",""14369""
","""event"",""trial"",""time""
""focus"",""2"",""28815""
","""event"",""trial"",""time""
""fullscreenenter"",""1"",""4432""
","
","","","-1","","","21","10383","4893","&#9728;","elianto","#f73b6a7A","-1","-1","1","0","[]","0","1","","","10383","11","0","4","lose","no-go","0"
"pit-trial","129","943247","0.0-15.0","battery-v0.2","","""event"",""trial"",""time""
""fullscreenenter"",""1"",""4432""
""blur"",""2"",""14369""
""focus"",""2"",""28815""
","""event"",""trial"",""time""
""blur"",""2"",""14369""
","""event"",""trial"",""time""
""focus"",""2"",""28815""
","""event"",""trial"",""time""
""fullscreenenter"",""1"",""4432""
","
","","","791.8000000119209","","","21","10383","4893","&#9730;","elianto","#3366ff99"," "," ","1","+10","[1642.800000011921]","1","1","","","10383","12","1","1","win","go","0"
"pit-trial","130","948100","0.0-16.0","battery-v0.2","","""event"",""trial"",""time""
""fullscreenenter"",""1"",""4432""
""blur"",""2"",""14369""
""focus"",""2"",""28815""
","""event"",""trial"",""time""
""blur"",""2"",""14369""
","""event"",""trial"",""time""
""focus"",""2"",""28815""
","""event"",""trial"",""time""
""fullscreenenter"",""1"",""4432""
","
","","","-1","","","21","10383","4893","&#9728;","elianto","#f73b6a7A","-1","-1","1","0","[]","0","1","","","10383","13","0","4","lose","no-go","0"
"pit-trial","131","951774","0.0-17.0","battery-v0.2","","""event"",""trial"",""time""
""fullscreenenter"",""1"",""4432""
""blur"",""2"",""14369""
""focus"",""2"",""28815""
","""event"",""trial"",""time""
""blur"",""2"",""14369""
","""event"",""trial"",""time""
""focus"",""2"",""28815""
","""event"",""trial"",""time""
""fullscreenenter"",""1"",""4432""
","
","","","821.9000000059605","","","21","10383","4893","&#9730;","elianto","#3366ff99"," "," ","1","+10","[1672]","1","1","","","10383","14","1","1","win","go","0"
"pit-trial","132","956627","0.0-18.0","battery-v0.2","","""event"",""trial"",""time""
""fullscreenenter"",""1"",""4432""
""blur"",""2"",""14369""
""focus"",""2"",""28815""
","""event"",""trial"",""time""
""blur"",""2"",""14369""
","""event"",""trial"",""time""
""focus"",""2"",""28815""
","""event"",""trial"",""time""
""fullscreenenter"",""1"",""4432""
","
","","","-1","","","21","10383","4893","&#9752;","elianto","#f73b6a7A"," ","-1","0","-10","[]","0","1","","","10383","15","3","3","lose","go","0"
"pit-trial","133","960641","0.0-19.0","battery-v0.2","","""event"",""trial"",""time""
""fullscreenenter"",""1"",""4432""
""blur"",""2"",""14369""
""focus"",""2"",""28815""
","""event"",""trial"",""time""
""blur"",""2"",""14369""
","""event"",""trial"",""time""
""focus"",""2"",""28815""
","""event"",""trial"",""time""
""fullscreenenter"",""1"",""4432""
","
","","","1159.3999999910593","","","21","10383","4893","&#9733;","elianto","#3366ff99","-1"," ","0","0","[2010.2999999970198]","1","1","","","10383","16","2","2","win","no-go","0"
"pit-trial","134","964143","0.0-20.0","battery-v0.2","","""event"",""trial"",""time""
""fullscreenenter"",""1"",""4432""
""blur"",""2"",""14369""
""focus"",""2"",""28815""
","""event"",""trial"",""time""
""blur"",""2"",""14369""
","""event"",""trial"",""time""
""focus"",""2"",""28815""
","""event"",""trial"",""time""
""fullscreenenter"",""1"",""4432""
","
","","","648.8999999910593","","","21","10383","4893","&#9752;","elianto","#f73b6a7A"," "," ","1","-10","[1499.7999999970198]","1","1","","","10383","17","3","3","lose","go","1"
"pit-trial","135","968416","0.0-21.0","battery-v0.2","","""event"",""trial"",""time""
""fullscreenenter"",""1"",""4432""
""blur"",""2"",""14369""
""focus"",""2"",""28815""
","""event"",""trial"",""time""
""blur"",""2"",""14369""
","""event"",""trial"",""time""
""focus"",""2"",""28815""
","""event"",""trial"",""time""
""fullscreenenter"",""1"",""4432""
","
","","","1419.3999999910593","","","21","10383","4893","&#9733;","elianto","#3366ff99","-1"," ","0","0","[2270.3999999910593]","1","1","","","10383","18","2","2","win","no-go","0"
"pit-trial","136","971968","0.0-22.0","battery-v0.2","","""event"",""trial"",""time""
""fullscreenenter"",""1"",""4432""
""blur"",""2"",""14369""
""focus"",""2"",""28815""
","""event"",""trial"",""time""
""blur"",""2"",""14369""
","""event"",""trial"",""time""
""focus"",""2"",""28815""
","""event"",""trial"",""time""
""fullscreenenter"",""1"",""4432""
","
","","","699.8000000119209","","","21","10383","4893","&#9730;","elianto","#3366ff99"," "," ","1","+10","[1549.800000011921]","1","1","","","10383","19","1","1","win","go","0"
"pit-trial","137","976822","0.0-23.0","battery-v0.2","","""event"",""trial"",""time""
""fullscreenenter"",""1"",""4432""
""blur"",""2"",""14369""
""focus"",""2"",""28815""
","""event"",""trial"",""time""
""blur"",""2"",""14369""
","""event"",""trial"",""time""
""focus"",""2"",""28815""
","""event"",""trial"",""time""
""fullscreenenter"",""1"",""4432""
","
","","","-1","","","21","10383","4893","&#9728;","elianto","#f73b6a7A","-1","-1","1","0","[]","0","1","","","10383","20","0","4","lose","no-go","0"
"pit-instructions","138","989185","0.0-24.0","battery-v0.2","","""event"",""trial"",""time""
""fullscreenenter"",""1"",""4432""
""blur"",""2"",""14369""
""focus"",""2"",""28815""
","""event"",""trial"",""time""
""blur"",""2"",""14369""
","""event"",""trial"",""time""
""focus"",""2"",""28815""
","""event"",""trial"",""time""
""fullscreenenter"",""1"",""4432""
","
","","[{""page_index"":0,""viewing_time"":6000},{""page_index"":1,""viewing_time"":6361.79999999702}]","12362","","","","","","","","","","","","","","","","","","","","","","","",""
"pit-trial","139","993012","0.0-25.0","battery-v0.2","","""event"",""trial"",""time""
""fullscreenenter"",""1"",""4432""
""blur"",""2"",""14369""
""focus"",""2"",""28815""
","""event"",""trial"",""time""
""blur"",""2"",""14369""
","""event"",""trial"",""time""
""focus"",""2"",""28815""
","""event"",""trial"",""time""
""fullscreenenter"",""1"",""4432""
","
","","","964.7000000029802","","","21","10383","4893","r","elianto","#3366ff99","-1"," ","0","+10","[1819.2000000029802]","1","2","","","10383","21","1","2","win","no-go","1"
"pit-trial","140","996847","0.0-26.0","battery-v0.2","","""event"",""trial"",""time""
""fullscreenenter"",""1"",""4432""
""blur"",""2"",""14369""
""focus"",""2"",""28815""
","""event"",""trial"",""time""
""blur"",""2"",""14369""
","""event"",""trial"",""time""
""focus"",""2"",""28815""
","""event"",""trial"",""time""
""fullscreenenter"",""1"",""4432""
","
","","","956.1000000089407","","","21","10383","4893","h","elianto","#f73b6a7A","-1"," ","0","-10","[1818.2000000029802]","1","2","","","10383","22","3","4","lose","no-go","0"
"pit-trial","141","1000512","0.0-27.0","battery-v0.2","","""event"",""trial"",""time""
""fullscreenenter"",""1"",""4432""
""blur"",""2"",""14369""
""focus"",""2"",""28815""
","""event"",""trial"",""time""
""blur"",""2"",""14369""
","""event"",""trial"",""time""
""focus"",""2"",""28815""
","""event"",""trial"",""time""
""fullscreenenter"",""1"",""4432""
","
","","","802","","","21","10383","4893","m","elianto","#f73b6a7A"," "," ","1","0","[1661.6000000089407]","1","2","","","10383","23","0","3","lose","go","0"
"pit-trial","142","1004562","0.0-28.0","battery-v0.2","","""event"",""trial"",""time""
""fullscreenenter"",""1"",""4432""
""blur"",""2"",""14369""
""focus"",""2"",""28815""
","""event"",""trial"",""time""
""blur"",""2"",""14369""
","""event"",""trial"",""time""
""focus"",""2"",""28815""
","""event"",""trial"",""time""
""fullscreenenter"",""1"",""4432""
","
","","","1195.4000000059605","","","21","10383","4893","y","elianto","#f73b6a7A"," "," ","1","0","[2045.4000000059605]","1","2","","","10383","24","2","3","lose","go","0"
"pit-trial","143","1008426","0.0-29.0","battery-v0.2","","""event"",""trial"",""time""
""fullscreenenter"",""1"",""4432""
""blur"",""2"",""14369""
""focus"",""2"",""28815""
","""event"",""trial"",""time""
""blur"",""2"",""14369""
","""event"",""trial"",""time""
""focus"",""2"",""28815""
","""event"",""trial"",""time""
""fullscreenenter"",""1"",""4432""
","
","","","994.3999999910593","","","21","10383","4893","y","elianto","#f73b6a7A"," "," ","1","0","[1851.5999999940395]","1","2","","","10383","25","2","3","lose","go","0"
"pit-trial","144","1012939","0.0-30.0","battery-v0.2","","""event"",""trial"",""time""
""fullscreenenter"",""1"",""4432""
""blur"",""2"",""14369""
""focus"",""2"",""28815""
","""event"",""trial"",""time""
""blur"",""2"",""14369""
","""event"",""trial"",""time""
""focus"",""2"",""28815""
","""event"",""trial"",""time""
""fullscreenenter"",""1"",""4432""
","
","","","1640.4000000059605","","","21","10383","4893","m","elianto","#f73b6a7A"," "," ","1","0","[2499]","1","2","","","10383","26","0","3","lose","go","0"
"pit-trial","145","1016829","0.0-31.0","battery-v0.2","","""event"",""trial"",""time""
""fullscreenenter"",""1"",""4432""
""blur"",""2"",""14369""
""focus"",""2"",""28815""
","""event"",""trial"",""time""
""blur"",""2"",""14369""
","""event"",""trial"",""time""
""focus"",""2"",""28815""
","""event"",""trial"",""time""
""fullscreenenter"",""1"",""4432""
","
","","","1022.0999999940395","","","21","10383","4893","h","elianto","#f73b6a7A","-1"," ","0","0","[1873.7000000029802]","1","2","","","10383","27","3","4","lose","no-go","1"
"pit-trial","146","1020752","0.0-32.0","battery-v0.2","","""event"",""trial"",""time""
""fullscreenenter"",""1"",""4432""
""blur"",""2"",""14369""
""focus"",""2"",""28815""
","""event"",""trial"",""time""
""blur"",""2"",""14369""
","""event"",""trial"",""time""
""focus"",""2"",""28815""
","""event"",""trial"",""time""
""fullscreenenter"",""1"",""4432""
","
","","","1057.1000000089407","","","21","10383","4893","r","elianto","#3366ff99","-1"," ","0","0","[1921]","1","2","","","10383","28","1","2","win","no-go","0"
"pit-trial","147","1024465","0.0-33.0","battery-v0.2","","""event"",""trial"",""time""
""fullscreenenter"",""1"",""4432""
""blur"",""2"",""14369""
""focus"",""2"",""28815""
","""event"",""trial"",""time""
""blur"",""2"",""14369""
","""event"",""trial"",""time""
""focus"",""2"",""28815""
","""event"",""trial"",""time""
""fullscreenenter"",""1"",""4432""
","
","","","858.8999999910593","","","21","10383","4893","h","elianto","#f73b6a7A","-1"," ","0","-10","[1709.3999999910593]","1","2","","","10383","29","3","4","lose","no-go","0"
"pit-trial","148","1028207","0.0-34.0","battery-v0.2","","""event"",""trial"",""time""
""fullscreenenter"",""1"",""4432""
""blur"",""2"",""14369""
""focus"",""2"",""28815""
","""event"",""trial"",""time""
""blur"",""2"",""14369""
","""event"",""trial"",""time""
""focus"",""2"",""28815""
","""event"",""trial"",""time""
""fullscreenenter"",""1"",""4432""
","
","","","889.7999999970198","","","21","10383","4893","r","elianto","#3366ff99","-1"," ","0","0","[1740.5]","1","2","","","10383","30","1","2","win","no-go","0"
"pit-trial","149","1031840","0.0-35.0","battery-v0.2","","""event"",""trial"",""time""
""fullscreenenter"",""1"",""4432""
""blur"",""2"",""14369""
""focus"",""2"",""28815""
","""event"",""trial"",""time""
""blur"",""2"",""14369""
","""event"",""trial"",""time""
""focus"",""2"",""28815""
","""event"",""trial"",""time""
""fullscreenenter"",""1"",""4432""
","
","","","781.2000000029802","","","21","10383","4893","y","elianto","#f73b6a7A"," "," ","1","0","[1631.300000011921]","1","2","","","10383","31","2","3","lose","go","0"
"pit-trial","150","1035487","0.0-36.0","battery-v0.2","","""event"",""trial"",""time""
""fullscreenenter"",""1"",""4432""
""blur"",""2"",""14369""
""focus"",""2"",""28815""
","""event"",""trial"",""time""
""blur"",""2"",""14369""
","""event"",""trial"",""time""
""focus"",""2"",""28815""
","""event"",""trial"",""time""
""fullscreenenter"",""1"",""4432""
","
","","","793.5","","","21","10383","4893","m","elianto","#f73b6a7A"," "," ","1","0","[1645]","1","2","","","10383","32","0","3","lose","go","0"
"pit-trial","151","1039087","0.0-37.0","battery-v0.2","","""event"",""trial"",""time""
""fullscreenenter"",""1"",""4432""
""blur"",""2"",""14369""
""focus"",""2"",""28815""
","""event"",""trial"",""time""
""blur"",""2"",""14369""
","""event"",""trial"",""time""
""focus"",""2"",""28815""
","""event"",""trial"",""time""
""fullscreenenter"",""1"",""4432""
","
","","","747.3000000119209","","","21","10383","4893","m","elianto","#f73b6a7A"," "," ","1","0","[1597.5]","1","2","","","10383","33","0","3","lose","go","0"
"pit-trial","152","1043940","0.0-38.0","battery-v0.2","","""event"",""trial"",""time""
""fullscreenenter"",""1"",""4432""
""blur"",""2"",""14369""
""focus"",""2"",""28815""
","""event"",""trial"",""time""
""blur"",""2"",""14369""
","""event"",""trial"",""time""
""focus"",""2"",""28815""
","""event"",""trial"",""time""
""fullscreenenter"",""1"",""4432""
","
","","","-1","","","21","10383","4893","r","elianto","#3366ff99","-1","-1","1","+10","[]","0","2","","","10383","34","1","2","win","no-go","0"
"pit-trial","153","1047616","0.0-39.0","battery-v0.2","","""event"",""trial"",""time""
""fullscreenenter"",""1"",""4432""
""blur"",""2"",""14369""
""focus"",""2"",""28815""
","""event"",""trial"",""time""
""blur"",""2"",""14369""
","""event"",""trial"",""time""
""focus"",""2"",""28815""
","""event"",""trial"",""time""
""fullscreenenter"",""1"",""4432""
","
","","","824","","","21","10383","4893","h","elianto","#f73b6a7A","-1"," ","0","-10","[1674.8999999910593]","1","2","","","10383","35","3","4","lose","no-go","0"
"pit-trial","154","1051104","0.0-40.0","battery-v0.2","","""event"",""trial"",""time""
""fullscreenenter"",""1"",""4432""
""blur"",""2"",""14369""
""focus"",""2"",""28815""
","""event"",""trial"",""time""
""blur"",""2"",""14369""
","""event"",""trial"",""time""
""focus"",""2"",""28815""
","""event"",""trial"",""time""
""fullscreenenter"",""1"",""4432""
","
","","","634.9000000059605","","","21","10383","4893","y","elianto","#f73b6a7A"," "," ","1","-10","[1485.300000011921]","1","2","","","10383","36","2","3","lose","go","1"
"pit-trial","155","1054591","0.0-41.0","battery-v0.2","","""event"",""trial"",""time""
""fullscreenenter"",""1"",""4432""
""blur"",""2"",""14369""
""focus"",""2"",""28815""
","""event"",""trial"",""time""
""blur"",""2"",""14369""
","""event"",""trial"",""time""
""focus"",""2"",""28815""
","""event"",""trial"",""time""
""fullscreenenter"",""1"",""4432""
","
","","","634.2000000029802","","","21","10383","4893","h","elianto","#f73b6a7A","-1"," ","0","-10","[1484.5]","1","2","","","10383","37","3","4","lose","no-go","0"
"pit-trial","156","1058209","0.0-42.0","battery-v0.2","","""event"",""trial"",""time""
""fullscreenenter"",""1"",""4432""
""blur"",""2"",""14369""
""focus"",""2"",""28815""
","""event"",""trial"",""time""
""blur"",""2"",""14369""
","""event"",""trial"",""time""
""focus"",""2"",""28815""
","""event"",""trial"",""time""
""fullscreenenter"",""1"",""4432""
","
","","","764.7000000029802","","","21","10383","4893","m","elianto","#f73b6a7A"," "," ","1","-10","[1615.1000000089407]","1","2","","","10383","38","0","3","lose","go","1"
"pit-trial","157","1061679","0.0-43.0","battery-v0.2","","""event"",""trial"",""time""
""fullscreenenter"",""1"",""4432""
""blur"",""2"",""14369""
""focus"",""2"",""28815""
","""event"",""trial"",""time""
""blur"",""2"",""14369""
","""event"",""trial"",""time""
""focus"",""2"",""28815""
","""event"",""trial"",""time""
""fullscreenenter"",""1"",""4432""
","
","","","617.5","","","21","10383","4893","y","elianto","#f73b6a7A"," "," ","1","0","[1468.5999999940395]","1","2","","","10383","39","2","3","lose","go","0"
"pit-trial","158","1066532","0.0-44.0","battery-v0.2","","""event"",""trial"",""time""
""fullscreenenter"",""1"",""4432""
""blur"",""2"",""14369""
""focus"",""2"",""28815""
","""event"",""trial"",""time""
""blur"",""2"",""14369""
","""event"",""trial"",""time""
""focus"",""2"",""28815""
","""event"",""trial"",""time""
""fullscreenenter"",""1"",""4432""
","
","","","-1","","","21","10383","4893","r","elianto","#3366ff99","-1","-1","1","+10","[]","0","2","","","10383","40","1","2","win","no-go","0"
"pit-trial","159","1071385","0.0-45.0","battery-v0.2","","""event"",""trial"",""time""
""fullscreenenter"",""1"",""4432""
""blur"",""2"",""14369""
""focus"",""2"",""28815""
","""event"",""trial"",""time""
""blur"",""2"",""14369""
","""event"",""trial"",""time""
""focus"",""2"",""28815""
","""event"",""trial"",""time""
""fullscreenenter"",""1"",""4432""
","
","","","-1","","","21","10383","4893","r","elianto","#3366ff99","-1","-1","1","+10","[]","0","2","","","10383","41","1","2","win","no-go","0"
"pit-trial","160","1074961","0.0-46.0","battery-v0.2","","""event"",""trial"",""time""
""fullscreenenter"",""1"",""4432""
""blur"",""2"",""14369""
""focus"",""2"",""28815""
","""event"",""trial"",""time""
""blur"",""2"",""14369""
","""event"",""trial"",""time""
""focus"",""2"",""28815""
","""event"",""trial"",""time""
""fullscreenenter"",""1"",""4432""
","
","","","722","","","21","10383","4893","m","elianto","#f73b6a7A"," "," ","1","0","[1573.2999999970198]","1","2","","","10383","42","0","3","lose","go","0"
"pit-trial","161","1078504","0.0-47.0","battery-v0.2","","""event"",""trial"",""time""
""fullscreenenter"",""1"",""4432""
""blur"",""2"",""14369""
""focus"",""2"",""28815""
","""event"",""trial"",""time""
""blur"",""2"",""14369""
","""event"",""trial"",""time""
""focus"",""2"",""28815""
","""event"",""trial"",""time""
""fullscreenenter"",""1"",""4432""
","
","","","681.7999999970198","","","21","10383","4893","y","elianto","#f73b6a7A"," "," ","1","0","[1532.2999999970198]","1","2","","","10383","43","2","3","lose","go","0"
"pit-trial","162","1081951","0.0-48.0","battery-v0.2","","""event"",""trial"",""time""
""fullscreenenter"",""1"",""4432""
""blur"",""2"",""14369""
""focus"",""2"",""28815""
","""event"",""trial"",""time""
""blur"",""2"",""14369""
","""event"",""trial"",""time""
""focus"",""2"",""28815""
","""event"",""trial"",""time""
""fullscreenenter"",""1"",""4432""
","
","","","594.6999999880791","","","21","10383","4893","h","elianto","#f73b6a7A","-1"," ","0","-10","[1445.2000000029802]","1","2","","","10383","44","3","4","lose","no-go","0"
"pit-trial","163","1086804","0.0-49.0","battery-v0.2","","""event"",""trial"",""time""
""fullscreenenter"",""1"",""4432""
""blur"",""2"",""14369""
""focus"",""2"",""28815""
","""event"",""trial"",""time""
""blur"",""2"",""14369""
","""event"",""trial"",""time""
""focus"",""2"",""28815""
","""event"",""trial"",""time""
""fullscreenenter"",""1"",""4432""
","
","","","-1","","","21","10383","4893","h","elianto","#f73b6a7A","-1","-1","1","-10","[]","0","2","","","10383","45","3","4","lose","no-go","1"
"pit-trial","164","1090433","0.0-50.0","battery-v0.2","","""event"",""trial"",""time""
""fullscreenenter"",""1"",""4432""
""blur"",""2"",""14369""
""focus"",""2"",""28815""
","""event"",""trial"",""time""
""blur"",""2"",""14369""
","""event"",""trial"",""time""
""focus"",""2"",""28815""
","""event"",""trial"",""time""
""fullscreenenter"",""1"",""4432""
","
","","","776.8999999910593","","","21","10383","4893","m","elianto","#f73b6a7A"," "," ","1","0","[1627.0999999940395]","1","2","","","10383","46","0","3","lose","go","0"
"pit-trial","165","1093953","0.0-51.0","battery-v0.2","","""event"",""trial"",""time""
""fullscreenenter"",""1"",""4432""
""blur"",""2"",""14369""
""focus"",""2"",""28815""
","""event"",""trial"",""time""
""blur"",""2"",""14369""
","""event"",""trial"",""time""
""focus"",""2"",""28815""
","""event"",""trial"",""time""
""fullscreenenter"",""1"",""4432""
","
","","","665.7000000029802","","","21","10383","4893","y","elianto","#f73b6a7A"," "," ","1","-10","[1516.6000000089407]","1","2","","","10383","47","2","3","lose","go","1"
"pit-trial","166","1097633","0.0-52.0","battery-v0.2","","""event"",""trial"",""time""
""fullscreenenter"",""1"",""4432""
""blur"",""2"",""14369""
""focus"",""2"",""28815""
","""event"",""trial"",""time""
""blur"",""2"",""14369""
","""event"",""trial"",""time""
""focus"",""2"",""28815""
","""event"",""trial"",""time""
""fullscreenenter"",""1"",""4432""
","
","","","826.7999999970198","","","21","10383","4893","r","elianto","#3366ff99","-1"," ","0","+10","[1676.7999999970198]","1","2","","","10383","48","1","2","win","no-go","1"
"pit-trial","167","1102192","0.0-53.0","battery-v0.2","","""event"",""trial"",""time""
""fullscreenenter"",""1"",""4432""
""blur"",""2"",""14369""
""focus"",""2"",""28815""
","""event"",""trial"",""time""
""blur"",""2"",""14369""
","""event"",""trial"",""time""
""focus"",""2"",""28815""
","""event"",""trial"",""time""
""fullscreenenter"",""1"",""4432""
","
","","","1707.199999988079","","","21","10383","4893","m","elianto","#f73b6a7A"," "," ","1","0","[2557.7999999970198]","1","2","","","10383","49","0","3","lose","go","0"
"pit-trial","168","1107045","0.0-54.0","battery-v0.2","","""event"",""trial"",""time""
""fullscreenenter"",""1"",""4432""
""blur"",""2"",""14369""
""focus"",""2"",""28815""
","""event"",""trial"",""time""
""blur"",""2"",""14369""
","""event"",""trial"",""time""
""focus"",""2"",""28815""
","""event"",""trial"",""time""
""fullscreenenter"",""1"",""4432""
","
","","","-1","","","21","10383","4893","h","elianto","#f73b6a7A","-1","-1","1","-10","[]","0","2","","","10383","50","3","4","lose","no-go","1"
"pit-trial","169","1110719","0.0-55.0","battery-v0.2","","""event"",""trial"",""time""
""fullscreenenter"",""1"",""4432""
""blur"",""2"",""14369""
""focus"",""2"",""28815""
","""event"",""trial"",""time""
""blur"",""2"",""14369""
","""event"",""trial"",""time""
""focus"",""2"",""28815""
","""event"",""trial"",""time""
""fullscreenenter"",""1"",""4432""
","
","","","821.7000000029802","","","21","10383","4893","r","elianto","#3366ff99","-1"," ","0","0","[1671.7999999970198]","1","2","","","10383","51","1","2","win","no-go","0"
"pit-trial","170","1114481","0.0-56.0","battery-v0.2","","""event"",""trial"",""time""
""fullscreenenter"",""1"",""4432""
""blur"",""2"",""14369""
""focus"",""2"",""28815""
","""event"",""trial"",""time""
""blur"",""2"",""14369""
","""event"",""trial"",""time""
""focus"",""2"",""28815""
","""event"",""trial"",""time""
""fullscreenenter"",""1"",""4432""
","
","","","908","","","21","10383","4893","y","elianto","#f73b6a7A"," "," ","1","0","[1759.4000000059605]","1","2","","","10383","52","2","3","lose","go","0"
"pit-trial","171","1118064","0.0-57.0","battery-v0.2","","""event"",""trial"",""time""
""fullscreenenter"",""1"",""4432""
""blur"",""2"",""14369""
""focus"",""2"",""28815""
","""event"",""trial"",""time""
""blur"",""2"",""14369""
","""event"",""trial"",""time""
""focus"",""2"",""28815""
","""event"",""trial"",""time""
""fullscreenenter"",""1"",""4432""
","
","","","730","","","21","10383","4893","y","elianto","#f73b6a7A"," "," ","1","0","[1580.9000000059605]","1","2","","","10383","53","2","3","lose","go","0"
"pit-trial","172","1121775","0.0-58.0","battery-v0.2","","""event"",""trial"",""time""
""fullscreenenter"",""1"",""4432""
""blur"",""2"",""14369""
""focus"",""2"",""28815""
","""event"",""trial"",""time""
""blur"",""2"",""14369""
","""event"",""trial"",""time""
""focus"",""2"",""28815""
","""event"",""trial"",""time""
""fullscreenenter"",""1"",""4432""
","
","","","858.5","","","21","10383","4893","r","elianto","#3366ff99","-1"," ","0","0","[1708.9000000059605]","1","2","","","10383","54","1","2","win","no-go","0"
"pit-trial","173","1126368","0.0-59.0","battery-v0.2","","""event"",""trial"",""time""
""fullscreenenter"",""1"",""4432""
""blur"",""2"",""14369""
""focus"",""2"",""28815""
","""event"",""trial"",""time""
""blur"",""2"",""14369""
","""event"",""trial"",""time""
""focus"",""2"",""28815""
","""event"",""trial"",""time""
""fullscreenenter"",""1"",""4432""
","
","","","1740.7000000029802","","","21","10383","4893","m","elianto","#f73b6a7A"," "," ","1","0","[2591.2999999970198]","1","2","","","10383","55","0","3","lose","go","0"
"pit-trial","174","1131222","0.0-60.0","battery-v0.2","","""event"",""trial"",""time""
""fullscreenenter"",""1"",""4432""
""blur"",""2"",""14369""
""focus"",""2"",""28815""
","""event"",""trial"",""time""
""blur"",""2"",""14369""
","""event"",""trial"",""time""
""focus"",""2"",""28815""
","""event"",""trial"",""time""
""fullscreenenter"",""1"",""4432""
","
","","","-1","","","21","10383","4893","h","elianto","#f73b6a7A","-1","-1","1","-10","[]","0","2","","","10383","56","3","4","lose","no-go","1"
"pit-trial","175","1134832","0.0-61.0","battery-v0.2","","""event"",""trial"",""time""
""fullscreenenter"",""1"",""4432""
""blur"",""2"",""14369""
""focus"",""2"",""28815""
","""event"",""trial"",""time""
""blur"",""2"",""14369""
","""event"",""trial"",""time""
""focus"",""2"",""28815""
","""event"",""trial"",""time""
""fullscreenenter"",""1"",""4432""
","
","","","757.2999999970198","","","21","10383","4893","m","elianto","#f73b6a7A"," "," ","1","0","[1608.1000000089407]","1","2","","","10383","57","0","3","lose","go","0"
"pit-trial","176","1138673","0.0-62.0","battery-v0.2","","""event"",""trial"",""time""
""fullscreenenter"",""1"",""4432""
""blur"",""2"",""14369""
""focus"",""2"",""28815""
","""event"",""trial"",""time""
""blur"",""2"",""14369""
","""event"",""trial"",""time""
""focus"",""2"",""28815""
","""event"",""trial"",""time""
""fullscreenenter"",""1"",""4432""
","
","","","989.7000000029802","","","21","10383","4893","h","elianto","#f73b6a7A","-1"," ","0","-10","[1839.7999999970198]","1","2","","","10383","58","3","4","lose","no-go","0"
"pit-trial","177","1143526","0.0-63.0","battery-v0.2","","""event"",""trial"",""time""
""fullscreenenter"",""1"",""4432""
""blur"",""2"",""14369""
""focus"",""2"",""28815""
","""event"",""trial"",""time""
""blur"",""2"",""14369""
","""event"",""trial"",""time""
""focus"",""2"",""28815""
","""event"",""trial"",""time""
""fullscreenenter"",""1"",""4432""
","
","","","-1","","","21","10383","4893","y","elianto","#f73b6a7A"," ","-1","0","0","[]","0","2","","","10383","59","2","3","lose","go","1"
"pit-trial","178","1148379","0.0-64.0","battery-v0.2","","""event"",""trial"",""time""
""fullscreenenter"",""1"",""4432""
""blur"",""2"",""14369""
""focus"",""2"",""28815""
","""event"",""trial"",""time""
""blur"",""2"",""14369""
","""event"",""trial"",""time""
""focus"",""2"",""28815""
","""event"",""trial"",""time""
""fullscreenenter"",""1"",""4432""
","
","","","-1","","","21","10383","4893","z","elianto","#3366ff99"," ","-1","0","0","[]","0","2","","","10383","60","4","1","win","go","0"
"pit-trial","179","1152273","0.0-65.0","battery-v0.2","","""event"",""trial"",""time""
""fullscreenenter"",""1"",""4432""
""blur"",""2"",""14369""
""focus"",""2"",""28815""
","""event"",""trial"",""time""
""blur"",""2"",""14369""
","""event"",""trial"",""time""
""focus"",""2"",""28815""
","""event"",""trial"",""time""
""fullscreenenter"",""1"",""4432""
","
","","","1041.8999999910593","","","21","10383","4893","r","elianto","#3366ff99","-1"," ","0","0","[1892.3999999910593]","1","2","","","10383","61","1","2","win","no-go","0"
"pit-trial","180","1156287","0.0-66.0","battery-v0.2","","""event"",""trial"",""time""
""fullscreenenter"",""1"",""4432""
""blur"",""2"",""14369""
""focus"",""2"",""28815""
","""event"",""trial"",""time""
""blur"",""2"",""14369""
","""event"",""trial"",""time""
""focus"",""2"",""28815""
","""event"",""trial"",""time""
""fullscreenenter"",""1"",""4432""
","
","","","1159.8999999910593","","","21","10383","4893","y","elianto","#f73b6a7A"," "," ","1","0","[2011.5999999940395]","1","2","","","10383","62","2","3","lose","go","0"
"pit-trial","181","1161139","0.0-67.0","battery-v0.2","","""event"",""trial"",""time""
""fullscreenenter"",""1"",""4432""
""blur"",""2"",""14369""
""focus"",""2"",""28815""
","""event"",""trial"",""time""
""blur"",""2"",""14369""
","""event"",""trial"",""time""
""focus"",""2"",""28815""
","""event"",""trial"",""time""
""fullscreenenter"",""1"",""4432""
","
","","","-1","","","21","10383","4893","h","elianto","#f73b6a7A","-1","-1","1","0","[]","0","2","","","10383","63","3","4","lose","no-go","0"
"pit-trial","182","1166000","0.0-68.0","battery-v0.2","","""event"",""trial"",""time""
""fullscreenenter"",""1"",""4432""
""blur"",""2"",""14369""
""focus"",""2"",""28815""
","""event"",""trial"",""time""
""blur"",""2"",""14369""
","""event"",""trial"",""time""
""focus"",""2"",""28815""
","""event"",""trial"",""time""
""fullscreenenter"",""1"",""4432""
","
","","","-1","","","21","10383","4893","z","elianto","#3366ff99"," ","-1","0","0","[]","0","2","","","10383","64","4","1","win","go","0"
"pit-trial","183","1169632","0.0-69.0","battery-v0.2","","""event"",""trial"",""time""
""fullscreenenter"",""1"",""4432""
""blur"",""2"",""14369""
""focus"",""2"",""28815""
","""event"",""trial"",""time""
""blur"",""2"",""14369""
","""event"",""trial"",""time""
""focus"",""2"",""28815""
","""event"",""trial"",""time""
""fullscreenenter"",""1"",""4432""
","
","","","779.3999999910593","","","21","10383","4893","z","elianto","#3366ff99"," "," ","1","+10","[1630.199999988079]","1","2","","","10383","65","4","1","win","go","0"
"pit-trial","184","1174485","0.0-70.0","battery-v0.2","","""event"",""trial"",""time""
""fullscreenenter"",""1"",""4432""
""blur"",""2"",""14369""
""focus"",""2"",""28815""
","""event"",""trial"",""time""
""blur"",""2"",""14369""
","""event"",""trial"",""time""
""focus"",""2"",""28815""
","""event"",""trial"",""time""
""fullscreenenter"",""1"",""4432""
","
","","","-1","","","21","10383","4893","r","elianto","#3366ff99","-1","-1","1","+10","[]","0","2","","","10383","66","1","2","win","no-go","0"
