"trial_type","trial_index","time_elapsed","internal_node_id","task_version","subject_id","interactions","blur_events","focus_events","fullscreenenter_events","fullscreenexit_events","success","view_history","rt","responses","num_errors","age","subject","participantId","rune","rune_set","hex","correct","choice","accuracy","outcome","keys","total_keys","block","practice","value","sub","trial","stimulus","robot","valence","action","sham"
"pavlovia","0","5","0.0-0.0","battery-v0.2","","""event"",""trial"",""time""
""fullscreenenter"",""1"",""2155""
","
","
","""event"",""trial"",""time""
""fullscreenenter"",""1"",""2155""
","
","","","","","","","","","","","","","","","","","","","","","","","","","","",""
"fullscreen","1","3143","0.0-1.0","battery-v0.2","","""event"",""trial"",""time""
""fullscreenenter"",""1"",""2155""
","
","
","""event"",""trial"",""time""
""fullscreenenter"",""1"",""2155""
","
","true","","","","","","","","","","","","","","","","","","","","","","","","","",""
"pit-instructions","2","38731","0.0-2.0-0.0","battery-v0.2","","""event"",""trial"",""time""
""fullscreenenter"",""1"",""2155""
","
","
","""event"",""trial"",""time""
""fullscreenenter"",""1"",""2155""
","
","","[{""page_index"":0,""viewing_time"":35585.5}]","35586.10000000149","","","","","","","","","","","","","","","","","","","","","","","",""
"pit-comprehension","3","42138","0.0-2.0-1.0-0.0","battery-v0.2","","""event"",""trial"",""time""
""fullscreenenter"",""1"",""2155""
","
","
","""event"",""trial"",""time""
""fullscreenenter"",""1"",""2155""
","
","","","3401.7000000029802","[""shark""]","0","21","15947","6259","","","","","","","","","","","","","","","","","","",""
"pit-instructions","4","43573","0.0-2.0-1.0-1.0","battery-v0.2","","""event"",""trial"",""time""
""fullscreenenter"",""1"",""2155""
","
","
","""event"",""trial"",""time""
""fullscreenenter"",""1"",""2155""
","
","","[{""page_index"":0,""viewing_time"":1429.6000000014901}]","1430","","","","","","","","","","","","","","","","","","","","","","","",""
"pit-comprehension","5","45820","0.0-2.0-2.0-0.0","battery-v0.2","","""event"",""trial"",""time""
""fullscreenenter"",""1"",""2155""
","
","
","""event"",""trial"",""time""
""fullscreenenter"",""1"",""2155""
","
","","","2243.2000000029802","[""tiger""]","0","21","15947","6259","","","","","","","","","","","","","","","","","","",""
"pit-instructions","6","46480","0.0-2.0-2.0-1.0","battery-v0.2","","""event"",""trial"",""time""
""fullscreenenter"",""1"",""2155""
","
","
","""event"",""trial"",""time""
""fullscreenenter"",""1"",""2155""
","
","","[{""page_index"":0,""viewing_time"":657}]","657.3999999985099","","","","","","","","","","","","","","","","","","","","","","","",""
"pit-instructions","7","146086","0.0-2.0-3.0","battery-v0.2","","""event"",""trial"",""time""
""fullscreenenter"",""1"",""2155""
","
","
","""event"",""trial"",""time""
""fullscreenenter"",""1"",""2155""
","
","","[{""page_index"":0,""viewing_time"":8419},{""page_index"":1,""viewing_time"":6542.79999999702},{""page_index"":2,""viewing_time"":6039.30000000447},{""page_index"":3,""viewing_time"":5839.19999999553},{""page_index"":4,""viewing_time"":6444.30000000447},{""page_index"":5,""viewing_time"":6717.69999999553},{""page_index"":6,""viewing_time"":7272.80000000447},{""page_index"":7,""viewing_time"":6835.0999999940395},{""page_index"":8,""viewing_time"":6280.4000000059605},{""page_index"":9,""viewing_time"":10557.5},{""page_index"":10,""viewing_time"":8341.69999999553},{""page_index"":11,""viewing_time"":7327.20000000298},{""page_index"":12,""viewing_time"":7919.39999999851},{""page_index"":13,""viewing_time"":5067.70000000298}]","99604.60000000149","","","","","","","","","","","","","","","","","","","","","","","",""
"pit-trial","8","149585","0.0-2.0-4.0-0.0","battery-v0.2","","""event"",""trial"",""time""
""fullscreenenter"",""1"",""2155""
","
","
","""event"",""trial"",""time""
""fullscreenenter"",""1"",""2155""
","
","","","639.3999999985099","","","21","15947","6259","&#9784;","elianto","#FFFFF080"," "," ","1","&#10004","[1489.8000000044703]","1","0","0","","","","","","","",""
"pit-trial","9","153090","0.0-2.0-4.1-0.1","battery-v0.2","","""event"",""trial"",""time""
""fullscreenenter"",""1"",""2155""
","
","
","""event"",""trial"",""time""
""fullscreenenter"",""1"",""2155""
","
","","","644.6999999955297","","","21","15947","6259","&#9784;","elianto","#FFFFF080"," "," ","1","&#10004","[1495.7999999970198]","1","0","0","","","","","","","",""
"pit-trial","10","156475","0.0-2.0-4.2-0.2","battery-v0.2","","""event"",""trial"",""time""
""fullscreenenter"",""1"",""2155""
","
","
","""event"",""trial"",""time""
""fullscreenenter"",""1"",""2155""
","
","","","521.7999999970198","","","21","15947","6259","&#9784;","elianto","#FFFFF080"," "," ","1","&#10004","[1372]","1","0","0","","","","","","","",""
"pit-trial","11","159878","0.0-2.0-4.3-0.3","battery-v0.2","","""event"",""trial"",""time""
""fullscreenenter"",""1"",""2155""
","
","
","""event"",""trial"",""time""
""fullscreenenter"",""1"",""2155""
","
","","","545.2000000029802","","","21","15947","6259","&#9784;","elianto","#FFFFF080"," "," ","1","&#10004","[1395.8000000044703]","1","0","0","","","","","","","",""
"pit-trial","12","163224","0.0-2.0-4.4-0.4","battery-v0.2","","""event"",""trial"",""time""
""fullscreenenter"",""1"",""2155""
","
","
","""event"",""trial"",""time""
""fullscreenenter"",""1"",""2155""
","
","","","486.40000000596046","","","21","15947","6259","&#9784;","elianto","#FFFFF080"," "," ","1","&#10004","[1337.2000000029802]","1","0","0","","","","","","","",""
"pit-instructions","13","186884","0.0-2.0-5.0","battery-v0.2","","""event"",""trial"",""time""
""fullscreenenter"",""1"",""2155""
","
","
","""event"",""trial"",""time""
""fullscreenenter"",""1"",""2155""
","
","","[{""page_index"":0,""viewing_time"":5422.70000000298},{""page_index"":1,""viewing_time"":5719.69999999553},{""page_index"":2,""viewing_time"":6941.60000000149},{""page_index"":3,""viewing_time"":5570.5}]","23655.70000000298","","","","","","","","","","","","","","","","","","","","","","","",""
"pit-trial","14","191746","0.0-2.0-6.0-0.0","battery-v0.2","","""event"",""trial"",""time""
""fullscreenenter"",""1"",""2155""
","
","
","""event"",""trial"",""time""
""fullscreenenter"",""1"",""2155""
","
","","","-1","","","21","15947","6259","&#9854;","elianto","#FFFFF080","-1","-1","1","&#10004","[]","0","0","1","","","","","","","",""
"pit-trial","15","196609","0.0-2.0-6.1-0.1","battery-v0.2","","""event"",""trial"",""time""
""fullscreenenter"",""1"",""2155""
","
","
","""event"",""trial"",""time""
""fullscreenenter"",""1"",""2155""
","
","","","-1","","","21","15947","6259","&#9854;","elianto","#FFFFF080","-1","-1","1","&#10004","[]","0","0","1","","","","","","","",""
"pit-trial","16","201474","0.0-2.0-6.2-0.2","battery-v0.2","","""event"",""trial"",""time""
""fullscreenenter"",""1"",""2155""
","
","
","""event"",""trial"",""time""
""fullscreenenter"",""1"",""2155""
","
","","","-1","","","21","15947","6259","&#9854;","elianto","#FFFFF080","-1","-1","1","&#10004","[]","0","0","1","","","","","","","",""
"pit-trial","17","206336","0.0-2.0-6.3-0.3","battery-v0.2","","""event"",""trial"",""time""
""fullscreenenter"",""1"",""2155""
","
","
","""event"",""trial"",""time""
""fullscreenenter"",""1"",""2155""
","
","","","-1","","","21","15947","6259","&#9854;","elianto","#FFFFF080","-1","-1","1","&#10004","[]","0","0","1","","","","","","","",""
"pit-trial","18","211198","0.0-2.0-6.4-0.4","battery-v0.2","","""event"",""trial"",""time""
""fullscreenenter"",""1"",""2155""
","
","
","""event"",""trial"",""time""
""fullscreenenter"",""1"",""2155""
","
","","","-1","","","21","15947","6259","&#9854;","elianto","#FFFFF080","-1","-1","1","&#10004","[]","0","0","1","","","","","","","",""
"pit-instructions","19","328859","0.0-2.0-7.0","battery-v0.2","","""event"",""trial"",""time""
""fullscreenenter"",""1"",""2155""
","
","
","""event"",""trial"",""time""
""fullscreenenter"",""1"",""2155""
","
","","[{""page_index"":0,""viewing_time"":5647.70000000298},{""page_index"":1,""viewing_time"":7561},{""page_index"":2,""viewing_time"":6064.10000000149},{""page_index"":3,""viewing_time"":6400},{""page_index"":4,""viewing_time"":5681.29999999702},{""page_index"":5,""viewing_time"":5012.39999999851},{""page_index"":6,""viewing_time"":4399.5},{""page_index"":7,""viewing_time"":9827.90000000596},{""page_index"":8,""viewing_time"":7066.19999999553},{""page_index"":9,""viewing_time"":6266.5},{""page_index"":10,""viewing_time"":6090.60000000149},{""page_index"":11,""viewing_time"":4633.5},{""page_index"":12,""viewing_time"":7152},{""page_index"":13,""viewing_time"":7068.70000000298},{""page_index"":14,""viewing_time"":7533.5},{""page_index"":15,""viewing_time"":7000.0999999940395},{""page_index"":16,""viewing_time"":6692.70000000298},{""page_index"":17,""viewing_time"":7561.5}]","117660.10000000149","","","","","","","","","","","","","","","","","","","","","","","",""
"pit-trial","20","332656","0.0-2.0-8.0-0.0","battery-v0.2","","""event"",""trial"",""time""
""fullscreenenter"",""1"",""2155""
","
","
","""event"",""trial"",""time""
""fullscreenenter"",""1"",""2155""
","
","","","938.3000000044703","","","21","15947","6259","&#9776;","elianto","#3366ff99"," "," ","1","+10","[1789.1000000014901]","1","0","1","","","","","","","",""
"pit-trial","21","336044","0.0-2.0-8.0-1.0","battery-v0.2","","""event"",""trial"",""time""
""fullscreenenter"",""1"",""2155""
","
","
","""event"",""trial"",""time""
""fullscreenenter"",""1"",""2155""
","
","","","524.3000000044703","","","21","15947","6259","&#9776;","elianto","#3366ff99"," "," ","1","+10","[1375.8000000044703]","1","0","1","","","","","","","",""
"pit-trial","22","339373","0.0-2.0-8.0-2.0","battery-v0.2","","""event"",""trial"",""time""
""fullscreenenter"",""1"",""2155""
","
","
","""event"",""trial"",""time""
""fullscreenenter"",""1"",""2155""
","
","","","464.8999999985099","","","21","15947","6259","&#9776;","elianto","#3366ff99"," "," ","1","+10","[1315.6000000014901]","1","0","1","","","","","","","",""
"pit-trial","23","342651","0.0-2.0-8.0-3.0","battery-v0.2","","""event"",""trial"",""time""
""fullscreenenter"",""1"",""2155""
","
","
","""event"",""trial"",""time""
""fullscreenenter"",""1"",""2155""
","
","","","416.1000000014901","","","21","15947","6259","&#9776;","elianto","#3366ff99"," "," ","1","0","[1267.8999999985099]","1","0","1","","","","","","","",""
"pit-trial","24","346043","0.0-2.0-8.0-4.0","battery-v0.2","","""event"",""trial"",""time""
""fullscreenenter"",""1"",""2155""
","
","
","""event"",""trial"",""time""
""fullscreenenter"",""1"",""2155""
","
","","","529.1999999955297","","","21","15947","6259","&#9776;","elianto","#3366ff99"," "," ","1","+10","[1381.1000000014901]","1","0","1","","","","","","","",""
"pit-trial","25","349331","0.0-2.0-8.1-0.1","battery-v0.2","","""event"",""trial"",""time""
""fullscreenenter"",""1"",""2155""
","
","
","""event"",""trial"",""time""
""fullscreenenter"",""1"",""2155""
","
","","","429.5","","","21","15947","6259","&#9776;","elianto","#3366ff99"," "," ","1","+10","[1281.2000000029802]","1","0","1","","","","","","","",""
"pit-trial","26","352534","0.0-2.0-8.1-1.1","battery-v0.2","","""event"",""trial"",""time""
""fullscreenenter"",""1"",""2155""
","
","
","""event"",""trial"",""time""
""fullscreenenter"",""1"",""2155""
","
","","","341.5","","","21","15947","6259","&#9776;","elianto","#3366ff99"," "," ","1","+10","[1193]","1","0","1","","","","","","","",""
"pit-trial","27","355884","0.0-2.0-8.1-2.1","battery-v0.2","","""event"",""trial"",""time""
""fullscreenenter"",""1"",""2155""
","
","
","""event"",""trial"",""time""
""fullscreenenter"",""1"",""2155""
","
","","","488.20000000298023","","","21","15947","6259","&#9776;","elianto","#3366ff99"," "," ","1","+10","[1339.5]","1","0","1","","","","","","","",""
"pit-trial","28","359453","0.0-2.0-8.1-3.1","battery-v0.2","","""event"",""trial"",""time""
""fullscreenenter"",""1"",""2155""
","
","
","""event"",""trial"",""time""
""fullscreenenter"",""1"",""2155""
","
","","","708.2000000029802","","","21","15947","6259","&#9776;","elianto","#3366ff99"," "," ","1","0","[1559.6000000014901]","1","0","1","","","","","","","",""
"pit-trial","29","362869","0.0-2.0-8.1-4.1","battery-v0.2","","""event"",""trial"",""time""
""fullscreenenter"",""1"",""2155""
","
","
","""event"",""trial"",""time""
""fullscreenenter"",""1"",""2155""
","
","","","555.7999999970198","","","21","15947","6259","&#9776;","elianto","#3366ff99"," "," ","1","+10","[1406.8999999985099]","1","0","1","","","","","","","",""
"pit-trial","30","366227","0.0-2.0-8.2-0.2","battery-v0.2","","""event"",""trial"",""time""
""fullscreenenter"",""1"",""2155""
","
","
","""event"",""trial"",""time""
""fullscreenenter"",""1"",""2155""
","
","","","499.1000000014901","","","21","15947","6259","&#9776;","elianto","#3366ff99"," "," ","1","+10","[1351.2000000029802]","1","0","1","","","","","","","",""
"pit-trial","31","369512","0.0-2.0-8.2-1.2","battery-v0.2","","""event"",""trial"",""time""
""fullscreenenter"",""1"",""2155""
","
","
","""event"",""trial"",""time""
""fullscreenenter"",""1"",""2155""
","
","","","425.3999999985099","","","21","15947","6259","&#9776;","elianto","#3366ff99"," "," ","1","+10","[1276.5]","1","0","1","","","","","","","",""
"pit-trial","32","372793","0.0-2.0-8.2-2.2","battery-v0.2","","""event"",""trial"",""time""
""fullscreenenter"",""1"",""2155""
","
","
","""event"",""trial"",""time""
""fullscreenenter"",""1"",""2155""
","
","","","425.8999999985099","","","21","15947","6259","&#9776;","elianto","#3366ff99"," "," ","1","+10","[1276]","1","0","1","","","","","","","",""
"pit-trial","33","376083","0.0-2.0-8.2-3.2","battery-v0.2","","""event"",""trial"",""time""
""fullscreenenter"",""1"",""2155""
","
","
","""event"",""trial"",""time""
""fullscreenenter"",""1"",""2155""
","
","","","431.3999999985099","","","21","15947","6259","&#9776;","elianto","#3366ff99"," "," ","1","0","[1281.8999999985099]","1","0","1","","","","","","","",""
"pit-trial","34","379290","0.0-2.0-8.2-4.2","battery-v0.2","","""event"",""trial"",""time""
""fullscreenenter"",""1"",""2155""
","
","
","""event"",""trial"",""time""
""fullscreenenter"",""1"",""2155""
","
","","","345.90000000596046","","","21","15947","6259","&#9776;","elianto","#3366ff99"," "," ","1","+10","[1197]","1","0","1","","","","","","","",""
"call-function","35","379297","0.0-2.0-9.0","battery-v0.2","","""event"",""trial"",""time""
""fullscreenenter"",""1"",""2155""
","
","
","""event"",""trial"",""time""
""fullscreenenter"",""1"",""2155""
","
","","","","","","","","","","","","","","","","","","","","","","","","","","",""
"pit-instructions","36","425027","0.0-2.0-10.0","battery-v0.2","","""event"",""trial"",""time""
""fullscreenenter"",""1"",""2155""
","
","
","""event"",""trial"",""time""
""fullscreenenter"",""1"",""2155""
","
","","[{""page_index"":0,""viewing_time"":9847.09999999404},{""page_index"":1,""viewing_time"":8293.60000000149},{""page_index"":2,""viewing_time"":9322.5},{""page_index"":3,""viewing_time"":9729.10000000149},{""page_index"":4,""viewing_time"":8536}]","45728.89999999851","","","","","","","","","","","","","","","","","","","","","","","",""
"pit-trial","37","429662","0.0-2.0-11.0-0.0","battery-v0.2","","""event"",""trial"",""time""
""fullscreenenter"",""1"",""2155""
","
","
","""event"",""trial"",""time""
""fullscreenenter"",""1"",""2155""
","
","","","1774.6000000014901","","","21","15947","6259","&#9761;","elianto","#3366ff99","-1"," ","0","0","[2626.3000000044703]","1","0","2","","","","","","","",""
"pit-trial","38","434525","0.0-2.0-11.0-1.0","battery-v0.2","","""event"",""trial"",""time""
""fullscreenenter"",""1"",""2155""
","
","
","""event"",""trial"",""time""
""fullscreenenter"",""1"",""2155""
","
","","","-1","","","21","15947","6259","&#9761;","elianto","#3366ff99","-1","-1","1","+10","[]","0","0","2","","","","","","","",""
"pit-trial","39","438925","0.0-2.0-11.0-2.0","battery-v0.2","","""event"",""trial"",""time""
""fullscreenenter"",""1"",""2155""
","
","
","""event"",""trial"",""time""
""fullscreenenter"",""1"",""2155""
","
","","","1536","","","21","15947","6259","&#9761;","elianto","#3366ff99","-1"," ","0","0","[2387.1999999955297]","1","0","2","","","","","","","",""
"pit-trial","40","443791","0.0-2.0-11.0-3.0","battery-v0.2","","""event"",""trial"",""time""
""fullscreenenter"",""1"",""2155""
","
","
","""event"",""trial"",""time""
""fullscreenenter"",""1"",""2155""
","
","","","-1","","","21","15947","6259","&#9761;","elianto","#3366ff99","-1","-1","1","0","[]","0","0","2","","","","","","","",""
"pit-trial","41","448656","0.0-2.0-11.0-4.0","battery-v0.2","","""event"",""trial"",""time""
""fullscreenenter"",""1"",""2155""
","
","
","""event"",""trial"",""time""
""fullscreenenter"",""1"",""2155""
","
","","","-1","","","21","15947","6259","&#9761;","elianto","#3366ff99","-1","-1","1","+10","[]","0","0","2","","","","","","","",""
"pit-trial","42","452408","0.0-2.0-11.1-0.1","battery-v0.2","","""event"",""trial"",""time""
""fullscreenenter"",""1"",""2155""
","
","
","""event"",""trial"",""time""
""fullscreenenter"",""1"",""2155""
","
","","","887.1999999955297","","","21","15947","6259","&#9761;","elianto","#3366ff99","-1"," ","0","0","[1741.1999999955297]","1","0","2","","","","","","","",""
"pit-trial","43","457272","0.0-2.0-11.1-1.1","battery-v0.2","","""event"",""trial"",""time""
""fullscreenenter"",""1"",""2155""
","
","
","""event"",""trial"",""time""
""fullscreenenter"",""1"",""2155""
","
","","","-1","","","21","15947","6259","&#9761;","elianto","#3366ff99","-1","-1","1","+10","[]","0","0","2","","","","","","","",""
"pit-trial","44","462136","0.0-2.0-11.1-2.1","battery-v0.2","","""event"",""trial"",""time""
""fullscreenenter"",""1"",""2155""
","
","
","""event"",""trial"",""time""
""fullscreenenter"",""1"",""2155""
","
","","","-1","","","21","15947","6259","&#9761;","elianto","#3366ff99","-1","-1","1","+10","[]","0","0","2","","","","","","","",""
"pit-trial","45","465670","0.0-2.0-11.1-3.1","battery-v0.2","","""event"",""trial"",""time""
""fullscreenenter"",""1"",""2155""
","
","
","""event"",""trial"",""time""
""fullscreenenter"",""1"",""2155""
","
","","","674.4000000059605","","","21","15947","6259","&#9761;","elianto","#3366ff99","-1"," ","0","+10","[1524.8000000044703]","1","0","2","","","","","","","",""
"pit-trial","46","470527","0.0-2.0-11.1-4.1","battery-v0.2","","""event"",""trial"",""time""
""fullscreenenter"",""1"",""2155""
","
","
","""event"",""trial"",""time""
""fullscreenenter"",""1"",""2155""
","
","","","-1","","","21","15947","6259","&#9761;","elianto","#3366ff99","-1","-1","1","+10","[]","0","0","2","","","","","","","",""
"pit-trial","47","475393","0.0-2.0-11.2-0.2","battery-v0.2","","""event"",""trial"",""time""
""fullscreenenter"",""1"",""2155""
","
","
","""event"",""trial"",""time""
""fullscreenenter"",""1"",""2155""
","
","","","-1","","","21","15947","6259","&#9761;","elianto","#3366ff99","-1","-1","1","+10","[]","0","0","2","","","","","","","",""
"pit-trial","48","479352","0.0-2.0-11.2-1.2","battery-v0.2","","""event"",""trial"",""time""
""fullscreenenter"",""1"",""2155""
","
","
","""event"",""trial"",""time""
""fullscreenenter"",""1"",""2155""
","
","","","1100.1000000014901","","","21","15947","6259","&#9761;","elianto","#3366ff99","-1"," ","0","0","[1951.6000000014901]","1","0","2","","","","","","","",""
"pit-trial","49","483426","0.0-2.0-11.2-2.2","battery-v0.2","","""event"",""trial"",""time""
""fullscreenenter"",""1"",""2155""
","
","
","""event"",""trial"",""time""
""fullscreenenter"",""1"",""2155""
","
","","","1216.2999999970198","","","21","15947","6259","&#9761;","elianto","#3366ff99","-1"," ","0","0","[2067.2999999970198]","1","0","2","","","","","","","",""
"pit-trial","50","488290","0.0-2.0-11.2-3.2","battery-v0.2","","""event"",""trial"",""time""
""fullscreenenter"",""1"",""2155""
","
","
","""event"",""trial"",""time""
""fullscreenenter"",""1"",""2155""
","
","","","-1","","","21","15947","6259","&#9761;","elianto","#3366ff99","-1","-1","1","0","[]","0","0","2","","","","","","","",""
"pit-trial","51","493157","0.0-2.0-11.2-4.2","battery-v0.2","","""event"",""trial"",""time""
""fullscreenenter"",""1"",""2155""
","
","
","""event"",""trial"",""time""
""fullscreenenter"",""1"",""2155""
","
","","","-1","","","21","15947","6259","&#9761;","elianto","#3366ff99","-1","-1","1","+10","[]","0","0","2","","","","","","","",""
"pit-trial","52","498025","0.0-2.0-11.3-0.3","battery-v0.2","","""event"",""trial"",""time""
""fullscreenenter"",""1"",""2155""
","
","
","""event"",""trial"",""time""
""fullscreenenter"",""1"",""2155""
","
","","","-1","","","21","15947","6259","&#9761;","elianto","#3366ff99","-1","-1","1","+10","[]","0","0","2","","","","","","","",""
"pit-trial","53","501934","0.0-2.0-11.3-1.3","battery-v0.2","","""event"",""trial"",""time""
""fullscreenenter"",""1"",""2155""
","
","
","""event"",""trial"",""time""
""fullscreenenter"",""1"",""2155""
","
","","","1051.5","","","21","15947","6259","&#9761;","elianto","#3366ff99","-1"," ","0","0","[1902.8000000044703]","1","0","2","","","","","","","",""
"pit-trial","54","506801","0.0-2.0-11.3-2.3","battery-v0.2","","""event"",""trial"",""time""
""fullscreenenter"",""1"",""2155""
","
","
","""event"",""trial"",""time""
""fullscreenenter"",""1"",""2155""
","
","","","-1","","","21","15947","6259","&#9761;","elianto","#3366ff99","-1","-1","1","+10","[]","0","0","2","","","","","","","",""
"pit-trial","55","511661","0.0-2.0-11.3-3.3","battery-v0.2","","""event"",""trial"",""time""
""fullscreenenter"",""1"",""2155""
","
","
","""event"",""trial"",""time""
""fullscreenenter"",""1"",""2155""
","
","","","-1","","","21","15947","6259","&#9761;","elianto","#3366ff99","-1","-1","1","0","[]","0","0","2","","","","","","","",""
"pit-trial","56","515347","0.0-2.0-11.3-4.3","battery-v0.2","","""event"",""trial"",""time""
""fullscreenenter"",""1"",""2155""
","
","
","""event"",""trial"",""time""
""fullscreenenter"",""1"",""2155""
","
","","","822.2000000029802","","","21","15947","6259","&#9761;","elianto","#3366ff99","-1"," ","0","0","[1674.5]","1","0","2","","","","","","","",""
"call-function","57","515351","0.0-2.0-12.0","battery-v0.2","","""event"",""trial"",""time""
""fullscreenenter"",""1"",""2155""
","
","
","""event"",""trial"",""time""
""fullscreenenter"",""1"",""2155""
","
","","","","","","","","","","","","","","","","","","","","","","","","","","",""
"pit-instructions","58","549736","0.0-2.0-13.0","battery-v0.2","","""event"",""trial"",""time""
""fullscreenenter"",""1"",""2155""
","
","
","""event"",""trial"",""time""
""fullscreenenter"",""1"",""2155""
","
","","[{""page_index"":0,""viewing_time"":4664.60000000149},{""page_index"":1,""viewing_time"":8462.10000000149},{""page_index"":2,""viewing_time"":4574.89999999851},{""page_index"":3,""viewing_time"":11850.30000000447},{""page_index"":4,""viewing_time"":4832}]","34384.60000000149","","","","","","","","","","","","","","","","","","","","","","","",""
"pit-trial","59","554590","0.0-2.0-14.0-0.0","battery-v0.2","","""event"",""trial"",""time""
""fullscreenenter"",""1"",""2155""
","
","
","""event"",""trial"",""time""
""fullscreenenter"",""1"",""2155""
","
","","","1993.5","","","21","15947","6259","&#9826;","elianto","#f73b6a7A","-1"," ","0","-10","[2844.89999999851]","1","0","3","","","","","","","",""
"pit-trial","60","559457","0.0-2.0-14.0-1.0","battery-v0.2","","""event"",""trial"",""time""
""fullscreenenter"",""1"",""2155""
","
","
","""event"",""trial"",""time""
""fullscreenenter"",""1"",""2155""
","
","","","-1","","","21","15947","6259","&#9826;","elianto","#f73b6a7A","-1","-1","1","0","[]","0","0","3","","","","","","","",""
"pit-trial","61","564321","0.0-2.0-14.0-2.0","battery-v0.2","","""event"",""trial"",""time""
""fullscreenenter"",""1"",""2155""
","
","
","""event"",""trial"",""time""
""fullscreenenter"",""1"",""2155""
","
","","","-1","","","21","15947","6259","&#9826;","elianto","#f73b6a7A","-1","-1","1","0","[]","0","0","3","","","","","","","",""
"pit-trial","62","569183","0.0-2.0-14.0-3.0","battery-v0.2","","""event"",""trial"",""time""
""fullscreenenter"",""1"",""2155""
","
","
","""event"",""trial"",""time""
""fullscreenenter"",""1"",""2155""
","
","","","-1","","","21","15947","6259","&#9826;","elianto","#f73b6a7A","-1","-1","1","-10","[]","0","0","3","","","","","","","",""
"pit-trial","63","574048","0.0-2.0-14.0-4.0","battery-v0.2","","""event"",""trial"",""time""
""fullscreenenter"",""1"",""2155""
","
","
","""event"",""trial"",""time""
""fullscreenenter"",""1"",""2155""
","
","","","-1","","","21","15947","6259","&#9826;","elianto","#f73b6a7A","-1","-1","1","0","[]","0","0","3","","","","","","","",""
"pit-trial","64","578914","0.0-2.0-14.1-0.1","battery-v0.2","","""event"",""trial"",""time""
""fullscreenenter"",""1"",""2155""
","
","
","""event"",""trial"",""time""
""fullscreenenter"",""1"",""2155""
","
","","","-1","","","21","15947","6259","&#9826;","elianto","#f73b6a7A","-1","-1","1","0","[]","0","0","3","","","","","","","",""
"pit-trial","65","582401","0.0-2.0-14.1-1.1","battery-v0.2","","""event"",""trial"",""time""
""fullscreenenter"",""1"",""2155""
","
","
","""event"",""trial"",""time""
""fullscreenenter"",""1"",""2155""
","
","","","621","","","21","15947","6259","&#9826;","elianto","#f73b6a7A","-1"," ","0","-10","[1472.3999999985099]","1","0","3","","","","","","","",""
"pit-trial","66","587263","0.0-2.0-14.1-2.1","battery-v0.2","","""event"",""trial"",""time""
""fullscreenenter"",""1"",""2155""
","
","
","""event"",""trial"",""time""
""fullscreenenter"",""1"",""2155""
","
","","","-1","","","21","15947","6259","&#9826;","elianto","#f73b6a7A","-1","-1","1","0","[]","0","0","3","","","","","","","",""
"pit-trial","67","592124","0.0-2.0-14.1-3.1","battery-v0.2","","""event"",""trial"",""time""
""fullscreenenter"",""1"",""2155""
","
","
","""event"",""trial"",""time""
""fullscreenenter"",""1"",""2155""
","
","","","-1","","","21","15947","6259","&#9826;","elianto","#f73b6a7A","-1","-1","1","-10","[]","0","0","3","","","","","","","",""
"pit-trial","68","596988","0.0-2.0-14.1-4.1","battery-v0.2","","""event"",""trial"",""time""
""fullscreenenter"",""1"",""2155""
","
","
","""event"",""trial"",""time""
""fullscreenenter"",""1"",""2155""
","
","","","-1","","","21","15947","6259","&#9826;","elianto","#f73b6a7A","-1","-1","1","0","[]","0","0","3","","","","","","","",""
"pit-trial","69","601850","0.0-2.0-14.2-0.2","battery-v0.2","","""event"",""trial"",""time""
""fullscreenenter"",""1"",""2155""
","
","
","""event"",""trial"",""time""
""fullscreenenter"",""1"",""2155""
","
","","","-1","","","21","15947","6259","&#9826;","elianto","#f73b6a7A","-1","-1","1","0","[]","0","0","3","","","","","","","",""
"pit-trial","70","606714","0.0-2.0-14.2-1.2","battery-v0.2","","""event"",""trial"",""time""
""fullscreenenter"",""1"",""2155""
","
","
","""event"",""trial"",""time""
""fullscreenenter"",""1"",""2155""
","
","","","-1","","","21","15947","6259","&#9826;","elianto","#f73b6a7A","-1","-1","1","0","[]","0","0","3","","","","","","","",""
"pit-trial","71","611580","0.0-2.0-14.2-2.2","battery-v0.2","","""event"",""trial"",""time""
""fullscreenenter"",""1"",""2155""
","
","
","""event"",""trial"",""time""
""fullscreenenter"",""1"",""2155""
","
","","","-1","","","21","15947","6259","&#9826;","elianto","#f73b6a7A","-1","-1","1","0","[]","0","0","3","","","","","","","",""
"pit-trial","72","615540","0.0-2.0-14.2-3.2","battery-v0.2","","""event"",""trial"",""time""
""fullscreenenter"",""1"",""2155""
","
","
","""event"",""trial"",""time""
""fullscreenenter"",""1"",""2155""
","
","","","1101.2999999970198","","","21","15947","6259","&#9826;","elianto","#f73b6a7A","-1"," ","0","0","[1952.6999999955297]","1","0","3","","","","","","","",""
"pit-trial","73","620403","0.0-2.0-14.2-4.2","battery-v0.2","","""event"",""trial"",""time""
""fullscreenenter"",""1"",""2155""
","
","
","""event"",""trial"",""time""
""fullscreenenter"",""1"",""2155""
","
","","","-1","","","21","15947","6259","&#9826;","elianto","#f73b6a7A","-1","-1","1","0","[]","0","0","3","","","","","","","",""
"pit-trial","74","625269","0.0-2.0-14.3-0.3","battery-v0.2","","""event"",""trial"",""time""
""fullscreenenter"",""1"",""2155""
","
","
","""event"",""trial"",""time""
""fullscreenenter"",""1"",""2155""
","
","","","-1","","","21","15947","6259","&#9826;","elianto","#f73b6a7A","-1","-1","1","0","[]","0","0","3","","","","","","","",""
"pit-trial","75","628537","0.0-2.0-14.3-1.3","battery-v0.2","","""event"",""trial"",""time""
""fullscreenenter"",""1"",""2155""
","
","
","""event"",""trial"",""time""
""fullscreenenter"",""1"",""2155""
","
","","","408.80000000447035","","","21","15947","6259","&#9826;","elianto","#f73b6a7A","-1"," ","0","-10","[1259.8000000044703]","1","0","3","","","","","","","",""
"pit-trial","76","633403","0.0-2.0-14.3-2.3","battery-v0.2","","""event"",""trial"",""time""
""fullscreenenter"",""1"",""2155""
","
","
","""event"",""trial"",""time""
""fullscreenenter"",""1"",""2155""
","
","","","-1","","","21","15947","6259","&#9826;","elianto","#f73b6a7A","-1","-1","1","0","[]","0","0","3","","","","","","","",""
"pit-trial","77","638275","0.0-2.0-14.3-3.3","battery-v0.2","","""event"",""trial"",""time""
""fullscreenenter"",""1"",""2155""
","
","
","""event"",""trial"",""time""
""fullscreenenter"",""1"",""2155""
","
","","","-1","","","21","15947","6259","&#9826;","elianto","#f73b6a7A","-1","-1","1","-10","[]","0","0","3","","","","","","","",""
"pit-trial","78","643138","0.0-2.0-14.3-4.3","battery-v0.2","","""event"",""trial"",""time""
""fullscreenenter"",""1"",""2155""
","
","
","""event"",""trial"",""time""
""fullscreenenter"",""1"",""2155""
","
","","","-1","","","21","15947","6259","&#9826;","elianto","#f73b6a7A","-1","-1","1","0","[]","0","0","3","","","","","","","",""
"call-function","79","643143","0.0-2.0-15.0","battery-v0.2","","""event"",""trial"",""time""
""fullscreenenter"",""1"",""2155""
","
","
","""event"",""trial"",""time""
""fullscreenenter"",""1"",""2155""
","
","","","","","","","","","","","","","","","","","","","","","","","","","","",""
"pit-instructions","80","669766","0.0-2.0-16.0","battery-v0.2","","""event"",""trial"",""time""
""fullscreenenter"",""1"",""2155""
","
","
","""event"",""trial"",""time""
""fullscreenenter"",""1"",""2155""
","
","","[{""page_index"":0,""viewing_time"":6856.69999999553},{""page_index"":1,""viewing_time"":8332.20000000298},{""page_index"":2,""viewing_time"":5827.69999999553},{""page_index"":3,""viewing_time"":5604.9000000059605}]","26622.5","","","","","","","","","","","","","","","","","","","","","","","",""
"pit-trial","81","673160","0.0-2.0-17.0-0.0","battery-v0.2","","""event"",""trial"",""time""
""fullscreenenter"",""1"",""2155""
","
","
","""event"",""trial"",""time""
""fullscreenenter"",""1"",""2155""
","
","","","536.5","","","21","15947","6259","&#9789;","elianto","#f73b6a7A"," "," ","1","0","[1387.3999999985099]","1","0","4","","","","","","","",""
"pit-trial","82","677070","0.0-2.0-17.0-1.0","battery-v0.2","","""event"",""trial"",""time""
""fullscreenenter"",""1"",""2155""
","
","
","""event"",""trial"",""time""
""fullscreenenter"",""1"",""2155""
","
","","","1052.2000000029802","","","21","15947","6259","&#9789;","elianto","#f73b6a7A"," "," ","1","0","[1904.5]","1","0","4","","","","","","","",""
"pit-trial","83","681935","0.0-2.0-17.0-2.0","battery-v0.2","","""event"",""trial"",""time""
""fullscreenenter"",""1"",""2155""
","
","
","""event"",""trial"",""time""
""fullscreenenter"",""1"",""2155""
","
","","","-1","","","21","15947","6259","&#9789;","elianto","#f73b6a7A"," ","-1","0","-10","[]","0","0","4","","","","","","","",""
"pit-trial","84","686799","0.0-2.0-17.0-3.0","battery-v0.2","","""event"",""trial"",""time""
""fullscreenenter"",""1"",""2155""
","
","
","""event"",""trial"",""time""
""fullscreenenter"",""1"",""2155""
","
","","","-1","","","21","15947","6259","&#9789;","elianto","#f73b6a7A"," ","-1","0","0","[]","0","0","4","","","","","","","",""
"pit-trial","85","690531","0.0-2.0-17.0-4.0","battery-v0.2","","""event"",""trial"",""time""
""fullscreenenter"",""1"",""2155""
","
","
","""event"",""trial"",""time""
""fullscreenenter"",""1"",""2155""
","
","","","867.4000000059605","","","21","15947","6259","&#9789;","elianto","#f73b6a7A"," "," ","1","0","[1717.5]","1","0","4","","","","","","","",""
"pit-trial","86","694952","0.0-2.0-17.1-0.1","battery-v0.2","","""event"",""trial"",""time""
""fullscreenenter"",""1"",""2155""
","
","
","""event"",""trial"",""time""
""fullscreenenter"",""1"",""2155""
","
","","","1559.5","","","21","15947","6259","&#9789;","elianto","#f73b6a7A"," "," ","1","0","[2410.7000000029802]","1","0","4","","","","","","","",""
"pit-trial","87","698239","0.0-2.0-17.1-1.1","battery-v0.2","","""event"",""trial"",""time""
""fullscreenenter"",""1"",""2155""
","
","
","""event"",""trial"",""time""
""fullscreenenter"",""1"",""2155""
","
","","","424.80000000447035","","","21","15947","6259","&#9789;","elianto","#f73b6a7A"," "," ","1","0","[1276.4000000059605]","1","0","4","","","","","","","",""
"pit-trial","88","703102","0.0-2.0-17.1-2.1","battery-v0.2","","""event"",""trial"",""time""
""fullscreenenter"",""1"",""2155""
","
","
","""event"",""trial"",""time""
""fullscreenenter"",""1"",""2155""
","
","","","-1","","","21","15947","6259","&#9789;","elianto","#f73b6a7A"," ","-1","0","-10","[]","0","0","4","","","","","","","",""
"pit-trial","89","707967","0.0-2.0-17.1-3.1","battery-v0.2","","""event"",""trial"",""time""
""fullscreenenter"",""1"",""2155""
","
","
","""event"",""trial"",""time""
""fullscreenenter"",""1"",""2155""
","
","","","-1","","","21","15947","6259","&#9789;","elianto","#f73b6a7A"," ","-1","0","0","[2873.6999999955297]","1","0","4","","","","","","","",""
"pit-trial","90","711359","0.0-2.0-17.1-4.1","battery-v0.2","","""event"",""trial"",""time""
""fullscreenenter"",""1"",""2155""
","
","
","""event"",""trial"",""time""
""fullscreenenter"",""1"",""2155""
","
","","","532.2000000029802","","","21","15947","6259","&#9789;","elianto","#f73b6a7A"," "," ","1","0","[1383.3999999985099]","1","0","4","","","","","","","",""
"pit-trial","91","716222","0.0-2.0-17.2-0.2","battery-v0.2","","""event"",""trial"",""time""
""fullscreenenter"",""1"",""2155""
","
","
","""event"",""trial"",""time""
""fullscreenenter"",""1"",""2155""
","
","","","-1","","","21","15947","6259","&#9789;","elianto","#f73b6a7A"," ","-1","0","-10","[3658,3900.2000000029802,4142.80000000447]","3","0","4","","","","","","","",""
"pit-trial","92","719632","0.0-2.0-17.2-1.2","battery-v0.2","","""event"",""trial"",""time""
""fullscreenenter"",""1"",""2155""
","
","
","""event"",""trial"",""time""
""fullscreenenter"",""1"",""2155""
","
","","","551.5","","","21","15947","6259","&#9789;","elianto","#f73b6a7A"," "," ","1","0","[1402.5]","1","0","4","","","","","","","",""
"pit-trial","93","722854","0.0-2.0-17.2-2.2","battery-v0.2","","""event"",""trial"",""time""
""fullscreenenter"",""1"",""2155""
","
","
","""event"",""trial"",""time""
""fullscreenenter"",""1"",""2155""
","
","","","365.09999999403954","","","21","15947","6259","&#9789;","elianto","#f73b6a7A"," "," ","1","0","[1215.2000000029802]","1","0","4","","","","","","","",""
"pit-trial","94","727022","0.0-2.0-17.2-3.2","battery-v0.2","","""event"",""trial"",""time""
""fullscreenenter"",""1"",""2155""
","
","
","""event"",""trial"",""time""
""fullscreenenter"",""1"",""2155""
","
","","","1308.1999999955297","","","21","15947","6259","&#9789;","elianto","#f73b6a7A"," "," ","1","-10","[2159]","1","0","4","","","","","","","",""
"pit-trial","95","730432","0.0-2.0-17.2-4.2","battery-v0.2","","""event"",""trial"",""time""
""fullscreenenter"",""1"",""2155""
","
","
","""event"",""trial"",""time""
""fullscreenenter"",""1"",""2155""
","
","","","550.2999999970198","","","21","15947","6259","&#9789;","elianto","#f73b6a7A"," "," ","1","0","[1400.8999999985099]","1","0","4","","","","","","","",""
"pit-trial","96","733657","0.0-2.0-17.3-0.3","battery-v0.2","","""event"",""trial"",""time""
""fullscreenenter"",""1"",""2155""
","
","
","""event"",""trial"",""time""
""fullscreenenter"",""1"",""2155""
","
","","","366.29999999701977","","","21","15947","6259","&#9789;","elianto","#f73b6a7A"," "," ","1","0","[1217.5999999940395]","1","0","4","","","","","","","",""
"pit-trial","97","736933","0.0-2.0-17.3-1.3","battery-v0.2","","""event"",""trial"",""time""
""fullscreenenter"",""1"",""2155""
","
","
","""event"",""trial"",""time""
""fullscreenenter"",""1"",""2155""
","
","","","413.6000000014901","","","21","15947","6259","&#9789;","elianto","#f73b6a7A"," "," ","1","0","[1264.7999999970198]","1","0","4","","","","","","","",""
"pit-trial","98","741794","0.0-2.0-17.3-2.3","battery-v0.2","","""event"",""trial"",""time""
""fullscreenenter"",""1"",""2155""
","
","
","""event"",""trial"",""time""
""fullscreenenter"",""1"",""2155""
","
","","","-1","","","21","15947","6259","&#9789;","elianto","#f73b6a7A"," ","-1","0","-10","[]","0","0","4","","","","","","","",""
"pit-trial","99","744889","0.0-2.0-17.3-3.3","battery-v0.2","","""event"",""trial"",""time""
""fullscreenenter"",""1"",""2155""
","
","
","""event"",""trial"",""time""
""fullscreenenter"",""1"",""2155""
","
","","","231.60000000149012","","","21","15947","6259","&#9789;","elianto","#f73b6a7A"," "," ","1","-10","[1082.8999999985099]","1","0","4","","","","","","","",""
"pit-trial","100","749755","0.0-2.0-17.3-4.3","battery-v0.2","","""event"",""trial"",""time""
""fullscreenenter"",""1"",""2155""
","
","
","""event"",""trial"",""time""
""fullscreenenter"",""1"",""2155""
","
","","","-1","","","21","15947","6259","&#9789;","elianto","#f73b6a7A"," ","-1","0","-10","[]","0","0","4","","","","","","","",""
"call-function","101","749758","0.0-2.0-18.0","battery-v0.2","","""event"",""trial"",""time""
""fullscreenenter"",""1"",""2155""
","
","
","""event"",""trial"",""time""
""fullscreenenter"",""1"",""2155""
","
","","","","","","","","","","","","","","","","","","","","","","","","","","",""
"pit-instructions","102","820042","0.0-2.0-19.0","battery-v0.2","","""event"",""trial"",""time""
""fullscreenenter"",""1"",""2155""
","
","
","""event"",""trial"",""time""
""fullscreenenter"",""1"",""2155""
","
","","[{""page_index"":0,""viewing_time"":6609.79999999702},{""page_index"":1,""viewing_time"":4431.70000000298},{""page_index"":2,""viewing_time"":10427.60000000149},{""page_index"":3,""viewing_time"":7856.29999999702},{""page_index"":4,""viewing_time"":8930.60000000149},{""page_index"":5,""viewing_time"":12553.29999999702},{""page_index"":6,""viewing_time"":8826.39999999851},{""page_index"":7,""viewing_time"":6353.5},{""page_index"":8,""viewing_time"":4294}]","70283.89999999851","","","","","","","","","","","","","","","","","","","","","","","",""
"pit-comprehension","103","824681","0.0-2.0-20.0-0.0","battery-v0.2","","""event"",""trial"",""time""
""fullscreenenter"",""1"",""2155""
","
","
","""event"",""trial"",""time""
""fullscreenenter"",""1"",""2155""
","
","","","4632","[""SPACE""]","0","21","15947","6259","","","","","","","","","","","","","","","","","","",""
"pit-instructions","104","828429","0.0-2.0-20.0-1.0","battery-v0.2","","""event"",""trial"",""time""
""fullscreenenter"",""1"",""2155""
","
","
","""event"",""trial"",""time""
""fullscreenenter"",""1"",""2155""
","
","","[{""page_index"":0,""viewing_time"":3726.39999999851}]","3726.7999999970198","","","","","","","","","","","","","","","","","","","","","","","",""
"pit-comprehension","105","834932","0.0-2.0-21.0-0.0","battery-v0.2","","""event"",""trial"",""time""
""fullscreenenter"",""1"",""2155""
","
","
","""event"",""trial"",""time""
""fullscreenenter"",""1"",""2155""
","
","","","6499.20000000298","[""10""]","0","21","15947","6259","","","","","","","","","","","","","","","","","","",""
"pit-instructions","106","836644","0.0-2.0-21.0-1.0","battery-v0.2","","""event"",""trial"",""time""
""fullscreenenter"",""1"",""2155""
","
","
","""event"",""trial"",""time""
""fullscreenenter"",""1"",""2155""
","
","","[{""page_index"":0,""viewing_time"":1691.6000000014901}]","1692.5","","","","","","","","","","","","","","","","","","","","","","","",""
"pit-comprehension","107","843766","0.0-2.0-22.0-0.0","battery-v0.2","","""event"",""trial"",""time""
""fullscreenenter"",""1"",""2155""
","
","
","""event"",""trial"",""time""
""fullscreenenter"",""1"",""2155""
","
","","","7116.39999999851","[""-10""]","1","21","15947","6259","","","","","","","","","","","","","","","","","","",""
"pit-instructions","108","851231","0.0-2.0-22.0-1.0","battery-v0.2","","""event"",""trial"",""time""
""fullscreenenter"",""1"",""2155""
","
","
","""event"",""trial"",""time""
""fullscreenenter"",""1"",""2155""
","
","","[{""page_index"":0,""viewing_time"":7444}]","7444.20000000298","","","","","","","","","","","","","","","","","","","","","","","",""
"pit-instructions","109","852132","0.0-2.0-22.0-2.0-0.0","battery-v0.2","","""event"",""trial"",""time""
""fullscreenenter"",""1"",""2155""
","
","
","""event"",""trial"",""time""
""fullscreenenter"",""1"",""2155""
","
","","[{""page_index"":0,""viewing_time"":899.3999999985099}]","899.7999999970198","","","","","","","","","","","","","","","","","","","","","","","",""
"pit-comprehension","110","858585","0.0-2.0-22.1-0.1","battery-v0.2","","""event"",""trial"",""time""
""fullscreenenter"",""1"",""2155""
","
","
","""event"",""trial"",""time""
""fullscreenenter"",""1"",""2155""
","
","","","6450.39999999851","[""0""]","0","21","15947","6259","","","","","","","","","","","","","","","","","","",""
"pit-instructions","111","860724","0.0-2.0-22.1-1.1","battery-v0.2","","""event"",""trial"",""time""
""fullscreenenter"",""1"",""2155""
","
","
","""event"",""trial"",""time""
""fullscreenenter"",""1"",""2155""
","
","","[{""page_index"":0,""viewing_time"":2116.89999999851}]","2117.3000000044703","","","","","","","","","","","","","","","","","","","","","","","",""
"pit-comprehension","112","870609","0.0-2.0-23.0-0.0","battery-v0.2","","""event"",""trial"",""time""
""fullscreenenter"",""1"",""2155""
","
","
","""event"",""trial"",""time""
""fullscreenenter"",""1"",""2155""
","
","","","9881.60000000149","[""True""]","0","21","15947","6259","","","","","","","","","","","","","","","","","","",""
"pit-instructions","113","872238","0.0-2.0-23.0-1.0","battery-v0.2","","""event"",""trial"",""time""
""fullscreenenter"",""1"",""2155""
","
","
","""event"",""trial"",""time""
""fullscreenenter"",""1"",""2155""
","
","","[{""page_index"":0,""viewing_time"":1606.7999999970198}]","1607.2999999970198","","","","","","","","","","","","","","","","","","","","","","","",""
"pit-comprehension","114","879702","0.0-2.0-24.0-0.0","battery-v0.2","","""event"",""trial"",""time""
""fullscreenenter"",""1"",""2155""
","
","
","""event"",""trial"",""time""
""fullscreenenter"",""1"",""2155""
","
","","","7460.39999999851","[""True""]","0","21","15947","6259","","","","","","","","","","","","","","","","","","",""
"pit-instructions","115","881482","0.0-2.0-24.0-1.0","battery-v0.2","","""event"",""trial"",""time""
""fullscreenenter"",""1"",""2155""
","
","
","""event"",""trial"",""time""
""fullscreenenter"",""1"",""2155""
","
","","[{""page_index"":0,""viewing_time"":1759.3999999985099}]","1759.7000000029802","","","","","","","","","","","","","","","","","","","","","","","",""
"pit-comprehension","116","887963","0.0-2.0-25.0-0.0","battery-v0.2","","""event"",""trial"",""time""
""fullscreenenter"",""1"",""2155""
","
","
","""event"",""trial"",""time""
""fullscreenenter"",""1"",""2155""
","
","","","6477.39999999851","[""True""]","0","21","15947","6259","","","","","","","","","","","","","","","","","","",""
"pit-instructions","117","889669","0.0-2.0-25.0-1.0","battery-v0.2","","""event"",""trial"",""time""
""fullscreenenter"",""1"",""2155""
","
","
","""event"",""trial"",""time""
""fullscreenenter"",""1"",""2155""
","
","","[{""page_index"":0,""viewing_time"":1682.2999999970198}]","1682.6999999955297","","","","","","","","","","","","","","","","","","","","","","","",""
"pit-comprehension","118","909287","0.0-2.0-26.0-0.0","battery-v0.2","","""event"",""trial"",""time""
""fullscreenenter"",""1"",""2155""
","
","
","""event"",""trial"",""time""
""fullscreenenter"",""1"",""2155""
","
","","","19614.89999999851","[""True""]","1","21","15947","6259","","","","","","","","","","","","","","","","","","",""
"pit-instructions","119","911695","0.0-2.0-26.0-1.0","battery-v0.2","","""event"",""trial"",""time""
""fullscreenenter"",""1"",""2155""
","
","
","""event"",""trial"",""time""
""fullscreenenter"",""1"",""2155""
","
","","[{""page_index"":0,""viewing_time"":2386.5}]","2387.10000000149","","","","","","","","","","","","","","","","","","","","","","","",""
"pit-instructions","120","912647","0.0-2.0-26.0-2.0-0.0","battery-v0.2","","""event"",""trial"",""time""
""fullscreenenter"",""1"",""2155""
","
","
","""event"",""trial"",""time""
""fullscreenenter"",""1"",""2155""
","
","","[{""page_index"":0,""viewing_time"":947.3999999985099}]","949.0999999940395","","","","","","","","","","","","","","","","","","","","","","","",""
"pit-comprehension","121","917467","0.0-2.0-26.1-0.1","battery-v0.2","","""event"",""trial"",""time""
""fullscreenenter"",""1"",""2155""
","
","
","""event"",""trial"",""time""
""fullscreenenter"",""1"",""2155""
","
","","","4816.69999999553","[""False""]","0","21","15947","6259","","","","","","","","","","","","","","","","","","",""
"pit-instructions","122","919345","0.0-2.0-26.1-1.1","battery-v0.2","","""event"",""trial"",""time""
""fullscreenenter"",""1"",""2155""
","
","
","""event"",""trial"",""time""
""fullscreenenter"",""1"",""2155""
","
","","[{""page_index"":0,""viewing_time"":1860}]","1860.3999999985099","","","","","","","","","","","","","","","","","","","","","","","",""
"pit-instructions","123","936196","0.0-3.0","battery-v0.2","","""event"",""trial"",""time""
""fullscreenenter"",""1"",""2155""
","
","
","""event"",""trial"",""time""
""fullscreenenter"",""1"",""2155""
","
","","[{""page_index"":0,""viewing_time"":4114.70000000298},{""page_index"":1,""viewing_time"":5516.60000000149},{""page_index"":2,""viewing_time"":7217.5}]","16849.10000000149","","","","","","","","","","","","","","","","","","","","","","","",""
"pit-trial","124","940558","0.0-4.0","battery-v0.2","","""event"",""trial"",""time""
""fullscreenenter"",""1"",""2155""
","
","
","""event"",""trial"",""time""
""fullscreenenter"",""1"",""2155""
","
","","","1498.7000000029802","","","21","15947","6259","&#9752;","elianto","#f73b6a7A"," "," ","1","0","[2349.60000000149]","1","1","","","15947","1","3","3","lose","go","0"
"pit-trial","125","944514","0.0-5.0","battery-v0.2","","""event"",""trial"",""time""
""fullscreenenter"",""1"",""2155""
","
","
","""event"",""trial"",""time""
""fullscreenenter"",""1"",""2155""
","
","","","1098.6000000014901","","","21","15947","6259","&#9730;","elianto","#3366ff99"," "," ","1","+10","[1948.9000000059605]","1","1","","","15947","2","1","1","win","go","0"
"pit-trial","126","949388","0.0-6.0","battery-v0.2","","""event"",""trial"",""time""
""fullscreenenter"",""1"",""2155""
","
","
","""event"",""trial"",""time""
""fullscreenenter"",""1"",""2155""
","
","","","-1","","","21","15947","6259","&#9733;","elianto","#3366ff99","-1","-1","1","+10","[]","0","1","","","15947","3","2","2","win","no-go","0"
"pit-trial","127","953731","0.0-7.0","battery-v0.2","","""event"",""trial"",""time""
""fullscreenenter"",""1"",""2155""
","
","
","""event"",""trial"",""time""
""fullscreenenter"",""1"",""2155""
","
","","","1482.2000000029802","","","21","15947","6259","&#9728;","elianto","#f73b6a7A","-1"," ","0","0","[2332.39999999851]","1","1","","","15947","4","0","4","lose","no-go","1"
"pit-trial","128","958593","0.0-8.0","battery-v0.2","","""event"",""trial"",""time""
""fullscreenenter"",""1"",""2155""
","
","
","""event"",""trial"",""time""
""fullscreenenter"",""1"",""2155""
","
","","","-1","","","21","15947","6259","&#9728;","elianto","#f73b6a7A","-1","-1","1","0","[]","0","1","","","15947","5","0","4","lose","no-go","0"
"pit-trial","129","963464","0.0-9.0","battery-v0.2","","""event"",""trial"",""time""
""fullscreenenter"",""1"",""2155""
","
","
","""event"",""trial"",""time""
""fullscreenenter"",""1"",""2155""
","
","","","-1","","","21","15947","6259","&#9733;","elianto","#3366ff99","-1","-1","1","0","[]","0","1","","","15947","6","2","2","win","no-go","1"
"pit-trial","130","967370","0.0-10.0","battery-v0.2","","""event"",""trial"",""time""
""fullscreenenter"",""1"",""2155""
","
","
","""event"",""trial"",""time""
""fullscreenenter"",""1"",""2155""
","
","","","1039.5999999940395","","","21","15947","6259","&#9730;","elianto","#3366ff99"," "," ","1","+10","[1890.8000000044703]","1","1","","","15947","7","1","1","win","go","0"
"pit-trial","131","971531","0.0-11.0","battery-v0.2","","""event"",""trial"",""time""
""fullscreenenter"",""1"",""2155""
","
","
","""event"",""trial"",""time""
""fullscreenenter"",""1"",""2155""
","
","","","1295","","","21","15947","6259","&#9752;","elianto","#f73b6a7A"," "," ","1","-10","[2146.2999999970198]","1","1","","","15947","8","3","3","lose","go","1"
"pit-trial","132","976398","0.0-12.0","battery-v0.2","","""event"",""trial"",""time""
""fullscreenenter"",""1"",""2155""
","
","
","""event"",""trial"",""time""
""fullscreenenter"",""1"",""2155""
","
","","","-1","","","21","15947","6259","&#9728;","elianto","#f73b6a7A","-1","-1","1","-10","[3962]","1","1","","","15947","9","0","4","lose","no-go","1"
"pit-trial","133","980846","0.0-13.0","battery-v0.2","","""event"",""trial"",""time""
""fullscreenenter"",""1"",""2155""
","
","
","""event"",""trial"",""time""
""fullscreenenter"",""1"",""2155""
","
","","","1583.3000000044703","","","21","15947","6259","&#9733;","elianto","#3366ff99","-1"," ","0","0","[2434.5]","1","1","","","15947","10","2","2","win","no-go","0"
"pit-trial","134","984371","0.0-14.0","battery-v0.2","","""event"",""trial"",""time""
""fullscreenenter"",""1"",""2155""
","
","
","""event"",""trial"",""time""
""fullscreenenter"",""1"",""2155""
","
","","","662.3999999985099","","","21","15947","6259","&#9730;","elianto","#3366ff99"," "," ","1","+10","[1513.2000000029802]","1","1","","","15947","11","1","1","win","go","0"
"pit-trial","135","989245","0.0-15.0","battery-v0.2","","""event"",""trial"",""time""
""fullscreenenter"",""1"",""2155""
","
","
","""event"",""trial"",""time""
""fullscreenenter"",""1"",""2155""
","
","","","-1","","","21","15947","6259","&#9752;","elianto","#f73b6a7A"," ","-1","0","-10","[2872.10000000149]","1","1","","","15947","12","3","3","lose","go","0"
"pit-trial","136","994116","0.0-16.0","battery-v0.2","","""event"",""trial"",""time""
""fullscreenenter"",""1"",""2155""
","
","
","""event"",""trial"",""time""
""fullscreenenter"",""1"",""2155""
","
","","","-1","","","21","15947","6259","&#9728;","elianto","#f73b6a7A","-1","-1","1","0","[]","0","1","","","15947","13","0","4","lose","no-go","0"
"pit-trial","137","998980","0.0-17.0","battery-v0.2","","""event"",""trial"",""time""
""fullscreenenter"",""1"",""2155""
","
","
","""event"",""trial"",""time""
""fullscreenenter"",""1"",""2155""
","
","","","-1","","","21","15947","6259","&#9733;","elianto","#3366ff99","-1","-1","1","+10","[]","0","1","","","15947","14","2","2","win","no-go","0"
"pit-trial","138","1003844","0.0-18.0","battery-v0.2","","""event"",""trial"",""time""
""fullscreenenter"",""1"",""2155""
","
","
","""event"",""trial"",""time""
""fullscreenenter"",""1"",""2155""
","
","","","-1","","","21","15947","6259","&#9752;","elianto","#f73b6a7A"," ","-1","0","0","[]","0","1","","","15947","15","3","3","lose","go","1"
"pit-trial","139","1007525","0.0-19.0","battery-v0.2","","""event"",""trial"",""time""
""fullscreenenter"",""1"",""2155""
","
","
","""event"",""trial"",""time""
""fullscreenenter"",""1"",""2155""
","
","","","815.8000000044703","","","21","15947","6259","&#9730;","elianto","#3366ff99"," "," ","1","+10","[1666.6000000014901]","1","1","","","15947","16","1","1","win","go","0"
"pit-trial","140","1012390","0.0-20.0","battery-v0.2","","""event"",""trial"",""time""
""fullscreenenter"",""1"",""2155""
","
","
","""event"",""trial"",""time""
""fullscreenenter"",""1"",""2155""
","
","","","-1","","","21","15947","6259","&#9728;","elianto","#f73b6a7A","-1","-1","1","-10","[]","0","1","","","15947","17","0","4","lose","no-go","1"
"pit-trial","141","1016490","0.0-21.0","battery-v0.2","","""event"",""trial"",""time""
""fullscreenenter"",""1"",""2155""
","
","
","""event"",""trial"",""time""
""fullscreenenter"",""1"",""2155""
","
","","","1237.6999999955297","","","21","15947","6259","&#9730;","elianto","#3366ff99"," "," ","1","+10","[2090.10000000149]","1","1","","","15947","18","1","1","win","go","0"
"pit-trial","142","1021357","0.0-22.0","battery-v0.2","","""event"",""trial"",""time""
""fullscreenenter"",""1"",""2155""
","
","
","""event"",""trial"",""time""
""fullscreenenter"",""1"",""2155""
","
","","","-1","","","21","15947","6259","&#9733;","elianto","#3366ff99","-1","-1","1","+10","[]","0","1","","","15947","19","2","2","win","no-go","0"
"pit-trial","143","1026217","0.0-23.0","battery-v0.2","","""event"",""trial"",""time""
""fullscreenenter"",""1"",""2155""
","
","
","""event"",""trial"",""time""
""fullscreenenter"",""1"",""2155""
","
","","","-1","","","21","15947","6259","&#9752;","elianto","#f73b6a7A"," ","-1","0","-10","[]","0","1","","","15947","20","3","3","lose","go","0"
"pit-instructions","144","1039528","0.0-24.0","battery-v0.2","","""event"",""trial"",""time""
""fullscreenenter"",""1"",""2155""
","
","
","""event"",""trial"",""time""
""fullscreenenter"",""1"",""2155""
","
","","[{""page_index"":0,""viewing_time"":6021.10000000149},{""page_index"":1,""viewing_time"":7286.39999999851}]","13308.89999999851","","","","","","","","","","","","","","","","","","","","","","","",""
"pit-trial","145","1043362","0.0-25.0","battery-v0.2","","""event"",""trial"",""time""
""fullscreenenter"",""1"",""2155""
","
","
","""event"",""trial"",""time""
""fullscreenenter"",""1"",""2155""
","
","","","972","","","21","15947","6259","l","elianto","#3366ff99","-1"," ","0","0","[1822.3999999985099]","1","2","","","15947","21","1","2","win","no-go","0"
"pit-trial","146","1047360","0.0-26.0","battery-v0.2","","""event"",""trial"",""time""
""fullscreenenter"",""1"",""2155""
","
","
","""event"",""trial"",""time""
""fullscreenenter"",""1"",""2155""
","
","","","1136.2000000029802","","","21","15947","6259","a","elianto","#f73b6a7A"," "," ","1","0","[1987.2000000029802]","1","2","","","15947","22","2","3","lose","go","0"
"pit-trial","147","1052217","0.0-27.0","battery-v0.2","","""event"",""trial"",""time""
""fullscreenenter"",""1"",""2155""
","
","
","""event"",""trial"",""time""
""fullscreenenter"",""1"",""2155""
","
","","","-1","","","21","15947","6259","g","elianto","#f73b6a7A","-1","-1","1","0","[]","0","2","","","15947","23","3","4","lose","no-go","0"
"pit-trial","148","1056036","0.0-28.0","battery-v0.2","","""event"",""trial"",""time""
""fullscreenenter"",""1"",""2155""
","
","
","""event"",""trial"",""time""
""fullscreenenter"",""1"",""2155""
","
","","","955.2000000029802","","","21","15947","6259","u","elianto","#f73b6a7A"," "," ","1","0","[1806.8999999985099]","1","2","","","15947","24","0","3","lose","go","0"
"pit-trial","149","1060901","0.0-29.0","battery-v0.2","","""event"",""trial"",""time""
""fullscreenenter"",""1"",""2155""
","
","
","""event"",""trial"",""time""
""fullscreenenter"",""1"",""2155""
","
","","","-1","","","21","15947","6259","u","elianto","#f73b6a7A"," ","-1","0","-10","[]","0","2","","","15947","25","0","3","lose","go","0"
"pit-trial","150","1065065","0.0-30.0","battery-v0.2","","""event"",""trial"",""time""
""fullscreenenter"",""1"",""2155""
","
","
","""event"",""trial"",""time""
""fullscreenenter"",""1"",""2155""
","
","","","1305","","","21","15947","6259","a","elianto","#f73b6a7A"," "," ","1","0","[2156.3000000044703]","1","2","","","15947","26","2","3","lose","go","0"
"pit-trial","151","1069723","0.0-31.0","battery-v0.2","","""event"",""trial"",""time""
""fullscreenenter"",""1"",""2155""
","
","
","""event"",""trial"",""time""
""fullscreenenter"",""1"",""2155""
","
","","","1798.3000000044703","","","21","15947","6259","l","elianto","#3366ff99","-1"," ","0","0","[2649.7999999970198]","1","2","","","15947","27","1","2","win","no-go","0"
"pit-trial","152","1074589","0.0-32.0","battery-v0.2","","""event"",""trial"",""time""
""fullscreenenter"",""1"",""2155""
","
","
","""event"",""trial"",""time""
""fullscreenenter"",""1"",""2155""
","
","","","-1","","","21","15947","6259","g","elianto","#f73b6a7A","-1","-1","1","0","[]","0","2","","","15947","28","3","4","lose","no-go","0"
"pit-trial","153","1079454","0.0-33.0","battery-v0.2","","""event"",""trial"",""time""
""fullscreenenter"",""1"",""2155""
","
","
","""event"",""trial"",""time""
""fullscreenenter"",""1"",""2155""
","
","","","-1","","","21","15947","6259","l","elianto","#3366ff99","-1","-1","1","+10","[]","0","2","","","15947","29","1","2","win","no-go","0"
"pit-trial","154","1084322","0.0-34.0","battery-v0.2","","""event"",""trial"",""time""
""fullscreenenter"",""1"",""2155""
","
","
","""event"",""trial"",""time""
""fullscreenenter"",""1"",""2155""
","
","","","-1","","","21","15947","6259","a","elianto","#f73b6a7A"," ","-1","0","-10","[]","0","2","","","15947","30","2","3","lose","go","0"
"pit-trial","155","1089181","0.0-35.0","battery-v0.2","","""event"",""trial"",""time""
""fullscreenenter"",""1"",""2155""
","
","
","""event"",""trial"",""time""
""fullscreenenter"",""1"",""2155""
","
","","","-1","","","21","15947","6259","u","elianto","#f73b6a7A"," ","-1","0","-10","[3088.7000000029802]","1","2","","","15947","31","0","3","lose","go","0"
"pit-trial","156","1094044","0.0-36.0","battery-v0.2","","""event"",""trial"",""time""
""fullscreenenter"",""1"",""2155""
","
","
","""event"",""trial"",""time""
""fullscreenenter"",""1"",""2155""
","
","","","-1","","","21","15947","6259","g","elianto","#f73b6a7A","-1","-1","1","0","[]","0","2","","","15947","32","3","4","lose","no-go","0"
"pit-trial","157","1098909","0.0-37.0","battery-v0.2","","""event"",""trial"",""time""
""fullscreenenter"",""1"",""2155""
","
","
","""event"",""trial"",""time""
""fullscreenenter"",""1"",""2155""
","
","","","-1","","","21","15947","6259","l","elianto","#3366ff99","-1","-1","1","+10","[]","0","2","","","15947","33","1","2","win","no-go","0"
"pit-trial","158","1103465","0.0-38.0","battery-v0.2","","""event"",""trial"",""time""
""fullscreenenter"",""1"",""2155""
","
","
","""event"",""trial"",""time""
""fullscreenenter"",""1"",""2155""
","
","","","1696.1000000014901","","","21","15947","6259","g","elianto","#f73b6a7A","-1"," ","0","-10","[2548]","1","2","","","15947","34","3","4","lose","no-go","0"
"pit-trial","159","1108324","0.0-39.0","battery-v0.2","","""event"",""trial"",""time""
""fullscreenenter"",""1"",""2155""
","
","
","""event"",""trial"",""time""
""fullscreenenter"",""1"",""2155""
","
","","","-1","","","21","15947","6259","u","elianto","#f73b6a7A"," ","-1","0","-10","[]","0","2","","","15947","35","0","3","lose","go","0"
"pit-trial","160","1111960","0.0-40.0","battery-v0.2","","""event"",""trial"",""time""
""fullscreenenter"",""1"",""2155""
","
","
","""event"",""trial"",""time""
""fullscreenenter"",""1"",""2155""
","
","","","779.6999999955297","","","21","15947","6259","a","elianto","#f73b6a7A"," "," ","1","-10","[1630.2999999970198]","1","2","","","15947","36","2","3","lose","go","1"
"pit-trial","161","1116825","0.0-41.0","battery-v0.2","","""event"",""trial"",""time""
""fullscreenenter"",""1"",""2155""
","
","
","""event"",""trial"",""time""
""fullscreenenter"",""1"",""2155""
","
","","","-1","","","21","15947","6259","a","elianto","#f73b6a7A"," ","-1","0","-10","[]","0","2","","","15947","37","2","3","lose","go","0"
"pit-trial","162","1121688","0.0-42.0","battery-v0.2","","""event"",""trial"",""time""
""fullscreenenter"",""1"",""2155""
","
","
","""event"",""trial"",""time""
""fullscreenenter"",""1"",""2155""
","
","","","-1","","","21","15947","6259","u","elianto","#f73b6a7A"," ","-1","0","-10","[]","0","2","","","15947","38","0","3","lose","go","0"
"pit-trial","163","1126552","0.0-43.0","battery-v0.2","","""event"",""trial"",""time""
""fullscreenenter"",""1"",""2155""
","
","
","""event"",""trial"",""time""
""fullscreenenter"",""1"",""2155""
","
","","","-1","","","21","15947","6259","g","elianto","#f73b6a7A","-1","-1","1","0","[2969.39999999851]","1","2","","","15947","39","3","4","lose","no-go","0"
"pit-trial","164","1131414","0.0-44.0","battery-v0.2","","""event"",""trial"",""time""
""fullscreenenter"",""1"",""2155""
","
","
","""event"",""trial"",""time""
""fullscreenenter"",""1"",""2155""
","
","","","-1","","","21","15947","6259","l","elianto","#3366ff99","-1","-1","1","+10","[]","0","2","","","15947","40","1","2","win","no-go","0"
"pit-trial","165","1135392","0.0-45.0","battery-v0.2","","""event"",""trial"",""time""
""fullscreenenter"",""1"",""2155""
","
","
","""event"",""trial"",""time""
""fullscreenenter"",""1"",""2155""
","
","","","1114.2000000029802","","","21","15947","6259","a","elianto","#f73b6a7A"," "," ","1","0","[1966.6000000014901]","1","2","","","15947","41","2","3","lose","go","0"
"pit-trial","166","1140259","0.0-46.0","battery-v0.2","","""event"",""trial"",""time""
""fullscreenenter"",""1"",""2155""
","
","
","""event"",""trial"",""time""
""fullscreenenter"",""1"",""2155""
","
","","","-1","","","21","15947","6259","l","elianto","#3366ff99","-1","-1","1","+10","[]","0","2","","","15947","42","1","2","win","no-go","0"
"pit-trial","167","1145121","0.0-47.0","battery-v0.2","","""event"",""trial"",""time""
""fullscreenenter"",""1"",""2155""
","
","
","""event"",""trial"",""time""
""fullscreenenter"",""1"",""2155""
","
","","","-1","","","21","15947","6259","g","elianto","#f73b6a7A","-1","-1","1","0","[]","0","2","","","15947","43","3","4","lose","no-go","0"
"pit-trial","168","1149735","0.0-48.0","battery-v0.2","","""event"",""trial"",""time""
""fullscreenenter"",""1"",""2155""
","
","
","""event"",""trial"",""time""
""fullscreenenter"",""1"",""2155""
","
","","","1753.6000000014901","","","21","15947","6259","u","elianto","#f73b6a7A"," "," ","1","0","[2604.2999999970198]","1","2","","","15947","44","0","3","lose","go","0"
"pit-trial","169","1154600","0.0-49.0","battery-v0.2","","""event"",""trial"",""time""
""fullscreenenter"",""1"",""2155""
","
","
","""event"",""trial"",""time""
""fullscreenenter"",""1"",""2155""
","
","","","-1","","","21","15947","6259","a","elianto","#f73b6a7A"," ","-1","0","-10","[]","0","2","","","15947","45","2","3","lose","go","0"
"pit-trial","170","1159467","0.0-50.0","battery-v0.2","","""event"",""trial"",""time""
""fullscreenenter"",""1"",""2155""
","
","
","""event"",""trial"",""time""
""fullscreenenter"",""1"",""2155""
","
","","","-1","","","21","15947","6259","u","elianto","#f73b6a7A"," ","-1","0","0","[]","0","2","","","15947","46","0","3","lose","go","1"
"pit-trial","171","1164330","0.0-51.0","battery-v0.2","","""event"",""trial"",""time""
""fullscreenenter"",""1"",""2155""
","
","
","""event"",""trial"",""time""
""fullscreenenter"",""1"",""2155""
","
","","","-1","","","21","15947","6259","l","elianto","#3366ff99","-1","-1","1","0","[]","0","2","","","15947","47","1","2","win","no-go","1"
"pit-trial","172","1169195","0.0-52.0","battery-v0.2","","""event"",""trial"",""time""
""fullscreenenter"",""1"",""2155""
","
","
","""event"",""trial"",""time""
""fullscreenenter"",""1"",""2155""
","
","","","-1","","","21","15947","6259","g","elianto","#f73b6a7A","-1","-1","1","0","[]","0","2","","","15947","48","3","4","lose","no-go","0"
"pit-trial","173","1174056","0.0-53.0","battery-v0.2","","""event"",""trial"",""time""
""fullscreenenter"",""1"",""2155""
","
","
","""event"",""trial"",""time""
""fullscreenenter"",""1"",""2155""
","
","","","-1","","","21","15947","6259","l","elianto","#3366ff99","-1","-1","1","+10","[]","0","2","","","15947","49","1","2","win","no-go","0"
"pit-trial","174","1177498","0.0-54.0","battery-v0.2","","""event"",""trial"",""time""
""fullscreenenter"",""1"",""2155""
","
","
","""event"",""trial"",""time""
""fullscreenenter"",""1"",""2155""
","
","","","580.5","","","21","15947","6259","a","elianto","#f73b6a7A"," "," ","1","-10","[1430.7999999970198]","1","2","","","15947","50","2","3","lose","go","1"
"pit-trial","175","1182363","0.0-55.0","battery-v0.2","","""event"",""trial"",""time""
""fullscreenenter"",""1"",""2155""
","
","
","""event"",""trial"",""time""
""fullscreenenter"",""1"",""2155""
","
","","","-1","","","21","15947","6259","g","elianto","#f73b6a7A","-1","-1","1","0","[]","0","2","","","15947","51","3","4","lose","no-go","0"
"pit-trial","176","1186013","0.0-56.0","battery-v0.2","","""event"",""trial"",""time""
""fullscreenenter"",""1"",""2155""
","
","
","""event"",""trial"",""time""
""fullscreenenter"",""1"",""2155""
","
","","","790.6000000014901","","","21","15947","6259","u","elianto","#f73b6a7A"," "," ","1","0","[1642.8999999985099]","1","2","","","15947","52","0","3","lose","go","0"
"pit-trial","177","1190876","0.0-57.0","battery-v0.2","","""event"",""trial"",""time""
""fullscreenenter"",""1"",""2155""
","
","
","""event"",""trial"",""time""
""fullscreenenter"",""1"",""2155""
","
","","","-1","","","21","15947","6259","u","elianto","#f73b6a7A"," ","-1","0","0","[]","0","2","","","15947","53","0","3","lose","go","1"
"pit-trial","178","1194888","0.0-58.0","battery-v0.2","","""event"",""trial"",""time""
""fullscreenenter"",""1"",""2155""
","
","
","""event"",""trial"",""time""
""fullscreenenter"",""1"",""2155""
","
","","","1149.8999999985099","","","21","15947","6259","a","elianto","#f73b6a7A"," "," ","1","0","[2001.6999999955297]","1","2","","","15947","54","2","3","lose","go","0"
"pit-trial","179","1199749","0.0-59.0","battery-v0.2","","""event"",""trial"",""time""
""fullscreenenter"",""1"",""2155""
","
","
","""event"",""trial"",""time""
""fullscreenenter"",""1"",""2155""
","
","","","-1","","","21","15947","6259","g","elianto","#f73b6a7A","-1","-1","1","0","[]","0","2","","","15947","55","3","4","lose","no-go","0"
"pit-trial","180","1204411","0.0-60.0","battery-v0.2","","""event"",""trial"",""time""
""fullscreenenter"",""1"",""2155""
","
","
","""event"",""trial"",""time""
""fullscreenenter"",""1"",""2155""
","
","","","1796.6000000014901","","","21","15947","6259","l","elianto","#3366ff99","-1"," ","0","0","[2649.7000000029802]","1","2","","","15947","56","1","2","win","no-go","0"
"pit-trial","181","1208454","0.0-61.0","battery-v0.2","","""event"",""trial"",""time""
""fullscreenenter"",""1"",""2155""
","
","
","""event"",""trial"",""time""
""fullscreenenter"",""1"",""2155""
","
","","","1184.3999999985099","","","21","15947","6259","a","elianto","#f73b6a7A"," "," ","1","0","[2035]","1","2","","","15947","57","2","3","lose","go","0"
"pit-trial","182","1213316","0.0-62.0","battery-v0.2","","""event"",""trial"",""time""
""fullscreenenter"",""1"",""2155""
","
","
","""event"",""trial"",""time""
""fullscreenenter"",""1"",""2155""
","
","","","-1","","","21","15947","6259","g","elianto","#f73b6a7A","-1","-1","1","0","[]","0","2","","","15947","58","3","4","lose","no-go","0"
"pit-trial","183","1217492","0.0-63.0","battery-v0.2","","""event"",""trial"",""time""
""fullscreenenter"",""1"",""2155""
","
","
","""event"",""trial"",""time""
""fullscreenenter"",""1"",""2155""
","
","","","1312.9000000059605","","","21","15947","6259","u","elianto","#f73b6a7A"," "," ","1","-10","[2165]","1","2","","","15947","59","0","3","lose","go","1"
"pit-trial","184","1221590","0.0-64.0","battery-v0.2","","""event"",""trial"",""time""
""fullscreenenter"",""1"",""2155""
","
","
","""event"",""trial"",""time""
""fullscreenenter"",""1"",""2155""
","
","","","1238.3000000044703","","","21","15947","6259","p","elianto","#3366ff99"," "," ","1","+10","[2088.7000000029802]","1","2","","","15947","60","4","1","win","go","0"
"pit-trial","185","1225833","0.0-65.0","battery-v0.2","","""event"",""trial"",""time""
""fullscreenenter"",""1"",""2155""
","
","
","""event"",""trial"",""time""
""fullscreenenter"",""1"",""2155""
","
","","","1380.5999999940395","","","21","15947","6259","p","elianto","#3366ff99"," "," ","1","+10","[2232.7000000029802]","1","2","","","15947","61","4","1","win","go","0"
"pit-trial","186","1230699","0.0-66.0","battery-v0.2","","""event"",""trial"",""time""
""fullscreenenter"",""1"",""2155""
","
","
","""event"",""trial"",""time""
""fullscreenenter"",""1"",""2155""
","
","","","-1","","","21","15947","6259","l","elianto","#3366ff99","-1","-1","1","0","[]","0","2","","","15947","62","1","2","win","no-go","1"
"pit-trial","187","1235182","0.0-67.0","battery-v0.2","","""event"",""trial"",""time""
""fullscreenenter"",""1"",""2155""
","
","
","""event"",""trial"",""time""
""fullscreenenter"",""1"",""2155""
","
","","","1623.5","","","21","15947","6259","g","elianto","#f73b6a7A","-1"," ","0","-10","[2474.10000000149]","1","2","","","15947","63","3","4","lose","no-go","0"
"pit-trial","188","1239306","0.0-68.0","battery-v0.2","","""event"",""trial"",""time""
""fullscreenenter"",""1"",""2155""
","
","
","""event"",""trial"",""time""
""fullscreenenter"",""1"",""2155""
","
","","","1264.7999999970198","","","21","15947","6259","a","elianto","#f73b6a7A"," "," ","1","0","[2116]","1","2","","","15947","64","2","3","lose","go","0"
"pit-trial","189","1244167","0.0-69.0","battery-v0.2","","""event"",""trial"",""time""
""fullscreenenter"",""1"",""2155""
","
","
","""event"",""trial"",""time""
""fullscreenenter"",""1"",""2155""
","
","","","-1","","","21","15947","6259","l","elianto","#3366ff99","-1","-1","1","+10","[]","0","2","","","15947","65","1","2","win","no-go","0"
"pit-trial","190","1249039","0.0-70.0","battery-v0.2","","""event"",""trial"",""time""
""fullscreenenter"",""1"",""2155""
","
","
","""event"",""trial"",""time""
""fullscreenenter"",""1"",""2155""
","
","","","-1","","","21","15947","6259","g","elianto","#f73b6a7A","-1","-1","1","-10","[4101.5]","1","2","","","15947","66","3","4","lose","no-go","1"
"pit-trial","191","1252865","0.0-71.0","battery-v0.2","","""event"",""trial"",""time""
""fullscreenenter"",""1"",""2155""
","
","
","""event"",""trial"",""time""
""fullscreenenter"",""1"",""2155""
","
","","","967.5","","","21","15947","6259","p","elianto","#3366ff99"," "," ","1","+10","[1818.1000000014901]","1","2","","","15947","67","4","1","win","go","0"
"pit-trial","192","1257730","0.0-72.0","battery-v0.2","","""event"",""trial"",""time""
""fullscreenenter"",""1"",""2155""
","
","
","""event"",""trial"",""time""
""fullscreenenter"",""1"",""2155""
","
","","","-1","","","21","15947","6259","s","elianto","#3366ff99","-1","-1","1","+10","[]","0","2","","","15947","68","5","2","win","no-go","0"
"pit-trial","193","1262596","0.0-73.0","battery-v0.2","","""event"",""trial"",""time""
""fullscreenenter"",""1"",""2155""
","
","
","""event"",""trial"",""time""
""fullscreenenter"",""1"",""2155""
","
","","","-1","","","21","15947","6259","l","elianto","#3366ff99","-1","-1","1","+10","[]","0","2","","","15947","69","1","2","win","no-go","0"
"pit-trial","194","1266498","0.0-74.0","battery-v0.2","","""event"",""trial"",""time""
""fullscreenenter"",""1"",""2155""
","
","
","""event"",""trial"",""time""
""fullscreenenter"",""1"",""2155""
","
","","","1038.1999999955297","","","21","15947","6259","a","elianto","#f73b6a7A"," "," ","1","-10","[1890.5999999940395]","1","2","","","15947","70","2","3","lose","go","1"
"pit-trial","195","1270594","0.0-75.0","battery-v0.2","","""event"",""trial"",""time""
""fullscreenenter"",""1"",""2155""
","
","
","""event"",""trial"",""time""
""fullscreenenter"",""1"",""2155""
","
","","","1234.7000000029802","","","21","15947","6259","p","elianto","#3366ff99"," "," ","1","+10","[2086.89999999851]","1","2","","","15947","71","4","1","win","go","0"
"pit-trial","196","1275459","0.0-76.0","battery-v0.2","","""event"",""trial"",""time""
""fullscreenenter"",""1"",""2155""
","
","
","""event"",""trial"",""time""
""fullscreenenter"",""1"",""2155""
","
","","","-1","","","21","15947","6259","s","elianto","#3366ff99","-1","-1","1","+10","[]","0","2","","","15947","72","5","2","win","no-go","0"
"pit-trial","197","1280320","0.0-77.0","battery-v0.2","","""event"",""trial"",""time""
""fullscreenenter"",""1"",""2155""
","
","
","""event"",""trial"",""time""
""fullscreenenter"",""1"",""2155""
","
","","","-1","","","21","15947","6259","s","elianto","#3366ff99","-1","-1","1","0","[3783.5,4466.39999999851,4794.29999999702]","3","2","","","15947","73","5","2","win","no-go","1"
"pit-trial","198","1284240","0.0-78.0","battery-v0.2","","""event"",""trial"",""time""
""fullscreenenter"",""1"",""2155""
","
","
","""event"",""trial"",""time""
""fullscreenenter"",""1"",""2155""
","
","","","1061.5999999940395","","","21","15947","6259","p","elianto","#3366ff99"," "," ","1","+10","[297.3999999985099,1913.8000000044703]","2","2","","","15947","74","4","1","win","go","0"
"pit-trial","199","1288631","0.0-79.0","battery-v0.2","","""event"",""trial"",""time""
""fullscreenenter"",""1"",""2155""
","
","
","""event"",""trial"",""time""
""fullscreenenter"",""1"",""2155""
","
","","","1536.1000000014901","","","21","15947","6259","g","elianto","#f73b6a7A","-1"," ","0","-10","[2387.7000000029802]","1","2","","","15947","75","3","4","lose","no-go","0"
"pit-trial","200","1293498","0.0-80.0","battery-v0.2","","""event"",""trial"",""time""
""fullscreenenter"",""1"",""2155""
","
","
","""event"",""trial"",""time""
""fullscreenenter"",""1"",""2155""
","
","","","-1","","","21","15947","6259","l","elianto","#3366ff99","-1","-1","1","+10","[]","0","2","","","15947","76","1","2","win","no-go","0"
"pit-trial","201","1297387","0.0-81.0","battery-v0.2","","""event"",""trial"",""time""
""fullscreenenter"",""1"",""2155""
","
","
","""event"",""trial"",""time""
""fullscreenenter"",""1"",""2155""
","
","","","1028.6000000014901","","","21","15947","6259","p","elianto","#3366ff99"," "," ","1","+10","[1878.8999999985099]","1","2","","","15947","77","4","1","win","go","0"
"pit-trial","202","1302251","0.0-82.0","battery-v0.2","","""event"",""trial"",""time""
""fullscreenenter"",""1"",""2155""
","
","
","""event"",""trial"",""time""
""fullscreenenter"",""1"",""2155""
","
","","","-1","","","21","15947","6259","g","elianto","#f73b6a7A","-1","-1","1","0","[]","0","2","","","15947","78","3","4","lose","no-go","0"
"pit-trial","203","1306131","0.0-83.0","battery-v0.2","","""event"",""trial"",""time""
""fullscreenenter"",""1"",""2155""
","
","
","""event"",""trial"",""time""
""fullscreenenter"",""1"",""2155""
","
","","","1021","","","21","15947","6259","s","elianto","#3366ff99","-1"," ","0","0","[1871.8999999985099]","1","2","","","15947","79","5","2","win","no-go","0"
"pit-trial","204","1309622","0.0-84.0","battery-v0.2","","""event"",""trial"",""time""
""fullscreenenter"",""1"",""2155""
","
","
","""event"",""trial"",""time""
""fullscreenenter"",""1"",""2155""
","
","","","634.5","","","21","15947","6259","p","elianto","#3366ff99"," "," ","1","+10","[1484.7999999970198]","1","2","","","15947","80","4","1","win","go","0"
"pit-trial","205","1314487","0.0-85.0","battery-v0.2","","""event"",""trial"",""time""
""fullscreenenter"",""1"",""2155""
","
","
","""event"",""trial"",""time""
""fullscreenenter"",""1"",""2155""
","
","","","-1","","","21","15947","6259","g","elianto","#f73b6a7A","-1","-1","1","0","[]","0","2","","","15947","81","3","4","lose","no-go","0"
"pit-trial","206","1319345","0.0-86.0","battery-v0.2","","""event"",""trial"",""time""
""fullscreenenter"",""1"",""2155""
","
","
","""event"",""trial"",""time""
""fullscreenenter"",""1"",""2155""
","
","","","-1","","","21","15947","6259","s","elianto","#3366ff99","-1","-1","1","+10","[]","0","2","","","15947","82","5","2","win","no-go","0"
"pit-trial","207","1324207","0.0-87.0","battery-v0.2","","""event"",""trial"",""time""
""fullscreenenter"",""1"",""2155""
","
","
","""event"",""trial"",""time""
""fullscreenenter"",""1"",""2155""
","
","","","-1","","","21","15947","6259","e","elianto","#f73b6a7A","-1","-1","1","0","[]","0","2","","","15947","83","7","4","lose","no-go","0"
"pit-trial","208","1327956","0.0-88.0","battery-v0.2","","""event"",""trial"",""time""
""fullscreenenter"",""1"",""2155""
","
","
","""event"",""trial"",""time""
""fullscreenenter"",""1"",""2155""
","
","","","879.1999999955297","","","21","15947","6259","p","elianto","#3366ff99"," "," ","1","+10","[1729.8999999985099]","1","2","","","15947","84","4","1","win","go","0"
"pit-trial","209","1332820","0.0-89.0","battery-v0.2","","""event"",""trial"",""time""
""fullscreenenter"",""1"",""2155""
","
","
","""event"",""trial"",""time""
""fullscreenenter"",""1"",""2155""
","
","","","-1","","","21","15947","6259","s","elianto","#3366ff99","-1","-1","1","+10","[]","0","2","","","15947","85","5","2","win","no-go","0"
"pit-trial","210","1337472","0.0-90.0","battery-v0.2","","""event"",""trial"",""time""
""fullscreenenter"",""1"",""2155""
","
","
","""event"",""trial"",""time""
""fullscreenenter"",""1"",""2155""
","
","","","1790.8999999985099","","","21","15947","6259","w","elianto","#f73b6a7A"," "," ","1","-10","[2642.89999999851]","1","2","","","15947","86","6","3","lose","go","1"
"pit-trial","211","1341240","0.0-91.0","battery-v0.2","","""event"",""trial"",""time""
""fullscreenenter"",""1"",""2155""
","
","
","""event"",""trial"",""time""
""fullscreenenter"",""1"",""2155""
","
","","","907.8000000044703","","","21","15947","6259","p","elianto","#3366ff99"," "," ","1","0","[1759.2000000029802]","1","2","","","15947","87","4","1","win","go","1"
"pit-trial","212","1346114","0.0-92.0","battery-v0.2","","""event"",""trial"",""time""
""fullscreenenter"",""1"",""2155""
","
","
","""event"",""trial"",""time""
""fullscreenenter"",""1"",""2155""
","
","","","-1","","","21","15947","6259","e","elianto","#f73b6a7A","-1","-1","1","0","[]","0","2","","","15947","88","7","4","lose","no-go","0"
"pit-trial","213","1350794","0.0-93.0","battery-v0.2","","""event"",""trial"",""time""
""fullscreenenter"",""1"",""2155""
","
","
","""event"",""trial"",""time""
""fullscreenenter"",""1"",""2155""
","
","","","1802.4000000059605","","","21","15947","6259","w","elianto","#f73b6a7A"," "," ","1","0","[2653.60000000149]","1","2","","","15947","89","6","3","lose","go","0"
"pit-trial","214","1355660","0.0-94.0","battery-v0.2","","""event"",""trial"",""time""
""fullscreenenter"",""1"",""2155""
","
","
","""event"",""trial"",""time""
""fullscreenenter"",""1"",""2155""
","
","","","-1","","","21","15947","6259","s","elianto","#3366ff99","-1","-1","1","+10","[]","0","2","","","15947","90","5","2","win","no-go","0"
"pit-trial","215","1360524","0.0-95.0","battery-v0.2","","""event"",""trial"",""time""
""fullscreenenter"",""1"",""2155""
","
","
","""event"",""trial"",""time""
""fullscreenenter"",""1"",""2155""
","
","","","-1","","","21","15947","6259","e","elianto","#f73b6a7A","-1","-1","1","-10","[]","0","2","","","15947","91","7","4","lose","no-go","1"
"pit-trial","216","1364814","0.0-96.0","battery-v0.2","","""event"",""trial"",""time""
""fullscreenenter"",""1"",""2155""
","
","
","""event"",""trial"",""time""
""fullscreenenter"",""1"",""2155""
","
","","","1429.8999999985099","","","21","15947","6259","p","elianto","#3366ff99"," "," ","1","+10","[2281.1999999955297]","1","2","","","15947","92","4","1","win","go","0"
"pit-trial","217","1369675","0.0-97.0","battery-v0.2","","""event"",""trial"",""time""
""fullscreenenter"",""1"",""2155""
","
","
","""event"",""trial"",""time""
""fullscreenenter"",""1"",""2155""
","
","","","-1","","","21","15947","6259","w","elianto","#f73b6a7A"," ","-1","0","-10","[]","0","2","","","15947","93","6","3","lose","go","0"
"pit-trial","218","1374537","0.0-98.0","battery-v0.2","","""event"",""trial"",""time""
""fullscreenenter"",""1"",""2155""
","
","
","""event"",""trial"",""time""
""fullscreenenter"",""1"",""2155""
","
","","","-1","","","21","15947","6259","s","elianto","#3366ff99","-1","-1","1","+10","[]","0","2","","","15947","94","5","2","win","no-go","0"
"pit-trial","219","1379403","0.0-99.0","battery-v0.2","","""event"",""trial"",""time""
""fullscreenenter"",""1"",""2155""
","
","
","""event"",""trial"",""time""
""fullscreenenter"",""1"",""2155""
","
","","","-1","","","21","15947","6259","d","elianto","#3366ff99"," ","-1","0","0","[3580]","1","2","","","15947","95","8","1","win","go","0"
"pit-trial","220","1384269","0.0-100.0","battery-v0.2","","""event"",""trial"",""time""
""fullscreenenter"",""1"",""2155""
","
","
","""event"",""trial"",""time""
""fullscreenenter"",""1"",""2155""
","
","","","-1","","","21","15947","6259","e","elianto","#f73b6a7A","-1","-1","1","0","[]","0","2","","","15947","96","7","4","lose","no-go","0"
"pit-trial","221","1389134","0.0-101.0","battery-v0.2","","""event"",""trial"",""time""
""fullscreenenter"",""1"",""2155""
","
","
","""event"",""trial"",""time""
""fullscreenenter"",""1"",""2155""
","
","","","-1","","","21","15947","6259","s","elianto","#3366ff99","-1","-1","1","+10","[]","0","2","","","15947","97","5","2","win","no-go","0"
"pit-trial","222","1393047","0.0-102.0","battery-v0.2","","""event"",""trial"",""time""
""fullscreenenter"",""1"",""2155""
","
","
","""event"",""trial"",""time""
""fullscreenenter"",""1"",""2155""
","
","","","1054.5","","","21","15947","6259","d","elianto","#3366ff99"," "," ","1","+10","[1904.7999999970198]","1","2","","","15947","98","8","1","win","go","0"
"pit-trial","223","1397715","0.0-103.0","battery-v0.2","","""event"",""trial"",""time""
""fullscreenenter"",""1"",""2155""
","
","
","""event"",""trial"",""time""
""fullscreenenter"",""1"",""2155""
","
","","","1805.3000000044703","","","21","15947","6259","e","elianto","#f73b6a7A","-1"," ","0","-10","[2656.3000000044703]","1","2","","","15947","99","7","4","lose","no-go","0"
"pit-trial","224","1402581","0.0-104.0","battery-v0.2","","""event"",""trial"",""time""
""fullscreenenter"",""1"",""2155""
","
","
","""event"",""trial"",""time""
""fullscreenenter"",""1"",""2155""
","
","","","-1","","","21","15947","6259","w","elianto","#f73b6a7A"," ","-1","0","-10","[]","0","2","","","15947","100","6","3","lose","go","0"
"pit-trial","225","1406798","0.0-105.0","battery-v0.2","","""event"",""trial"",""time""
""fullscreenenter"",""1"",""2155""
","
","
","""event"",""trial"",""time""
""fullscreenenter"",""1"",""2155""
","
","","","1350.6000000014901","","","21","15947","6259","d","elianto","#3366ff99"," "," ","1","+10","[2203.1999999955297]","1","2","","","15947","101","8","1","win","go","0"
"pit-trial","226","1411663","0.0-106.0","battery-v0.2","","""event"",""trial"",""time""
""fullscreenenter"",""1"",""2155""
","
","
","""event"",""trial"",""time""
""fullscreenenter"",""1"",""2155""
","
","","","-1","","","21","15947","6259","j","elianto","#3366ff99"," ","-1","0","+10","[]","0","2","","","15947","102","9","1","win","go","1"
"pit-trial","227","1416528","0.0-107.0","battery-v0.2","","""event"",""trial"",""time""
""fullscreenenter"",""1"",""2155""
""blur"",""228"",""1417632""
","""event"",""trial"",""time""
""blur"",""228"",""1417632""
","
","""event"",""trial"",""time""
""fullscreenenter"",""1"",""2155""
","
","","","-1","","","21","15947","6259","s","elianto","#3366ff99","-1","-1","1","+10","[]","0","2","","","15947","103","5","2","win","no-go","0"
"pit-trial","228","1423116","0.0-108.0","battery-v0.2","","""event"",""trial"",""time""
""fullscreenenter"",""1"",""2155""
""blur"",""228"",""1417632""
""focus"",""229"",""1424307""
","""event"",""trial"",""time""
""blur"",""228"",""1417632""
","""event"",""trial"",""time""
""focus"",""229"",""1424307""
","""event"",""trial"",""time""
""fullscreenenter"",""1"",""2155""
","
","","","-1","","","21","15947","6259","e","elianto","#f73b6a7A","-1","-1","1","0","[]","0","2","","","15947","104","7","4","lose","no-go","0"
"pit-trial","229","1427983","0.0-109.0","battery-v0.2","","""event"",""trial"",""time""
""fullscreenenter"",""1"",""2155""
""blur"",""228"",""1417632""
""focus"",""229"",""1424307""
","""event"",""trial"",""time""
""blur"",""228"",""1417632""
","""event"",""trial"",""time""
""focus"",""229"",""1424307""
","""event"",""trial"",""time""
""fullscreenenter"",""1"",""2155""
","
","","","-1","","","21","15947","6259","w","elianto","#f73b6a7A"," ","-1","0","-10","[]","0","2","","","15947","105","6","3","lose","go","0"
"pit-trial","230","1432523","0.0-110.0","battery-v0.2","","""event"",""trial"",""time""
""fullscreenenter"",""1"",""2155""
""blur"",""228"",""1417632""
""focus"",""229"",""1424307""
","""event"",""trial"",""time""
""blur"",""228"",""1417632""
","""event"",""trial"",""time""
""focus"",""229"",""1424307""
","""event"",""trial"",""time""
""fullscreenenter"",""1"",""2155""
","
","","","1677.6000000014901","","","21","15947","6259","p","elianto","#3366ff99"," "," ","1","0","[2528.7999999970198]","1","2","","","15947","106","4","1","win","go","1"
"pit-trial","231","1437388","0.0-111.0","battery-v0.2","","""event"",""trial"",""time""
""fullscreenenter"",""1"",""2155""
""blur"",""228"",""1417632""
""focus"",""229"",""1424307""
","""event"",""trial"",""time""
""blur"",""228"",""1417632""
","""event"",""trial"",""time""
""focus"",""229"",""1424307""
","""event"",""trial"",""time""
""fullscreenenter"",""1"",""2155""
","
","","","-1","","","21","15947","6259","j","elianto","#3366ff99"," ","-1","0","0","[]","0","2","","","15947","107","9","1","win","go","0"
"pit-trial","232","1441717","0.0-112.0","battery-v0.2","","""event"",""trial"",""time""
""fullscreenenter"",""1"",""2155""
""blur"",""228"",""1417632""
""focus"",""229"",""1424307""
","""event"",""trial"",""time""
""blur"",""228"",""1417632""
","""event"",""trial"",""time""
""focus"",""229"",""1424307""
","""event"",""trial"",""time""
""fullscreenenter"",""1"",""2155""
","
","","","1471","","","21","15947","6259","d","elianto","#3366ff99"," "," ","1","+10","[2322.39999999851]","1","2","","","15947","108","8","1","win","go","0"
"pit-trial","233","1445994","0.0-113.0","battery-v0.2","","""event"",""trial"",""time""
""fullscreenenter"",""1"",""2155""
""blur"",""228"",""1417632""
""focus"",""229"",""1424307""
","""event"",""trial"",""time""
""blur"",""228"",""1417632""
","""event"",""trial"",""time""
""focus"",""229"",""1424307""
","""event"",""trial"",""time""
""fullscreenenter"",""1"",""2155""
","
","","","1411.9000000059605","","","21","15947","6259","d","elianto","#3366ff99"," "," ","1","+10","[2264.4000000059605]","1","2","","","15947","109","8","1","win","go","0"
"pit-trial","234","1450857","0.0-114.0","battery-v0.2","","""event"",""trial"",""time""
""fullscreenenter"",""1"",""2155""
""blur"",""228"",""1417632""
""focus"",""229"",""1424307""
","""event"",""trial"",""time""
""blur"",""228"",""1417632""
","""event"",""trial"",""time""
""focus"",""229"",""1424307""
","""event"",""trial"",""time""
""fullscreenenter"",""1"",""2155""
","
","","","-1","","","21","15947","6259","j","elianto","#3366ff99"," ","-1","0","+10","[]","0","2","","","15947","110","9","1","win","go","1"
"pit-trial","235","1455721","0.0-115.0","battery-v0.2","","""event"",""trial"",""time""
""fullscreenenter"",""1"",""2155""
""blur"",""228"",""1417632""
""focus"",""229"",""1424307""
","""event"",""trial"",""time""
""blur"",""228"",""1417632""
","""event"",""trial"",""time""
""focus"",""229"",""1424307""
","""event"",""trial"",""time""
""fullscreenenter"",""1"",""2155""
","
","","","-1","","","21","15947","6259","s","elianto","#3366ff99","-1","-1","1","0","[]","0","2","","","15947","111","5","2","win","no-go","1"
"pit-trial","236","1460327","0.0-116.0","battery-v0.2","","""event"",""trial"",""time""
""fullscreenenter"",""1"",""2155""
""blur"",""228"",""1417632""
""focus"",""229"",""1424307""
","""event"",""trial"",""time""
""blur"",""228"",""1417632""
","""event"",""trial"",""time""
""focus"",""229"",""1424307""
","""event"",""trial"",""time""
""fullscreenenter"",""1"",""2155""
","
","","","1744.6999999955297","","","21","15947","6259","w","elianto","#f73b6a7A"," "," ","1","0","[2596.3000000044703]","1","2","","","15947","112","6","3","lose","go","0"
"pit-trial","237","1465186","0.0-117.0","battery-v0.2","","""event"",""trial"",""time""
""fullscreenenter"",""1"",""2155""
""blur"",""228"",""1417632""
""focus"",""229"",""1424307""
","""event"",""trial"",""time""
""blur"",""228"",""1417632""
","""event"",""trial"",""time""
""focus"",""229"",""1424307""
","""event"",""trial"",""time""
""fullscreenenter"",""1"",""2155""
","
","","","-1","","","21","15947","6259","w","elianto","#f73b6a7A"," ","-1","0","0","[]","0","2","","","15947","113","6","3","lose","go","1"
"pit-trial","238","1470048","0.0-118.0","battery-v0.2","","""event"",""trial"",""time""
""fullscreenenter"",""1"",""2155""
""blur"",""228"",""1417632""
""focus"",""229"",""1424307""
","""event"",""trial"",""time""
""blur"",""228"",""1417632""
","""event"",""trial"",""time""
""focus"",""229"",""1424307""
","""event"",""trial"",""time""
""fullscreenenter"",""1"",""2155""
","
","","","-1","","","21","15947","6259","s","elianto","#3366ff99","-1","-1","1","0","[]","0","2","","","15947","114","5","2","win","no-go","1"
"pit-trial","239","1474910","0.0-119.0","battery-v0.2","","""event"",""trial"",""time""
""fullscreenenter"",""1"",""2155""
""blur"",""228"",""1417632""
""focus"",""229"",""1424307""
","""event"",""trial"",""time""
""blur"",""228"",""1417632""
","""event"",""trial"",""time""
""focus"",""229"",""1424307""
","""event"",""trial"",""time""
""fullscreenenter"",""1"",""2155""
","
","","","-1","","","21","15947","6259","j","elianto","#3366ff99"," ","-1","0","0","[]","0","2","","","15947","115","9","1","win","go","0"
"pit-trial","240","1478891","0.0-120.0","battery-v0.2","","""event"",""trial"",""time""
""fullscreenenter"",""1"",""2155""
""blur"",""228"",""1417632""
""focus"",""229"",""1424307""
","""event"",""trial"",""time""
""blur"",""228"",""1417632""
","""event"",""trial"",""time""
""focus"",""229"",""1424307""
","""event"",""trial"",""time""
""fullscreenenter"",""1"",""2155""
","
","","","1120.1000000014901","","","21","15947","6259","d","elianto","#3366ff99"," "," ","1","+10","[1970.7000000029802]","1","2","","","15947","116","8","1","win","go","0"
"pit-trial","241","1483755","0.0-121.0","battery-v0.2","","""event"",""trial"",""time""
""fullscreenenter"",""1"",""2155""
""blur"",""228"",""1417632""
""focus"",""229"",""1424307""
","""event"",""trial"",""time""
""blur"",""228"",""1417632""
","""event"",""trial"",""time""
""focus"",""229"",""1424307""
","""event"",""trial"",""time""
""fullscreenenter"",""1"",""2155""
","
","","","-1","","","21","15947","6259","j","elianto","#3366ff99"," ","-1","0","0","[]","0","2","","","15947","117","9","1","win","go","0"
"pit-trial","242","1487372","0.0-122.0","battery-v0.2","","""event"",""trial"",""time""
""fullscreenenter"",""1"",""2155""
""blur"",""228"",""1417632""
""focus"",""229"",""1424307""
","""event"",""trial"",""time""
""blur"",""228"",""1417632""
","""event"",""trial"",""time""
""focus"",""229"",""1424307""
","""event"",""trial"",""time""
""fullscreenenter"",""1"",""2155""
","
","","","759.2000000029802","","","21","15947","6259","d","elianto","#3366ff99"," "," ","1","+10","[1611.2999999970198]","1","2","","","15947","118","8","1","win","go","0"
"pit-trial","243","1491375","0.0-123.0","battery-v0.2","","""event"",""trial"",""time""
""fullscreenenter"",""1"",""2155""
""blur"",""228"",""1417632""
""focus"",""229"",""1424307""
","""event"",""trial"",""time""
""blur"",""228"",""1417632""
","""event"",""trial"",""time""
""focus"",""229"",""1424307""
","""event"",""trial"",""time""
""fullscreenenter"",""1"",""2155""
","
","","","1144.5","","","21","15947","6259","w","elianto","#f73b6a7A"," "," ","1","0","[1994.7999999970198]","1","2","","","15947","119","6","3","lose","go","0"
"pit-trial","244","1496234","0.0-124.0","battery-v0.2","","""event"",""trial"",""time""
""fullscreenenter"",""1"",""2155""
""blur"",""228"",""1417632""
""focus"",""229"",""1424307""
","""event"",""trial"",""time""
""blur"",""228"",""1417632""
","""event"",""trial"",""time""
""focus"",""229"",""1424307""
","""event"",""trial"",""time""
""fullscreenenter"",""1"",""2155""
","
","","","-1","","","21","15947","6259","s","elianto","#3366ff99","-1","-1","1","+10","[]","0","2","","","15947","120","5","2","win","no-go","0"
"pit-trial","245","1499852","0.0-125.0","battery-v0.2","","""event"",""trial"",""time""
""fullscreenenter"",""1"",""2155""
""blur"",""228"",""1417632""
""focus"",""229"",""1424307""
","""event"",""trial"",""time""
""blur"",""228"",""1417632""
","""event"",""trial"",""time""
""focus"",""229"",""1424307""
","""event"",""trial"",""time""
""fullscreenenter"",""1"",""2155""
","
","","","758.6000000014901","","","21","15947","6259","d","elianto","#3366ff99"," "," ","1","0","[1608.7000000029802]","1","2","","","15947","121","8","1","win","go","1"
"pit-trial","246","1504718","0.0-126.0","battery-v0.2","","""event"",""trial"",""time""
""fullscreenenter"",""1"",""2155""
""blur"",""228"",""1417632""
""focus"",""229"",""1424307""
","""event"",""trial"",""time""
""blur"",""228"",""1417632""
","""event"",""trial"",""time""
""focus"",""229"",""1424307""
","""event"",""trial"",""time""
""fullscreenenter"",""1"",""2155""
","
","","","-1","","","21","15947","6259","e","elianto","#f73b6a7A","-1","-1","1","0","[]","0","2","","","15947","122","7","4","lose","no-go","0"
"pit-trial","247","1508684","0.0-127.0","battery-v0.2","","""event"",""trial"",""time""
""fullscreenenter"",""1"",""2155""
""blur"",""228"",""1417632""
""focus"",""229"",""1424307""
","""event"",""trial"",""time""
""blur"",""228"",""1417632""
","""event"",""trial"",""time""
""focus"",""229"",""1424307""
","""event"",""trial"",""time""
""fullscreenenter"",""1"",""2155""
","
","","","1101.5","","","21","15947","6259","w","elianto","#f73b6a7A"," "," ","1","-10","[1955.7000000029802]","1","2","","","15947","123","6","3","lose","go","1"
"pit-trial","248","1512361","0.0-128.0","battery-v0.2","","""event"",""trial"",""time""
""fullscreenenter"",""1"",""2155""
""blur"",""228"",""1417632""
""focus"",""229"",""1424307""
","""event"",""trial"",""time""
""blur"",""228"",""1417632""
","""event"",""trial"",""time""
""focus"",""229"",""1424307""
","""event"",""trial"",""time""
""fullscreenenter"",""1"",""2155""
","
","","","815.8000000044703","","","21","15947","6259","j","elianto","#3366ff99"," "," ","1","0","[1666.1000000014901]","1","2","","","15947","124","9","1","win","go","1"
"pit-trial","249","1516183","0.0-129.0","battery-v0.2","","""event"",""trial"",""time""
""fullscreenenter"",""1"",""2155""
""blur"",""228"",""1417632""
""focus"",""229"",""1424307""
","""event"",""trial"",""time""
""blur"",""228"",""1417632""
","""event"",""trial"",""time""
""focus"",""229"",""1424307""
","""event"",""trial"",""time""
""fullscreenenter"",""1"",""2155""
","
","","","961.7999999970198","","","21","15947","6259","d","elianto","#3366ff99"," "," ","1","+10","[1813.5]","1","2","","","15947","125","8","1","win","go","0"
"pit-trial","250","1519958","0.0-130.0","battery-v0.2","","""event"",""trial"",""time""
""fullscreenenter"",""1"",""2155""
""blur"",""228"",""1417632""
""focus"",""229"",""1424307""
","""event"",""trial"",""time""
""blur"",""228"",""1417632""
","""event"",""trial"",""time""
""focus"",""229"",""1424307""
","""event"",""trial"",""time""
""fullscreenenter"",""1"",""2155""
","
","","","909.8999999985099","","","21","15947","6259","j","elianto","#3366ff99"," "," ","1","+10","[1761.3999999985099]","1","2","","","15947","126","9","1","win","go","0"
"pit-trial","251","1524823","0.0-131.0","battery-v0.2","","""event"",""trial"",""time""
""fullscreenenter"",""1"",""2155""
""blur"",""228"",""1417632""
""focus"",""229"",""1424307""
","""event"",""trial"",""time""
""blur"",""228"",""1417632""
","""event"",""trial"",""time""
""focus"",""229"",""1424307""
","""event"",""trial"",""time""
""fullscreenenter"",""1"",""2155""
","
","","","-1","","","21","15947","6259","e","elianto","#f73b6a7A","-1","-1","1","-10","[]","0","2","","","15947","127","7","4","lose","no-go","1"
"pit-trial","252","1528924","0.0-132.0","battery-v0.2","","""event"",""trial"",""time""
""fullscreenenter"",""1"",""2155""
""blur"",""228"",""1417632""
""focus"",""229"",""1424307""
","""event"",""trial"",""time""
""blur"",""228"",""1417632""
","""event"",""trial"",""time""
""focus"",""229"",""1424307""
","""event"",""trial"",""time""
""fullscreenenter"",""1"",""2155""
","
","","","1241.6999999955297","","","21","15947","6259","w","elianto","#f73b6a7A"," "," ","1","0","[2093.5]","1","2","","","15947","128","6","3","lose","go","0"
"pit-trial","253","1533790","0.0-133.0","battery-v0.2","","""event"",""trial"",""time""
""fullscreenenter"",""1"",""2155""
""blur"",""228"",""1417632""
""focus"",""229"",""1424307""
","""event"",""trial"",""time""
""blur"",""228"",""1417632""
","""event"",""trial"",""time""
""focus"",""229"",""1424307""
","""event"",""trial"",""time""
""fullscreenenter"",""1"",""2155""
","
","","","-1","","","21","15947","6259","e","elianto","#f73b6a7A","-1","-1","1","0","[]","0","2","","","15947","129","7","4","lose","no-go","0"
"pit-trial","254","1537488","0.0-134.0","battery-v0.2","","""event"",""trial"",""time""
""fullscreenenter"",""1"",""2155""
""blur"",""228"",""1417632""
""focus"",""229"",""1424307""
","""event"",""trial"",""time""
""blur"",""228"",""1417632""
","""event"",""trial"",""time""
""focus"",""229"",""1424307""
","""event"",""trial"",""time""
""fullscreenenter"",""1"",""2155""
","
