"trial_type","trial_index","time_elapsed","internal_node_id","task_version","subject_id","interactions","blur_events","focus_events","fullscreenenter_events","fullscreenexit_events","success","view_history","rt","responses","num_errors","age","subject","participantId","rune","rune_set","hex","correct","choice","accuracy","outcome","keys","total_keys","block","practice","value","sub","trial","stimulus","robot","valence","action","sham"
"pavlovia","0","12","0.0-0.0","battery-v0.2","","""event"",""trial"",""time""
""fullscreenenter"",""1"",""19763""
","
","
","""event"",""trial"",""time""
""fullscreenenter"",""1"",""19763""
","
","","","","","","","","","","","","","","","","","","","","","","","","","","",""
"fullscreen","1","20752","0.0-1.0","battery-v0.2","","""event"",""trial"",""time""
""fullscreenenter"",""1"",""19763""
","
","
","""event"",""trial"",""time""
""fullscreenenter"",""1"",""19763""
","
","true","","","","","","","","","","","","","","","","","","","","","","","","","",""
"pit-instructions","2","25179","0.0-2.0-0.0","battery-v0.2","","""event"",""trial"",""time""
""fullscreenenter"",""1"",""19763""
","
","
","""event"",""trial"",""time""
""fullscreenenter"",""1"",""19763""
","
","","[{""page_index"":0,""viewing_time"":4423.299999952316}]","4423.600000023842","","","","","","","","","","","","","","","","","","","","","","","",""
"pit-comprehension","3","27550","0.0-2.0-1.0-0.0","battery-v0.2","","""event"",""trial"",""time""
""fullscreenenter"",""1"",""19763""
","
","
","""event"",""trial"",""time""
""fullscreenenter"",""1"",""19763""
","
","","","2366.6999999284744","[""shark""]","0","25","10883","897","","","","","","","","","","","","","","","","","","",""
"pit-instructions","4","45365","0.0-2.0-1.0-1.0","battery-v0.2","","""event"",""trial"",""time""
""fullscreenenter"",""1"",""19763""
","
","
","""event"",""trial"",""time""
""fullscreenenter"",""1"",""19763""
","
","","[{""page_index"":0,""viewing_time"":17799.700000047684}]","17799.900000095367","","","","","","","","","","","","","","","","","","","","","","","",""
"pit-comprehension","5","47658","0.0-2.0-2.0-0.0","battery-v0.2","","""event"",""trial"",""time""
""fullscreenenter"",""1"",""19763""
","
","
","""event"",""trial"",""time""
""fullscreenenter"",""1"",""19763""
","
","","","2289.1999999284744","[""tiger""]","0","25","10883","897","","","","","","","","","","","","","","","","","","",""
"pit-instructions","6","50471","0.0-2.0-2.0-1.0","battery-v0.2","","""event"",""trial"",""time""
""fullscreenenter"",""1"",""19763""
","
","
","""event"",""trial"",""time""
""fullscreenenter"",""1"",""19763""
","
","","[{""page_index"":0,""viewing_time"":2809.600000023842}]","2810","","","","","","","","","","","","","","","","","","","","","","","",""
"pit-instructions","7","191229","0.0-2.0-3.0","battery-v0.2","","""event"",""trial"",""time""
""fullscreenenter"",""1"",""19763""
","
","
","""event"",""trial"",""time""
""fullscreenenter"",""1"",""19763""
","
","","[{""page_index"":0,""viewing_time"":11882.800000071526},{""page_index"":1,""viewing_time"":7896.299999952316},{""page_index"":2,""viewing_time"":7164.100000023842},{""page_index"":3,""viewing_time"":7871.700000047684},{""page_index"":4,""viewing_time"":10016.799999952316},{""page_index"":5,""viewing_time"":10533.100000023842},{""page_index"":6,""viewing_time"":8883.299999952316},{""page_index"":7,""viewing_time"":11344.300000071526},{""page_index"":8,""viewing_time"":7514.799999952316},{""page_index"":9,""viewing_time"":8843.5},{""page_index"":10,""viewing_time"":8493.299999952316},{""page_index"":11,""viewing_time"":11653.300000071526},{""page_index"":12,""viewing_time"":22392.699999928474},{""page_index"":13,""viewing_time"":6263.300000071526}]","140753.60000002384","","","","","","","","","","","","","","","","","","","","","","","",""
"pit-trial","8","194697","0.0-2.0-4.0-0.0","battery-v0.2","","""event"",""trial"",""time""
""fullscreenenter"",""1"",""19763""
","
","
","""event"",""trial"",""time""
""fullscreenenter"",""1"",""19763""
","
","","","608.8999999761581","","","25","10883","897","&#9784;","elianto","#FFFFF080"," "," ","1","&#10004","[1465.2000000476837]","1","0","0","","","","","","","",""
"pit-trial","9","198456","0.0-2.0-4.1-0.1","battery-v0.2","","""event"",""trial"",""time""
""fullscreenenter"",""1"",""19763""
","
","
","""event"",""trial"",""time""
""fullscreenenter"",""1"",""19763""
","
","","","901.7000000476837","","","25","10883","897","&#9784;","elianto","#FFFFF080"," "," ","1","&#10004","[1755.7999999523163]","1","0","0","","","","","","","",""
"pit-trial","10","202202","0.0-2.0-4.2-0.2","battery-v0.2","","""event"",""trial"",""time""
""fullscreenenter"",""1"",""19763""
","
","
","""event"",""trial"",""time""
""fullscreenenter"",""1"",""19763""
","
","","","876.7000000476837","","","25","10883","897","&#9784;","elianto","#FFFFF080"," "," ","1","&#10004","[1734.8000000715256]","1","0","0","","","","","","","",""
"pit-trial","11","205886","0.0-2.0-4.3-0.3","battery-v0.2","","""event"",""trial"",""time""
""fullscreenenter"",""1"",""19763""
","
","
","""event"",""trial"",""time""
""fullscreenenter"",""1"",""19763""
","
","","","814.2000000476837","","","25","10883","897","&#9784;","elianto","#FFFFF080"," "," ","1","&#10004","[1666.8000000715256]","1","0","0","","","","","","","",""
"pit-trial","12","210754","0.0-2.0-4.4-0.4","battery-v0.2","","""event"",""trial"",""time""
""fullscreenenter"",""1"",""19763""
","
","
","""event"",""trial"",""time""
""fullscreenenter"",""1"",""19763""
","
","","","-1","","","25","10883","897","&#9784;","elianto","#FFFFF080"," ","-1","0","&#10060","[3675]","1","0","0","","","","","","","",""
"pit-trial","13","214397","0.0-2.0-4.5-0.5","battery-v0.2","","""event"",""trial"",""time""
""fullscreenenter"",""1"",""19763""
","
","
","""event"",""trial"",""time""
""fullscreenenter"",""1"",""19763""
","
","","","768.7000000476837","","","25","10883","897","&#9784;","elianto","#FFFFF080"," "," ","1","&#10004","[1627.8000000715256]","1","0","0","","","","","","","",""
"pit-trial","14","218230","0.0-2.0-4.6-0.6","battery-v0.2","","""event"",""trial"",""time""
""fullscreenenter"",""1"",""19763""
","
","
","""event"",""trial"",""time""
""fullscreenenter"",""1"",""19763""
","
","","","978.2000000476837","","","25","10883","897","&#9784;","elianto","#FFFFF080"," "," ","1","&#10004","[1830.2000000476837]","1","0","0","","","","","","","",""
"pit-instructions","15","240665","0.0-2.0-4.6-1.6-0.6","battery-v0.2","","""event"",""trial"",""time""
""fullscreenenter"",""1"",""19763""
","
","
","""event"",""trial"",""time""
""fullscreenenter"",""1"",""19763""
","
","","[{""page_index"":0,""viewing_time"":12830.699999928474},{""page_index"":1,""viewing_time"":9601.800000071526}]","22432.699999928474","","","","","","","","","","","","","","","","","","","","","","","",""
"pit-trial","16","244112","0.0-2.0-4.7-0.7","battery-v0.2","","""event"",""trial"",""time""
""fullscreenenter"",""1"",""19763""
","
","
","""event"",""trial"",""time""
""fullscreenenter"",""1"",""19763""
","
","","","582.7999999523163","","","25","10883","897","&#9784;","elianto","#FFFFF080"," "," ","1","&#10004","[1435.5]","1","0","0","","","","","","","",""
"pit-instructions","17","282804","0.0-2.0-5.0","battery-v0.2","","""event"",""trial"",""time""
""fullscreenenter"",""1"",""19763""
","
","
","""event"",""trial"",""time""
""fullscreenenter"",""1"",""19763""
","
","","[{""page_index"":0,""viewing_time"":11688.700000047684},{""page_index"":1,""viewing_time"":12531.399999976158},{""page_index"":2,""viewing_time"":7276.699999928474},{""page_index"":3,""viewing_time"":7191.600000023842}]","38688.799999952316","","","","","","","","","","","","","","","","","","","","","","","",""
"pit-trial","18","287675","0.0-2.0-6.0-0.0","battery-v0.2","","""event"",""trial"",""time""
""fullscreenenter"",""1"",""19763""
","
","
","""event"",""trial"",""time""
""fullscreenenter"",""1"",""19763""
","
","","","-1","","","25","10883","897","&#9854;","elianto","#FFFFF080","-1","-1","1","&#10004","[]","0","0","1","","","","","","","",""
"pit-trial","19","292538","0.0-2.0-6.1-0.1","battery-v0.2","","""event"",""trial"",""time""
""fullscreenenter"",""1"",""19763""
","
","
","""event"",""trial"",""time""
""fullscreenenter"",""1"",""19763""
","
","","","-1","","","25","10883","897","&#9854;","elianto","#FFFFF080","-1","-1","1","&#10004","[]","0","0","1","","","","","","","",""
"pit-trial","20","297406","0.0-2.0-6.2-0.2","battery-v0.2","","""event"",""trial"",""time""
""fullscreenenter"",""1"",""19763""
","
","
","""event"",""trial"",""time""
""fullscreenenter"",""1"",""19763""
","
","","","-1","","","25","10883","897","&#9854;","elianto","#FFFFF080","-1","-1","1","&#10004","[]","0","0","1","","","","","","","",""
"pit-trial","21","302269","0.0-2.0-6.3-0.3","battery-v0.2","","""event"",""trial"",""time""
""fullscreenenter"",""1"",""19763""
","
","
","""event"",""trial"",""time""
""fullscreenenter"",""1"",""19763""
","
","","","-1","","","25","10883","897","&#9854;","elianto","#FFFFF080","-1","-1","1","&#10004","[]","0","0","1","","","","","","","",""
"pit-trial","22","307145","0.0-2.0-6.4-0.4","battery-v0.2","","""event"",""trial"",""time""
""fullscreenenter"",""1"",""19763""
","
","
","""event"",""trial"",""time""
""fullscreenenter"",""1"",""19763""
","
","","","-1","","","25","10883","897","&#9854;","elianto","#FFFFF080","-1","-1","1","&#10004","[]","0","0","1","","","","","","","",""
"pit-instructions","23","482372","0.0-2.0-7.0","battery-v0.2","","""event"",""trial"",""time""
""fullscreenenter"",""1"",""19763""
","
","
","""event"",""trial"",""time""
""fullscreenenter"",""1"",""19763""
","
","","[{""page_index"":0,""viewing_time"":11335.200000047684},{""page_index"":1,""viewing_time"":13396.399999976158},{""page_index"":2,""viewing_time"":7315.100000023842},{""page_index"":3,""viewing_time"":9511.700000047684},{""page_index"":4,""viewing_time"":7533.799999952316},{""page_index"":5,""viewing_time"":10271.100000023842},{""page_index"":6,""viewing_time"":14999.100000023842},{""page_index"":7,""viewing_time"":14673},{""page_index"":8,""viewing_time"":14433.699999928474},{""page_index"":9,""viewing_time"":7699.399999976158},{""page_index"":10,""viewing_time"":7860.300000071526},{""page_index"":11,""viewing_time"":5286.899999976158},{""page_index"":12,""viewing_time"":7642.100000023842},{""page_index"":13,""viewing_time"":7830.5},{""page_index"":14,""viewing_time"":7538.699999928474},{""page_index"":15,""viewing_time"":10630.300000071526},{""page_index"":16,""viewing_time"":8714.699999928474},{""page_index"":17,""viewing_time"":8552}]","175224.20000004768","","","","","","","","","","","","","","","","","","","","","","","",""
"pit-trial","24","487236","0.0-2.0-8.0-0.0","battery-v0.2","","""event"",""trial"",""time""
""fullscreenenter"",""1"",""19763""
","
","
","""event"",""trial"",""time""
""fullscreenenter"",""1"",""19763""
","
","","","-1","","","25","10883","897","&#9776;","elianto","#3366ff99"," ","-1","0","0","[]","0","0","1","","","","","","","",""
"pit-trial","25","491229","0.0-2.0-8.0-1.0","battery-v0.2","","""event"",""trial"",""time""
""fullscreenenter"",""1"",""19763""
","
","
","""event"",""trial"",""time""
""fullscreenenter"",""1"",""19763""
","
","","","1125.5","","","25","10883","897","&#9776;","elianto","#3366ff99"," "," ","1","+10","[1988.8000000715256]","1","0","1","","","","","","","",""
"pit-trial","26","494764","0.0-2.0-8.0-2.0","battery-v0.2","","""event"",""trial"",""time""
""fullscreenenter"",""1"",""19763""
","
","
","""event"",""trial"",""time""
""fullscreenenter"",""1"",""19763""
","
","","","672.4000000953674","","","25","10883","897","&#9776;","elianto","#3366ff99"," "," ","1","+10","[1525.7000000476837]","1","0","1","","","","","","","",""
"pit-trial","27","498110","0.0-2.0-8.0-3.0","battery-v0.2","","""event"",""trial"",""time""
""fullscreenenter"",""1"",""19763""
","
","
","""event"",""trial"",""time""
""fullscreenenter"",""1"",""19763""
","
","","","484.39999997615814","","","25","10883","897","&#9776;","elianto","#3366ff99"," "," ","1","0","[1336.2999999523163]","1","0","1","","","","","","","",""
"pit-trial","28","502973","0.0-2.0-8.0-4.0","battery-v0.2","","""event"",""trial"",""time""
""fullscreenenter"",""1"",""19763""
","
","
","""event"",""trial"",""time""
""fullscreenenter"",""1"",""19763""
","
","","","-1","","","25","10883","897","&#9776;","elianto","#3366ff99"," ","-1","0","0","[]","0","0","1","","","","","","","",""
"pit-trial","29","506259","0.0-2.0-8.1-0.1","battery-v0.2","","""event"",""trial"",""time""
""fullscreenenter"",""1"",""19763""
","
","
","""event"",""trial"",""time""
""fullscreenenter"",""1"",""19763""
","
","","","422.5","","","25","10883","897","&#9776;","elianto","#3366ff99"," "," ","1","+10","[1274.2999999523163]","1","0","1","","","","","","","",""
"pit-trial","30","509770","0.0-2.0-8.1-1.1","battery-v0.2","","""event"",""trial"",""time""
""fullscreenenter"",""1"",""19763""
","
","
","""event"",""trial"",""time""
""fullscreenenter"",""1"",""19763""
","
","","","641.6999999284744","","","25","10883","897","&#9776;","elianto","#3366ff99"," "," ","1","+10","[1498.1999999284744]","1","0","1","","","","","","","",""
"pit-trial","31","514103","0.0-2.0-8.1-2.1","battery-v0.2","","""event"",""trial"",""time""
""fullscreenenter"",""1"",""19763""
","
","
","""event"",""trial"",""time""
""fullscreenenter"",""1"",""19763""
","
","","","1479.6999999284744","","","25","10883","897","&#9776;","elianto","#3366ff99"," "," ","1","+10","[2331.5]","1","0","1","","","","","","","",""
"pit-trial","32","518266","0.0-2.0-8.1-3.1","battery-v0.2","","""event"",""trial"",""time""
""fullscreenenter"",""1"",""19763""
","
","
","""event"",""trial"",""time""
""fullscreenenter"",""1"",""19763""
","
","","","1309.0999999046326","","","25","10883","897","&#9776;","elianto","#3366ff99"," "," ","1","0","[2160.399999976158]","1","0","1","","","","","","","",""
"pit-trial","33","522994","0.0-2.0-8.1-4.1","battery-v0.2","","""event"",""trial"",""time""
""fullscreenenter"",""1"",""19763""
","
","
","""event"",""trial"",""time""
""fullscreenenter"",""1"",""19763""
","
","","","1872.6000000238419","","","25","10883","897","&#9776;","elianto","#3366ff99"," "," ","1","+10","[2725.600000023842]","1","0","1","","","","","","","",""
"pit-trial","34","527138","0.0-2.0-8.2-0.2","battery-v0.2","","""event"",""trial"",""time""
""fullscreenenter"",""1"",""19763""
","
","
","""event"",""trial"",""time""
""fullscreenenter"",""1"",""19763""
","
","","","1290.1999999284744","","","25","10883","897","&#9776;","elianto","#3366ff99"," "," ","1","+10","[2140.6999999284744]","1","0","1","","","","","","","",""
"pit-trial","35","531456","0.0-2.0-8.2-1.2","battery-v0.2","","""event"",""trial"",""time""
""fullscreenenter"",""1"",""19763""
","
","
","""event"",""trial"",""time""
""fullscreenenter"",""1"",""19763""
","
","","","1465.5999999046326","","","25","10883","897","&#9776;","elianto","#3366ff99"," "," ","1","+10","[2316.0999999046326]","1","0","1","","","","","","","",""
"pit-trial","36","536112","0.0-2.0-8.2-2.2","battery-v0.2","","""event"",""trial"",""time""
""fullscreenenter"",""1"",""19763""
","
","
","""event"",""trial"",""time""
""fullscreenenter"",""1"",""19763""
","
","","","1802.6000000238419","","","25","10883","897","&#9776;","elianto","#3366ff99"," "," ","1","+10","[2652.9000000953674]","1","0","1","","","","","","","",""
"pit-trial","37","540965","0.0-2.0-8.2-3.2","battery-v0.2","","""event"",""trial"",""time""
""fullscreenenter"",""1"",""19763""
","
","
","""event"",""trial"",""time""
""fullscreenenter"",""1"",""19763""
","
","","","-1","","","25","10883","897","&#9776;","elianto","#3366ff99"," ","-1","0","+10","[3643.600000023842]","1","0","1","","","","","","","",""
"pit-trial","38","545817","0.0-2.0-8.2-4.2","battery-v0.2","","""event"",""trial"",""time""
""fullscreenenter"",""1"",""19763""
","
","
","""event"",""trial"",""time""
""fullscreenenter"",""1"",""19763""
","
","","","-1","","","25","10883","897","&#9776;","elianto","#3366ff99"," ","-1","0","0","[2978.9000000953674]","1","0","1","","","","","","","",""
"call-function","39","545819","0.0-2.0-9.0","battery-v0.2","","""event"",""trial"",""time""
""fullscreenenter"",""1"",""19763""
","
","
","""event"",""trial"",""time""
""fullscreenenter"",""1"",""19763""
","
","","","","","","","","","","","","","","","","","","","","","","","","","","",""
"pit-instructions","40","608204","0.0-2.0-10.0","battery-v0.2","","""event"",""trial"",""time""
""fullscreenenter"",""1"",""19763""
","
","
","""event"",""trial"",""time""
""fullscreenenter"",""1"",""19763""
","
","","[{""page_index"":0,""viewing_time"":10928.5},{""page_index"":1,""viewing_time"":10441.599999904633},{""page_index"":2,""viewing_time"":15041.800000071526},{""page_index"":3,""viewing_time"":15061},{""page_index"":4,""viewing_time"":10911.799999952316}]","62384.89999997616","","","","","","","","","","","","","","","","","","","","","","","",""
"pit-trial","41","612365","0.0-2.0-11.0-0.0","battery-v0.2","","""event"",""trial"",""time""
""fullscreenenter"",""1"",""19763""
","
","
","""event"",""trial"",""time""
""fullscreenenter"",""1"",""19763""
","
","","","1297.2000000476837","","","25","10883","897","&#9761;","elianto","#3366ff99","-1"," ","0","0","[2148.600000023842]","1","0","2","","","","","","","",""
"pit-trial","42","615734","0.0-2.0-11.0-1.0","battery-v0.2","","""event"",""trial"",""time""
""fullscreenenter"",""1"",""19763""
","
","
","""event"",""trial"",""time""
""fullscreenenter"",""1"",""19763""
","
","","","504.7000000476837","","","25","10883","897","&#9761;","elianto","#3366ff99","-1"," ","0","0","[1357.2000000476837]","1","0","2","","","","","","","",""
"pit-trial","43","620600","0.0-2.0-11.0-2.0","battery-v0.2","","""event"",""trial"",""time""
""fullscreenenter"",""1"",""19763""
","
","
","""event"",""trial"",""time""
""fullscreenenter"",""1"",""19763""
","
","","","-1","","","25","10883","897","&#9761;","elianto","#3366ff99","-1","-1","1","+10","[]","0","0","2","","","","","","","",""
"pit-trial","44","625464","0.0-2.0-11.0-3.0","battery-v0.2","","""event"",""trial"",""time""
""fullscreenenter"",""1"",""19763""
","
","
","""event"",""trial"",""time""
""fullscreenenter"",""1"",""19763""
","
","","","-1","","","25","10883","897","&#9761;","elianto","#3366ff99","-1","-1","1","0","[]","0","0","2","","","","","","","",""
"pit-trial","45","630343","0.0-2.0-11.0-4.0","battery-v0.2","","""event"",""trial"",""time""
""fullscreenenter"",""1"",""19763""
","
","
","""event"",""trial"",""time""
""fullscreenenter"",""1"",""19763""
","
","","","-1","","","25","10883","897","&#9761;","elianto","#3366ff99","-1","-1","1","+10","[]","0","0","2","","","","","","","",""
"pit-trial","46","635208","0.0-2.0-11.1-0.1","battery-v0.2","","""event"",""trial"",""time""
""fullscreenenter"",""1"",""19763""
","
","
","""event"",""trial"",""time""
""fullscreenenter"",""1"",""19763""
","
","","","-1","","","25","10883","897","&#9761;","elianto","#3366ff99","-1","-1","1","+10","[3066.4000000953674]","1","0","2","","","","","","","",""
"pit-trial","47","640061","0.0-2.0-11.1-1.1","battery-v0.2","","""event"",""trial"",""time""
""fullscreenenter"",""1"",""19763""
","
","
","""event"",""trial"",""time""
""fullscreenenter"",""1"",""19763""
","
","","","-1","","","25","10883","897","&#9761;","elianto","#3366ff99","-1","-1","1","+10","[]","0","0","2","","","","","","","",""
"pit-trial","48","644916","0.0-2.0-11.1-2.1","battery-v0.2","","""event"",""trial"",""time""
""fullscreenenter"",""1"",""19763""
","
","
","""event"",""trial"",""time""
""fullscreenenter"",""1"",""19763""
","
","","","-1","","","25","10883","897","&#9761;","elianto","#3366ff99","-1","-1","1","+10","[]","0","0","2","","","","","","","",""
"pit-trial","49","649769","0.0-2.0-11.1-3.1","battery-v0.2","","""event"",""trial"",""time""
""fullscreenenter"",""1"",""19763""
","
","
","""event"",""trial"",""time""
""fullscreenenter"",""1"",""19763""
","
","","","-1","","","25","10883","897","&#9761;","elianto","#3366ff99","-1","-1","1","0","[3464.100000023842]","1","0","2","","","","","","","",""
"pit-trial","50","654622","0.0-2.0-11.1-4.1","battery-v0.2","","""event"",""trial"",""time""
""fullscreenenter"",""1"",""19763""
","
","
","""event"",""trial"",""time""
""fullscreenenter"",""1"",""19763""
","
","","","-1","","","25","10883","897","&#9761;","elianto","#3366ff99","-1","-1","1","+10","[4029.899999976158]","1","0","2","","","","","","","",""
"pit-trial","51","659476","0.0-2.0-11.2-0.2","battery-v0.2","","""event"",""trial"",""time""
""fullscreenenter"",""1"",""19763""
","
","
","""event"",""trial"",""time""
""fullscreenenter"",""1"",""19763""
","
","","","-1","","","25","10883","897","&#9761;","elianto","#3366ff99","-1","-1","1","+10","[]","0","0","2","","","","","","","",""
"pit-trial","52","664316","0.0-2.0-11.2-1.2","battery-v0.2","","""event"",""trial"",""time""
""fullscreenenter"",""1"",""19763""
","
","
","""event"",""trial"",""time""
""fullscreenenter"",""1"",""19763""
","
","","","1987.3999999761581","","","25","10883","897","&#9761;","elianto","#3366ff99","-1"," ","0","0","[2838.5]","1","0","2","","","","","","","",""
"pit-trial","53","668746","0.0-2.0-11.2-2.2","battery-v0.2","","""event"",""trial"",""time""
""fullscreenenter"",""1"",""19763""
","
","
","""event"",""trial"",""time""
""fullscreenenter"",""1"",""19763""
","
","","","1576.8999999761581","","","25","10883","897","&#9761;","elianto","#3366ff99","-1"," ","0","0","[2427.100000023842]","1","0","2","","","","","","","",""
"pit-trial","54","673611","0.0-2.0-11.2-3.2","battery-v0.2","","""event"",""trial"",""time""
""fullscreenenter"",""1"",""19763""
","
","
","""event"",""trial"",""time""
""fullscreenenter"",""1"",""19763""
","
","","","-1","","","25","10883","897","&#9761;","elianto","#3366ff99","-1","-1","1","0","[3336.5]","1","0","2","","","","","","","",""
"pit-trial","55","678463","0.0-2.0-11.2-4.2","battery-v0.2","","""event"",""trial"",""time""
""fullscreenenter"",""1"",""19763""
","
","
","""event"",""trial"",""time""
""fullscreenenter"",""1"",""19763""
","
","","","-1","","","25","10883","897","&#9761;","elianto","#3366ff99","-1","-1","1","+10","[]","0","0","2","","","","","","","",""
"pit-trial","56","683318","0.0-2.0-11.3-0.3","battery-v0.2","","""event"",""trial"",""time""
""fullscreenenter"",""1"",""19763""
","
","
","""event"",""trial"",""time""
""fullscreenenter"",""1"",""19763""
","
","","","-1","","","25","10883","897","&#9761;","elianto","#3366ff99","-1","-1","1","+10","[2856.7000000476837]","1","0","2","","","","","","","",""
"pit-trial","57","687889","0.0-2.0-11.3-1.3","battery-v0.2","","""event"",""trial"",""time""
""fullscreenenter"",""1"",""19763""
","
","
","""event"",""trial"",""time""
""fullscreenenter"",""1"",""19763""
","
","","","1716.5999999046326","","","25","10883","897","&#9761;","elianto","#3366ff99","-1"," ","0","0","[2567.0999999046326]","1","0","2","","","","","","","",""
"pit-trial","58","692209","0.0-2.0-11.3-2.3","battery-v0.2","","""event"",""trial"",""time""
""fullscreenenter"",""1"",""19763""
","
","
","""event"",""trial"",""time""
""fullscreenenter"",""1"",""19763""
","
","","","1468.2000000476837","","","25","10883","897","&#9761;","elianto","#3366ff99","-1"," ","0","0","[2318.399999976158]","1","0","2","","","","","","","",""
"pit-trial","59","697063","0.0-2.0-11.3-3.3","battery-v0.2","","""event"",""trial"",""time""
""fullscreenenter"",""1"",""19763""
","
","
","""event"",""trial"",""time""
""fullscreenenter"",""1"",""19763""
","
","","","-1","","","25","10883","897","&#9761;","elianto","#3366ff99","-1","-1","1","0","[]","0","0","2","","","","","","","",""
"pit-trial","60","701917","0.0-2.0-11.3-4.3","battery-v0.2","","""event"",""trial"",""time""
""fullscreenenter"",""1"",""19763""
","
","
","""event"",""trial"",""time""
""fullscreenenter"",""1"",""19763""
","
","","","-1","","","25","10883","897","&#9761;","elianto","#3366ff99","-1","-1","1","+10","[]","0","0","2","","","","","","","",""
"call-function","61","701919","0.0-2.0-12.0","battery-v0.2","","""event"",""trial"",""time""
""fullscreenenter"",""1"",""19763""
","
","
","""event"",""trial"",""time""
""fullscreenenter"",""1"",""19763""
","
","","","","","","","","","","","","","","","","","","","","","","","","","","",""
"pit-instructions","62","769146","0.0-2.0-13.0","battery-v0.2","","""event"",""trial"",""time""
""fullscreenenter"",""1"",""19763""
","
","
","""event"",""trial"",""time""
""fullscreenenter"",""1"",""19763""
","
","","[{""page_index"":0,""viewing_time"":15564.5},{""page_index"":1,""viewing_time"":15578.200000047684},{""page_index"":2,""viewing_time"":13785.100000023842},{""page_index"":3,""viewing_time"":15497.699999928474},{""page_index"":4,""viewing_time"":6800.800000071526}]","67226.39999997616","","","","","","","","","","","","","","","","","","","","","","","",""
"pit-trial","63","773534","0.0-2.0-14.0-0.0","battery-v0.2","","""event"",""trial"",""time""
""fullscreenenter"",""1"",""19763""
","
","
","""event"",""trial"",""time""
""fullscreenenter"",""1"",""19763""
","
","","","1525.8999999761581","","","25","10883","897","&#9826;","elianto","#f73b6a7A","-1"," ","0","-10","[2376.899999976158]","1","0","3","","","","","","","",""
"pit-trial","64","778400","0.0-2.0-14.0-1.0","battery-v0.2","","""event"",""trial"",""time""
""fullscreenenter"",""1"",""19763""
","
","
","""event"",""trial"",""time""
""fullscreenenter"",""1"",""19763""
","
","","","-1","","","25","10883","897","&#9826;","elianto","#f73b6a7A","-1","-1","1","0","[]","0","0","3","","","","","","","",""
"pit-trial","65","783258","0.0-2.0-14.0-2.0","battery-v0.2","","""event"",""trial"",""time""
""fullscreenenter"",""1"",""19763""
","
","
","""event"",""trial"",""time""
""fullscreenenter"",""1"",""19763""
","
","","","-1","","","25","10883","897","&#9826;","elianto","#f73b6a7A","-1","-1","1","0","[]","0","0","3","","","","","","","",""
"pit-trial","66","788117","0.0-2.0-14.0-3.0","battery-v0.2","","""event"",""trial"",""time""
""fullscreenenter"",""1"",""19763""
","
","
","""event"",""trial"",""time""
""fullscreenenter"",""1"",""19763""
","
","","","-1","","","25","10883","897","&#9826;","elianto","#f73b6a7A","-1","-1","1","-10","[]","0","0","3","","","","","","","",""
"pit-trial","67","791466","0.0-2.0-14.0-4.0","battery-v0.2","","""event"",""trial"",""time""
""fullscreenenter"",""1"",""19763""
","
","
","""event"",""trial"",""time""
""fullscreenenter"",""1"",""19763""
","
","","","485","","","25","10883","897","&#9826;","elianto","#f73b6a7A","-1"," ","0","-10","[1336.7999999523163]","1","0","3","","","","","","","",""
"pit-trial","68","796333","0.0-2.0-14.1-0.1","battery-v0.2","","""event"",""trial"",""time""
""fullscreenenter"",""1"",""19763""
","
","
","""event"",""trial"",""time""
""fullscreenenter"",""1"",""19763""
","
","","","-1","","","25","10883","897","&#9826;","elianto","#f73b6a7A","-1","-1","1","0","[]","0","0","3","","","","","","","",""
"pit-trial","69","801187","0.0-2.0-14.1-1.1","battery-v0.2","","""event"",""trial"",""time""
""fullscreenenter"",""1"",""19763""
","
","
","""event"",""trial"",""time""
""fullscreenenter"",""1"",""19763""
","
","","","-1","","","25","10883","897","&#9826;","elianto","#f73b6a7A","-1","-1","1","0","[]","0","0","3","","","","","","","",""
"pit-trial","70","806039","0.0-2.0-14.1-2.1","battery-v0.2","","""event"",""trial"",""time""
""fullscreenenter"",""1"",""19763""
","
","
","""event"",""trial"",""time""
""fullscreenenter"",""1"",""19763""
","
","","","-1","","","25","10883","897","&#9826;","elianto","#f73b6a7A","-1","-1","1","0","[]","0","0","3","","","","","","","",""
"pit-trial","71","810893","0.0-2.0-14.1-3.1","battery-v0.2","","""event"",""trial"",""time""
""fullscreenenter"",""1"",""19763""
","
","
","""event"",""trial"",""time""
""fullscreenenter"",""1"",""19763""
","
","","","-1","","","25","10883","897","&#9826;","elianto","#f73b6a7A","-1","-1","1","-10","[]","0","0","3","","","","","","","",""
"pit-trial","72","815748","0.0-2.0-14.1-4.1","battery-v0.2","","""event"",""trial"",""time""
""fullscreenenter"",""1"",""19763""
","
","
","""event"",""trial"",""time""
""fullscreenenter"",""1"",""19763""
","
","","","-1","","","25","10883","897","&#9826;","elianto","#f73b6a7A","-1","-1","1","0","[]","0","0","3","","","","","","","",""
"pit-trial","73","820601","0.0-2.0-14.2-0.2","battery-v0.2","","""event"",""trial"",""time""
""fullscreenenter"",""1"",""19763""
","
","
","""event"",""trial"",""time""
""fullscreenenter"",""1"",""19763""
","
","","","-1","","","25","10883","897","&#9826;","elianto","#f73b6a7A","-1","-1","1","0","[]","0","0","3","","","","","","","",""
"pit-trial","74","825454","0.0-2.0-14.2-1.2","battery-v0.2","","""event"",""trial"",""time""
""fullscreenenter"",""1"",""19763""
","
","
","""event"",""trial"",""time""
""fullscreenenter"",""1"",""19763""
","
","","","-1","","","25","10883","897","&#9826;","elianto","#f73b6a7A","-1","-1","1","0","[]","0","0","3","","","","","","","",""
"pit-trial","75","830308","0.0-2.0-14.2-2.2","battery-v0.2","","""event"",""trial"",""time""
""fullscreenenter"",""1"",""19763""
","
","
","""event"",""trial"",""time""
""fullscreenenter"",""1"",""19763""
","
","","","-1","","","25","10883","897","&#9826;","elianto","#f73b6a7A","-1","-1","1","0","[]","0","0","3","","","","","","","",""
"pit-trial","76","835160","0.0-2.0-14.2-3.2","battery-v0.2","","""event"",""trial"",""time""
""fullscreenenter"",""1"",""19763""
","
","
","""event"",""trial"",""time""
""fullscreenenter"",""1"",""19763""
","
","","","-1","","","25","10883","897","&#9826;","elianto","#f73b6a7A","-1","-1","1","-10","[]","0","0","3","","","","","","","",""
"pit-trial","77","840014","0.0-2.0-14.2-4.2","battery-v0.2","","""event"",""trial"",""time""
""fullscreenenter"",""1"",""19763""
","
","
","""event"",""trial"",""time""
""fullscreenenter"",""1"",""19763""
","
","","","-1","","","25","10883","897","&#9826;","elianto","#f73b6a7A","-1","-1","1","0","[]","0","0","3","","","","","","","",""
"pit-trial","78","844867","0.0-2.0-14.3-0.3","battery-v0.2","","""event"",""trial"",""time""
""fullscreenenter"",""1"",""19763""
","
","
","""event"",""trial"",""time""
""fullscreenenter"",""1"",""19763""
","
","","","-1","","","25","10883","897","&#9826;","elianto","#f73b6a7A","-1","-1","1","0","[]","0","0","3","","","","","","","",""
"pit-trial","79","849720","0.0-2.0-14.3-1.3","battery-v0.2","","""event"",""trial"",""time""
""fullscreenenter"",""1"",""19763""
","
","
","""event"",""trial"",""time""
""fullscreenenter"",""1"",""19763""
","
","","","-1","","","25","10883","897","&#9826;","elianto","#f73b6a7A","-1","-1","1","0","[]","0","0","3","","","","","","","",""
"pit-trial","80","854574","0.0-2.0-14.3-2.3","battery-v0.2","","""event"",""trial"",""time""
""fullscreenenter"",""1"",""19763""
","
","
","""event"",""trial"",""time""
""fullscreenenter"",""1"",""19763""
","
","","","-1","","","25","10883","897","&#9826;","elianto","#f73b6a7A","-1","-1","1","0","[]","0","0","3","","","","","","","",""
"pit-trial","81","859427","0.0-2.0-14.3-3.3","battery-v0.2","","""event"",""trial"",""time""
""fullscreenenter"",""1"",""19763""
","
","
","""event"",""trial"",""time""
""fullscreenenter"",""1"",""19763""
","
","","","-1","","","25","10883","897","&#9826;","elianto","#f73b6a7A","-1","-1","1","-10","[]","0","0","3","","","","","","","",""
"pit-trial","82","864281","0.0-2.0-14.3-4.3","battery-v0.2","","""event"",""trial"",""time""
""fullscreenenter"",""1"",""19763""
","
","
","""event"",""trial"",""time""
""fullscreenenter"",""1"",""19763""
","
","","","-1","","","25","10883","897","&#9826;","elianto","#f73b6a7A","-1","-1","1","0","[]","0","0","3","","","","","","","",""
"call-function","83","864282","0.0-2.0-15.0","battery-v0.2","","""event"",""trial"",""time""
""fullscreenenter"",""1"",""19763""
","
","
","""event"",""trial"",""time""
""fullscreenenter"",""1"",""19763""
","
","","","","","","","","","","","","","","","","","","","","","","","","","","",""
"pit-instructions","84","903807","0.0-2.0-16.0","battery-v0.2","","""event"",""trial"",""time""
""fullscreenenter"",""1"",""19763""
","
","
","""event"",""trial"",""time""
""fullscreenenter"",""1"",""19763""
","
","","[{""page_index"":0,""viewing_time"":8819.900000095367},{""page_index"":1,""viewing_time"":16113.799999952316},{""page_index"":2,""viewing_time"":6368.5},{""page_index"":3,""viewing_time"":8221.399999976158}]","39523.800000071526","","","","","","","","","","","","","","","","","","","","","","","",""
"pit-trial","85","908295","0.0-2.0-17.0-0.0","battery-v0.2","","""event"",""trial"",""time""
""fullscreenenter"",""1"",""19763""
","
","
","""event"",""trial"",""time""
""fullscreenenter"",""1"",""19763""
","
","","","1618.8000000715256","","","25","10883","897","&#9789;","elianto","#f73b6a7A"," "," ","1","0","[2474.3000000715256]","1","0","4","","","","","","","",""
"pit-trial","86","912408","0.0-2.0-17.0-1.0","battery-v0.2","","""event"",""trial"",""time""
""fullscreenenter"",""1"",""19763""
","
","
","""event"",""trial"",""time""
""fullscreenenter"",""1"",""19763""
","
","","","1251.1999999284744","","","25","10883","897","&#9789;","elianto","#f73b6a7A"," "," ","1","0","[2101.7999999523163]","1","0","4","","","","","","","",""
"pit-trial","87","915938","0.0-2.0-17.0-2.0","battery-v0.2","","""event"",""trial"",""time""
""fullscreenenter"",""1"",""19763""
","
","
","""event"",""trial"",""time""
""fullscreenenter"",""1"",""19763""
","
","","","657.5","","","25","10883","897","&#9789;","elianto","#f73b6a7A"," "," ","1","0","[1512]","1","0","4","","","","","","","",""
"pit-trial","88","919334","0.0-2.0-17.0-3.0","battery-v0.2","","""event"",""trial"",""time""
""fullscreenenter"",""1"",""19763""
","
","
","""event"",""trial"",""time""
""fullscreenenter"",""1"",""19763""
","
","","","533.1999999284744","","","25","10883","897","&#9789;","elianto","#f73b6a7A"," "," ","1","-10","[1388.9000000953674]","1","0","4","","","","","","","",""
"pit-trial","89","923288","0.0-2.0-17.0-4.0","battery-v0.2","","""event"",""trial"",""time""
""fullscreenenter"",""1"",""19763""
","
","
","""event"",""trial"",""time""
""fullscreenenter"",""1"",""19763""
","
","","","1090.7000000476837","","","25","10883","897","&#9789;","elianto","#f73b6a7A"," "," ","1","0","[1945.5]","1","0","4","","","","","","","",""
"pit-trial","90","927264","0.0-2.0-17.1-0.1","battery-v0.2","","""event"",""trial"",""time""
""fullscreenenter"",""1"",""19763""
","
","
","""event"",""trial"",""time""
""fullscreenenter"",""1"",""19763""
","
","","","1109.1000000238419","","","25","10883","897","&#9789;","elianto","#f73b6a7A"," "," ","1","0","[1960.8999999761581]","1","0","4","","","","","","","",""
"pit-trial","91","930511","0.0-2.0-17.1-1.1","battery-v0.2","","""event"",""trial"",""time""
""fullscreenenter"",""1"",""19763""
","
","
","""event"",""trial"",""time""
""fullscreenenter"",""1"",""19763""
","
","","","394.6999999284744","","","25","10883","897","&#9789;","elianto","#f73b6a7A"," "," ","1","0","[1245]","1","0","4","","","","","","","",""
"pit-trial","92","933814","0.0-2.0-17.1-2.1","battery-v0.2","","""event"",""trial"",""time""
""fullscreenenter"",""1"",""19763""
","
","
","""event"",""trial"",""time""
""fullscreenenter"",""1"",""19763""
","
","","","449.39999997615814","","","25","10883","897","&#9789;","elianto","#f73b6a7A"," "," ","1","0","[1300.1000000238419]","1","0","4","","","","","","","",""
"pit-trial","93","937454","0.0-2.0-17.1-3.1","battery-v0.2","","""event"",""trial"",""time""
""fullscreenenter"",""1"",""19763""
","
","
","""event"",""trial"",""time""
""fullscreenenter"",""1"",""19763""
","
","","","787.3000000715256","","","25","10883","897","&#9789;","elianto","#f73b6a7A"," "," ","1","-10","[1638.3000000715256]","1","0","4","","","","","","","",""
"pit-trial","94","942102","0.0-2.0-17.1-4.1","battery-v0.2","","""event"",""trial"",""time""
""fullscreenenter"",""1"",""19763""
","
","
","""event"",""trial"",""time""
""fullscreenenter"",""1"",""19763""
","
","","","1794.3999999761581","","","25","10883","897","&#9789;","elianto","#f73b6a7A"," "," ","1","0","[2645.5]","1","0","4","","","","","","","",""
"pit-trial","95","945388","0.0-2.0-17.2-0.2","battery-v0.2","","""event"",""trial"",""time""
""fullscreenenter"",""1"",""19763""
","
","
","""event"",""trial"",""time""
""fullscreenenter"",""1"",""19763""
","
","","","433.10000002384186","","","25","10883","897","&#9789;","elianto","#f73b6a7A"," "," ","1","0","[1283.2000000476837]","1","0","4","","","","","","","",""
"pit-trial","96","949626","0.0-2.0-17.2-1.2","battery-v0.2","","""event"",""trial"",""time""
""fullscreenenter"",""1"",""19763""
","
","
","""event"",""trial"",""time""
""fullscreenenter"",""1"",""19763""
","
","","","1384.1000000238419","","","25","10883","897","&#9789;","elianto","#f73b6a7A"," "," ","1","0","[2235.600000023842]","1","0","4","","","","","","","",""
"pit-trial","97","953538","0.0-2.0-17.2-2.2","battery-v0.2","","""event"",""trial"",""time""
""fullscreenenter"",""1"",""19763""
","
","
","""event"",""trial"",""time""
""fullscreenenter"",""1"",""19763""
","
","","","1060.1000000238419","","","25","10883","897","&#9789;","elianto","#f73b6a7A"," "," ","1","0","[1911]","1","0","4","","","","","","","",""
"pit-trial","98","957798","0.0-2.0-17.2-3.2","battery-v0.2","","""event"",""trial"",""time""
""fullscreenenter"",""1"",""19763""
","
","
","""event"",""trial"",""time""
""fullscreenenter"",""1"",""19763""
","
","","","1405.6999999284744","","","25","10883","897","&#9789;","elianto","#f73b6a7A"," "," ","1","-10","[2256.8000000715256]","1","0","4","","","","","","","",""
"pit-trial","99","962140","0.0-2.0-17.2-4.2","battery-v0.2","","""event"",""trial"",""time""
""fullscreenenter"",""1"",""19763""
","
","
","""event"",""trial"",""time""
""fullscreenenter"",""1"",""19763""
","
","","","1490.5","","","25","10883","897","&#9789;","elianto","#f73b6a7A"," "," ","1","0","[2340.6999999284744]","1","0","4","","","","","","","",""
"pit-trial","100","966012","0.0-2.0-17.3-0.3","battery-v0.2","","""event"",""trial"",""time""
""fullscreenenter"",""1"",""19763""
","
","
","""event"",""trial"",""time""
""fullscreenenter"",""1"",""19763""
","
","","","1018.3999999761581","","","25","10883","897","&#9789;","elianto","#f73b6a7A"," "," ","1","0","[1868.6000000238419]","1","0","4","","","","","","","",""
"pit-trial","101","970447","0.0-2.0-17.3-1.3","battery-v0.2","","""event"",""trial"",""time""
""fullscreenenter"",""1"",""19763""
","
","
","""event"",""trial"",""time""
""fullscreenenter"",""1"",""19763""
","
","","","1579.8000000715256","","","25","10883","897","&#9789;","elianto","#f73b6a7A"," "," ","1","0","[2432.100000023842]","1","0","4","","","","","","","",""
"pit-trial","102","973585","0.0-2.0-17.3-2.3","battery-v0.2","","""event"",""trial"",""time""
""fullscreenenter"",""1"",""19763""
","
","
","""event"",""trial"",""time""
""fullscreenenter"",""1"",""19763""
","
","","","285.5","","","25","10883","897","&#9789;","elianto","#f73b6a7A"," "," ","1","0","[1136.1999999284744]","1","0","4","","","","","","","",""
"pit-trial","103","977579","0.0-2.0-17.3-3.3","battery-v0.2","","""event"",""trial"",""time""
""fullscreenenter"",""1"",""19763""
","
","
","""event"",""trial"",""time""
""fullscreenenter"",""1"",""19763""
","
","","","1140.6000000238419","","","25","10883","897","&#9789;","elianto","#f73b6a7A"," "," ","1","-10","[1991.5]","1","0","4","","","","","","","",""
"pit-trial","104","981573","0.0-2.0-17.3-4.3","battery-v0.2","","""event"",""trial"",""time""
""fullscreenenter"",""1"",""19763""
","
","
","""event"",""trial"",""time""
""fullscreenenter"",""1"",""19763""
","
","","","1140.1999999284744","","","25","10883","897","&#9789;","elianto","#f73b6a7A"," "," ","1","0","[1991.1000000238419]","1","0","4","","","","","","","",""
"call-function","105","981575","0.0-2.0-18.0","battery-v0.2","","""event"",""trial"",""time""
""fullscreenenter"",""1"",""19763""
","
","
","""event"",""trial"",""time""
""fullscreenenter"",""1"",""19763""
","
","","","","","","","","","","","","","","","","","","","","","","","","","","",""
"pit-instructions","106","1082553","0.0-2.0-19.0","battery-v0.2","","""event"",""trial"",""time""
""fullscreenenter"",""1"",""19763""
","
","
","""event"",""trial"",""time""
""fullscreenenter"",""1"",""19763""
","
","","[{""page_index"":0,""viewing_time"":13148.299999952316},{""page_index"":1,""viewing_time"":9097.5},{""page_index"":2,""viewing_time"":16143.300000071526},{""page_index"":3,""viewing_time"":10796.699999928474},{""page_index"":4,""viewing_time"":11728},{""page_index"":5,""viewing_time"":8301.899999976158},{""page_index"":6,""viewing_time"":14225.900000095367},{""page_index"":7,""viewing_time"":10497.599999904633},{""page_index"":8,""viewing_time"":7038.300000071526}]","100977.69999992847","","","","","","","","","","","","","","","","","","","","","","","",""
"pit-comprehension","107","1087367","0.0-2.0-20.0-0.0","battery-v0.2","","""event"",""trial"",""time""
""fullscreenenter"",""1"",""19763""
","
","
","""event"",""trial"",""time""
""fullscreenenter"",""1"",""19763""
","
","","","4810","[""SPACE""]","0","25","10883","897","","","","","","","","","","","","","","","","","","",""
"pit-instructions","108","1092080","0.0-2.0-20.0-1.0","battery-v0.2","","""event"",""trial"",""time""
""fullscreenenter"",""1"",""19763""
","
","
","""event"",""trial"",""time""
""fullscreenenter"",""1"",""19763""
","
","","[{""page_index"":0,""viewing_time"":4658.100000023842}]","4658.299999952316","","","","","","","","","","","","","","","","","","","","","","","",""
"pit-comprehension","109","1096471","0.0-2.0-21.0-0.0","battery-v0.2","","""event"",""trial"",""time""
""fullscreenenter"",""1"",""19763""
","
","
","""event"",""trial"",""time""
""fullscreenenter"",""1"",""19763""
","
","","","4387.399999976158","[""10""]","0","25","10883","897","","","","","","","","","","","","","","","","","","",""
"pit-instructions","110","1102314","0.0-2.0-21.0-1.0","battery-v0.2","","""event"",""trial"",""time""
""fullscreenenter"",""1"",""19763""
","
","
","""event"",""trial"",""time""
""fullscreenenter"",""1"",""19763""
","
","","[{""page_index"":0,""viewing_time"":5797.199999928474}]","5797.399999976158","","","","","","","","","","","","","","","","","","","","","","","",""
"pit-comprehension","111","1116081","0.0-2.0-22.0-0.0","battery-v0.2","","""event"",""trial"",""time""
""fullscreenenter"",""1"",""19763""
","
","
","""event"",""trial"",""time""
""fullscreenenter"",""1"",""19763""
","
","","","13763.100000023842","[""0""]","0","25","10883","897","","","","","","","","","","","","","","","","","","",""
"pit-instructions","112","1120165","0.0-2.0-22.0-1.0","battery-v0.2","","""event"",""trial"",""time""
""fullscreenenter"",""1"",""19763""
","
","
","""event"",""trial"",""time""
""fullscreenenter"",""1"",""19763""
","
","","[{""page_index"":0,""viewing_time"":4037.7999999523163}]","4038.100000023842","","","","","","","","","","","","","","","","","","","","","","","",""
"pit-comprehension","113","1131442","0.0-2.0-23.0-0.0","battery-v0.2","","""event"",""trial"",""time""
""fullscreenenter"",""1"",""19763""
","
","
","""event"",""trial"",""time""
""fullscreenenter"",""1"",""19763""
","
","","","11273.200000047684","[""True""]","0","25","10883","897","","","","","","","","","","","","","","","","","","",""
"pit-instructions","114","1138874","0.0-2.0-23.0-1.0","battery-v0.2","","""event"",""trial"",""time""
""fullscreenenter"",""1"",""19763""
","
","
","""event"",""trial"",""time""
""fullscreenenter"",""1"",""19763""
","
","","[{""page_index"":0,""viewing_time"":7376.5}]","7376.699999928474","","","","","","","","","","","","","","","","","","","","","","","",""
"pit-comprehension","115","1148013","0.0-2.0-24.0-0.0","battery-v0.2","","""event"",""trial"",""time""
""fullscreenenter"",""1"",""19763""
","
","
","""event"",""trial"",""time""
""fullscreenenter"",""1"",""19763""
","
","","","9134.800000071526","[""True""]","0","25","10883","897","","","","","","","","","","","","","","","","","","",""
"pit-instructions","116","1150965","0.0-2.0-24.0-1.0","battery-v0.2","","""event"",""trial"",""time""
""fullscreenenter"",""1"",""19763""
","
","
","""event"",""trial"",""time""
""fullscreenenter"",""1"",""19763""
","
","","[{""page_index"":0,""viewing_time"":2906}]","2906.1999999284744","","","","","","","","","","","","","","","","","","","","","","","",""
"pit-comprehension","117","1159534","0.0-2.0-25.0-0.0","battery-v0.2","","""event"",""trial"",""time""
""fullscreenenter"",""1"",""19763""
","
","
","""event"",""trial"",""time""
""fullscreenenter"",""1"",""19763""
","
","","","8566.100000023842","[""True""]","0","25","10883","897","","","","","","","","","","","","","","","","","","",""
"pit-instructions","118","1168899","0.0-2.0-25.0-1.0","battery-v0.2","","""event"",""trial"",""time""
""fullscreenenter"",""1"",""19763""
","
","
","""event"",""trial"",""time""
""fullscreenenter"",""1"",""19763""
","
","","[{""page_index"":0,""viewing_time"":9316.099999904633}]","9316.199999928474","","","","","","","","","","","","","","","","","","","","","","","",""
"pit-comprehension","119","1176609","0.0-2.0-26.0-0.0","battery-v0.2","","""event"",""trial"",""time""
""fullscreenenter"",""1"",""19763""
","
","
","""event"",""trial"",""time""
""fullscreenenter"",""1"",""19763""
","
","","","7706.399999976158","[""False""]","0","25","10883","897","","","","","","","","","","","","","","","","","","",""
"pit-instructions","120","1183830","0.0-2.0-26.0-1.0","battery-v0.2","","""event"",""trial"",""time""
""fullscreenenter"",""1"",""19763""
","
","
","""event"",""trial"",""time""
""fullscreenenter"",""1"",""19763""
","
","","[{""page_index"":0,""viewing_time"":7163.399999976158}]","7163.699999928474","","","","","","","","","","","","","","","","","","","","","","","",""
"pit-instructions","121","1221401","0.0-3.0","battery-v0.2","","""event"",""trial"",""time""
""fullscreenenter"",""1"",""19763""
","
","
","""event"",""trial"",""time""
""fullscreenenter"",""1"",""19763""
","
","","[{""page_index"":0,""viewing_time"":9721.899999976158},{""page_index"":1,""viewing_time"":6431.899999976158},{""page_index"":2,""viewing_time"":21415.5}]","37569.60000002384","","","","","","","","","","","","","","","","","","","","","","","",""
"pit-trial","122","1226271","0.0-4.0","battery-v0.2","","""event"",""trial"",""time""
""fullscreenenter"",""1"",""19763""
","
","
","""event"",""trial"",""time""
""fullscreenenter"",""1"",""19763""
","
","","","-1","","","25","10883","897","&#9752;","elianto","#f73b6a7A"," ","-1","0","-10","[]","0","1","","","10883","1","3","3","lose","go","0"
"pit-trial","123","1230368","0.0-5.0","battery-v0.2","","""event"",""trial"",""time""
""fullscreenenter"",""1"",""19763""
","
","
","""event"",""trial"",""time""
""fullscreenenter"",""1"",""19763""
","
","","","1236.4000000953674","","","25","10883","897","&#9728;","elianto","#f73b6a7A","-1"," ","0","-10","[2091.4000000953674]","1","1","","","10883","2","0","4","lose","no-go","0"
"pit-trial","124","1233879","0.0-6.0","battery-v0.2","","""event"",""trial"",""time""
""fullscreenenter"",""1"",""19763""
","
","
","""event"",""trial"",""time""
""fullscreenenter"",""1"",""19763""
","
","","","642.2999999523163","","","25","10883","897","&#9730;","elianto","#3366ff99"," "," ","1","+10","[1499.8999999761581]","1","1","","","10883","3","1","1","win","go","0"
"pit-trial","125","1238746","0.0-7.0","battery-v0.2","","""event"",""trial"",""time""
""fullscreenenter"",""1"",""19763""
","
","
","""event"",""trial"",""time""
""fullscreenenter"",""1"",""19763""
","
","","","-1","","","25","10883","897","&#9733;","elianto","#3366ff99","-1","-1","1","+10","[]","0","1","","","10883","4","2","2","win","no-go","0"
"pit-trial","126","1242726","0.0-8.0","battery-v0.2","","""event"",""trial"",""time""
""fullscreenenter"",""1"",""19763""
","
","
","""event"",""trial"",""time""
""fullscreenenter"",""1"",""19763""
","
","","","1125.1000000238419","","","25","10883","897","&#9730;","elianto","#3366ff99"," "," ","1","+10","[1977.1000000238419]","1","1","","","10883","5","1","1","win","go","0"
"pit-trial","127","1246636","0.0-9.0","battery-v0.2","","""event"",""trial"",""time""
""fullscreenenter"",""1"",""19763""
","
","
","""event"",""trial"",""time""
""fullscreenenter"",""1"",""19763""
","
","","","1053.5","","","25","10883","897","&#9733;","elianto","#3366ff99","-1"," ","0","+10","[1906.7000000476837]","1","1","","","10883","6","2","2","win","no-go","1"
"pit-trial","128","1250916","0.0-10.0","battery-v0.2","","""event"",""trial"",""time""
""fullscreenenter"",""1"",""19763""
","
","
","""event"",""trial"",""time""
""fullscreenenter"",""1"",""19763""
","
","","","1427.5","","","25","10883","897","&#9728;","elianto","#f73b6a7A","-1"," ","0","-10","[2277.7000000476837]","1","1","","","10883","7","0","4","lose","no-go","0"
"pit-trial","129","1255770","0.0-11.0","battery-v0.2","","""event"",""trial"",""time""
""fullscreenenter"",""1"",""19763""
","
","
","""event"",""trial"",""time""
""fullscreenenter"",""1"",""19763""
","
","","","-1","","","25","10883","897","&#9752;","elianto","#f73b6a7A"," ","-1","0","-10","[]","0","1","","","10883","8","3","3","lose","go","0"
"pit-trial","130","1260623","0.0-12.0","battery-v0.2","","""event"",""trial"",""time""
""fullscreenenter"",""1"",""19763""
","
","
","""event"",""trial"",""time""
""fullscreenenter"",""1"",""19763""
","
","","","-1","","","25","10883","897","&#9728;","elianto","#f73b6a7A","-1","-1","1","0","[]","0","1","","","10883","9","0","4","lose","no-go","0"
"pit-trial","131","1265249","0.0-13.0","battery-v0.2","","""event"",""trial"",""time""
""fullscreenenter"",""1"",""19763""
","
","
","""event"",""trial"",""time""
""fullscreenenter"",""1"",""19763""
","
","","","1772.5","","","25","10883","897","&#9730;","elianto","#3366ff99"," "," ","1","+10","[2623.5]","1","1","","","10883","10","1","1","win","go","0"
"pit-trial","132","1269844","0.0-14.0","battery-v0.2","","""event"",""trial"",""time""
""fullscreenenter"",""1"",""19763""
","
","
","""event"",""trial"",""time""
""fullscreenenter"",""1"",""19763""
","
","","","1740.3999999761581","","","25","10883","897","&#9752;","elianto","#f73b6a7A"," "," ","1","0","[2591.899999976158]","1","1","","","10883","11","3","3","lose","go","0"
"pit-trial","133","1273833","0.0-15.0","battery-v0.2","","""event"",""trial"",""time""
""fullscreenenter"",""1"",""19763""
","
","
","""event"",""trial"",""time""
""fullscreenenter"",""1"",""19763""
","
","","","1136.3999999761581","","","25","10883","897","&#9733;","elianto","#3366ff99","-1"," ","0","0","[1987.0999999046326]","1","1","","","10883","12","2","2","win","no-go","0"
"pit-trial","134","1277101","0.0-16.0","battery-v0.2","","""event"",""trial"",""time""
""fullscreenenter"",""1"",""19763""
","
","
","""event"",""trial"",""time""
""fullscreenenter"",""1"",""19763""
","
","","","415.2999999523163","","","25","10883","897","&#9733;","elianto","#3366ff99","-1"," ","0","+10","[1265.2999999523163]","1","1","","","10883","13","2","2","win","no-go","1"
"pit-trial","135","1280431","0.0-17.0","battery-v0.2","","""event"",""trial"",""time""
""fullscreenenter"",""1"",""19763""
","
","
","""event"",""trial"",""time""
""fullscreenenter"",""1"",""19763""
","
","","","477.2999999523163","","","25","10883","897","&#9752;","elianto","#f73b6a7A"," "," ","1","0","[1327.7999999523163]","1","1","","","10883","14","3","3","lose","go","0"
"pit-trial","136","1284388","0.0-18.0","battery-v0.2","","""event"",""trial"",""time""
""fullscreenenter"",""1"",""19763""
","
","
","""event"",""trial"",""time""
""fullscreenenter"",""1"",""19763""
","
","","","1103.8999999761581","","","25","10883","897","&#9728;","elianto","#f73b6a7A","-1"," ","0","0","[1954.6000000238419]","1","1","","","10883","15","0","4","lose","no-go","1"
"pit-trial","137","1289093","0.0-19.0","battery-v0.2","","""event"",""trial"",""time""
""fullscreenenter"",""1"",""19763""
","
","
","""event"",""trial"",""time""
""fullscreenenter"",""1"",""19763""
","
","","","1851.7000000476837","","","25","10883","897","&#9730;","elianto","#3366ff99"," "," ","1","+10","[2703.2000000476837]","1","1","","","10883","16","1","1","win","go","0"
"pit-trial","138","1293709","0.0-20.0","battery-v0.2","","""event"",""trial"",""time""
""fullscreenenter"",""1"",""19763""
","
","
","""event"",""trial"",""time""
""fullscreenenter"",""1"",""19763""
","
","","","1761.2999999523163","","","25","10883","897","&#9730;","elianto","#3366ff99"," "," ","1","+10","[2611.899999976158]","1","1","","","10883","17","1","1","win","go","0"
"pit-trial","139","1298563","0.0-21.0","battery-v0.2","","""event"",""trial"",""time""
""fullscreenenter"",""1"",""19763""
","
","
","""event"",""trial"",""time""
""fullscreenenter"",""1"",""19763""
","
","","","-1","","","25","10883","897","&#9733;","elianto","#3366ff99","-1","-1","1","0","[]","0","1","","","10883","18","2","2","win","no-go","1"
"pit-trial","140","1303417","0.0-22.0","battery-v0.2","","""event"",""trial"",""time""
""fullscreenenter"",""1"",""19763""
","
","
","""event"",""trial"",""time""
""fullscreenenter"",""1"",""19763""
","
","","","-1","","","25","10883","897","&#9752;","elianto","#f73b6a7A"," ","-1","0","-10","[3365]","1","1","","","10883","19","3","3","lose","go","0"
"pit-trial","141","1307423","0.0-23.0","battery-v0.2","","""event"",""trial"",""time""
""fullscreenenter"",""1"",""19763""
","
","
","""event"",""trial"",""time""
""fullscreenenter"",""1"",""19763""
","
","","","1153.2999999523163","","","25","10883","897","&#9728;","elianto","#f73b6a7A","-1"," ","0","-10","[2004.1000000238419]","1","1","","","10883","20","0","4","lose","no-go","0"
"pit-instructions","142","1346715","0.0-24.0","battery-v0.2","","""event"",""trial"",""time""
""fullscreenenter"",""1"",""19763""
","
","
","""event"",""trial"",""time""
""fullscreenenter"",""1"",""19763""
","
","","[{""page_index"":0,""viewing_time"":31372.700000047684},{""page_index"":1,""viewing_time"":7918.399999976158}]","39291.39999997616","","","","","","","","","","","","","","","","","","","","","","","",""
"pit-trial","143","1350669","0.0-25.0","battery-v0.2","","""event"",""trial"",""time""
""fullscreenenter"",""1"",""19763""
","
","
","""event"",""trial"",""time""
""fullscreenenter"",""1"",""19763""
","
","","","1092.8000000715256","","","25","10883","897","d","elianto","#3366ff99","-1"," ","0","0","[1943.8000000715256]","1","2","","","10883","21","1","2","win","no-go","0"
"pit-trial","144","1354272","0.0-26.0","battery-v0.2","","""event"",""trial"",""time""
""fullscreenenter"",""1"",""19763""
","
","
","""event"",""trial"",""time""
""fullscreenenter"",""1"",""19763""
","
","","","745.3999999761581","","","25","10883","897","w","elianto","#f73b6a7A","-1"," ","0","-10","[1600.0999999046326]","1","2","","","10883","22","3","4","lose","no-go","0"
"pit-trial","145","1357420","0.0-27.0","battery-v0.2","","""event"",""trial"",""time""
""fullscreenenter"",""1"",""19763""
","
","
","""event"",""trial"",""time""
""fullscreenenter"",""1"",""19763""
","
","","","279.89999997615814","","","25","10883","897","j","elianto","#f73b6a7A"," "," ","1","0","[1135.3999999761581]","1","2","","","10883","23","0","3","lose","go","0"
"pit-trial","146","1360390","0.0-28.0","battery-v0.2","","""event"",""trial"",""time""
""fullscreenenter"",""1"",""19763""
","
","
","""event"",""trial"",""time""
""fullscreenenter"",""1"",""19763""
","
","","","101.39999997615814","","","25","10883","897","e","elianto","#f73b6a7A"," "," ","1","0","[957.6000000238419]","1","2","","","10883","24","2","3","lose","go","0"
"pit-trial","147","1365248","0.0-29.0","battery-v0.2","","""event"",""trial"",""time""
""fullscreenenter"",""1"",""19763""
","
","
","""event"",""trial"",""time""
""fullscreenenter"",""1"",""19763""
","
","","","-1","","","25","10883","897","d","elianto","#3366ff99","-1","-1","1","+10","[]","0","2","","","10883","25","1","2","win","no-go","0"
"pit-trial","148","1370119","0.0-30.0","battery-v0.2","","""event"",""trial"",""time""
""fullscreenenter"",""1"",""19763""
","
","
","""event"",""trial"",""time""
""fullscreenenter"",""1"",""19763""
","
","","","-1","","","25","10883","897","w","elianto","#f73b6a7A","-1","-1","1","0","[]","0","2","","","10883","26","3","4","lose","no-go","0"
"pit-trial","149","1374979","0.0-31.0","battery-v0.2","","""event"",""trial"",""time""
""fullscreenenter"",""1"",""19763""
","
","
","""event"",""trial"",""time""
""fullscreenenter"",""1"",""19763""
","
","","","-1","","","25","10883","897","j","elianto","#f73b6a7A"," ","-1","0","-10","[]","0","2","","","10883","27","0","3","lose","go","0"
"pit-trial","150","1379833","0.0-32.0","battery-v0.2","","""event"",""trial"",""time""
""fullscreenenter"",""1"",""19763""
","
","
","""event"",""trial"",""time""
""fullscreenenter"",""1"",""19763""
","
","","","-1","","","25","10883","897","e","elianto","#f73b6a7A"," ","-1","0","-10","[]","0","2","","","10883","28","2","3","lose","go","0"
"pit-trial","151","1382950","0.0-33.0","battery-v0.2","","""event"",""trial"",""time""
""fullscreenenter"",""1"",""19763""
","
","
","""event"",""trial"",""time""
""fullscreenenter"",""1"",""19763""
","
","","","264.10000002384186","","","25","10883","897","w","elianto","#f73b6a7A","-1"," ","0","-10","[1114.3000000715256]","1","2","","","10883","29","3","4","lose","no-go","0"
"pit-trial","152","1387014","0.0-34.0","battery-v0.2","","""event"",""trial"",""time""
""fullscreenenter"",""1"",""19763""
","
","
","""event"",""trial"",""time""
""fullscreenenter"",""1"",""19763""
","
","","","1209.5","","","25","10883","897","j","elianto","#f73b6a7A"," "," ","1","0","[2060.600000023842]","1","2","","","10883","30","0","3","lose","go","0"
"pit-trial","153","1391655","0.0-35.0","battery-v0.2","","""event"",""trial"",""time""
""fullscreenenter"",""1"",""19763""
","
","
","""event"",""trial"",""time""
""fullscreenenter"",""1"",""19763""
","
","","","1786.6999999284744","","","25","10883","897","d","elianto","#3366ff99","-1"," ","0","0","[2637.6999999284744]","1","2","","","10883","31","1","2","win","no-go","0"
"pit-trial","154","1395633","0.0-36.0","battery-v0.2","","""event"",""trial"",""time""
""fullscreenenter"",""1"",""19763""
","
","
","""event"",""trial"",""time""
""fullscreenenter"",""1"",""19763""
","
","","","1119.8999999761581","","","25","10883","897","e","elianto","#f73b6a7A"," "," ","1","0","[1976.3999999761581]","1","2","","","10883","32","2","3","lose","go","0"
"pit-trial","155","1399377","0.0-37.0","battery-v0.2","","""event"",""trial"",""time""
""fullscreenenter"",""1"",""19763""
","
","
","""event"",""trial"",""time""
""fullscreenenter"",""1"",""19763""
","
","","","888.8000000715256","","","25","10883","897","j","elianto","#f73b6a7A"," "," ","1","0","[1740.2000000476837]","1","2","","","10883","33","0","3","lose","go","0"
"pit-trial","156","1403049","0.0-38.0","battery-v0.2","","""event"",""trial"",""time""
""fullscreenenter"",""1"",""19763""
","
","
","""event"",""trial"",""time""
""fullscreenenter"",""1"",""19763""
","
","","","818","","","25","10883","897","e","elianto","#f73b6a7A"," "," ","1","0","[1669.0999999046326]","1","2","","","10883","34","2","3","lose","go","0"
"pit-trial","157","1407154","0.0-39.0","battery-v0.2","","""event"",""trial"",""time""
""fullscreenenter"",""1"",""19763""
","
","
","""event"",""trial"",""time""
""fullscreenenter"",""1"",""19763""
","
","","","1250.6000000238419","","","25","10883","897","w","elianto","#f73b6a7A","-1"," ","0","-10","[2101.6999999284744]","1","2","","","10883","35","3","4","lose","no-go","0"
"pit-trial","158","1412008","0.0-40.0","battery-v0.2","","""event"",""trial"",""time""
""fullscreenenter"",""1"",""19763""
","
","
","""event"",""trial"",""time""
""fullscreenenter"",""1"",""19763""
","
","","","-1","","","25","10883","897","d","elianto","#3366ff99","-1","-1","1","+10","[3234.600000023842]","1","2","","","10883","36","1","2","win","no-go","0"
"pit-trial","159","1415852","0.0-41.0","battery-v0.2","","""event"",""trial"",""time""
""fullscreenenter"",""1"",""19763""
","
","
","""event"",""trial"",""time""
""fullscreenenter"",""1"",""19763""
","
","","","988.7999999523163","","","25","10883","897","d","elianto","#3366ff99","-1"," ","0","0","[1840.8999999761581]","1","2","","","10883","37","1","2","win","no-go","0"
"pit-trial","160","1419540","0.0-42.0","battery-v0.2","","""event"",""trial"",""time""
""fullscreenenter"",""1"",""19763""
","
","
","""event"",""trial"",""time""
""fullscreenenter"",""1"",""19763""
","
","","","834.7000000476837","","","25","10883","897","j","elianto","#f73b6a7A"," "," ","1","0","[1686]","1","2","","","10883","38","0","3","lose","go","0"
"pit-trial","161","1423820","0.0-43.0","battery-v0.2","","""event"",""trial"",""time""
""fullscreenenter"",""1"",""19763""
","
","
","""event"",""trial"",""time""
""fullscreenenter"",""1"",""19763""
","
","","","1422.7000000476837","","","25","10883","897","w","elianto","#f73b6a7A","-1"," ","0","-10","[2276.7000000476837]","1","2","","","10883","39","3","4","lose","no-go","0"
"pit-trial","162","1427772","0.0-44.0","battery-v0.2","","""event"",""trial"",""time""
""fullscreenenter"",""1"",""19763""
","
","
","""event"",""trial"",""time""
""fullscreenenter"",""1"",""19763""
","
","","","1098.7000000476837","","","25","10883","897","e","elianto","#f73b6a7A"," "," ","1","0","[1949.3000000715256]","1","2","","","10883","40","2","3","lose","go","0"
"pit-trial","163","1431529","0.0-45.0","battery-v0.2","","""event"",""trial"",""time""
""fullscreenenter"",""1"",""19763""
","
","
","""event"",""trial"",""time""
""fullscreenenter"",""1"",""19763""
","
","","","903.6000000238419","","","25","10883","897","j","elianto","#f73b6a7A"," "," ","1","0","[1754.5]","1","2","","","10883","41","0","3","lose","go","0"
"pit-trial","164","1436384","0.0-46.0","battery-v0.2","","""event"",""trial"",""time""
""fullscreenenter"",""1"",""19763""
","
","
","""event"",""trial"",""time""
""fullscreenenter"",""1"",""19763""
","
","","","-1","","","25","10883","897","w","elianto","#f73b6a7A","-1","-1","1","0","[]","0","2","","","10883","42","3","4","lose","no-go","0"
"pit-trial","165","1441237","0.0-47.0","battery-v0.2","","""event"",""trial"",""time""
""fullscreenenter"",""1"",""19763""
","
","
","""event"",""trial"",""time""
""fullscreenenter"",""1"",""19763""
","
","","","-1","","","25","10883","897","e","elianto","#f73b6a7A"," ","-1","0","-10","[]","0","2","","","10883","43","2","3","lose","go","0"
"pit-trial","166","1444393","0.0-48.0","battery-v0.2","","""event"",""trial"",""time""
""fullscreenenter"",""1"",""19763""
","
","
","""event"",""trial"",""time""
""fullscreenenter"",""1"",""19763""
","
","","","303.39999997615814","","","25","10883","897","d","elianto","#3366ff99","-1"," ","0","0","[1154]","1","2","","","10883","44","1","2","win","no-go","0"
"pit-trial","167","1448133","0.0-49.0","battery-v0.2","","""event"",""trial"",""time""
""fullscreenenter"",""1"",""19763""
","
","
","""event"",""trial"",""time""
""fullscreenenter"",""1"",""19763""
","
","","","887.8999999761581","","","25","10883","897","d","elianto","#3366ff99","-1"," ","0","+10","[1738.2999999523163]","1","2","","","10883","45","1","2","win","no-go","1"
"pit-trial","168","1452987","0.0-50.0","battery-v0.2","","""event"",""trial"",""time""
""fullscreenenter"",""1"",""19763""
","
","
","""event"",""trial"",""time""
""fullscreenenter"",""1"",""19763""
","
","","","-1","","","25","10883","897","w","elianto","#f73b6a7A","-1","-1","1","-10","[]","0","2","","","10883","46","3","4","lose","no-go","1"
"pit-trial","169","1457842","0.0-51.0","battery-v0.2","","""event"",""trial"",""time""
""fullscreenenter"",""1"",""19763""
","
","
","""event"",""trial"",""time""
""fullscreenenter"",""1"",""19763""
","
","","","-1","","","25","10883","897","j","elianto","#f73b6a7A"," ","-1","0","0","[3358.0999999046326]","1","2","","","10883","47","0","3","lose","go","1"
"pit-trial","170","1461998","0.0-52.0","battery-v0.2","","""event"",""trial"",""time""
""fullscreenenter"",""1"",""19763""
","
","
","""event"",""trial"",""time""
""fullscreenenter"",""1"",""19763""
","
","","","1302.5","","","25","10883","897","e","elianto","#f73b6a7A"," "," ","1","0","[2153.399999976158]","1","2","","","10883","48","2","3","lose","go","0"
"pit-trial","171","1465906","0.0-53.0","battery-v0.2","","""event"",""trial"",""time""
""fullscreenenter"",""1"",""19763""
","
","
","""event"",""trial"",""time""
""fullscreenenter"",""1"",""19763""
","
","","","1055.7000000476837","","","25","10883","897","d","elianto","#3366ff99","-1"," ","0","0","[1906.5]","1","2","","","10883","49","1","2","win","no-go","0"
"pit-trial","172","1469628","0.0-54.0","battery-v0.2","","""event"",""trial"",""time""
""fullscreenenter"",""1"",""19763""
","
","
","""event"",""trial"",""time""
""fullscreenenter"",""1"",""19763""
","
","","","863.3999999761581","","","25","10883","897","e","elianto","#f73b6a7A"," "," ","1","0","[1716]","1","2","","","10883","50","2","3","lose","go","0"
"pit-trial","173","1473918","0.0-55.0","battery-v0.2","","""event"",""trial"",""time""
""fullscreenenter"",""1"",""19763""
","
","
","""event"",""trial"",""time""
""fullscreenenter"",""1"",""19763""
","
","","","1437.6000000238419","","","25","10883","897","w","elianto","#f73b6a7A","-1"," ","0","-10","[2287.7999999523163]","1","2","","","10883","51","3","4","lose","no-go","0"
"pit-trial","174","1478772","0.0-56.0","battery-v0.2","","""event"",""trial"",""time""
""fullscreenenter"",""1"",""19763""
","
","
","""event"",""trial"",""time""
""fullscreenenter"",""1"",""19763""
","
","","","-1","","","25","10883","897","j","elianto","#f73b6a7A"," ","-1","0","0","[]","0","2","","","10883","52","0","3","lose","go","1"
"pit-trial","175","1482752","0.0-57.0","battery-v0.2","","""event"",""trial"",""time""
""fullscreenenter"",""1"",""19763""
","
","
","""event"",""trial"",""time""
""fullscreenenter"",""1"",""19763""
","
","","","1126","","","25","10883","897","d","elianto","#3366ff99","-1"," ","0","0","[1977.5999999046326]","1","2","","","10883","53","1","2","win","no-go","0"
"pit-trial","176","1486821","0.0-58.0","battery-v0.2","","""event"",""trial"",""time""
""fullscreenenter"",""1"",""19763""
","
","
","""event"",""trial"",""time""
""fullscreenenter"",""1"",""19763""
","
","","","1215.5","","","25","10883","897","j","elianto","#f73b6a7A"," "," ","1","0","[2066.5]","1","2","","","10883","54","0","3","lose","go","0"
"pit-trial","177","1489991","0.0-59.0","battery-v0.2","","""event"",""trial"",""time""
""fullscreenenter"",""1"",""19763""
","
","
","""event"",""trial"",""time""
""fullscreenenter"",""1"",""19763""
","
","","","316.8000000715256","","","25","10883","897","w","elianto","#f73b6a7A","-1"," ","0","-10","[1166.8000000715256]","1","2","","","10883","55","3","4","lose","no-go","0"
"pit-trial","178","1494845","0.0-60.0","battery-v0.2","","""event"",""trial"",""time""
""fullscreenenter"",""1"",""19763""
","
","
","""event"",""trial"",""time""
""fullscreenenter"",""1"",""19763""
","
","","","-1","","","25","10883","897","e","elianto","#f73b6a7A"," ","-1","0","-10","[]","0","2","","","10883","56","2","3","lose","go","0"
"pit-trial","179","1499698","0.0-61.0","battery-v0.2","","""event"",""trial"",""time""
""fullscreenenter"",""1"",""19763""
","
","
","""event"",""trial"",""time""
""fullscreenenter"",""1"",""19763""
","
","","","-1","","","25","10883","897","e","elianto","#f73b6a7A"," ","-1","0","-10","[3054.399999976158]","1","2","","","10883","57","2","3","lose","go","0"
"pit-trial","180","1504553","0.0-62.0","battery-v0.2","","""event"",""trial"",""time""
""fullscreenenter"",""1"",""19763""
","
","
","""event"",""trial"",""time""
""fullscreenenter"",""1"",""19763""
","
","","","-1","","","25","10883","897","j","elianto","#f73b6a7A"," ","-1","0","-10","[]","0","2","","","10883","58","0","3","lose","go","0"
"pit-trial","181","1508699","0.0-63.0","battery-v0.2","","""event"",""trial"",""time""
""fullscreenenter"",""1"",""19763""
","
","
","""event"",""trial"",""time""
""fullscreenenter"",""1"",""19763""
","
","","","1291.3999999761581","","","25","10883","897","s","elianto","#3366ff99"," "," ","1","+10","[2142.3000000715256]","1","2","","","10883","59","4","1","win","go","0"
"pit-trial","182","1512968","0.0-64.0","battery-v0.2","","""event"",""trial"",""time""
""fullscreenenter"",""1"",""19763""
","
","
","""event"",""trial"",""time""
""fullscreenenter"",""1"",""19763""
","
","","","1414.6000000238419","","","25","10883","897","w","elianto","#f73b6a7A","-1"," ","0","-10","[2266.399999976158]","1","2","","","10883","60","3","4","lose","no-go","0"
"pit-trial","183","1517821","0.0-65.0","battery-v0.2","","""event"",""trial"",""time""
""fullscreenenter"",""1"",""19763""
","
","
","""event"",""trial"",""time""
""fullscreenenter"",""1"",""19763""
","
","","","-1","","","25","10883","897","d","elianto","#3366ff99","-1","-1","1","+10","[3297]","1","2","","","10883","61","1","2","win","no-go","0"
"pit-trial","184","1522004","0.0-66.0","battery-v0.2","","""event"",""trial"",""time""
""fullscreenenter"",""1"",""19763""
","
","
","""event"",""trial"",""time""
""fullscreenenter"",""1"",""19763""
","
","","","1330","","","25","10883","897","e","elianto","#f73b6a7A"," "," ","1","0","[2180.899999976158]","1","2","","","10883","62","2","3","lose","go","0"
"pit-trial","185","1526858","0.0-67.0","battery-v0.2","","""event"",""trial"",""time""
""fullscreenenter"",""1"",""19763""
","
","
","""event"",""trial"",""time""
""fullscreenenter"",""1"",""19763""
","
","","","-1","","","25","10883","897","w","elianto","#f73b6a7A","-1","-1","1","-10","[2971.100000023842]","1","2","","","10883","63","3","4","lose","no-go","1"
"pit-trial","186","1531712","0.0-68.0","battery-v0.2","","""event"",""trial"",""time""
""fullscreenenter"",""1"",""19763""
","
","
","""event"",""trial"",""time""
""fullscreenenter"",""1"",""19763""
","
","","","-1","","","25","10883","897","s","elianto","#3366ff99"," ","-1","0","0","[3513.5]","1","2","","","10883","64","4","1","win","go","0"
"pit-trial","187","1536566","0.0-69.0","battery-v0.2","","""event"",""trial"",""time""
""fullscreenenter"",""1"",""19763""
","
","
","""event"",""trial"",""time""
""fullscreenenter"",""1"",""19763""
","
","","","-1","","","25","10883","897","s","elianto","#3366ff99"," ","-1","0","0","[3791.8000000715256]","1","2","","","10883","65","4","1","win","go","0"
"pit-trial","188","1541350","0.0-70.0","battery-v0.2","","""event"",""trial"",""time""
""fullscreenenter"",""1"",""19763""
","
","
","""event"",""trial"",""time""
""fullscreenenter"",""1"",""19763""
","
","","","1931.1999999284744","","","25","10883","897","p","elianto","#3366ff99","-1"," ","0","0","[2781.6999999284744]","1","2","","","10883","66","5","2","win","no-go","0"
"pit-trial","189","1545604","0.0-71.0","battery-v0.2","","""event"",""trial"",""time""
""fullscreenenter"",""1"",""19763""
","
","
","""event"",""trial"",""time""
""fullscreenenter"",""1"",""19763""
","
","","","1401.5","","","25","10883","897","w","elianto","#f73b6a7A","-1"," ","0","-10","[2252.100000023842]","1","2","","","10883","67","3","4","lose","no-go","0"
"pit-trial","190","1550214","0.0-72.0","battery-v0.2","","""event"",""trial"",""time""
""fullscreenenter"",""1"",""19763""
","
","
","""event"",""trial"",""time""
""fullscreenenter"",""1"",""19763""
","
","","","1756.7999999523163","","","25","10883","897","d","elianto","#3366ff99","-1"," ","0","0","[2607.7000000476837]","1","2","","","10883","68","1","2","win","no-go","0"
"pit-trial","191","1554383","0.0-73.0","battery-v0.2","","""event"",""trial"",""time""
""fullscreenenter"",""1"",""19763""
","
","
","""event"",""trial"",""time""
""fullscreenenter"",""1"",""19763""
","
","","","1315.7000000476837","","","25","10883","897","d","elianto","#3366ff99","-1"," ","0","0","[2167.2000000476837]","1","2","","","10883","69","1","2","win","no-go","0"
"pit-trial","192","1558344","0.0-74.0","battery-v0.2","","""event"",""trial"",""time""
""fullscreenenter"",""1"",""19763""
","
","
","""event"",""trial"",""time""
""fullscreenenter"",""1"",""19763""
","
","","","1106.2000000476837","","","25","10883","897","e","elianto","#f73b6a7A"," "," ","1","0","[1957.6000000238419]","1","2","","","10883","70","2","3","lose","go","0"
"pit-trial","193","1562776","0.0-75.0","battery-v0.2","","""event"",""trial"",""time""
""fullscreenenter"",""1"",""19763""
","
","
","""event"",""trial"",""time""
""fullscreenenter"",""1"",""19763""
","
","","","1578.1000000238419","","","25","10883","897","s","elianto","#3366ff99"," "," ","1","+10","[2429.8000000715256]","1","2","","","10883","71","4","1","win","go","0"
"pit-trial","194","1566956","0.0-76.0","battery-v0.2","","""event"",""trial"",""time""
""fullscreenenter"",""1"",""19763""
","
","
","""event"",""trial"",""time""
""fullscreenenter"",""1"",""19763""
","
","","","1327.5","","","25","10883","897","p","elianto","#3366ff99","-1"," ","0","0","[2177.7000000476837]","1","2","","","10883","72","5","2","win","no-go","0"
"pit-trial","195","1570969","0.0-77.0","battery-v0.2","","""event"",""trial"",""time""
""fullscreenenter"",""1"",""19763""
","
","
","""event"",""trial"",""time""
""fullscreenenter"",""1"",""19763""
","
","","","1157","","","25","10883","897","w","elianto","#f73b6a7A","-1"," ","0","-10","[2009.1999999284744]","1","2","","","10883","73","3","4","lose","no-go","0"
"pit-trial","196","1575822","0.0-78.0","battery-v0.2","","""event"",""trial"",""time""
""fullscreenenter"",""1"",""19763""
","
","
","""event"",""trial"",""time""
""fullscreenenter"",""1"",""19763""
","
","","","-1","","","25","10883","897","p","elianto","#3366ff99","-1","-1","1","0","[]","0","2","","","10883","74","5","2","win","no-go","1"
"pit-trial","197","1580675","0.0-79.0","battery-v0.2","","""event"",""trial"",""time""
""fullscreenenter"",""1"",""19763""
","
","
","""event"",""trial"",""time""
""fullscreenenter"",""1"",""19763""
","
","","","-1","","","25","10883","897","d","elianto","#3366ff99","-1","-1","1","+10","[4812.399999976158]","1","2","","","10883","75","1","2","win","no-go","0"
"pit-trial","198","1584263","0.0-80.0","battery-v0.2","","""event"",""trial"",""time""
""fullscreenenter"",""1"",""19763""
","
","
","""event"",""trial"",""time""
""fullscreenenter"",""1"",""19763""
","
","","","735.2999999523163","","","25","10883","897","s","elianto","#3366ff99"," "," ","1","+10","[1585.5999999046326]","1","2","","","10883","76","4","1","win","go","0"
"pit-trial","199","1588482","0.0-81.0","battery-v0.2","","""event"",""trial"",""time""
""fullscreenenter"",""1"",""19763""
","
","
","""event"",""trial"",""time""
""fullscreenenter"",""1"",""19763""
","
","","","1365.6000000238419","","","25","10883","897","p","elianto","#3366ff99","-1"," ","0","0","[2216]","1","2","","","10883","77","5","2","win","no-go","0"
"pit-trial","200","1593336","0.0-82.0","battery-v0.2","","""event"",""trial"",""time""
""fullscreenenter"",""1"",""19763""
","
","
","""event"",""trial"",""time""
""fullscreenenter"",""1"",""19763""
","
","","","-1","","","25","10883","897","w","elianto","#f73b6a7A","-1","-1","1","-10","[]","0","2","","","10883","78","3","4","lose","no-go","1"
"pit-trial","201","1598190","0.0-83.0","battery-v0.2","","""event"",""trial"",""time""
""fullscreenenter"",""1"",""19763""
","
","
","""event"",""trial"",""time""
""fullscreenenter"",""1"",""19763""
","
","","","-1","","","25","10883","897","s","elianto","#3366ff99"," ","-1","0","0","[3426.100000023842]","1","2","","","10883","79","4","1","win","go","0"
"pit-trial","202","1602566","0.0-84.0","battery-v0.2","","""event"",""trial"",""time""
""fullscreenenter"",""1"",""19763""
","
","
","""event"",""trial"",""time""
""fullscreenenter"",""1"",""19763""
","
","","","1522.2999999523163","","","25","10883","897","s","elianto","#3366ff99"," "," ","1","+10","[2373.399999976158]","1","2","","","10883","80","4","1","win","go","0"
"pit-trial","203","1606622","0.0-85.0","battery-v0.2","","""event"",""trial"",""time""
""fullscreenenter"",""1"",""19763""
","
","
","""event"",""trial"",""time""
""fullscreenenter"",""1"",""19763""
","
","","","1203.2999999523163","","","25","10883","897","w","elianto","#f73b6a7A","-1"," ","0","-10","[2053.7999999523163]","1","2","","","10883","81","3","4","lose","no-go","0"
"pit-trial","204","1611292","0.0-86.0","battery-v0.2","","""event"",""trial"",""time""
""fullscreenenter"",""1"",""19763""
","
","
","""event"",""trial"",""time""
""fullscreenenter"",""1"",""19763""
","
","","","1812.6999999284744","","","25","10883","897","p","elianto","#3366ff99","-1"," ","0","0","[2665.600000023842]","1","2","","","10883","82","5","2","win","no-go","0"
"pit-trial","205","1616152","0.0-87.0","battery-v0.2","","""event"",""trial"",""time""
""fullscreenenter"",""1"",""19763""
","
","
","""event"",""trial"",""time""
""fullscreenenter"",""1"",""19763""
","
","","","-1","","","25","10883","897","s","elianto","#3366ff99"," ","-1","0","+10","[4126.600000023842]","1","2","","","10883","83","4","1","win","go","1"
"pit-trial","206","1621006","0.0-88.0","battery-v0.2","","""event"",""trial"",""time""
""fullscreenenter"",""1"",""19763""
","
","
","""event"",""trial"",""time""
""fullscreenenter"",""1"",""19763""
","
","","","-1","","","25","10883","897","a","elianto","#f73b6a7A","-1","-1","1","-10","[]","0","2","","","10883","84","7","4","lose","no-go","1"
"pit-trial","207","1625466","0.0-89.0","battery-v0.2","","""event"",""trial"",""time""
""fullscreenenter"",""1"",""19763""
","
","
","""event"",""trial"",""time""
""fullscreenenter"",""1"",""19763""
","
","","","1605.2999999523163","","","25","10883","897","g","elianto","#f73b6a7A"," "," ","1","0","[2457.2999999523163]","1","2","","","10883","85","6","3","lose","go","0"
"pit-trial","208","1629618","0.0-90.0","battery-v0.2","","""event"",""trial"",""time""
""fullscreenenter"",""1"",""19763""
","
","
","""event"",""trial"",""time""
""fullscreenenter"",""1"",""19763""
","
","","","1299.1000000238419","","","25","10883","897","p","elianto","#3366ff99","-1"," ","0","0","[2149.5]","1","2","","","10883","86","5","2","win","no-go","0"
"pit-trial","209","1633365","0.0-91.0","battery-v0.2","","""event"",""trial"",""time""
""fullscreenenter"",""1"",""19763""
","
","
","""event"",""trial"",""time""
""fullscreenenter"",""1"",""19763""
","
","","","894.1000000238419","","","25","10883","897","a","elianto","#f73b6a7A","-1"," ","0","-10","[1744.6000000238419]","1","2","","","10883","87","7","4","lose","no-go","0"
"pit-trial","210","1638219","0.0-92.0","battery-v0.2","","""event"",""trial"",""time""
""fullscreenenter"",""1"",""19763""
","
","
","""event"",""trial"",""time""
""fullscreenenter"",""1"",""19763""
","
","","","-1","","","25","10883","897","s","elianto","#3366ff99"," ","-1","0","+10","[]","0","2","","","10883","88","4","1","win","go","1"
"pit-trial","211","1643074","0.0-93.0","battery-v0.2","","""event"",""trial"",""time""
""fullscreenenter"",""1"",""19763""
","
","
","""event"",""trial"",""time""
""fullscreenenter"",""1"",""19763""
","
","","","-1","","","25","10883","897","a","elianto","#f73b6a7A","-1","-1","1","0","[4539.100000023842]","1","2","","","10883","89","7","4","lose","no-go","0"
"pit-trial","212","1647929","0.0-94.0","battery-v0.2","","""event"",""trial"",""time""
""fullscreenenter"",""1"",""19763""
","
","
","""event"",""trial"",""time""
""fullscreenenter"",""1"",""19763""
","
","","","-1","","","25","10883","897","s","elianto","#3366ff99"," ","-1","0","0","[]","0","2","","","10883","90","4","1","win","go","0"
"pit-trial","213","1652783","0.0-95.0","battery-v0.2","","""event"",""trial"",""time""
""fullscreenenter"",""1"",""19763""
","
","
","""event"",""trial"",""time""
""fullscreenenter"",""1"",""19763""
","
","","","-1","","","25","10883","897","p","elianto","#3366ff99","-1","-1","1","+10","[]","0","2","","","10883","91","5","2","win","no-go","0"
"pit-trial","214","1657638","0.0-96.0","battery-v0.2","","""event"",""trial"",""time""
""fullscreenenter"",""1"",""19763""
","
","
","""event"",""trial"",""time""
""fullscreenenter"",""1"",""19763""
","
","","","-1","","","25","10883","897","g","elianto","#f73b6a7A"," ","-1","0","0","[]","0","2","","","10883","92","6","3","lose","go","1"
"pit-trial","215","1661937","0.0-97.0","battery-v0.2","","""event"",""trial"",""time""
""fullscreenenter"",""1"",""19763""
","
","
","""event"",""trial"",""time""
""fullscreenenter"",""1"",""19763""
","
","","","1442.2000000476837","","","25","10883","897","l","elianto","#3366ff99"," "," ","1","+10","[2295.5]","1","2","","","10883","93","8","1","win","go","0"
"pit-trial","216","1666791","0.0-98.0","battery-v0.2","","""event"",""trial"",""time""
""fullscreenenter"",""1"",""19763""
","
","
","""event"",""trial"",""time""
""fullscreenenter"",""1"",""19763""
","
","","","-1","","","25","10883","897","g","elianto","#f73b6a7A"," ","-1","0","-10","[]","0","2","","","10883","94","6","3","lose","go","0"
"pit-trial","217","1671302","0.0-99.0","battery-v0.2","","""event"",""trial"",""time""
""fullscreenenter"",""1"",""19763""
","
","
","""event"",""trial"",""time""
""fullscreenenter"",""1"",""19763""
","
","","","1657.3999999761581","","","25","10883","897","p","elianto","#3366ff99","-1"," ","0","0","[2508.5]","1","2","","","10883","95","5","2","win","no-go","0"
"pit-trial","218","1676156","0.0-100.0","battery-v0.2","","""event"",""trial"",""time""
""fullscreenenter"",""1"",""19763""
","
","
","""event"",""trial"",""time""
""fullscreenenter"",""1"",""19763""
","
","","","-1","","","25","10883","897","a","elianto","#f73b6a7A","-1","-1","1","0","[]","0","2","","","10883","96","7","4","lose","no-go","0"
"pit-trial","219","1681010","0.0-101.0","battery-v0.2","","""event"",""trial"",""time""
""fullscreenenter"",""1"",""19763""
","
","
","""event"",""trial"",""time""
""fullscreenenter"",""1"",""19763""
","
","","","-1","","","25","10883","897","a","elianto","#f73b6a7A","-1","-1","1","0","[3495.6999999284744]","1","2","","","10883","97","7","4","lose","no-go","0"
"pit-trial","220","1685864","0.0-102.0","battery-v0.2","","""event"",""trial"",""time""
""fullscreenenter"",""1"",""19763""
","
","
","""event"",""trial"",""time""
""fullscreenenter"",""1"",""19763""
","
","","","-1","","","25","10883","897","l","elianto","#3366ff99"," ","-1","0","0","[]","0","2","","","10883","98","8","1","win","go","0"
"pit-trial","221","1689663","0.0-103.0","battery-v0.2","","""event"",""trial"",""time""
""fullscreenenter"",""1"",""19763""
","
","
","""event"",""trial"",""time""
""fullscreenenter"",""1"",""19763""
","
","","","946.1000000238419","","","25","10883","897","p","elianto","#3366ff99","-1"," ","0","0","[1796.5]","1","2","","","10883","99","5","2","win","no-go","0"
"pit-trial","222","1694517","0.0-104.0","battery-v0.2","","""event"",""trial"",""time""
""fullscreenenter"",""1"",""19763""
","
","
","""event"",""trial"",""time""
""fullscreenenter"",""1"",""19763""
","
","","","-1","","","25","10883","897","g","elianto","#f73b6a7A"," ","-1","0","0","[3029.5]","1","2","","","10883","100","6","3","lose","go","1"
"pit-trial","223","1699371","0.0-105.0","battery-v0.2","","""event"",""trial"",""time""
""fullscreenenter"",""1"",""19763""
","
","
","""event"",""trial"",""time""
""fullscreenenter"",""1"",""19763""
","
","","","-1","","","25","10883","897","l","elianto","#3366ff99"," ","-1","0","0","[4693]","1","2","","","10883","101","8","1","win","go","0"
"pit-trial","224","1704223","0.0-106.0","battery-v0.2","","""event"",""trial"",""time""
""fullscreenenter"",""1"",""19763""
","
","
","""event"",""trial"",""time""
""fullscreenenter"",""1"",""19763""
","
","","","-1","","","25","10883","897","u","elianto","#3366ff99"," ","-1","0","0","[]","0","2","","","10883","102","9","1","win","go","0"
"pit-trial","225","1707813","0.0-107.0","battery-v0.2","","""event"",""trial"",""time""
""fullscreenenter"",""1"",""19763""
","
","
","""event"",""trial"",""time""
""fullscreenenter"",""1"",""19763""
","
","","","735.4000000953674","","","25","10883","897","p","elianto","#3366ff99","-1"," ","0","+10","[1586.7000000476837]","1","2","","","10883","103","5","2","win","no-go","1"
"pit-trial","226","1712667","0.0-108.0","battery-v0.2","","""event"",""trial"",""time""
""fullscreenenter"",""1"",""19763""
","
","
","""event"",""trial"",""time""
""fullscreenenter"",""1"",""19763""
","
","","","-1","","","25","10883","897","a","elianto","#f73b6a7A","-1","-1","1","0","[]","0","2","","","10883","104","7","4","lose","no-go","0"
"pit-trial","227","1716803","0.0-109.0","battery-v0.2","","""event"",""trial"",""time""
""fullscreenenter"",""1"",""19763""
","
","
","""event"",""trial"",""time""
""fullscreenenter"",""1"",""19763""
","
","","","1283.2000000476837","","","25","10883","897","l","elianto","#3366ff99"," "," ","1","+10","[2133.2999999523163]","1","2","","","10883","105","8","1","win","go","0"
"pit-trial","228","1721084","0.0-110.0","battery-v0.2","","""event"",""trial"",""time""
""fullscreenenter"",""1"",""19763""
","
","
","""event"",""trial"",""time""
""fullscreenenter"",""1"",""19763""
","
","","","1427.3999999761581","","","25","10883","897","s","elianto","#3366ff99"," "," ","1","+10","[2279.399999976158]","1","2","","","10883","106","4","1","win","go","0"
"pit-trial","229","1725938","0.0-111.0","battery-v0.2","","""event"",""trial"",""time""
""fullscreenenter"",""1"",""19763""
","
","
","""event"",""trial"",""time""
""fullscreenenter"",""1"",""19763""
","
","","","-1","","","25","10883","897","g","elianto","#f73b6a7A"," ","-1","0","-10","[2983.600000023842]","1","2","","","10883","107","6","3","lose","go","0"
"pit-trial","230","1730793","0.0-112.0","battery-v0.2","","""event"",""trial"",""time""
""fullscreenenter"",""1"",""19763""
","
","
","""event"",""trial"",""time""
""fullscreenenter"",""1"",""19763""
","
","","","-1","","","25","10883","897","u","elianto","#3366ff99"," ","-1","0","0","[2978.5999999046326]","1","2","","","10883","108","9","1","win","go","0"
"pit-trial","231","1735509","0.0-113.0","battery-v0.2","","""event"",""trial"",""time""
""fullscreenenter"",""1"",""19763""
","
","
","""event"",""trial"",""time""
""fullscreenenter"",""1"",""19763""
","
","","","1861.3999999761581","","","25","10883","897","p","elianto","#3366ff99","-1"," ","0","0","[2713.399999976158]","1","2","","","10883","109","5","2","win","no-go","0"
"pit-trial","232","1739849","0.0-114.0","battery-v0.2","","""event"",""trial"",""time""
""fullscreenenter"",""1"",""19763""
","
","
","""event"",""trial"",""time""
""fullscreenenter"",""1"",""19763""
","
","","","1484.8999999761581","","","25","10883","897","l","elianto","#3366ff99"," "," ","1","+10","[2335.899999976158]","1","2","","","10883","110","8","1","win","go","0"
"pit-trial","233","1744434","0.0-115.0","battery-v0.2","","""event"",""trial"",""time""
""fullscreenenter"",""1"",""19763""
","
","
","""event"",""trial"",""time""
""fullscreenenter"",""1"",""19763""
","
","","","1731.1999999284744","","","25","10883","897","u","elianto","#3366ff99"," "," ","1","+10","[2582.5]","1","2","","","10883","111","9","1","win","go","0"
"pit-trial","234","1749286","0.0-116.0","battery-v0.2","","""event"",""trial"",""time""
""fullscreenenter"",""1"",""19763""
","
","
","""event"",""trial"",""time""
""fullscreenenter"",""1"",""19763""
","
","","","-1","","","25","10883","897","g","elianto","#f73b6a7A"," ","-1","0","-10","[2895.7999999523163]","1","2","","","10883","112","6","3","lose","go","0"
"pit-trial","235","1754140","0.0-117.0","battery-v0.2","","""event"",""trial"",""time""
""fullscreenenter"",""1"",""19763""
","
","
","""event"",""trial"",""time""
""fullscreenenter"",""1"",""19763""
","
","","","-1","","","25","10883","897","l","elianto","#3366ff99"," ","-1","0","0","[3322.399999976158]","1","2","","","10883","113","8","1","win","go","0"
"pit-trial","236","1758323","0.0-118.0","battery-v0.2","","""event"",""trial"",""time""
""fullscreenenter"",""1"",""19763""
","
","
","""event"",""trial"",""time""
""fullscreenenter"",""1"",""19763""
","
","","","1328.8999999761581","","","25","10883","897","u","elianto","#3366ff99"," "," ","1","+10","[2179.399999976158]","1","2","","","10883","114","9","1","win","go","0"
"pit-trial","237","1762252","0.0-119.0","battery-v0.2","","""event"",""trial"",""time""
""fullscreenenter"",""1"",""19763""
","
","
","""event"",""trial"",""time""
""fullscreenenter"",""1"",""19763""
","
","","","1075.1000000238419","","","25","10883","897","p","elianto","#3366ff99","-1"," ","0","0","[1925.8999999761581]","1","2","","","10883","115","5","2","win","no-go","0"
"pit-trial","238","1766791","0.0-120.0","battery-v0.2","","""event"",""trial"",""time""
""fullscreenenter"",""1"",""19763""
","
","
","""event"",""trial"",""time""
""fullscreenenter"",""1"",""19763""
","
","","","1685.8999999761581","","","25","10883","897","g","elianto","#f73b6a7A"," "," ","1","0","[2536.2000000476837]","1","2","","","10883","116","6","3","lose","go","0"
"pit-trial","239","1771646","0.0-121.0","battery-v0.2","","""event"",""trial"",""time""
""fullscreenenter"",""1"",""19763""
","
","
","""event"",""trial"",""time""
""fullscreenenter"",""1"",""19763""
","
","","","-1","","","25","10883","897","u","elianto","#3366ff99"," ","-1","0","+10","[3606.899999976158]","1","2","","","10883","117","9","1","win","go","1"
"pit-trial","240","1776500","0.0-122.0","battery-v0.2","","""event"",""trial"",""time""
""fullscreenenter"",""1"",""19763""
","
","
","""event"",""trial"",""time""
""fullscreenenter"",""1"",""19763""
","
","","","-1","","","25","10883","897","p","elianto","#3366ff99","-1","-1","1","+10","[]","0","2","","","10883","118","5","2","win","no-go","0"
"pit-trial","241","1781353","0.0-123.0","battery-v0.2","","""event"",""trial"",""time""
""fullscreenenter"",""1"",""19763""
","
","
","""event"",""trial"",""time""
""fullscreenenter"",""1"",""19763""
","
","","","-1","","","25","10883","897","g","elianto","#f73b6a7A"," ","-1","0","-10","[111.60000002384186]","1","2","","","10883","119","6","3","lose","go","0"
"pit-trial","242","1786206","0.0-124.0","battery-v0.2","","""event"",""trial"",""time""
""fullscreenenter"",""1"",""19763""
","
","
","""event"",""trial"",""time""
""fullscreenenter"",""1"",""19763""
","
","","","-1","","","25","10883","897","l","elianto","#3366ff99"," ","-1","0","0","[3982]","1","2","","","10883","120","8","1","win","go","0"
"pit-trial","243","1791060","0.0-125.0","battery-v0.2","","""event"",""trial"",""time""
""fullscreenenter"",""1"",""19763""
","
","
","""event"",""trial"",""time""
""fullscreenenter"",""1"",""19763""
","
","","","-1","","","25","10883","897","u","elianto","#3366ff99"," ","-1","0","0","[]","0","2","","","10883","121","9","1","win","go","0"
"pit-trial","244","1795913","0.0-126.0","battery-v0.2","","""event"",""trial"",""time""
""fullscreenenter"",""1"",""19763""
","
","
","""event"",""trial"",""time""
""fullscreenenter"",""1"",""19763""
","
","","","-1","","","25","10883","897","a","elianto","#f73b6a7A","-1","-1","1","0","[]","0","2","","","10883","122","7","4","lose","no-go","0"
"pit-trial","245","1799133","0.0-127.0","battery-v0.2","","""event"",""trial"",""time""
""fullscreenenter"",""1"",""19763""
","
","
","""event"",""trial"",""time""
""fullscreenenter"",""1"",""19763""
","
","","","366","","","25","10883","897","l","elianto","#3366ff99"," "," ","1","+10","[1217.6000000238419]","1","2","","","10883","123","8","1","win","go","0"
"pit-trial","246","1803987","0.0-128.0","battery-v0.2","","""event"",""trial"",""time""
""fullscreenenter"",""1"",""19763""
","
","
","""event"",""trial"",""time""
""fullscreenenter"",""1"",""19763""
","
","","","-1","","","25","10883","897","g","elianto","#f73b6a7A"," ","-1","0","-10","[]","0","2","","","10883","124","6","3","lose","go","0"
"pit-trial","247","1808840","0.0-129.0","battery-v0.2","","""event"",""trial"",""time""
""fullscreenenter"",""1"",""19763""
","
","
","""event"",""trial"",""time""
""fullscreenenter"",""1"",""19763""
","
","","","-1","","","25","10883","897","g","elianto","#f73b6a7A"," ","-1","0","-10","[]","0","2","","","10883","125","6","3","lose","go","0"
"pit-trial","248","1812036","0.0-130.0","battery-v0.2","","""event"",""trial"",""time""
""fullscreenenter"",""1"",""19763""
","
","
","""event"",""trial"",""time""
""fullscreenenter"",""1"",""19763""
","
","","","342.2999999523163","","","25","10883","897","a","elianto","#f73b6a7A","-1"," ","0","0","[1193.3999999761581]","1","2","","","10883","126","7","4","lose","no-go","1"
"pit-trial","249","1816336","0.0-131.0","battery-v0.2","","""event"",""trial"",""time""
""fullscreenenter"",""1"",""19763""
","
","
","""event"",""trial"",""time""
""fullscreenenter"",""1"",""19763""
","
","","","1447.7000000476837","","","25","10883","897","l","elianto","#3366ff99"," "," ","1","+10","[2298.2000000476837]","1","2","","","10883","127","8","1","win","go","0"
"pit-trial","250","1821189","0.0-132.0","battery-v0.2","","""event"",""trial"",""time""
""fullscreenenter"",""1"",""19763""
","
","
","""event"",""trial"",""time""
""fullscreenenter"",""1"",""19763""
","
","","","-1","","","25","10883","897","u","elianto","#3366ff99"," ","-1","0","+10","[4643.599999904633]","1","2","","","10883","128","9","1","win","go","1"
"pit-trial","251","1824231","0.0-133.0","battery-v0.2","","""event"",""trial"",""time""
""fullscreenenter"",""1"",""19763""
","
","
","""event"",""trial"",""time""
""fullscreenenter"",""1"",""19763""
","
","","","189.29999995231628","","","25","10883","897","l","elianto","#3366ff99"," "," ","1","+10","[1039.7000000476837]","1","2","","","10883","129","8","1","win","go","0"
"pit-trial","252","1828701","0.0-134.0","battery-v0.2","","""event"",""trial"",""time""
""fullscreenenter"",""1"",""19763""
","
","
","""event"",""trial"",""time""
""fullscreenenter"",""1"",""19763""
","
","","","1617.0999999046326","","","25","10883","897","g","elianto","#f73b6a7A"," "," ","1","0","[2468.6999999284744]","1","2","","","10883","130","6","3","lose","go","0"
"pit-trial","253","1832606","0.0-135.0","battery-v0.2","","""event"",""trial"",""time""
""fullscreenenter"",""1"",""19763""
","
","
","""event"",""trial"",""time""
""fullscreenenter"",""1"",""19763""
","
","","","1050.5","","","25","10883","897","u","elianto","#3366ff99"," "," ","1","0","[1901.5]","1","2","","","10883","131","9","1","win","go","1"
"pit-trial","254","1837459","0.0-136.0","battery-v0.2","","""event"",""trial"",""time""
""fullscreenenter"",""1"",""19763""
","
","
","""event"",""trial"",""time""
""fullscreenenter"",""1"",""19763""
","
","","","-1","","","25","10883","897","a","elianto","#f73b6a7A","-1","-1","1","0","[2917.2999999523163]","1","2","","","10883","132","7","4","lose","no-go","0"
"pit-trial","255","1842313","0.0-137.0","battery-v0.2","","""event"",""trial"",""time""
""fullscreenenter"",""1"",""19763""
","
","
","""event"",""trial"",""time""
""fullscreenenter"",""1"",""19763""
","
","","","-1","","","25","10883","897","l","elianto","#3366ff99"," ","-1","0","0","[3348,3896.1999999284744]","2","2","","","10883","133","8","1","win","go","0"
"pit-trial","256","1847166","0.0-138.0","battery-v0.2","","""event"",""trial"",""time""
""fullscreenenter"",""1"",""19763""
","
","
","""event"",""trial"",""time""
""fullscreenenter"",""1"",""19763""
","
","","","-1","","","25","10883","897","u","elianto","#3366ff99"," ","-1","0","+10","[2853.2999999523163]","1","2","","","10883","134","9","1","win","go","1"
"pit-trial","257","1851260","0.0-139.0","battery-v0.2","","""event"",""trial"",""time""
""fullscreenenter"",""1"",""19763""
","
","
","""event"",""trial"",""time""
""fullscreenenter"",""1"",""19763""
","
","","","1240.4000000953674","","","25","10883","897","a","elianto","#f73b6a7A","-1"," ","0","-10","[2091.600000023842]","1","2","","","10883","135","7","4","lose","no-go","0"
"pit-trial","258","1855475","0.0-140.0","battery-v0.2","","""event"",""trial"",""time""
""fullscreenenter"",""1"",""19763""
","
","
","""event"",""trial"",""time""
""fullscreenenter"",""1"",""19763""
","
","","","1360.1999999284744","","","25","10883","897","g","elianto","#f73b6a7A"," "," ","1","0","[2211.399999976158]","1","2","","","10883","136","6","3","lose","go","0"
"pit-trial","259","1859491","0.0-141.0","battery-v0.2","","""event"",""trial"",""time""
""fullscreenenter"",""1"",""19763""
","
","
","""event"",""trial"",""time""
""fullscreenenter"",""1"",""19763""
","
","","","1163.6000000238419","","","25","10883","897","g","elianto","#f73b6a7A"," "," ","1","-10","[2013.8999999761581]","1","2","","","10883","137","6","3","lose","go","1"
"pit-trial","260","1864345","0.0-142.0","battery-v0.2","","""event"",""trial"",""time""
""fullscreenenter"",""1"",""19763""
","
","
","""event"",""trial"",""time""
""fullscreenenter"",""1"",""19763""
","
","","","-1","","","25","10883","897","l","elianto","#3366ff99"," ","-1","0","0","[]","0","2","","","10883","138","8","1","win","go","0"
"pit-trial","261","1868816","0.0-143.0","battery-v0.2","","""event"",""trial"",""time""
""fullscreenenter"",""1"",""19763""
","
","
","""event"",""trial"",""time""
""fullscreenenter"",""1"",""19763""
","
","","","1617.7999999523163","","","25","10883","897","u","elianto","#3366ff99"," "," ","1","+10","[2468.7999999523163]","1","2","","","10883","139","9","1","win","go","0"
"pit-trial","262","1873061","0.0-144.0","battery-v0.2","","""event"",""trial"",""time""
""fullscreenenter"",""1"",""19763""
","
","
","""event"",""trial"",""time""
""fullscreenenter"",""1"",""19763""
","
","","","1393.3000000715256","","","25","10883","897","a","elianto","#f73b6a7A","-1"," ","0","-10","[2243.5]","1","2","","","10883","140","7","4","lose","no-go","0"
"pit-instructions","263","2480756","0.0-145.0","battery-v0.2","","""event"",""trial"",""time""
""fullscreenenter"",""1"",""19763""
","
","
","""event"",""trial"",""time""
""fullscreenenter"",""1"",""19763""
","
