"trial_type","trial_index","time_elapsed","internal_node_id","task_version","subject_id","interactions","blur_events","focus_events","fullscreenenter_events","fullscreenexit_events","success","view_history","rt","responses","num_errors","age","subject","participantId","rune","rune_set","hex","correct","choice","accuracy","outcome","keys","total_keys","block","practice","value","sub","trial","stimulus","robot","valence","action","sham"
"pavlovia","0","12","0.0-0.0","battery-v0.2","","""event"",""trial"",""time""
""fullscreenenter"",""1"",""4896""
","
","
","""event"",""trial"",""time""
""fullscreenenter"",""1"",""4896""
","
","","","","","","","","","","","","","","","","","","","","","","","","","","",""
"fullscreen","1","5890","0.0-1.0","battery-v0.2","","""event"",""trial"",""time""
""fullscreenenter"",""1"",""4896""
","
","
","""event"",""trial"",""time""
""fullscreenenter"",""1"",""4896""
","
","true","","","","","","","","","","","","","","","","","","","","","","","","","",""
"pit-instructions","2","10705","0.0-2.0-0.0","battery-v0.2","","""event"",""trial"",""time""
""fullscreenenter"",""1"",""4896""
","
","
","""event"",""trial"",""time""
""fullscreenenter"",""1"",""4896""
","
","","[{""page_index"":0,""viewing_time"":4811.400000035763}]","4811.800000011921","","","","","","","","","","","","","","","","","","","","","","","",""
"pit-comprehension","3","15426","0.0-2.0-1.0-0.0","battery-v0.2","","""event"",""trial"",""time""
""fullscreenenter"",""1"",""4896""
","
","
","""event"",""trial"",""time""
""fullscreenenter"",""1"",""4896""
","
","","","4717.899999976158","[""shark""]","0","19","15381","6156","","","","","","","","","","","","","","","","","","",""
"pit-instructions","4","17057","0.0-2.0-1.0-1.0","battery-v0.2","","""event"",""trial"",""time""
""fullscreenenter"",""1"",""4896""
","
","
","""event"",""trial"",""time""
""fullscreenenter"",""1"",""4896""
","
","","[{""page_index"":0,""viewing_time"":1622.5}]","1622.7999999523163","","","","","","","","","","","","","","","","","","","","","","","",""
"pit-comprehension","5","21488","0.0-2.0-2.0-0.0","battery-v0.2","","""event"",""trial"",""time""
""fullscreenenter"",""1"",""4896""
","
","
","""event"",""trial"",""time""
""fullscreenenter"",""1"",""4896""
","
","","","4428.100000023842","[""tiger""]","0","19","15381","6156","","","","","","","","","","","","","","","","","","",""
"pit-instructions","6","22447","0.0-2.0-2.0-1.0","battery-v0.2","","""event"",""trial"",""time""
""fullscreenenter"",""1"",""4896""
","
","
","""event"",""trial"",""time""
""fullscreenenter"",""1"",""4896""
","
","","[{""page_index"":0,""viewing_time"":957}]","957.3000000119209","","","","","","","","","","","","","","","","","","","","","","","",""
"pit-instructions","7","128458","0.0-2.0-3.0","battery-v0.2","","""event"",""trial"",""time""
""fullscreenenter"",""1"",""4896""
","
","
","""event"",""trial"",""time""
""fullscreenenter"",""1"",""4896""
","
","","[{""page_index"":0,""viewing_time"":10478.399999976158},{""page_index"":1,""viewing_time"":7574.800000011921},{""page_index"":2,""viewing_time"":6395.5},{""page_index"":3,""viewing_time"":5320.099999964237},{""page_index"":4,""viewing_time"":6177.300000011921},{""page_index"":5,""viewing_time"":6057.5},{""page_index"":6,""viewing_time"":7808},{""page_index"":7,""viewing_time"":7383.400000035763},{""page_index"":8,""viewing_time"":6116},{""page_index"":9,""viewing_time"":11565.399999976158},{""page_index"":10,""viewing_time"":8028.5},{""page_index"":11,""viewing_time"":8199.699999988079},{""page_index"":12,""viewing_time"":7673.900000035763},{""page_index"":13,""viewing_time"":7228.799999952316}]","106007.69999998808","","","","","","","","","","","","","","","","","","","","","","","",""
"pit-trial","8","132166","0.0-2.0-4.0-0.0","battery-v0.2","","""event"",""trial"",""time""
""fullscreenenter"",""1"",""4896""
","
","
","""event"",""trial"",""time""
""fullscreenenter"",""1"",""4896""
","
","","","848.3000000119209","","","19","15381","6156","&#9784;","elianto","#FFFFF080"," "," ","1","&#10004","[1704]","1","0","0","","","","","","","",""
"pit-trial","9","135912","0.0-2.0-4.1-0.1","battery-v0.2","","""event"",""trial"",""time""
""fullscreenenter"",""1"",""4896""
","
","
","""event"",""trial"",""time""
""fullscreenenter"",""1"",""4896""
","
","","","879.1999999880791","","","19","15381","6156","&#9784;","elianto","#FFFFF080"," "," ","1","&#10004","[1731.5]","1","0","0","","","","","","","",""
"pit-trial","10","139565","0.0-2.0-4.2-0.2","battery-v0.2","","""event"",""trial"",""time""
""fullscreenenter"",""1"",""4896""
","
","
","""event"",""trial"",""time""
""fullscreenenter"",""1"",""4896""
","
","","","780.3999999761581","","","19","15381","6156","&#9784;","elianto","#FFFFF080"," "," ","1","&#10004","[1639.3999999761581]","1","0","0","","","","","","","",""
"pit-trial","11","143108","0.0-2.0-4.3-0.3","battery-v0.2","","""event"",""trial"",""time""
""fullscreenenter"",""1"",""4896""
","
","
","""event"",""trial"",""time""
""fullscreenenter"",""1"",""4896""
","
","","","682.1999999880791","","","19","15381","6156","&#9784;","elianto","#FFFFF080"," "," ","1","&#10004","[1532.5]","1","0","0","","","","","","","",""
"pit-trial","12","146607","0.0-2.0-4.4-0.4","battery-v0.2","","""event"",""trial"",""time""
""fullscreenenter"",""1"",""4896""
","
","
","""event"",""trial"",""time""
""fullscreenenter"",""1"",""4896""
","
","","","637.8999999761581","","","19","15381","6156","&#9784;","elianto","#FFFFF080"," "," ","1","&#10004","[1492.199999988079]","1","0","0","","","","","","","",""
"pit-instructions","13","173412","0.0-2.0-5.0","battery-v0.2","","""event"",""trial"",""time""
""fullscreenenter"",""1"",""4896""
","
","
","""event"",""trial"",""time""
""fullscreenenter"",""1"",""4896""
","
","","[{""page_index"":0,""viewing_time"":7887.600000023842},{""page_index"":1,""viewing_time"":6068.899999976158},{""page_index"":2,""viewing_time"":6439.800000011921},{""page_index"":3,""viewing_time"":6406.5}]","26803.19999998808","","","","","","","","","","","","","","","","","","","","","","","",""
"pit-trial","14","178281","0.0-2.0-6.0-0.0","battery-v0.2","","""event"",""trial"",""time""
""fullscreenenter"",""1"",""4896""
","
","
","""event"",""trial"",""time""
""fullscreenenter"",""1"",""4896""
","
","","","-1","","","19","15381","6156","&#9854;","elianto","#FFFFF080","-1","-1","1","&#10004","[]","0","0","1","","","","","","","",""
"pit-trial","15","183157","0.0-2.0-6.1-0.1","battery-v0.2","","""event"",""trial"",""time""
""fullscreenenter"",""1"",""4896""
","
","
","""event"",""trial"",""time""
""fullscreenenter"",""1"",""4896""
","
","","","-1","","","19","15381","6156","&#9854;","elianto","#FFFFF080","-1","-1","1","&#10004","[]","0","0","1","","","","","","","",""
"pit-trial","16","188021","0.0-2.0-6.2-0.2","battery-v0.2","","""event"",""trial"",""time""
""fullscreenenter"",""1"",""4896""
","
","
","""event"",""trial"",""time""
""fullscreenenter"",""1"",""4896""
","
","","","-1","","","19","15381","6156","&#9854;","elianto","#FFFFF080","-1","-1","1","&#10004","[]","0","0","1","","","","","","","",""
"pit-trial","17","192882","0.0-2.0-6.3-0.3","battery-v0.2","","""event"",""trial"",""time""
""fullscreenenter"",""1"",""4896""
","
","
","""event"",""trial"",""time""
""fullscreenenter"",""1"",""4896""
","
","","","-1","","","19","15381","6156","&#9854;","elianto","#FFFFF080","-1","-1","1","&#10004","[]","0","0","1","","","","","","","",""
"pit-trial","18","197741","0.0-2.0-6.4-0.4","battery-v0.2","","""event"",""trial"",""time""
""fullscreenenter"",""1"",""4896""
","
","
","""event"",""trial"",""time""
""fullscreenenter"",""1"",""4896""
","
","","","-1","","","19","15381","6156","&#9854;","elianto","#FFFFF080","-1","-1","1","&#10004","[]","0","0","1","","","","","","","",""
"pit-instructions","19","349147","0.0-2.0-7.0","battery-v0.2","","""event"",""trial"",""time""
""fullscreenenter"",""1"",""4896""
","
","
","""event"",""trial"",""time""
""fullscreenenter"",""1"",""4896""
","
","","[{""page_index"":0,""viewing_time"":5998.600000023842},{""page_index"":1,""viewing_time"":7539.600000023842},{""page_index"":2,""viewing_time"":7067.099999964237},{""page_index"":3,""viewing_time"":6295.800000011921},{""page_index"":4,""viewing_time"":5578.5},{""page_index"":5,""viewing_time"":5885},{""page_index"":6,""viewing_time"":6814.800000011921},{""page_index"":7,""viewing_time"":9262.199999988079},{""page_index"":8,""viewing_time"":7294.600000023842},{""page_index"":9,""viewing_time"":5909.099999964237},{""page_index"":10,""viewing_time"":7350.699999988079},{""page_index"":11,""viewing_time"":5620},{""page_index"":12,""viewing_time"":7098.600000023842},{""page_index"":13,""viewing_time"":7189.399999976158},{""page_index"":14,""viewing_time"":8722.800000011921},{""page_index"":15,""viewing_time"":8572},{""page_index"":16,""viewing_time"":26435.30000001192},{""page_index"":17,""viewing_time"":12769.199999988079}]","151403.90000003576","","","","","","","","","","","","","","","","","","","","","","","",""
"pit-trial","20","352763","0.0-2.0-8.0-0.0","battery-v0.2","","""event"",""trial"",""time""
""fullscreenenter"",""1"",""4896""
","
","
","""event"",""trial"",""time""
""fullscreenenter"",""1"",""4896""
","
","","","744.3000000119209","","","19","15381","6156","&#9776;","elianto","#3366ff99"," "," ","1","+10","[1600.2999999523163]","1","0","1","","","","","","","",""
"pit-trial","21","356304","0.0-2.0-8.0-1.0","battery-v0.2","","""event"",""trial"",""time""
""fullscreenenter"",""1"",""4896""
","
","
","""event"",""trial"",""time""
""fullscreenenter"",""1"",""4896""
","
","","","686","","","19","15381","6156","&#9776;","elianto","#3366ff99"," "," ","1","+10","[1537.7000000476837]","1","0","1","","","","","","","",""
"pit-trial","22","359796","0.0-2.0-8.0-2.0","battery-v0.2","","""event"",""trial"",""time""
""fullscreenenter"",""1"",""4896""
","
","
","""event"",""trial"",""time""
""fullscreenenter"",""1"",""4896""
","
","","","624.5999999642372","","","19","15381","6156","&#9776;","elianto","#3366ff99"," "," ","1","+10","[1475.5]","1","0","1","","","","","","","",""
"pit-trial","23","363153","0.0-2.0-8.0-3.0","battery-v0.2","","""event"",""trial"",""time""
""fullscreenenter"",""1"",""4896""
","
","
","""event"",""trial"",""time""
""fullscreenenter"",""1"",""4896""
","
","","","486.69999998807907","","","19","15381","6156","&#9776;","elianto","#3366ff99"," "," ","1","0","[1339.9000000357628]","1","0","1","","","","","","","",""
"pit-trial","24","366679","0.0-2.0-8.0-4.0","battery-v0.2","","""event"",""trial"",""time""
""fullscreenenter"",""1"",""4896""
","
","
","""event"",""trial"",""time""
""fullscreenenter"",""1"",""4896""
","
","","","656.6999999880791","","","19","15381","6156","&#9776;","elianto","#3366ff99"," "," ","1","+10","[1511.1000000238419]","1","0","1","","","","","","","",""
"pit-trial","25","370104","0.0-2.0-8.1-0.1","battery-v0.2","","""event"",""trial"",""time""
""fullscreenenter"",""1"",""4896""
","
","
","""event"",""trial"",""time""
""fullscreenenter"",""1"",""4896""
","
","","","554.5","","","19","15381","6156","&#9776;","elianto","#3366ff99"," "," ","1","+10","[1411.6000000238419]","1","0","1","","","","","","","",""
"pit-trial","26","373439","0.0-2.0-8.1-1.1","battery-v0.2","","""event"",""trial"",""time""
""fullscreenenter"",""1"",""4896""
","
","
","""event"",""trial"",""time""
""fullscreenenter"",""1"",""4896""
","
","","","470.2999999523163","","","19","15381","6156","&#9776;","elianto","#3366ff99"," "," ","1","+10","[1324.5]","1","0","1","","","","","","","",""
"pit-trial","27","376784","0.0-2.0-8.1-2.1","battery-v0.2","","""event"",""trial"",""time""
""fullscreenenter"",""1"",""4896""
","
","
","""event"",""trial"",""time""
""fullscreenenter"",""1"",""4896""
","
","","","490.10000002384186","","","19","15381","6156","&#9776;","elianto","#3366ff99"," "," ","1","+10","[1341.199999988079]","1","0","1","","","","","","","",""
"pit-trial","28","380092","0.0-2.0-8.1-3.1","battery-v0.2","","""event"",""trial"",""time""
""fullscreenenter"",""1"",""4896""
","
","
","""event"",""trial"",""time""
""fullscreenenter"",""1"",""4896""
","
","","","454.19999998807907","","","19","15381","6156","&#9776;","elianto","#3366ff99"," "," ","1","0","[1305.699999988079]","1","0","1","","","","","","","",""
"pit-trial","29","383403","0.0-2.0-8.1-4.1","battery-v0.2","","""event"",""trial"",""time""
""fullscreenenter"",""1"",""4896""
","
","
","""event"",""trial"",""time""
""fullscreenenter"",""1"",""4896""
","
","","","453.19999998807907","","","19","15381","6156","&#9776;","elianto","#3366ff99"," "," ","1","+10","[1303.2999999523163]","1","0","1","","","","","","","",""
"pit-trial","30","386772","0.0-2.0-8.2-0.2","battery-v0.2","","""event"",""trial"",""time""
""fullscreenenter"",""1"",""4896""
","
","
","""event"",""trial"",""time""
""fullscreenenter"",""1"",""4896""
","
","","","508","","","19","15381","6156","&#9776;","elianto","#3366ff99"," "," ","1","+10","[1365.8999999761581]","1","0","1","","","","","","","",""
"pit-trial","31","390298","0.0-2.0-8.2-1.2","battery-v0.2","","""event"",""trial"",""time""
""fullscreenenter"",""1"",""4896""
","
","
","""event"",""trial"",""time""
""fullscreenenter"",""1"",""4896""
","
","","","671.9000000357628","","","19","15381","6156","&#9776;","elianto","#3366ff99"," "," ","1","+10","[1522.199999988079]","1","0","1","","","","","","","",""
"pit-trial","32","393866","0.0-2.0-8.2-2.2","battery-v0.2","","""event"",""trial"",""time""
""fullscreenenter"",""1"",""4896""
","
","
","""event"",""trial"",""time""
""fullscreenenter"",""1"",""4896""
","
","","","713.4000000357628","","","19","15381","6156","&#9776;","elianto","#3366ff99"," "," ","1","+10","[1564.1000000238419]","1","0","1","","","","","","","",""
"pit-trial","33","397396","0.0-2.0-8.2-3.2","battery-v0.2","","""event"",""trial"",""time""
""fullscreenenter"",""1"",""4896""
","
","
","""event"",""trial"",""time""
""fullscreenenter"",""1"",""4896""
","
","","","676.3000000119209","","","19","15381","6156","&#9776;","elianto","#3366ff99"," "," ","1","0","[1527.7000000476837]","1","0","1","","","","","","","",""
"pit-trial","34","400765","0.0-2.0-8.2-4.2","battery-v0.2","","""event"",""trial"",""time""
""fullscreenenter"",""1"",""4896""
","
","
","""event"",""trial"",""time""
""fullscreenenter"",""1"",""4896""
","
","","","515.5","","","19","15381","6156","&#9776;","elianto","#3366ff99"," "," ","1","+10","[1366.300000011921]","1","0","1","","","","","","","",""
"call-function","35","400767","0.0-2.0-9.0","battery-v0.2","","""event"",""trial"",""time""
""fullscreenenter"",""1"",""4896""
","
","
","""event"",""trial"",""time""
""fullscreenenter"",""1"",""4896""
","
","","","","","","","","","","","","","","","","","","","","","","","","","","",""
"pit-instructions","36","444644","0.0-2.0-10.0","battery-v0.2","","""event"",""trial"",""time""
""fullscreenenter"",""1"",""4896""
","
","
","""event"",""trial"",""time""
""fullscreenenter"",""1"",""4896""
","
","","[{""page_index"":0,""viewing_time"":6353},{""page_index"":1,""viewing_time"":7396.300000011921},{""page_index"":2,""viewing_time"":9763.199999988079},{""page_index"":3,""viewing_time"":11331.699999988079},{""page_index"":4,""viewing_time"":9031.5}]","43876.09999996424","","","","","","","","","","","","","","","","","","","","","","","",""
"pit-trial","37","448375","0.0-2.0-11.0-0.0","battery-v0.2","","""event"",""trial"",""time""
""fullscreenenter"",""1"",""4896""
","
","
","""event"",""trial"",""time""
""fullscreenenter"",""1"",""4896""
","
","","","855.5","","","19","15381","6156","&#9761;","elianto","#3366ff99","-1"," ","0","0","[1714.3999999761581]","1","0","2","","","","","","","",""
"pit-trial","38","453238","0.0-2.0-11.0-1.0","battery-v0.2","","""event"",""trial"",""time""
""fullscreenenter"",""1"",""4896""
","
","
","""event"",""trial"",""time""
""fullscreenenter"",""1"",""4896""
","
","","","-1","","","19","15381","6156","&#9761;","elianto","#3366ff99","-1","-1","1","+10","[]","0","0","2","","","","","","","",""
"pit-trial","39","458115","0.0-2.0-11.0-2.0","battery-v0.2","","""event"",""trial"",""time""
""fullscreenenter"",""1"",""4896""
","
","
","""event"",""trial"",""time""
""fullscreenenter"",""1"",""4896""
","
","","","-1","","","19","15381","6156","&#9761;","elianto","#3366ff99","-1","-1","1","+10","[]","0","0","2","","","","","","","",""
"pit-trial","40","462975","0.0-2.0-11.0-3.0","battery-v0.2","","""event"",""trial"",""time""
""fullscreenenter"",""1"",""4896""
","
","
","""event"",""trial"",""time""
""fullscreenenter"",""1"",""4896""
","
","","","-1","","","19","15381","6156","&#9761;","elianto","#3366ff99","-1","-1","1","0","[]","0","0","2","","","","","","","",""
"pit-trial","41","467843","0.0-2.0-11.0-4.0","battery-v0.2","","""event"",""trial"",""time""
""fullscreenenter"",""1"",""4896""
","
","
","""event"",""trial"",""time""
""fullscreenenter"",""1"",""4896""
","
","","","-1","","","19","15381","6156","&#9761;","elianto","#3366ff99","-1","-1","1","+10","[]","0","0","2","","","","","","","",""
"pit-trial","42","472720","0.0-2.0-11.1-0.1","battery-v0.2","","""event"",""trial"",""time""
""fullscreenenter"",""1"",""4896""
","
","
","""event"",""trial"",""time""
""fullscreenenter"",""1"",""4896""
","
","","","-1","","","19","15381","6156","&#9761;","elianto","#3366ff99","-1","-1","1","+10","[]","0","0","2","","","","","","","",""
"pit-trial","43","477595","0.0-2.0-11.1-1.1","battery-v0.2","","""event"",""trial"",""time""
""fullscreenenter"",""1"",""4896""
","
","
","""event"",""trial"",""time""
""fullscreenenter"",""1"",""4896""
","
","","","-1","","","19","15381","6156","&#9761;","elianto","#3366ff99","-1","-1","1","+10","[]","0","0","2","","","","","","","",""
"pit-trial","44","482448","0.0-2.0-11.1-2.1","battery-v0.2","","""event"",""trial"",""time""
""fullscreenenter"",""1"",""4896""
","
","
","""event"",""trial"",""time""
""fullscreenenter"",""1"",""4896""
","
","","","-1","","","19","15381","6156","&#9761;","elianto","#3366ff99","-1","-1","1","+10","[]","0","0","2","","","","","","","",""
"pit-trial","45","487302","0.0-2.0-11.1-3.1","battery-v0.2","","""event"",""trial"",""time""
""fullscreenenter"",""1"",""4896""
","
","
","""event"",""trial"",""time""
""fullscreenenter"",""1"",""4896""
","
","","","-1","","","19","15381","6156","&#9761;","elianto","#3366ff99","-1","-1","1","0","[]","0","0","2","","","","","","","",""
"pit-trial","46","492162","0.0-2.0-11.1-4.1","battery-v0.2","","""event"",""trial"",""time""
""fullscreenenter"",""1"",""4896""
","
","
","""event"",""trial"",""time""
""fullscreenenter"",""1"",""4896""
","
","","","-1","","","19","15381","6156","&#9761;","elianto","#3366ff99","-1","-1","1","+10","[]","0","0","2","","","","","","","",""
"pit-trial","47","497017","0.0-2.0-11.2-0.2","battery-v0.2","","""event"",""trial"",""time""
""fullscreenenter"",""1"",""4896""
","
","
","""event"",""trial"",""time""
""fullscreenenter"",""1"",""4896""
","
","","","-1","","","19","15381","6156","&#9761;","elianto","#3366ff99","-1","-1","1","+10","[]","0","0","2","","","","","","","",""
"pit-trial","48","501873","0.0-2.0-11.2-1.2","battery-v0.2","","""event"",""trial"",""time""
""fullscreenenter"",""1"",""4896""
","
","
","""event"",""trial"",""time""
""fullscreenenter"",""1"",""4896""
","
","","","-1","","","19","15381","6156","&#9761;","elianto","#3366ff99","-1","-1","1","+10","[]","0","0","2","","","","","","","",""
"pit-trial","49","506728","0.0-2.0-11.2-2.2","battery-v0.2","","""event"",""trial"",""time""
""fullscreenenter"",""1"",""4896""
","
","
","""event"",""trial"",""time""
""fullscreenenter"",""1"",""4896""
","
","","","-1","","","19","15381","6156","&#9761;","elianto","#3366ff99","-1","-1","1","+10","[]","0","0","2","","","","","","","",""
"pit-trial","50","511582","0.0-2.0-11.2-3.2","battery-v0.2","","""event"",""trial"",""time""
""fullscreenenter"",""1"",""4896""
","
","
","""event"",""trial"",""time""
""fullscreenenter"",""1"",""4896""
","
","","","-1","","","19","15381","6156","&#9761;","elianto","#3366ff99","-1","-1","1","0","[]","0","0","2","","","","","","","",""
"pit-trial","51","516436","0.0-2.0-11.2-4.2","battery-v0.2","","""event"",""trial"",""time""
""fullscreenenter"",""1"",""4896""
","
","
","""event"",""trial"",""time""
""fullscreenenter"",""1"",""4896""
","
","","","-1","","","19","15381","6156","&#9761;","elianto","#3366ff99","-1","-1","1","+10","[]","0","0","2","","","","","","","",""
"pit-trial","52","521290","0.0-2.0-11.3-0.3","battery-v0.2","","""event"",""trial"",""time""
""fullscreenenter"",""1"",""4896""
","
","
","""event"",""trial"",""time""
""fullscreenenter"",""1"",""4896""
","
","","","-1","","","19","15381","6156","&#9761;","elianto","#3366ff99","-1","-1","1","+10","[]","0","0","2","","","","","","","",""
"pit-trial","53","526144","0.0-2.0-11.3-1.3","battery-v0.2","","""event"",""trial"",""time""
""fullscreenenter"",""1"",""4896""
","
","
","""event"",""trial"",""time""
""fullscreenenter"",""1"",""4896""
","
","","","-1","","","19","15381","6156","&#9761;","elianto","#3366ff99","-1","-1","1","+10","[]","0","0","2","","","","","","","",""
"pit-trial","54","530998","0.0-2.0-11.3-2.3","battery-v0.2","","""event"",""trial"",""time""
""fullscreenenter"",""1"",""4896""
","
","
","""event"",""trial"",""time""
""fullscreenenter"",""1"",""4896""
","
","","","-1","","","19","15381","6156","&#9761;","elianto","#3366ff99","-1","-1","1","+10","[]","0","0","2","","","","","","","",""
"pit-trial","55","535852","0.0-2.0-11.3-3.3","battery-v0.2","","""event"",""trial"",""time""
""fullscreenenter"",""1"",""4896""
","
","
","""event"",""trial"",""time""
""fullscreenenter"",""1"",""4896""
","
","","","-1","","","19","15381","6156","&#9761;","elianto","#3366ff99","-1","-1","1","0","[]","0","0","2","","","","","","","",""
"pit-trial","56","540714","0.0-2.0-11.3-4.3","battery-v0.2","","""event"",""trial"",""time""
""fullscreenenter"",""1"",""4896""
","
","
","""event"",""trial"",""time""
""fullscreenenter"",""1"",""4896""
","
","","","-1","","","19","15381","6156","&#9761;","elianto","#3366ff99","-1","-1","1","+10","[]","0","0","2","","","","","","","",""
"call-function","57","540716","0.0-2.0-12.0","battery-v0.2","","""event"",""trial"",""time""
""fullscreenenter"",""1"",""4896""
","
","
","""event"",""trial"",""time""
""fullscreenenter"",""1"",""4896""
","
","","","","","","","","","","","","","","","","","","","","","","","","","","",""
"pit-instructions","58","742091","0.0-2.0-13.0","battery-v0.2","","""event"",""trial"",""time""
""fullscreenenter"",""1"",""4896""
","
","
","""event"",""trial"",""time""
""fullscreenenter"",""1"",""4896""
","
","","[{""page_index"":0,""viewing_time"":6998.399999976158},{""page_index"":1,""viewing_time"":9360.100000023842},{""page_index"":2,""viewing_time"":3853.100000023842},{""page_index"":3,""viewing_time"":174198.79999995232},{""page_index"":4,""viewing_time"":6964.400000035763}]","201375.19999998808","","","","","","","","","","","","","","","","","","","","","","","",""
"pit-trial","59","746642","0.0-2.0-14.0-0.0","battery-v0.2","","""event"",""trial"",""time""
""fullscreenenter"",""1"",""4896""
","
","
","""event"",""trial"",""time""
""fullscreenenter"",""1"",""4896""
","
","","","1694.699999988079","","","19","15381","6156","&#9826;","elianto","#f73b6a7A","-1"," ","0","-10","[2548.599999964237]","1","0","3","","","","","","","",""
"pit-trial","60","751519","0.0-2.0-14.0-1.0","battery-v0.2","","""event"",""trial"",""time""
""fullscreenenter"",""1"",""4896""
","
","
","""event"",""trial"",""time""
""fullscreenenter"",""1"",""4896""
","
","","","-1","","","19","15381","6156","&#9826;","elianto","#f73b6a7A","-1","-1","1","0","[]","0","0","3","","","","","","","",""
"pit-trial","61","756390","0.0-2.0-14.0-2.0","battery-v0.2","","""event"",""trial"",""time""
""fullscreenenter"",""1"",""4896""
","
","
","""event"",""trial"",""time""
""fullscreenenter"",""1"",""4896""
","
","","","-1","","","19","15381","6156","&#9826;","elianto","#f73b6a7A","-1","-1","1","0","[]","0","0","3","","","","","","","",""
"pit-trial","62","761248","0.0-2.0-14.0-3.0","battery-v0.2","","""event"",""trial"",""time""
""fullscreenenter"",""1"",""4896""
","
","
","""event"",""trial"",""time""
""fullscreenenter"",""1"",""4896""
","
","","","-1","","","19","15381","6156","&#9826;","elianto","#f73b6a7A","-1","-1","1","-10","[]","0","0","3","","","","","","","",""
"pit-trial","63","766127","0.0-2.0-14.0-4.0","battery-v0.2","","""event"",""trial"",""time""
""fullscreenenter"",""1"",""4896""
","
","
","""event"",""trial"",""time""
""fullscreenenter"",""1"",""4896""
","
","","","-1","","","19","15381","6156","&#9826;","elianto","#f73b6a7A","-1","-1","1","0","[]","0","0","3","","","","","","","",""
"pit-trial","64","770991","0.0-2.0-14.1-0.1","battery-v0.2","","""event"",""trial"",""time""
""fullscreenenter"",""1"",""4896""
","
","
","""event"",""trial"",""time""
""fullscreenenter"",""1"",""4896""
","
","","","-1","","","19","15381","6156","&#9826;","elianto","#f73b6a7A","-1","-1","1","0","[]","0","0","3","","","","","","","",""
"pit-trial","65","775846","0.0-2.0-14.1-1.1","battery-v0.2","","""event"",""trial"",""time""
""fullscreenenter"",""1"",""4896""
","
","
","""event"",""trial"",""time""
""fullscreenenter"",""1"",""4896""
","
","","","-1","","","19","15381","6156","&#9826;","elianto","#f73b6a7A","-1","-1","1","0","[]","0","0","3","","","","","","","",""
"pit-trial","66","780704","0.0-2.0-14.1-2.1","battery-v0.2","","""event"",""trial"",""time""
""fullscreenenter"",""1"",""4896""
","
","
","""event"",""trial"",""time""
""fullscreenenter"",""1"",""4896""
","
","","","-1","","","19","15381","6156","&#9826;","elianto","#f73b6a7A","-1","-1","1","0","[]","0","0","3","","","","","","","",""
"pit-trial","67","785558","0.0-2.0-14.1-3.1","battery-v0.2","","""event"",""trial"",""time""
""fullscreenenter"",""1"",""4896""
","
","
","""event"",""trial"",""time""
""fullscreenenter"",""1"",""4896""
","
","","","-1","","","19","15381","6156","&#9826;","elianto","#f73b6a7A","-1","-1","1","-10","[]","0","0","3","","","","","","","",""
"pit-trial","68","790421","0.0-2.0-14.1-4.1","battery-v0.2","","""event"",""trial"",""time""
""fullscreenenter"",""1"",""4896""
","
","
","""event"",""trial"",""time""
""fullscreenenter"",""1"",""4896""
","
","","","-1","","","19","15381","6156","&#9826;","elianto","#f73b6a7A","-1","-1","1","0","[]","0","0","3","","","","","","","",""
"pit-trial","69","795276","0.0-2.0-14.2-0.2","battery-v0.2","","""event"",""trial"",""time""
""fullscreenenter"",""1"",""4896""
","
","
","""event"",""trial"",""time""
""fullscreenenter"",""1"",""4896""
","
","","","-1","","","19","15381","6156","&#9826;","elianto","#f73b6a7A","-1","-1","1","0","[]","0","0","3","","","","","","","",""
"pit-trial","70","800130","0.0-2.0-14.2-1.2","battery-v0.2","","""event"",""trial"",""time""
""fullscreenenter"",""1"",""4896""
","
","
","""event"",""trial"",""time""
""fullscreenenter"",""1"",""4896""
","
","","","-1","","","19","15381","6156","&#9826;","elianto","#f73b6a7A","-1","-1","1","0","[]","0","0","3","","","","","","","",""
"pit-trial","71","804984","0.0-2.0-14.2-2.2","battery-v0.2","","""event"",""trial"",""time""
""fullscreenenter"",""1"",""4896""
","
","
","""event"",""trial"",""time""
""fullscreenenter"",""1"",""4896""
","
","","","-1","","","19","15381","6156","&#9826;","elianto","#f73b6a7A","-1","-1","1","0","[]","0","0","3","","","","","","","",""
"pit-trial","72","809840","0.0-2.0-14.2-3.2","battery-v0.2","","""event"",""trial"",""time""
""fullscreenenter"",""1"",""4896""
","
","
","""event"",""trial"",""time""
""fullscreenenter"",""1"",""4896""
","
","","","-1","","","19","15381","6156","&#9826;","elianto","#f73b6a7A","-1","-1","1","-10","[]","0","0","3","","","","","","","",""
"pit-trial","73","814694","0.0-2.0-14.2-4.2","battery-v0.2","","""event"",""trial"",""time""
""fullscreenenter"",""1"",""4896""
","
","
","""event"",""trial"",""time""
""fullscreenenter"",""1"",""4896""
","
","","","-1","","","19","15381","6156","&#9826;","elianto","#f73b6a7A","-1","-1","1","0","[]","0","0","3","","","","","","","",""
"pit-trial","74","819547","0.0-2.0-14.3-0.3","battery-v0.2","","""event"",""trial"",""time""
""fullscreenenter"",""1"",""4896""
","
","
","""event"",""trial"",""time""
""fullscreenenter"",""1"",""4896""
","
","","","-1","","","19","15381","6156","&#9826;","elianto","#f73b6a7A","-1","-1","1","0","[]","0","0","3","","","","","","","",""
"pit-trial","75","824400","0.0-2.0-14.3-1.3","battery-v0.2","","""event"",""trial"",""time""
""fullscreenenter"",""1"",""4896""
","
","
","""event"",""trial"",""time""
""fullscreenenter"",""1"",""4896""
","
","","","-1","","","19","15381","6156","&#9826;","elianto","#f73b6a7A","-1","-1","1","0","[]","0","0","3","","","","","","","",""
"pit-trial","76","829254","0.0-2.0-14.3-2.3","battery-v0.2","","""event"",""trial"",""time""
""fullscreenenter"",""1"",""4896""
","
","
","""event"",""trial"",""time""
""fullscreenenter"",""1"",""4896""
","
","","","-1","","","19","15381","6156","&#9826;","elianto","#f73b6a7A","-1","-1","1","0","[]","0","0","3","","","","","","","",""
"pit-trial","77","834108","0.0-2.0-14.3-3.3","battery-v0.2","","""event"",""trial"",""time""
""fullscreenenter"",""1"",""4896""
","
","
","""event"",""trial"",""time""
""fullscreenenter"",""1"",""4896""
","
","","","-1","","","19","15381","6156","&#9826;","elianto","#f73b6a7A","-1","-1","1","-10","[]","0","0","3","","","","","","","",""
"pit-trial","78","838974","0.0-2.0-14.3-4.3","battery-v0.2","","""event"",""trial"",""time""
""fullscreenenter"",""1"",""4896""
","
","
","""event"",""trial"",""time""
""fullscreenenter"",""1"",""4896""
","
","","","-1","","","19","15381","6156","&#9826;","elianto","#f73b6a7A","-1","-1","1","0","[]","0","0","3","","","","","","","",""
"call-function","79","838976","0.0-2.0-15.0","battery-v0.2","","""event"",""trial"",""time""
""fullscreenenter"",""1"",""4896""
","
","
","""event"",""trial"",""time""
""fullscreenenter"",""1"",""4896""
","
","","","","","","","","","","","","","","","","","","","","","","","","","","",""
"pit-instructions","80","863443","0.0-2.0-16.0","battery-v0.2","","""event"",""trial"",""time""
""fullscreenenter"",""1"",""4896""
","
","
","""event"",""trial"",""time""
""fullscreenenter"",""1"",""4896""
","
","","[{""page_index"":0,""viewing_time"":7252.800000011921},{""page_index"":1,""viewing_time"":8415},{""page_index"":2,""viewing_time"":4727},{""page_index"":3,""viewing_time"":4071.5}]","24466.69999998808","","","","","","","","","","","","","","","","","","","","","","","",""
"pit-trial","81","867492","0.0-2.0-17.0-0.0","battery-v0.2","","""event"",""trial"",""time""
""fullscreenenter"",""1"",""4896""
","
","
","""event"",""trial"",""time""
""fullscreenenter"",""1"",""4896""
","
","","","1178.5","","","19","15381","6156","&#9789;","elianto","#f73b6a7A"," "," ","1","0","[2031]","1","0","4","","","","","","","",""
"pit-trial","82","870720","0.0-2.0-17.0-1.0","battery-v0.2","","""event"",""trial"",""time""
""fullscreenenter"",""1"",""4896""
","
","
","""event"",""trial"",""time""
""fullscreenenter"",""1"",""4896""
","
","","","357.80000001192093","","","19","15381","6156","&#9789;","elianto","#f73b6a7A"," "," ","1","0","[1213.800000011921]","1","0","4","","","","","","","",""
"pit-trial","83","873752","0.0-2.0-17.0-2.0","battery-v0.2","","""event"",""trial"",""time""
""fullscreenenter"",""1"",""4896""
","
","
","""event"",""trial"",""time""
""fullscreenenter"",""1"",""4896""
","
","","","164.19999998807907","","","19","15381","6156","&#9789;","elianto","#f73b6a7A"," "," ","1","0","[1018]","1","0","4","","","","","","","",""
"pit-trial","84","876733","0.0-2.0-17.0-3.0","battery-v0.2","","""event"",""trial"",""time""
""fullscreenenter"",""1"",""4896""
","
","
","""event"",""trial"",""time""
""fullscreenenter"",""1"",""4896""
","
","","","108.69999998807907","","","19","15381","6156","&#9789;","elianto","#f73b6a7A"," "," ","1","-10","[966.9000000357628]","1","0","4","","","","","","","",""
"pit-trial","85","879754","0.0-2.0-17.0-4.0","battery-v0.2","","""event"",""trial"",""time""
""fullscreenenter"",""1"",""4896""
","
","
","""event"",""trial"",""time""
""fullscreenenter"",""1"",""4896""
","
","","","156","","","19","15381","6156","&#9789;","elianto","#f73b6a7A"," "," ","1","0","[1006.7000000476837]","1","0","4","","","","","","","",""
"pit-trial","86","882862","0.0-2.0-17.1-0.1","battery-v0.2","","""event"",""trial"",""time""
""fullscreenenter"",""1"",""4896""
","
","
","""event"",""trial"",""time""
""fullscreenenter"",""1"",""4896""
","
","","","248.89999997615814","","","19","15381","6156","&#9789;","elianto","#f73b6a7A"," "," ","1","0","[1099.5]","1","0","4","","","","","","","",""
"pit-trial","87","885809","0.0-2.0-17.1-1.1","battery-v0.2","","""event"",""trial"",""time""
""fullscreenenter"",""1"",""4896""
","
","
","""event"",""trial"",""time""
""fullscreenenter"",""1"",""4896""
","
","","","78.80000001192093","","","19","15381","6156","&#9789;","elianto","#f73b6a7A"," "," ","1","0","[936.2000000476837]","1","0","4","","","","","","","",""
"pit-trial","88","888866","0.0-2.0-17.1-2.1","battery-v0.2","","""event"",""trial"",""time""
""fullscreenenter"",""1"",""4896""
","
","
","""event"",""trial"",""time""
""fullscreenenter"",""1"",""4896""
","
","","","190.60000002384186","","","19","15381","6156","&#9789;","elianto","#f73b6a7A"," "," ","1","0","[1044.199999988079]","1","0","4","","","","","","","",""
"pit-trial","89","891896","0.0-2.0-17.1-3.1","battery-v0.2","","""event"",""trial"",""time""
""fullscreenenter"",""1"",""4896""
","
","
","""event"",""trial"",""time""
""fullscreenenter"",""1"",""4896""
","
","","","171.89999997615814","","","19","15381","6156","&#9789;","elianto","#f73b6a7A"," "," ","1","-10","[1023]","1","0","4","","","","","","","",""
"pit-trial","90","894828","0.0-2.0-17.1-4.1","battery-v0.2","","""event"",""trial"",""time""
""fullscreenenter"",""1"",""4896""
","
","
","""event"",""trial"",""time""
""fullscreenenter"",""1"",""4896""
","
","","","75.5","","","19","15381","6156","&#9789;","elianto","#f73b6a7A"," "," ","1","0","[929.5]","1","0","4","","","","","","","",""
"pit-trial","91","897978","0.0-2.0-17.2-0.2","battery-v0.2","","""event"",""trial"",""time""
""fullscreenenter"",""1"",""4896""
","
","
","""event"",""trial"",""time""
""fullscreenenter"",""1"",""4896""
","
","","","296.39999997615814","","","19","15381","6156","&#9789;","elianto","#f73b6a7A"," "," ","1","0","[1146.9000000357628]","1","0","4","","","","","","","",""
"pit-trial","92","900845","0.0-2.0-17.2-1.2","battery-v0.2","","""event"",""trial"",""time""
""fullscreenenter"",""1"",""4896""
","
","
","""event"",""trial"",""time""
""fullscreenenter"",""1"",""4896""
","
","","","11.899999976158142","","","19","15381","6156","&#9789;","elianto","#f73b6a7A"," "," ","1","0","[862.6999999880791]","1","0","4","","","","","","","",""
"pit-trial","93","903776","0.0-2.0-17.2-2.2","battery-v0.2","","""event"",""trial"",""time""
""fullscreenenter"",""1"",""4896""
","
","
","""event"",""trial"",""time""
""fullscreenenter"",""1"",""4896""
","
","","","76.80000001192093","","","19","15381","6156","&#9789;","elianto","#f73b6a7A"," "," ","1","0","[928.0999999642372]","1","0","4","","","","","","","",""
"pit-trial","94","908379","0.0-2.0-17.2-3.2","battery-v0.2","","""event"",""trial"",""time""
""fullscreenenter"",""1"",""4896""
","
","
","""event"",""trial"",""time""
""fullscreenenter"",""1"",""4896""
","
","","","1749.1000000238419","","","19","15381","6156","&#9789;","elianto","#f73b6a7A"," "," ","1","-10","[2599.599999964237]","1","0","4","","","","","","","",""
"pit-trial","95","911645","0.0-2.0-17.2-4.2","battery-v0.2","","""event"",""trial"",""time""
""fullscreenenter"",""1"",""4896""
","
","
","""event"",""trial"",""time""
""fullscreenenter"",""1"",""4896""
","
","","","412.69999998807907","","","19","15381","6156","&#9789;","elianto","#f73b6a7A"," "," ","1","0","[1263]","1","0","4","","","","","","","",""
"pit-trial","96","915314","0.0-2.0-17.3-0.3","battery-v0.2","","""event"",""trial"",""time""
""fullscreenenter"",""1"",""4896""
","
","
","""event"",""trial"",""time""
""fullscreenenter"",""1"",""4896""
","
","","","815.5999999642372","","","19","15381","6156","&#9789;","elianto","#f73b6a7A"," "," ","1","0","[1665.9000000357628]","1","0","4","","","","","","","",""
"pit-trial","97","919208","0.0-2.0-17.3-1.3","battery-v0.2","","""event"",""trial"",""time""
""fullscreenenter"",""1"",""4896""
","
","
","""event"",""trial"",""time""
""fullscreenenter"",""1"",""4896""
","
","","","1041.699999988079","","","19","15381","6156","&#9789;","elianto","#f73b6a7A"," "," ","1","0","[1892]","1","0","4","","","","","","","",""
"pit-trial","98","922527","0.0-2.0-17.3-2.3","battery-v0.2","","""event"",""trial"",""time""
""fullscreenenter"",""1"",""4896""
","
","
","""event"",""trial"",""time""
""fullscreenenter"",""1"",""4896""
","
","","","464.10000002384186","","","19","15381","6156","&#9789;","elianto","#f73b6a7A"," "," ","1","0","[1316.800000011921]","1","0","4","","","","","","","",""
"pit-trial","99","925688","0.0-2.0-17.3-3.3","battery-v0.2","","""event"",""trial"",""time""
""fullscreenenter"",""1"",""4896""
","
","
","""event"",""trial"",""time""
""fullscreenenter"",""1"",""4896""
","
","","","302","","","19","15381","6156","&#9789;","elianto","#f73b6a7A"," "," ","1","-10","[1157.9000000357628]","1","0","4","","","","","","","",""
"pit-trial","100","928694","0.0-2.0-17.3-4.3","battery-v0.2","","""event"",""trial"",""time""
""fullscreenenter"",""1"",""4896""
","
","
","""event"",""trial"",""time""
""fullscreenenter"",""1"",""4896""
","
","","","143.4000000357628","","","19","15381","6156","&#9789;","elianto","#f73b6a7A"," "," ","1","0","[995]","1","0","4","","","","","","","",""
"call-function","101","928696","0.0-2.0-18.0","battery-v0.2","","""event"",""trial"",""time""
""fullscreenenter"",""1"",""4896""
","
","
","""event"",""trial"",""time""
""fullscreenenter"",""1"",""4896""
","
","","","","","","","","","","","","","","","","","","","","","","","","","","",""
"pit-instructions","102","1075378","0.0-2.0-19.0","battery-v0.2","","""event"",""trial"",""time""
""fullscreenenter"",""1"",""4896""
","
","
","""event"",""trial"",""time""
""fullscreenenter"",""1"",""4896""
","
","","[{""page_index"":0,""viewing_time"":6402.600000023842},{""page_index"":1,""viewing_time"":7290.399999976158},{""page_index"":2,""viewing_time"":18291.200000047684},{""page_index"":3,""viewing_time"":8643.799999952316},{""page_index"":4,""viewing_time"":26848},{""page_index"":5,""viewing_time"":8392.300000011921},{""page_index"":6,""viewing_time"":8624.800000011921},{""page_index"":7,""viewing_time"":6360.100000023842},{""page_index"":8,""viewing_time"":55828.09999996424}]","146681.70000004768","","","","","","","","","","","","","","","","","","","","","","","",""
"pit-comprehension","103","1141026","0.0-2.0-20.0-0.0","battery-v0.2","","""event"",""trial"",""time""
""fullscreenenter"",""1"",""4896""
","
","
","""event"",""trial"",""time""
""fullscreenenter"",""1"",""4896""
","
","","","65644.5","[""SPACE""]","0","19","15381","6156","","","","","","","","","","","","","","","","","","",""
"pit-instructions","104","1143560","0.0-2.0-20.0-1.0","battery-v0.2","","""event"",""trial"",""time""
""fullscreenenter"",""1"",""4896""
","
","
","""event"",""trial"",""time""
""fullscreenenter"",""1"",""4896""
","
","","[{""page_index"":0,""viewing_time"":2504.399999976158}]","2504.699999988079","","","","","","","","","","","","","","","","","","","","","","","",""
"pit-comprehension","105","1152418","0.0-2.0-21.0-0.0","battery-v0.2","","""event"",""trial"",""time""
""fullscreenenter"",""1"",""4896""
","
","
","""event"",""trial"",""time""
""fullscreenenter"",""1"",""4896""
","
","","","8855.600000023842","[""10""]","0","19","15381","6156","","","","","","","","","","","","","","","","","","",""
"pit-instructions","106","1153934","0.0-2.0-21.0-1.0","battery-v0.2","","""event"",""trial"",""time""
""fullscreenenter"",""1"",""4896""
","
","
","""event"",""trial"",""time""
""fullscreenenter"",""1"",""4896""
","
","","[{""page_index"":0,""viewing_time"":1491.2000000476837}]","1491.6000000238419","","","","","","","","","","","","","","","","","","","","","","","",""
"pit-comprehension","107","1160706","0.0-2.0-22.0-0.0","battery-v0.2","","""event"",""trial"",""time""
""fullscreenenter"",""1"",""4896""
","
","
","""event"",""trial"",""time""
""fullscreenenter"",""1"",""4896""
","
","","","6769.299999952316","[""0""]","0","19","15381","6156","","","","","","","","","","","","","","","","","","",""
"pit-instructions","108","1162092","0.0-2.0-22.0-1.0","battery-v0.2","","""event"",""trial"",""time""
""fullscreenenter"",""1"",""4896""
","
","
","""event"",""trial"",""time""
""fullscreenenter"",""1"",""4896""
","
","","[{""page_index"":0,""viewing_time"":1362.8999999761581}]","1363.300000011921","","","","","","","","","","","","","","","","","","","","","","","",""
"pit-comprehension","109","1173153","0.0-2.0-23.0-0.0","battery-v0.2","","""event"",""trial"",""time""
""fullscreenenter"",""1"",""4896""
","
","
","""event"",""trial"",""time""
""fullscreenenter"",""1"",""4896""
","
","","","11058.300000011921","[""True""]","0","19","15381","6156","","","","","","","","","","","","","","","","","","",""
"pit-instructions","110","1174208","0.0-2.0-23.0-1.0","battery-v0.2","","""event"",""trial"",""time""
""fullscreenenter"",""1"",""4896""
","
","
","""event"",""trial"",""time""
""fullscreenenter"",""1"",""4896""
","
","","[{""page_index"":0,""viewing_time"":1030.5}]","1030.5999999642372","","","","","","","","","","","","","","","","","","","","","","","",""
"pit-comprehension","111","1182430","0.0-2.0-24.0-0.0","battery-v0.2","","""event"",""trial"",""time""
""fullscreenenter"",""1"",""4896""
","
","
","""event"",""trial"",""time""
""fullscreenenter"",""1"",""4896""
","
","","","8219.300000011921","[""True""]","0","19","15381","6156","","","","","","","","","","","","","","","","","","",""
"pit-instructions","112","1185436","0.0-2.0-24.0-1.0","battery-v0.2","","""event"",""trial"",""time""
""fullscreenenter"",""1"",""4896""
","
","
","""event"",""trial"",""time""
""fullscreenenter"",""1"",""4896""
","
","","[{""page_index"":0,""viewing_time"":2977}]","2977.2999999523163","","","","","","","","","","","","","","","","","","","","","","","",""
"pit-comprehension","113","1198884","0.0-2.0-25.0-0.0","battery-v0.2","","""event"",""trial"",""time""
""fullscreenenter"",""1"",""4896""
","
","
","""event"",""trial"",""time""
""fullscreenenter"",""1"",""4896""
","
","","","13446","[""True""]","0","19","15381","6156","","","","","","","","","","","","","","","","","","",""
"pit-instructions","114","1200797","0.0-2.0-25.0-1.0","battery-v0.2","","""event"",""trial"",""time""
""fullscreenenter"",""1"",""4896""
","
","
","""event"",""trial"",""time""
""fullscreenenter"",""1"",""4896""
","
","","[{""page_index"":0,""viewing_time"":1884}]","1884.300000011921","","","","","","","","","","","","","","","","","","","","","","","",""
"pit-comprehension","115","1206575","0.0-2.0-26.0-0.0","battery-v0.2","","""event"",""trial"",""time""
""fullscreenenter"",""1"",""4896""
","
","
","""event"",""trial"",""time""
""fullscreenenter"",""1"",""4896""
","
","","","5774.699999988079","[""False""]","0","19","15381","6156","","","","","","","","","","","","","","","","","","",""
"pit-instructions","116","1209171","0.0-2.0-26.0-1.0","battery-v0.2","","""event"",""trial"",""time""
""fullscreenenter"",""1"",""4896""
","
","
","""event"",""trial"",""time""
""fullscreenenter"",""1"",""4896""
","
","","[{""page_index"":0,""viewing_time"":2566}]","2566.399999976158","","","","","","","","","","","","","","","","","","","","","","","",""
"pit-instructions","117","1335023","0.0-3.0","battery-v0.2","","""event"",""trial"",""time""
""fullscreenenter"",""1"",""4896""
","
","
","""event"",""trial"",""time""
""fullscreenenter"",""1"",""4896""
","
","","[{""page_index"":0,""viewing_time"":69966.59999996424},{""page_index"":1,""viewing_time"":47625},{""page_index"":2,""viewing_time"":8256.800000011921}]","125848.80000001192","","","","","","","","","","","","","","","","","","","","","","","",""
"pit-trial","118","1338793","0.0-4.0","battery-v0.2","","""event"",""trial"",""time""
""fullscreenenter"",""1"",""4896""
","
","
","""event"",""trial"",""time""
""fullscreenenter"",""1"",""4896""
","
","","","902.3000000119209","","","19","15381","6156","&#9730;","elianto","#3366ff99"," "," ","1","+10","[1759.6000000238419]","1","1","","","15381","1","1","1","win","go","0"
"pit-trial","119","1342853","0.0-5.0","battery-v0.2","","""event"",""trial"",""time""
""fullscreenenter"",""1"",""4896""
","
","
","""event"",""trial"",""time""
""fullscreenenter"",""1"",""4896""
","
","","","1193.199999988079","","","19","15381","6156","&#9752;","elianto","#f73b6a7A"," "," ","1","0","[2048.7000000476837]","1","1","","","15381","2","3","3","lose","go","0"
"pit-trial","120","1346445","0.0-6.0","battery-v0.2","","""event"",""trial"",""time""
""fullscreenenter"",""1"",""4896""
","
","
","""event"",""trial"",""time""
""fullscreenenter"",""1"",""4896""
","
","","","726.5","","","19","15381","6156","&#9728;","elianto","#f73b6a7A","-1"," ","0","0","[1584.9000000357628]","1","1","","","15381","3","0","4","lose","no-go","1"
"pit-trial","121","1349991","0.0-7.0","battery-v0.2","","""event"",""trial"",""time""
""fullscreenenter"",""1"",""4896""
","
","
","""event"",""trial"",""time""
""fullscreenenter"",""1"",""4896""
","
","","","676.8000000119209","","","19","15381","6156","&#9733;","elianto","#3366ff99","-1"," ","0","0","[1531.800000011921]","1","1","","","15381","4","2","2","win","no-go","0"
"pit-trial","122","1353766","0.0-8.0","battery-v0.2","","""event"",""trial"",""time""
""fullscreenenter"",""1"",""4896""
","
","
","""event"",""trial"",""time""
""fullscreenenter"",""1"",""4896""
","
","","","917.3999999761581","","","19","15381","6156","&#9752;","elianto","#f73b6a7A"," "," ","1","0","[1771.5999999642372]","1","1","","","15381","5","3","3","lose","go","0"
"pit-trial","123","1358636","0.0-9.0","battery-v0.2","","""event"",""trial"",""time""
""fullscreenenter"",""1"",""4896""
","
","
","""event"",""trial"",""time""
""fullscreenenter"",""1"",""4896""
","
","","","-1","","","19","15381","6156","&#9728;","elianto","#f73b6a7A","-1","-1","1","0","[]","0","1","","","15381","6","0","4","lose","no-go","0"
"pit-trial","124","1362235","0.0-10.0","battery-v0.2","","""event"",""trial"",""time""
""fullscreenenter"",""1"",""4896""
","
","
","""event"",""trial"",""time""
""fullscreenenter"",""1"",""4896""
","
","","","733","","","19","15381","6156","&#9730;","elianto","#3366ff99"," "," ","1","+10","[1584.300000011921]","1","1","","","15381","7","1","1","win","go","0"
"pit-trial","125","1367091","0.0-11.0","battery-v0.2","","""event"",""trial"",""time""
""fullscreenenter"",""1"",""4896""
","
","
","""event"",""trial"",""time""
""fullscreenenter"",""1"",""4896""
","
","","","-1","","","19","15381","6156","&#9733;","elianto","#3366ff99","-1","-1","1","+10","[]","0","1","","","15381","8","2","2","win","no-go","0"
"pit-trial","126","1371958","0.0-12.0","battery-v0.2","","""event"",""trial"",""time""
""fullscreenenter"",""1"",""4896""
","
","
","""event"",""trial"",""time""
""fullscreenenter"",""1"",""4896""
","
","","","-1","","","19","15381","6156","&#9728;","elianto","#f73b6a7A","-1","-1","1","-10","[]","0","1","","","15381","9","0","4","lose","no-go","1"
"pit-trial","127","1375276","0.0-13.0","battery-v0.2","","""event"",""trial"",""time""
""fullscreenenter"",""1"",""4896""
","
","
","""event"",""trial"",""time""
""fullscreenenter"",""1"",""4896""
","
","","","464.60000002384186","","","19","15381","6156","&#9730;","elianto","#3366ff99"," "," ","1","+10","[1315.5]","1","1","","","15381","10","1","1","win","go","0"
"pit-trial","128","1380134","0.0-14.0","battery-v0.2","","""event"",""trial"",""time""
""fullscreenenter"",""1"",""4896""
","
","
","""event"",""trial"",""time""
""fullscreenenter"",""1"",""4896""
","
","","","-1","","","19","15381","6156","&#9733;","elianto","#3366ff99","-1","-1","1","+10","[]","0","1","","","15381","11","2","2","win","no-go","0"
"pit-trial","129","1383844","0.0-15.0","battery-v0.2","","""event"",""trial"",""time""
""fullscreenenter"",""1"",""4896""
","
","
","""event"",""trial"",""time""
""fullscreenenter"",""1"",""4896""
","
","","","851.6999999880791","","","19","15381","6156","&#9752;","elianto","#f73b6a7A"," "," ","1","0","[1701.699999988079]","1","1","","","15381","12","3","3","lose","go","0"
"pit-trial","130","1387767","0.0-16.0","battery-v0.2","","""event"",""trial"",""time""
""fullscreenenter"",""1"",""4896""
","
","
","""event"",""trial"",""time""
""fullscreenenter"",""1"",""4896""
","
","","","1067.0999999642372","","","19","15381","6156","&#9728;","elianto","#f73b6a7A","-1"," ","0","-10","[1919.8999999761581]","1","1","","","15381","13","0","4","lose","no-go","0"
"pit-trial","131","1391364","0.0-17.0","battery-v0.2","","""event"",""trial"",""time""
""fullscreenenter"",""1"",""4896""
","
","
","""event"",""trial"",""time""
""fullscreenenter"",""1"",""4896""
","
","","","744.3999999761581","","","19","15381","6156","&#9730;","elianto","#3366ff99"," "," ","1","+10","[1594.800000011921]","1","1","","","15381","14","1","1","win","go","0"
"pit-trial","132","1395153","0.0-18.0","battery-v0.2","","""event"",""trial"",""time""
""fullscreenenter"",""1"",""4896""
","
","
","""event"",""trial"",""time""
""fullscreenenter"",""1"",""4896""
","
","","","929.5","","","19","15381","6156","&#9752;","elianto","#f73b6a7A"," "," ","1","0","[1781]","1","1","","","15381","15","3","3","lose","go","0"
"pit-trial","133","1400009","0.0-19.0","battery-v0.2","","""event"",""trial"",""time""
""fullscreenenter"",""1"",""4896""
","
","
","""event"",""trial"",""time""
""fullscreenenter"",""1"",""4896""
","
","","","-1","","","19","15381","6156","&#9733;","elianto","#3366ff99","-1","-1","1","+10","[]","0","1","","","15381","16","2","2","win","no-go","0"
"pit-trial","134","1403626","0.0-20.0","battery-v0.2","","""event"",""trial"",""time""
""fullscreenenter"",""1"",""4896""
","
","
","""event"",""trial"",""time""
""fullscreenenter"",""1"",""4896""
","
","","","754.6000000238419","","","19","15381","6156","&#9730;","elianto","#3366ff99"," "," ","1","+10","[1605.699999988079]","1","1","","","15381","17","1","1","win","go","0"
"pit-trial","135","1408486","0.0-21.0","battery-v0.2","","""event"",""trial"",""time""
""fullscreenenter"",""1"",""4896""
","
","
","""event"",""trial"",""time""
""fullscreenenter"",""1"",""4896""
","
","","","-1","","","19","15381","6156","&#9733;","elianto","#3366ff99","-1","-1","1","+10","[]","0","1","","","15381","18","2","2","win","no-go","0"
"pit-trial","136","1412353","0.0-22.0","battery-v0.2","","""event"",""trial"",""time""
""fullscreenenter"",""1"",""4896""
","
","
","""event"",""trial"",""time""
""fullscreenenter"",""1"",""4896""
","
","","","1012.4000000357628","","","19","15381","6156","&#9752;","elianto","#f73b6a7A"," "," ","1","0","[1863.5]","1","1","","","15381","19","3","3","lose","go","0"
"pit-trial","137","1417206","0.0-23.0","battery-v0.2","","""event"",""trial"",""time""
""fullscreenenter"",""1"",""4896""
","
","
","""event"",""trial"",""time""
""fullscreenenter"",""1"",""4896""
","
","","","-1","","","19","15381","6156","&#9728;","elianto","#f73b6a7A","-1","-1","1","0","[]","0","1","","","15381","20","0","4","lose","no-go","0"
"pit-instructions","138","1435557","0.0-24.0","battery-v0.2","","""event"",""trial"",""time""
""fullscreenenter"",""1"",""4896""
","
","
","""event"",""trial"",""time""
""fullscreenenter"",""1"",""4896""
","
","","[{""page_index"":0,""viewing_time"":8596.699999988079},{""page_index"":1,""viewing_time"":9752.399999976158}]","18349.299999952316","","","","","","","","","","","","","","","","","","","","","","","",""
"pit-trial","139","1439566","0.0-25.0","battery-v0.2","","""event"",""trial"",""time""
""fullscreenenter"",""1"",""4896""
","
","
","""event"",""trial"",""time""
""fullscreenenter"",""1"",""4896""
","
","","","1139.8999999761581","","","19","15381","6156","a","elianto","#f73b6a7A"," "," ","1","0","[1997.699999988079]","1","2","","","15381","21","2","3","lose","go","0"
"pit-trial","140","1443543","0.0-26.0","battery-v0.2","","""event"",""trial"",""time""
""fullscreenenter"",""1"",""4896""
","
","
","""event"",""trial"",""time""
""fullscreenenter"",""1"",""4896""
","
","","","1115.800000011921","","","19","15381","6156","u","elianto","#f73b6a7A"," "," ","1","0","[1972]","1","2","","","15381","22","0","3","lose","go","0"
"pit-trial","141","1447434","0.0-27.0","battery-v0.2","","""event"",""trial"",""time""
""fullscreenenter"",""1"",""4896""
","
","
","""event"",""trial"",""time""
""fullscreenenter"",""1"",""4896""
","
","","","1026.3999999761581","","","19","15381","6156","l","elianto","#3366ff99","-1"," ","0","0","[1877.0999999642372]","1","2","","","15381","23","1","2","win","no-go","0"
"pit-trial","142","1451021","0.0-28.0","battery-v0.2","","""event"",""trial"",""time""
""fullscreenenter"",""1"",""4896""
","
","
","""event"",""trial"",""time""
""fullscreenenter"",""1"",""4896""
","
","","","720.6999999880791","","","19","15381","6156","g","elianto","#f73b6a7A","-1"," ","0","-10","[1571.3999999761581]","1","2","","","15381","24","3","4","lose","no-go","0"
"pit-trial","143","1455890","0.0-29.0","battery-v0.2","","""event"",""trial"",""time""
""fullscreenenter"",""1"",""4896""
","
","
","""event"",""trial"",""time""
""fullscreenenter"",""1"",""4896""
","
","","","-1","","","19","15381","6156","l","elianto","#3366ff99","-1","-1","1","0","[]","0","2","","","15381","25","1","2","win","no-go","1"
"pit-trial","144","1460754","0.0-30.0","battery-v0.2","","""event"",""trial"",""time""
""fullscreenenter"",""1"",""4896""
","
","
","""event"",""trial"",""time""
""fullscreenenter"",""1"",""4896""
","
","","","-1","","","19","15381","6156","a","elianto","#f73b6a7A"," ","-1","0","-10","[]","0","2","","","15381","26","2","3","lose","go","0"
"pit-trial","145","1464240","0.0-31.0","battery-v0.2","","""event"",""trial"",""time""
""fullscreenenter"",""1"",""4896""
","
","
","""event"",""trial"",""time""
""fullscreenenter"",""1"",""4896""
","
","","","629","","","19","15381","6156","u","elianto","#f73b6a7A"," "," ","1","0","[1483.800000011921]","1","2","","","15381","27","0","3","lose","go","0"
"pit-trial","146","1469104","0.0-32.0","battery-v0.2","","""event"",""trial"",""time""
""fullscreenenter"",""1"",""4896""
","
","
","""event"",""trial"",""time""
""fullscreenenter"",""1"",""4896""
","
","","","-1","","","19","15381","6156","g","elianto","#f73b6a7A","-1","-1","1","0","[]","0","2","","","15381","28","3","4","lose","no-go","0"
"pit-trial","147","1473447","0.0-33.0","battery-v0.2","","""event"",""trial"",""time""
""fullscreenenter"",""1"",""4896""
","
","
","""event"",""trial"",""time""
""fullscreenenter"",""1"",""4896""
","
","","","1478.5","","","19","15381","6156","a","elianto","#f73b6a7A"," "," ","1","0","[2328.800000011921]","1","2","","","15381","29","2","3","lose","go","0"
"pit-trial","148","1477399","0.0-34.0","battery-v0.2","","""event"",""trial"",""time""
""fullscreenenter"",""1"",""4896""
","
","
","""event"",""trial"",""time""
""fullscreenenter"",""1"",""4896""
","
","","","1098.6000000238419","","","19","15381","6156","g","elianto","#f73b6a7A","-1"," ","0","-10","[1949.199999988079]","1","2","","","15381","30","3","4","lose","no-go","0"
"pit-trial","149","1481061","0.0-35.0","battery-v0.2","","""event"",""trial"",""time""
""fullscreenenter"",""1"",""4896""
","
","
","""event"",""trial"",""time""
""fullscreenenter"",""1"",""4896""
","
","","","806.6000000238419","","","19","15381","6156","l","elianto","#3366ff99","-1"," ","0","0","[1658.5]","1","2","","","15381","31","1","2","win","no-go","0"
"pit-trial","150","1485921","0.0-36.0","battery-v0.2","","""event"",""trial"",""time""
""fullscreenenter"",""1"",""4896""
","
","
","""event"",""trial"",""time""
""fullscreenenter"",""1"",""4896""
","
","","","-1","","","19","15381","6156","u","elianto","#f73b6a7A"," ","-1","0","-10","[]","0","2","","","15381","32","0","3","lose","go","0"
"pit-trial","151","1489419","0.0-37.0","battery-v0.2","","""event"",""trial"",""time""
""fullscreenenter"",""1"",""4896""
","
","
","""event"",""trial"",""time""
""fullscreenenter"",""1"",""4896""
","
","","","642.4000000357628","","","19","15381","6156","a","elianto","#f73b6a7A"," "," ","1","0","[1496]","1","2","","","15381","33","2","3","lose","go","0"
"pit-trial","152","1493230","0.0-38.0","battery-v0.2","","""event"",""trial"",""time""
""fullscreenenter"",""1"",""4896""
","
","
","""event"",""trial"",""time""
""fullscreenenter"",""1"",""4896""
","
","","","956.1000000238419","","","19","15381","6156","u","elianto","#f73b6a7A"," "," ","1","0","[1806.8999999761581]","1","2","","","15381","34","0","3","lose","go","0"
"pit-trial","153","1497368","0.0-39.0","battery-v0.2","","""event"",""trial"",""time""
""fullscreenenter"",""1"",""4896""
","
","
","""event"",""trial"",""time""
""fullscreenenter"",""1"",""4896""
","
","","","1284.800000011921","","","19","15381","6156","g","elianto","#f73b6a7A","-1"," ","0","-10","[2135.800000011921]","1","2","","","15381","35","3","4","lose","no-go","0"
"pit-trial","154","1502224","0.0-40.0","battery-v0.2","","""event"",""trial"",""time""
""fullscreenenter"",""1"",""4896""
","
","
","""event"",""trial"",""time""
""fullscreenenter"",""1"",""4896""
","
","","","-1","","","19","15381","6156","l","elianto","#3366ff99","-1","-1","1","+10","[]","0","2","","","15381","36","1","2","win","no-go","0"
"pit-trial","155","1507081","0.0-41.0","battery-v0.2","","""event"",""trial"",""time""
""fullscreenenter"",""1"",""4896""
","
","
","""event"",""trial"",""time""
""fullscreenenter"",""1"",""4896""
","
","","","-1","","","19","15381","6156","a","elianto","#f73b6a7A"," ","-1","0","0","[]","0","2","","","15381","37","2","3","lose","go","1"
"pit-trial","156","1511943","0.0-42.0","battery-v0.2","","""event"",""trial"",""time""
""fullscreenenter"",""1"",""4896""
","
","
","""event"",""trial"",""time""
""fullscreenenter"",""1"",""4896""
","
","","","-1","","","19","15381","6156","l","elianto","#3366ff99","-1","-1","1","0","[]","0","2","","","15381","38","1","2","win","no-go","1"
"pit-trial","157","1516797","0.0-43.0","battery-v0.2","","""event"",""trial"",""time""
""fullscreenenter"",""1"",""4896""
","
","
","""event"",""trial"",""time""
""fullscreenenter"",""1"",""4896""
","
","","","-1","","","19","15381","6156","u","elianto","#f73b6a7A"," ","-1","0","-10","[]","0","2","","","15381","39","0","3","lose","go","0"
"pit-trial","158","1521184","0.0-44.0","battery-v0.2","","""event"",""trial"",""time""
""fullscreenenter"",""1"",""4896""
","
","
","""event"",""trial"",""time""
""fullscreenenter"",""1"",""4896""
","
","","","1532.800000011921","","","19","15381","6156","g","elianto","#f73b6a7A","-1"," ","0","-10","[2384.100000023842]","1","2","","","15381","40","3","4","lose","no-go","0"
"pit-trial","159","1525195","0.0-45.0","battery-v0.2","","""event"",""trial"",""time""
""fullscreenenter"",""1"",""4896""
","
","
","""event"",""trial"",""time""
""fullscreenenter"",""1"",""4896""
","
","","","1157.9000000357628","","","19","15381","6156","l","elianto","#3366ff99","-1"," ","0","+10","[2008.800000011921]","1","2","","","15381","41","1","2","win","no-go","1"
"pit-trial","160","1530047","0.0-46.0","battery-v0.2","","""event"",""trial"",""time""
""fullscreenenter"",""1"",""4896""
","
","
","""event"",""trial"",""time""
""fullscreenenter"",""1"",""4896""
","
","","","-1","","","19","15381","6156","a","elianto","#f73b6a7A"," ","-1","0","-10","[]","0","2","","","15381","42","2","3","lose","go","0"
"pit-trial","161","1534901","0.0-47.0","battery-v0.2","","""event"",""trial"",""time""
""fullscreenenter"",""1"",""4896""
","
","
","""event"",""trial"",""time""
""fullscreenenter"",""1"",""4896""
","
","","","-1","","","19","15381","6156","g","elianto","#f73b6a7A","-1","-1","1","0","[]","0","2","","","15381","43","3","4","lose","no-go","0"
"pit-trial","162","1539005","0.0-48.0","battery-v0.2","","""event"",""trial"",""time""
""fullscreenenter"",""1"",""4896""
","
","
","""event"",""trial"",""time""
""fullscreenenter"",""1"",""4896""
","
","","","1251.5","","","19","15381","6156","u","elianto","#f73b6a7A"," "," ","1","0","[2101.7000000476837]","1","2","","","15381","44","0","3","lose","go","0"
"pit-trial","163","1542677","0.0-49.0","battery-v0.2","","""event"",""trial"",""time""
""fullscreenenter"",""1"",""4896""
","
","
","""event"",""trial"",""time""
""fullscreenenter"",""1"",""4896""
","
","","","817.6999999880791","","","19","15381","6156","u","elianto","#f73b6a7A"," "," ","1","0","[1667.699999988079]","1","2","","","15381","45","0","3","lose","go","0"
"pit-trial","164","1546846","0.0-50.0","battery-v0.2","","""event"",""trial"",""time""
""fullscreenenter"",""1"",""4896""
","
","
","""event"",""trial"",""time""
""fullscreenenter"",""1"",""4896""
","
","","","1307.800000011921","","","19","15381","6156","a","elianto","#f73b6a7A"," "," ","1","0","[2159.2000000476837]","1","2","","","15381","46","2","3","lose","go","0"
"pit-trial","165","1551701","0.0-51.0","battery-v0.2","","""event"",""trial"",""time""
""fullscreenenter"",""1"",""4896""
","
","
","""event"",""trial"",""time""
""fullscreenenter"",""1"",""4896""
","
","","","-1","","","19","15381","6156","g","elianto","#f73b6a7A","-1","-1","1","0","[]","0","2","","","15381","47","3","4","lose","no-go","0"
"pit-trial","166","1555995","0.0-52.0","battery-v0.2","","""event"",""trial"",""time""
""fullscreenenter"",""1"",""4896""
","
","
","""event"",""trial"",""time""
""fullscreenenter"",""1"",""4896""
","
","","","1435.5","","","19","15381","6156","l","elianto","#3366ff99","-1"," ","0","0","[2290.699999988079]","1","2","","","15381","48","1","2","win","no-go","0"
"pit-trial","167","1560763","0.0-53.0","battery-v0.2","","""event"",""trial"",""time""
""fullscreenenter"",""1"",""4896""
","
","
","""event"",""trial"",""time""
""fullscreenenter"",""1"",""4896""
","
","","","1914.199999988079","","","19","15381","6156","u","elianto","#f73b6a7A"," "," ","1","0","[2764.099999964237]","1","2","","","15381","49","0","3","lose","go","0"
"pit-trial","168","1564887","0.0-54.0","battery-v0.2","","""event"",""trial"",""time""
""fullscreenenter"",""1"",""4896""
","
","
","""event"",""trial"",""time""
""fullscreenenter"",""1"",""4896""
","
","","","1270.199999988079","","","19","15381","6156","a","elianto","#f73b6a7A"," "," ","1","0","[2122.199999988079]","1","2","","","15381","50","2","3","lose","go","0"
"pit-trial","169","1569748","0.0-55.0","battery-v0.2","","""event"",""trial"",""time""
""fullscreenenter"",""1"",""4896""
","
","
","""event"",""trial"",""time""
""fullscreenenter"",""1"",""4896""
","
","","","-1","","","19","15381","6156","g","elianto","#f73b6a7A","-1","-1","1","0","[]","0","2","","","15381","51","3","4","lose","no-go","0"
"pit-trial","170","1573227","0.0-56.0","battery-v0.2","","""event"",""trial"",""time""
""fullscreenenter"",""1"",""4896""
","
","
","""event"",""trial"",""time""
""fullscreenenter"",""1"",""4896""
","
","","","624.1000000238419","","","19","15381","6156","l","elianto","#3366ff99","-1"," ","0","0","[1474.5]","1","2","","","15381","52","1","2","win","no-go","0"
"pit-trial","171","1577911","0.0-57.0","battery-v0.2","","""event"",""trial"",""time""
""fullscreenenter"",""1"",""4896""
","
","
","""event"",""trial"",""time""
""fullscreenenter"",""1"",""4896""
","
","","","1825","","","19","15381","6156","a","elianto","#f73b6a7A"," "," ","1","0","[2679.699999988079]","1","2","","","15381","53","2","3","lose","go","0"
"pit-trial","172","1581827","0.0-58.0","battery-v0.2","","""event"",""trial"",""time""
""fullscreenenter"",""1"",""4896""
","
","
","""event"",""trial"",""time""
""fullscreenenter"",""1"",""4896""
","
","","","1061","","","19","15381","6156","u","elianto","#f73b6a7A"," "," ","1","0","[1912.800000011921]","1","2","","","15381","54","0","3","lose","go","0"
"pit-trial","173","1586686","0.0-59.0","battery-v0.2","","""event"",""trial"",""time""
""fullscreenenter"",""1"",""4896""
","
","
","""event"",""trial"",""time""
""fullscreenenter"",""1"",""4896""
","
","","","-1","","","19","15381","6156","l","elianto","#3366ff99","-1","-1","1","+10","[]","0","2","","","15381","55","1","2","win","no-go","0"
"pit-trial","174","1590358","0.0-60.0","battery-v0.2","","""event"",""trial"",""time""
""fullscreenenter"",""1"",""4896""
","
","
","""event"",""trial"",""time""
""fullscreenenter"",""1"",""4896""
","
","","","812.8999999761581","","","19","15381","6156","g","elianto","#f73b6a7A","-1"," ","0","-10","[1663.8999999761581]","1","2","","","15381","56","3","4","lose","no-go","0"
"pit-trial","175","1595224","0.0-61.0","battery-v0.2","","""event"",""trial"",""time""
""fullscreenenter"",""1"",""4896""
","
","
","""event"",""trial"",""time""
""fullscreenenter"",""1"",""4896""
","
","","","-1","","","19","15381","6156","a","elianto","#f73b6a7A"," ","-1","0","-10","[]","0","2","","","15381","57","2","3","lose","go","0"
"pit-trial","176","1598839","0.0-62.0","battery-v0.2","","""event"",""trial"",""time""
""fullscreenenter"",""1"",""4896""
","
","
","""event"",""trial"",""time""
""fullscreenenter"",""1"",""4896""
","
","","","760.8999999761581","","","19","15381","6156","u","elianto","#f73b6a7A"," "," ","1","-10","[1611.699999988079]","1","2","","","15381","58","0","3","lose","go","1"
"pit-trial","177","1602377","0.0-63.0","battery-v0.2","","""event"",""trial"",""time""
""fullscreenenter"",""1"",""4896""
","
","
","""event"",""trial"",""time""
""fullscreenenter"",""1"",""4896""
","
","","","684.6000000238419","","","19","15381","6156","p","elianto","#3366ff99"," "," ","1","+10","[1535.3999999761581]","1","2","","","15381","59","4","1","win","go","0"
"pit-trial","178","1607236","0.0-64.0","battery-v0.2","","""event"",""trial"",""time""
""fullscreenenter"",""1"",""4896""
","
","
","""event"",""trial"",""time""
""fullscreenenter"",""1"",""4896""
","
","","","-1","","","19","15381","6156","g","elianto","#f73b6a7A","-1","-1","1","0","[]","0","2","","","15381","60","3","4","lose","no-go","0"
"pit-trial","179","1610860","0.0-65.0","battery-v0.2","","""event"",""trial"",""time""
""fullscreenenter"",""1"",""4896""
","
","
","""event"",""trial"",""time""
""fullscreenenter"",""1"",""4896""
","
","","","767.4000000357628","","","19","15381","6156","p","elianto","#3366ff99"," "," ","1","+10","[1621.800000011921]","1","2","","","15381","61","4","1","win","go","0"
"pit-trial","180","1615715","0.0-66.0","battery-v0.2","","""event"",""trial"",""time""
""fullscreenenter"",""1"",""4896""
","
","
","""event"",""trial"",""time""
""fullscreenenter"",""1"",""4896""
","
","","","-1","","","19","15381","6156","g","elianto","#f73b6a7A","-1","-1","1","0","[]","0","2","","","15381","62","3","4","lose","no-go","0"
"pit-trial","181","1619213","0.0-67.0","battery-v0.2","","""event"",""trial"",""time""
""fullscreenenter"",""1"",""4896""
","
","
","""event"",""trial"",""time""
""fullscreenenter"",""1"",""4896""
","
","","","641.3000000119209","","","19","15381","6156","l","elianto","#3366ff99","-1"," ","0","0","[1494.9000000357628]","1","2","","","15381","63","1","2","win","no-go","0"
"pit-trial","182","1623196","0.0-68.0","battery-v0.2","","""event"",""trial"",""time""
""fullscreenenter"",""1"",""4896""
","
","
","""event"",""trial"",""time""
""fullscreenenter"",""1"",""4896""
","
","","","1129.800000011921","","","19","15381","6156","a","elianto","#f73b6a7A"," "," ","1","0","[1980.6000000238419]","1","2","","","15381","64","2","3","lose","go","0"
"pit-trial","183","1628063","0.0-69.0","battery-v0.2","","""event"",""trial"",""time""
""fullscreenenter"",""1"",""4896""
","
","
","""event"",""trial"",""time""
""fullscreenenter"",""1"",""4896""
","
","","","-1","","","19","15381","6156","g","elianto","#f73b6a7A","-1","-1","1","-10","[]","0","2","","","15381","65","3","4","lose","no-go","1"
"pit-trial","184","1632035","0.0-70.0","battery-v0.2","","""event"",""trial"",""time""
""fullscreenenter"",""1"",""4896""
","
","
","""event"",""trial"",""time""
""fullscreenenter"",""1"",""4896""
","
","","","1117.6000000238419","","","19","15381","6156","p","elianto","#3366ff99"," "," ","1","+10","[1968.199999988079]","1","2","","","15381","66","4","1","win","go","0"
"pit-trial","185","1636889","0.0-71.0","battery-v0.2","","""event"",""trial"",""time""
""fullscreenenter"",""1"",""4896""
","
","
","""event"",""trial"",""time""
""fullscreenenter"",""1"",""4896""
","
","","","-1","","","19","15381","6156","l","elianto","#3366ff99","-1","-1","1","+10","[]","0","2","","","15381","67","1","2","win","no-go","0"
"pit-trial","186","1641163","0.0-72.0","battery-v0.2","","""event"",""trial"",""time""
""fullscreenenter"",""1"",""4896""
","
","
","""event"",""trial"",""time""
""fullscreenenter"",""1"",""4896""
","
","","","1420.5","","","19","15381","6156","s","elianto","#3366ff99","-1"," ","0","0","[2270.899999976158]","1","2","","","15381","68","5","2","win","no-go","0"
"pit-trial","187","1645405","0.0-73.0","battery-v0.2","","""event"",""trial"",""time""
""fullscreenenter"",""1"",""4896""
","
","
","""event"",""trial"",""time""
""fullscreenenter"",""1"",""4896""
","
","","","1386.8999999761581","","","19","15381","6156","s","elianto","#3366ff99","-1"," ","0","+10","[2238.199999988079]","1","2","","","15381","69","5","2","win","no-go","1"
"pit-trial","188","1650261","0.0-74.0","battery-v0.2","","""event"",""trial"",""time""
""fullscreenenter"",""1"",""4896""
","
","
","""event"",""trial"",""time""
""fullscreenenter"",""1"",""4896""
","
","","","-1","","","19","15381","6156","a","elianto","#f73b6a7A"," ","-1","0","-10","[]","0","2","","","15381","70","2","3","lose","go","0"
"pit-trial","189","1653838","0.0-75.0","battery-v0.2","","""event"",""trial"",""time""
""fullscreenenter"",""1"",""4896""
","
","
","""event"",""trial"",""time""
""fullscreenenter"",""1"",""4896""
","
","","","716.8000000119209","","","19","15381","6156","p","elianto","#3366ff99"," "," ","1","+10","[1568.199999988079]","1","2","","","15381","71","4","1","win","go","0"
"pit-trial","190","1657771","0.0-76.0","battery-v0.2","","""event"",""trial"",""time""
""fullscreenenter"",""1"",""4896""
","
","
","""event"",""trial"",""time""
""fullscreenenter"",""1"",""4896""
","
","","","1080.4000000357628","","","19","15381","6156","l","elianto","#3366ff99","-1"," ","0","+10","[1931.0999999642372]","1","2","","","15381","72","1","2","win","no-go","1"
"pit-trial","191","1661442","0.0-77.0","battery-v0.2","","""event"",""trial"",""time""
""fullscreenenter"",""1"",""4896""
","
","
","""event"",""trial"",""time""
""fullscreenenter"",""1"",""4896""
","
","","","808.5","","","19","15381","6156","p","elianto","#3366ff99"," "," ","1","+10","[1659.8999999761581]","1","2","","","15381","73","4","1","win","go","0"
"pit-trial","192","1666301","0.0-78.0","battery-v0.2","","""event"",""trial"",""time""
""fullscreenenter"",""1"",""4896""
","
","
","""event"",""trial"",""time""
""fullscreenenter"",""1"",""4896""
","
","","","-1","","","19","15381","6156","g","elianto","#f73b6a7A","-1","-1","1","0","[]","0","2","","","15381","74","3","4","lose","no-go","0"
"pit-trial","193","1670137","0.0-79.0","battery-v0.2","","""event"",""trial"",""time""
""fullscreenenter"",""1"",""4896""
","
","
","""event"",""trial"",""time""
""fullscreenenter"",""1"",""4896""
","
","","","983","","","19","15381","6156","l","elianto","#3366ff99","-1"," ","0","0","[1833]","1","2","","","15381","75","1","2","win","no-go","0"
"pit-trial","194","1673774","0.0-80.0","battery-v0.2","","""event"",""trial"",""time""
""fullscreenenter"",""1"",""4896""
","
","
","""event"",""trial"",""time""
""fullscreenenter"",""1"",""4896""
","
","","","782.4000000357628","","","19","15381","6156","s","elianto","#3366ff99","-1"," ","0","+10","[1634.300000011921]","1","2","","","15381","76","5","2","win","no-go","1"
"pit-trial","195","1678629","0.0-81.0","battery-v0.2","","""event"",""trial"",""time""
""fullscreenenter"",""1"",""4896""
","
","
","""event"",""trial"",""time""
""fullscreenenter"",""1"",""4896""
","
","","","-1","","","19","15381","6156","g","elianto","#f73b6a7A","-1","-1","1","0","[]","0","2","","","15381","77","3","4","lose","no-go","0"
"pit-trial","196","1682151","0.0-82.0","battery-v0.2","","""event"",""trial"",""time""
""fullscreenenter"",""1"",""4896""
","
","
","""event"",""trial"",""time""
""fullscreenenter"",""1"",""4896""
","
","","","668","","","19","15381","6156","p","elianto","#3366ff99"," "," ","1","+10","[1518.300000011921]","1","2","","","15381","78","4","1","win","go","0"
"pit-trial","197","1686003","0.0-83.0","battery-v0.2","","""event"",""trial"",""time""
""fullscreenenter"",""1"",""4896""
","
","
","""event"",""trial"",""time""
""fullscreenenter"",""1"",""4896""
","
","","","999.6999999880791","","","19","15381","6156","p","elianto","#3366ff99"," "," ","1","0","[1850.5]","1","2","","","15381","79","4","1","win","go","1"
"pit-trial","198","1689648","0.0-84.0","battery-v0.2","","""event"",""trial"",""time""
""fullscreenenter"",""1"",""4896""
","
","
","""event"",""trial"",""time""
""fullscreenenter"",""1"",""4896""
","
","","","789.3999999761581","","","19","15381","6156","s","elianto","#3366ff99","-1"," ","0","0","[1641.199999988079]","1","2","","","15381","80","5","2","win","no-go","0"
"pit-trial","199","1693116","0.0-85.0","battery-v0.2","","""event"",""trial"",""time""
""fullscreenenter"",""1"",""4896""
","
","
","""event"",""trial"",""time""
""fullscreenenter"",""1"",""4896""
","
","","","615.1000000238419","","","19","15381","6156","p","elianto","#3366ff99"," "," ","1","+10","[1465.1000000238419]","1","2","","","15381","81","4","1","win","go","0"
"pit-trial","200","1696679","0.0-86.0","battery-v0.2","","""event"",""trial"",""time""
""fullscreenenter"",""1"",""4896""
","
","
","""event"",""trial"",""time""
""fullscreenenter"",""1"",""4896""
","
","","","708","","","19","15381","6156","s","elianto","#3366ff99","-1"," ","0","+10","[1560.6000000238419]","1","2","","","15381","82","5","2","win","no-go","1"
"pit-trial","201","1701540","0.0-87.0","battery-v0.2","","""event"",""trial"",""time""
""fullscreenenter"",""1"",""4896""
","
","
","""event"",""trial"",""time""
""fullscreenenter"",""1"",""4896""
","
","","","-1","","","19","15381","6156","g","elianto","#f73b6a7A","-1","-1","1","0","[]","0","2","","","15381","83","3","4","lose","no-go","0"
"pit-trial","202","1705866","0.0-88.0","battery-v0.2","","""event"",""trial"",""time""
""fullscreenenter"",""1"",""4896""
","
","
","""event"",""trial"",""time""
""fullscreenenter"",""1"",""4896""
","
","","","1472.699999988079","","","19","15381","6156","e","elianto","#f73b6a7A","-1"," ","0","-10","[2323.099999964237]","1","2","","","15381","84","7","4","lose","no-go","0"
"pit-trial","203","1709418","0.0-89.0","battery-v0.2","","""event"",""trial"",""time""
""fullscreenenter"",""1"",""4896""
","
","
","""event"",""trial"",""time""
""fullscreenenter"",""1"",""4896""
","
","","","694.5999999642372","","","19","15381","6156","p","elianto","#3366ff99"," "," ","1","0","[1545.8999999761581]","1","2","","","15381","85","4","1","win","go","1"
"pit-trial","204","1713511","0.0-90.0","battery-v0.2","","""event"",""trial"",""time""
""fullscreenenter"",""1"",""4896""
","
","
","""event"",""trial"",""time""
""fullscreenenter"",""1"",""4896""
","
","","","1237.9000000357628","","","19","15381","6156","w","elianto","#f73b6a7A"," "," ","1","0","[2090.5]","1","2","","","15381","86","6","3","lose","go","0"
"pit-trial","205","1717726","0.0-91.0","battery-v0.2","","""event"",""trial"",""time""
""fullscreenenter"",""1"",""4896""
","
","
","""event"",""trial"",""time""
""fullscreenenter"",""1"",""4896""
","
","","","1360.3999999761581","","","19","15381","6156","s","elianto","#3366ff99","-1"," ","0","0","[2211.699999988079]","1","2","","","15381","87","5","2","win","no-go","0"
"pit-trial","206","1722579","0.0-92.0","battery-v0.2","","""event"",""trial"",""time""
""fullscreenenter"",""1"",""4896""
","
","
","""event"",""trial"",""time""
""fullscreenenter"",""1"",""4896""
","
","","","-1","","","19","15381","6156","e","elianto","#f73b6a7A","-1","-1","1","-10","[]","0","2","","","15381","88","7","4","lose","no-go","1"
"pit-trial","207","1726159","0.0-93.0","battery-v0.2","","""event"",""trial"",""time""
""fullscreenenter"",""1"",""4896""
","
","
","""event"",""trial"",""time""
""fullscreenenter"",""1"",""4896""
","
","","","727.1000000238419","","","19","15381","6156","p","elianto","#3366ff99"," "," ","1","+10","[1577.6000000238419]","1","2","","","15381","89","4","1","win","go","0"
"pit-trial","208","1731013","0.0-94.0","battery-v0.2","","""event"",""trial"",""time""
""fullscreenenter"",""1"",""4896""
","
","
","""event"",""trial"",""time""
""fullscreenenter"",""1"",""4896""
","
","","","-1","","","19","15381","6156","e","elianto","#f73b6a7A","-1","-1","1","-10","[]","0","2","","","15381","90","7","4","lose","no-go","1"
"pit-trial","209","1734358","0.0-95.0","battery-v0.2","","""event"",""trial"",""time""
""fullscreenenter"",""1"",""4896""
","
","
","""event"",""trial"",""time""
""fullscreenenter"",""1"",""4896""
","
","","","491.5999999642372","","","19","15381","6156","s","elianto","#3366ff99","-1"," ","0","0","[1342.800000011921]","1","2","","","15381","91","5","2","win","no-go","0"
"pit-trial","210","1738518","0.0-96.0","battery-v0.2","","""event"",""trial"",""time""
""fullscreenenter"",""1"",""4896""
","
","
","""event"",""trial"",""time""
""fullscreenenter"",""1"",""4896""
","
","","","1306.199999988079","","","19","15381","6156","w","elianto","#f73b6a7A"," "," ","1","0","[2156.699999988079]","1","2","","","15381","92","6","3","lose","go","0"
"pit-trial","211","1742047","0.0-97.0","battery-v0.2","","""event"",""trial"",""time""
""fullscreenenter"",""1"",""4896""
","
","
","""event"",""trial"",""time""
""fullscreenenter"",""1"",""4896""
","
","","","675.5","","","19","15381","6156","w","elianto","#f73b6a7A"," "," ","1","0","[1525.6000000238419]","1","2","","","15381","93","6","3","lose","go","0"
"pit-trial","212","1745412","0.0-98.0","battery-v0.2","","""event"",""trial"",""time""
""fullscreenenter"",""1"",""4896""
","
","
","""event"",""trial"",""time""
""fullscreenenter"",""1"",""4896""
","
","","","509.5","","","19","15381","6156","d","elianto","#3366ff99"," "," ","1","+10","[1361.800000011921]","1","2","","","15381","94","8","1","win","go","0"
"pit-trial","213","1749048","0.0-99.0","battery-v0.2","","""event"",""trial"",""time""
""fullscreenenter"",""1"",""4896""
","
","
","""event"",""trial"",""time""
""fullscreenenter"",""1"",""4896""
","
","","","782.5","","","19","15381","6156","e","elianto","#f73b6a7A","-1"," ","0","-10","[1633.4000000357628]","1","2","","","15381","95","7","4","lose","no-go","0"
"pit-trial","214","1752889","0.0-100.0","battery-v0.2","","""event"",""trial"",""time""
""fullscreenenter"",""1"",""4896""
","
","
","""event"",""trial"",""time""
""fullscreenenter"",""1"",""4896""
","
","","","974.5","","","19","15381","6156","s","elianto","#3366ff99","-1"," ","0","0","[1838.300000011921]","1","2","","","15381","96","5","2","win","no-go","0"
"pit-trial","215","1757743","0.0-101.0","battery-v0.2","","""event"",""trial"",""time""
""fullscreenenter"",""1"",""4896""
","
","
","""event"",""trial"",""time""
""fullscreenenter"",""1"",""4896""
","
","","","-1","","","19","15381","6156","e","elianto","#f73b6a7A","-1","-1","1","0","[]","0","2","","","15381","97","7","4","lose","no-go","0"
"pit-trial","216","1761305","0.0-102.0","battery-v0.2","","""event"",""trial"",""time""
""fullscreenenter"",""1"",""4896""
","
","
","""event"",""trial"",""time""
""fullscreenenter"",""1"",""4896""
","
","","","701.5","","","19","15381","6156","w","elianto","#f73b6a7A"," "," ","1","0","[1551.6000000238419]","1","2","","","15381","98","6","3","lose","go","0"
"pit-trial","217","1764793","0.0-103.0","battery-v0.2","","""event"",""trial"",""time""
""fullscreenenter"",""1"",""4896""
","
","
","""event"",""trial"",""time""
""fullscreenenter"",""1"",""4896""
","
","","","629.3000000119209","","","19","15381","6156","d","elianto","#3366ff99"," "," ","1","0","[1485.300000011921]","1","2","","","15381","99","8","1","win","go","1"
"pit-trial","218","1768178","0.0-104.0","battery-v0.2","","""event"",""trial"",""time""
""fullscreenenter"",""1"",""4896""
","
","
","""event"",""trial"",""time""
""fullscreenenter"",""1"",""4896""
","
","","","526.8000000119209","","","19","15381","6156","s","elianto","#3366ff99","-1"," ","0","0","[1380.199999988079]","1","2","","","15381","100","5","2","win","no-go","0"
"pit-trial","219","1771478","0.0-105.0","battery-v0.2","","""event"",""trial"",""time""
""fullscreenenter"",""1"",""4896""
","
","
","""event"",""trial"",""time""
""fullscreenenter"",""1"",""4896""
","
","","","447.5999999642372","","","19","15381","6156","j","elianto","#3366ff99"," "," ","1","+10","[1297.7999999523163]","1","2","","","15381","101","9","1","win","go","0"
"pit-trial","220","1774931","0.0-106.0","battery-v0.2","","""event"",""trial"",""time""
""fullscreenenter"",""1"",""4896""
","
","
","""event"",""trial"",""time""
""fullscreenenter"",""1"",""4896""
","
","","","593.6999999880791","","","19","15381","6156","d","elianto","#3366ff99"," "," ","1","0","[1444.0999999642372]","1","2","","","15381","102","8","1","win","go","1"
"pit-trial","221","1778459","0.0-107.0","battery-v0.2","","""event"",""trial"",""time""
""fullscreenenter"",""1"",""4896""
","
","
","""event"",""trial"",""time""
""fullscreenenter"",""1"",""4896""
","
","","","672.1999999880791","","","19","15381","6156","e","elianto","#f73b6a7A","-1"," ","0","0","[1524.3999999761581]","1","2","","","15381","103","7","4","lose","no-go","1"
"pit-trial","222","1781949","0.0-108.0","battery-v0.2","","""event"",""trial"",""time""
""fullscreenenter"",""1"",""4896""
","
","
","""event"",""trial"",""time""
""fullscreenenter"",""1"",""4896""
","
","","","627.0999999642372","","","19","15381","6156","s","elianto","#3366ff99","-1"," ","0","0","[1479.8999999761581]","1","2","","","15381","104","5","2","win","no-go","0"
"pit-trial","223","1785613","0.0-109.0","battery-v0.2","","""event"",""trial"",""time""
""fullscreenenter"",""1"",""4896""
","
","
","""event"",""trial"",""time""
""fullscreenenter"",""1"",""4896""
","
","","","810.1999999880791","","","19","15381","6156","p","elianto","#3366ff99"," "," ","1","+10","[1660.699999988079]","1","2","","","15381","105","4","1","win","go","0"
"pit-trial","224","1789862","0.0-110.0","battery-v0.2","","""event"",""trial"",""time""
""fullscreenenter"",""1"",""4896""
","
","
","""event"",""trial"",""time""
""fullscreenenter"",""1"",""4896""
","
","","","1395.800000011921","","","19","15381","6156","w","elianto","#f73b6a7A"," "," ","1","-10","[2246.300000011921]","1","2","","","15381","106","6","3","lose","go","1"
"pit-trial","225","1794722","0.0-111.0","battery-v0.2","","""event"",""trial"",""time""
""fullscreenenter"",""1"",""4896""
","
","
","""event"",""trial"",""time""
""fullscreenenter"",""1"",""4896""
","
","","","-1","","","19","15381","6156","j","elianto","#3366ff99"," ","-1","0","0","[]","0","2","","","15381","107","9","1","win","go","0"
"pit-trial","226","1799582","0.0-112.0","battery-v0.2","","""event"",""trial"",""time""
""fullscreenenter"",""1"",""4896""
","
","
","""event"",""trial"",""time""
""fullscreenenter"",""1"",""4896""
","
","","","-1","","","19","15381","6156","d","elianto","#3366ff99"," ","-1","0","0","[]","0","2","","","15381","108","8","1","win","go","0"
"pit-trial","227","1803047","0.0-113.0","battery-v0.2","","""event"",""trial"",""time""
""fullscreenenter"",""1"",""4896""
","
","
","""event"",""trial"",""time""
""fullscreenenter"",""1"",""4896""
","
","","","612","","","19","15381","6156","s","elianto","#3366ff99","-1"," ","0","0","[1462.300000011921]","1","2","","","15381","109","5","2","win","no-go","0"
"pit-trial","228","1806834","0.0-114.0","battery-v0.2","","""event"",""trial"",""time""
""fullscreenenter"",""1"",""4896""
","
","
","""event"",""trial"",""time""
""fullscreenenter"",""1"",""4896""
","
","","","933.3000000119209","","","19","15381","6156","d","elianto","#3366ff99"," "," ","1","+10","[1783.8999999761581]","1","2","","","15381","110","8","1","win","go","0"
"pit-trial","229","1811689","0.0-115.0","battery-v0.2","","""event"",""trial"",""time""
""fullscreenenter"",""1"",""4896""
","
","
","""event"",""trial"",""time""
""fullscreenenter"",""1"",""4896""
","
","","","-1","","","19","15381","6156","w","elianto","#f73b6a7A"," ","-1","0","-10","[]","0","2","","","15381","111","6","3","lose","go","0"
"pit-trial","230","1816353","0.0-116.0","battery-v0.2","","""event"",""trial"",""time""
""fullscreenenter"",""1"",""4896""
","
","
","""event"",""trial"",""time""
""fullscreenenter"",""1"",""4896""
","
","","","1810.7999999523163","","","19","15381","6156","j","elianto","#3366ff99"," "," ","1","+10","[2661.099999964237]","1","2","","","15381","112","9","1","win","go","0"
"pit-trial","231","1820031","0.0-117.0","battery-v0.2","","""event"",""trial"",""time""
""fullscreenenter"",""1"",""4896""
","
","
","""event"",""trial"",""time""
""fullscreenenter"",""1"",""4896""
","
","","","824.6000000238419","","","19","15381","6156","j","elianto","#3366ff99"," "," ","1","+10","[1675.0999999642372]","1","2","","","15381","113","9","1","win","go","0"
"pit-trial","232","1824438","0.0-118.0","battery-v0.2","","""event"",""trial"",""time""
""fullscreenenter"",""1"",""4896""
","
","
","""event"",""trial"",""time""
""fullscreenenter"",""1"",""4896""
","
","","","1551.199999988079","","","19","15381","6156","w","elianto","#f73b6a7A"," "," ","1","0","[2402.899999976158]","1","2","","","15381","114","6","3","lose","go","0"
"pit-trial","233","1828297","0.0-119.0","battery-v0.2","","""event"",""trial"",""time""
""fullscreenenter"",""1"",""4896""
","
","
","""event"",""trial"",""time""
""fullscreenenter"",""1"",""4896""
","
","","","998.1999999880791","","","19","15381","6156","s","elianto","#3366ff99","-1"," ","0","+10","[1848.9000000357628]","1","2","","","15381","115","5","2","win","no-go","1"
"pit-trial","234","1832067","0.0-120.0","battery-v0.2","","""event"",""trial"",""time""
""fullscreenenter"",""1"",""4896""
","
","
","""event"",""trial"",""time""
""fullscreenenter"",""1"",""4896""
","
","","","915.1999999880791","","","19","15381","6156","d","elianto","#3366ff99"," "," ","1","+10","[1767.699999988079]","1","2","","","15381","116","8","1","win","go","0"
"pit-trial","235","1835511","0.0-121.0","battery-v0.2","","""event"",""trial"",""time""
""fullscreenenter"",""1"",""4896""
","
","
","""event"",""trial"",""time""
""fullscreenenter"",""1"",""4896""
","
","","","585.9000000357628","","","19","15381","6156","s","elianto","#3366ff99","-1"," ","0","0","[1436.1000000238419]","1","2","","","15381","117","5","2","win","no-go","0"
"pit-trial","236","1838465","0.0-122.0","battery-v0.2","","""event"",""trial"",""time""
""fullscreenenter"",""1"",""4896""
","
","
","""event"",""trial"",""time""
""fullscreenenter"",""1"",""4896""
","
","","","99.09999996423721","","","19","15381","6156","d","elianto","#3366ff99"," "," ","1","+10","[951.2999999523163]","1","2","","","15381","118","8","1","win","go","0"
"pit-trial","237","1842228","0.0-123.0","battery-v0.2","","""event"",""trial"",""time""
""fullscreenenter"",""1"",""4896""
","
","
","""event"",""trial"",""time""
""fullscreenenter"",""1"",""4896""
","
","","","909.5","","","19","15381","6156","j","elianto","#3366ff99"," "," ","1","+10","[1759.800000011921]","1","2","","","15381","119","9","1","win","go","0"
"pit-trial","238","1847081","0.0-124.0","battery-v0.2","","""event"",""trial"",""time""
""fullscreenenter"",""1"",""4896""
","
","
","""event"",""trial"",""time""
""fullscreenenter"",""1"",""4896""
","
","","","-1","","","19","15381","6156","w","elianto","#f73b6a7A"," ","-1","0","0","[]","0","2","","","15381","120","6","3","lose","go","1"
"pit-trial","239","1850674","0.0-125.0","battery-v0.2","","""event"",""trial"",""time""
""fullscreenenter"",""1"",""4896""
","
","
","""event"",""trial"",""time""
""fullscreenenter"",""1"",""4896""
","
","","","740.1999999880791","","","19","15381","6156","e","elianto","#f73b6a7A","-1"," ","0","-10","[1591.1000000238419]","1","2","","","15381","121","7","4","lose","no-go","0"
"pit-trial","240","1854939","0.0-126.0","battery-v0.2","","""event"",""trial"",""time""
""fullscreenenter"",""1"",""4896""
","
","
","""event"",""trial"",""time""
""fullscreenenter"",""1"",""4896""
","
","","","1407.2000000476837","","","19","15381","6156","w","elianto","#f73b6a7A"," "," ","1","0","[2259.2000000476837]","1","2","","","15381","122","6","3","lose","go","0"
"pit-trial","241","1859007","0.0-127.0","battery-v0.2","","""event"",""trial"",""time""
""fullscreenenter"",""1"",""4896""
","
","
","""event"",""trial"",""time""
""fullscreenenter"",""1"",""4896""
","
","","","1209","","","19","15381","6156","d","elianto","#3366ff99"," "," ","1","+10","[2059.699999988079]","1","2","","","15381","123","8","1","win","go","0"
"pit-trial","242","1862923","0.0-128.0","battery-v0.2","","""event"",""trial"",""time""
""fullscreenenter"",""1"",""4896""
","
","
","""event"",""trial"",""time""
""fullscreenenter"",""1"",""4896""
","
","","","1062.1000000238419","","","19","15381","6156","j","elianto","#3366ff99"," "," ","1","+10","[1912.4000000357628]","1","2","","","15381","124","9","1","win","go","0"
"pit-trial","243","1866544","0.0-129.0","battery-v0.2","","""event"",""trial"",""time""
""fullscreenenter"",""1"",""4896""
","
","
","""event"",""trial"",""time""
""fullscreenenter"",""1"",""4896""
","
","","","763","","","19","15381","6156","j","elianto","#3366ff99"," "," ","1","0","[1613.2000000476837]","1","2","","","15381","125","9","1","win","go","1"
"pit-trial","244","1870237","0.0-130.0","battery-v0.2","","""event"",""trial"",""time""
""fullscreenenter"",""1"",""4896""
","
","
","""event"",""trial"",""time""
""fullscreenenter"",""1"",""4896""
","
","","","838.8000000119209","","","19","15381","6156","e","elianto","#f73b6a7A","-1"," ","0","-10","[1689.3999999761581]","1","2","","","15381","126","7","4","lose","no-go","0"
"pit-trial","245","1873758","0.0-131.0","battery-v0.2","","""event"",""trial"",""time""
""fullscreenenter"",""1"",""4896""
","
","
","""event"",""trial"",""time""
""fullscreenenter"",""1"",""4896""
","
","","","667.8000000119209","","","19","15381","6156","d","elianto","#3366ff99"," "," ","1","+10","[1517.9000000357628]","1","2","","","15381","127","8","1","win","go","0"
"pit-trial","246","1878626","0.0-132.0","battery-v0.2","","""event"",""trial"",""time""
""fullscreenenter"",""1"",""4896""
","
","
","""event"",""trial"",""time""
""fullscreenenter"",""1"",""4896""
","
","","","-1","","","19","15381","6156","w","elianto","#f73b6a7A"," ","-1","0","-10","[]","0","2","","","15381","128","6","3","lose","go","0"
"pit-trial","247","1882855","0.0-133.0","battery-v0.2","","""event"",""trial"",""time""
""fullscreenenter"",""1"",""4896""
","
","
","""event"",""trial"",""time""
""fullscreenenter"",""1"",""4896""
","
","","","1367.3999999761581","","","19","15381","6156","d","elianto","#3366ff99"," "," ","1","+10","[2217.5]","1","2","","","15381","129","8","1","win","go","0"
"pit-trial","248","1886221","0.0-134.0","battery-v0.2","","""event"",""trial"",""time""
""fullscreenenter"",""1"",""4896""
","
","
","""event"",""trial"",""time""
""fullscreenenter"",""1"",""4896""
","
","","","512.3999999761581","","","19","15381","6156","e","elianto","#f73b6a7A","-1"," ","0","0","[1363.3999999761581]","1","2","","","15381","130","7","4","lose","no-go","1"
"pit-trial","249","1889758","0.0-135.0","battery-v0.2","","""event"",""trial"",""time""
""fullscreenenter"",""1"",""4896""
","
","
","""event"",""trial"",""time""
""fullscreenenter"",""1"",""4896""
","
","","","682.7999999523163","","","19","15381","6156","w","elianto","#f73b6a7A"," "," ","1","0","[1534.199999988079]","1","2","","","15381","131","6","3","lose","go","0"
"pit-trial","250","1893329","0.0-136.0","battery-v0.2","","""event"",""trial"",""time""
""fullscreenenter"",""1"",""4896""
","
","
","""event"",""trial"",""time""
""fullscreenenter"",""1"",""4896""
","
","","","713.6000000238419","","","19","15381","6156","j","elianto","#3366ff99"," "," ","1","+10","[1564.6000000238419]","1","2","","","15381","132","9","1","win","go","0"
"pit-trial","251","1898183","0.0-137.0","battery-v0.2","","""event"",""trial"",""time""
""fullscreenenter"",""1"",""4896""
","
","
","""event"",""trial"",""time""
""fullscreenenter"",""1"",""4896""
","
","","","-1","","","19","15381","6156","e","elianto","#f73b6a7A","-1","-1","1","0","[]","0","2","","","15381","133","7","4","lose","no-go","0"
"pit-trial","252","1901556","0.0-138.0","battery-v0.2","","""event"",""trial"",""time""
""fullscreenenter"",""1"",""4896""
","
","
","""event"",""trial"",""time""
""fullscreenenter"",""1"",""4896""
","
","","","520.4000000357628","","","19","15381","6156","j","elianto","#3366ff99"," "," ","1","+10","[1370.9000000357628]","1","2","","","15381","134","9","1","win","go","0"
"pit-trial","253","1905129","0.0-139.0","battery-v0.2","","""event"",""trial"",""time""
""fullscreenenter"",""1"",""4896""
","
","
","""event"",""trial"",""time""
""fullscreenenter"",""1"",""4896""
","
","","","719.1000000238419","","","19","15381","6156","d","elianto","#3366ff99"," "," ","1","0","[1569.8999999761581]","1","2","","","15381","135","8","1","win","go","1"
"pit-trial","254","1908507","0.0-140.0","battery-v0.2","","""event"",""trial"",""time""
""fullscreenenter"",""1"",""4896""
","
","
","""event"",""trial"",""time""
""fullscreenenter"",""1"",""4896""
","
","","","525.1999999880791","","","19","15381","6156","w","elianto","#f73b6a7A"," "," ","1","0","[1375.699999988079]","1","2","","","15381","136","6","3","lose","go","0"
"pit-trial","255","1912069","0.0-141.0","battery-v0.2","","""event"",""trial"",""time""
""fullscreenenter"",""1"",""4896""
","
","
","""event"",""trial"",""time""
""fullscreenenter"",""1"",""4896""
","
","","","706.1000000238419","","","19","15381","6156","d","elianto","#3366ff99"," "," ","1","0","[1556.800000011921]","1","2","","","15381","137","8","1","win","go","1"
"pit-trial","256","1916923","0.0-142.0","battery-v0.2","","""event"",""trial"",""time""
""fullscreenenter"",""1"",""4896""
","
","
","""event"",""trial"",""time""
""fullscreenenter"",""1"",""4896""
","
","","","-1","","","19","15381","6156","j","elianto","#3366ff99"," ","-1","0","0","[]","0","2","","","15381","138","9","1","win","go","0"
"pit-trial","257","1921785","0.0-143.0","battery-v0.2","","""event"",""trial"",""time""
""fullscreenenter"",""1"",""4896""
","
","
","""event"",""trial"",""time""
""fullscreenenter"",""1"",""4896""
","
","","","-1","","","19","15381","6156","w","elianto","#f73b6a7A"," ","-1","0","-10","[]","0","2","","","15381","139","6","3","lose","go","0"
"pit-trial","258","1925262","0.0-144.0","battery-v0.2","","""event"",""trial"",""time""
""fullscreenenter"",""1"",""4896""
","
","
","""event"",""trial"",""time""
""fullscreenenter"",""1"",""4896""
","
","","","612.1000000238419","","","19","15381","6156","e","elianto","#f73b6a7A","-1"," ","0","-10","[1469.2000000476837]","1","2","","","15381","140","7","4","lose","no-go","0"
"pit-instructions","259","1966589","0.0-145.0","battery-v0.2","","""event"",""trial"",""time""
""fullscreenenter"",""1"",""4896""
","
","
","""event"",""trial"",""time""
""fullscreenenter"",""1"",""4896""
","
","","[{""page_index"":0,""viewing_time"":9912.300000011921},{""page_index"":1,""viewing_time"":31412.5}]","41325.09999996424","","","","","","","","","","","","","","","","","","","","","","","",""
"pit-trial","260","1971454","0.0-146.0","battery-v0.2","","""event"",""trial"",""time""
""fullscreenenter"",""1"",""4896""
","
","
","""event"",""trial"",""time""
""fullscreenenter"",""1"",""4896""
","
","","","-1","","","19","15381","6156","y","elianto","#f73b6a7A","-1","-1","1","0","[2932.300000011921]","1","3","","","15381","141","2","4","lose","no-go","0"
"pit-trial","261","1976309","0.0-147.0","battery-v0.2","","""event"",""trial"",""time""
""fullscreenenter"",""1"",""4896""
","
","
","""event"",""trial"",""time""
""fullscreenenter"",""1"",""4896""
","
","","","-1","","","19","15381","6156","m","elianto","#f73b6a7A","-1","-1","1","0","[]","0","3","","","15381","142","0","4","lose","no-go","0"
"pit-trial","262","1979938","0.0-148.0","battery-v0.2","","""event"",""trial"",""time""
""fullscreenenter"",""1"",""4896""
","
","
","""event"",""trial"",""time""
""fullscreenenter"",""1"",""4896""
","
","","","775.6000000238419","","","19","15381","6156","r","elianto","#3366ff99"," "," ","1","+10","[1626.6000000238419]","1","3","","","15381","143","1","1","win","go","0"
"pit-trial","263","1984792","0.0-149.0","battery-v0.2","","""event"",""trial"",""time""
""fullscreenenter"",""1"",""4896""
","
","
","""event"",""trial"",""time""
""fullscreenenter"",""1"",""4896""
","
","","","-1","","","19","15381","6156","h","elianto","#f73b6a7A"," ","-1","0","0","[]","0","3","","","15381","144","3","3","lose","go","1"
"pit-trial","264","1989301","0.0-150.0","battery-v0.2","","""event"",""trial"",""time""
""fullscreenenter"",""1"",""4896""
","
","
","""event"",""trial"",""time""
""fullscreenenter"",""1"",""4896""
","
","","","1655.199999988079","","","19","15381","6156","y","elianto","#f73b6a7A","-1"," ","0","-10","[2506.400000035763]","1","3","","","15381","145","2","4","lose","no-go","0"
"pit-trial","265","1993197","0.0-151.0","battery-v0.2","","""event"",""trial"",""time""
""fullscreenenter"",""1"",""4896""
","
","
","""event"",""trial"",""time""
""fullscreenenter"",""1"",""4896""
","
