"trial_type","trial_index","time_elapsed","internal_node_id","task_version","subject_id","interactions","blur_events","focus_events","fullscreenenter_events","fullscreenexit_events","success","view_history","rt","responses","num_errors","age","subject","participantId","rune","rune_set","hex","correct","choice","accuracy","outcome","keys","total_keys","block","practice","value","sub","trial","stimulus","robot","valence","action","sham"
"pavlovia","0","71","0.0-0.0","battery-v0.2","","""event"",""trial"",""time""
""fullscreenenter"",""1"",""2500""
","
","
","""event"",""trial"",""time""
""fullscreenenter"",""1"",""2500""
","
","","","","","","","","","","","","","","","","","","","","","","","","","","",""
"fullscreen","1","3453","0.0-1.0","battery-v0.2","","""event"",""trial"",""time""
""fullscreenenter"",""1"",""2500""
","
","
","""event"",""trial"",""time""
""fullscreenenter"",""1"",""2500""
","
","true","","","","","","","","","","","","","","","","","","","","","","","","","",""
"pit-instructions","2","9564","0.0-2.0-0.0","battery-v0.2","","""event"",""trial"",""time""
""fullscreenenter"",""1"",""2500""
","
","
","""event"",""trial"",""time""
""fullscreenenter"",""1"",""2500""
","
","","[{""page_index"":0,""viewing_time"":6105.399999976158}]","6106","","","","","","","","","","","","","","","","","","","","","","","",""
"pit-comprehension","3","15101","0.0-2.0-1.0-0.0","battery-v0.2","","""event"",""trial"",""time""
""fullscreenenter"",""1"",""2500""
","
","
","""event"",""trial"",""time""
""fullscreenenter"",""1"",""2500""
","
","","","5533.799999952316","[""shark""]","0","25","3181","2189","","","","","","","","","","","","","","","","","","",""
"pit-instructions","4","18846","0.0-2.0-1.0-1.0","battery-v0.2","","""event"",""trial"",""time""
""fullscreenenter"",""1"",""2500""
","
","
","""event"",""trial"",""time""
""fullscreenenter"",""1"",""2500""
","
","","[{""page_index"":0,""viewing_time"":3735.0999999046326}]","3735.399999976158","","","","","","","","","","","","","","","","","","","","","","","",""
"pit-comprehension","5","22239","0.0-2.0-2.0-0.0","battery-v0.2","","""event"",""trial"",""time""
""fullscreenenter"",""1"",""2500""
","
","
","""event"",""trial"",""time""
""fullscreenenter"",""1"",""2500""
","
","","","3389.399999976158","[""tiger""]","0","25","3181","2189","","","","","","","","","","","","","","","","","","",""
"pit-instructions","6","23428","0.0-2.0-2.0-1.0","battery-v0.2","","""event"",""trial"",""time""
""fullscreenenter"",""1"",""2500""
","
","
","""event"",""trial"",""time""
""fullscreenenter"",""1"",""2500""
","
","","[{""page_index"":0,""viewing_time"":1186.5}]","1186.7000000476837","","","","","","","","","","","","","","","","","","","","","","","",""
"pit-instructions","7","131950","0.0-2.0-3.0","battery-v0.2","","""event"",""trial"",""time""
""fullscreenenter"",""1"",""2500""
","
","
","""event"",""trial"",""time""
""fullscreenenter"",""1"",""2500""
","
","","[{""page_index"":0,""viewing_time"":12268.399999976158},{""page_index"":1,""viewing_time"":8816.800000071526},{""page_index"":2,""viewing_time"":6559.199999928474},{""page_index"":3,""viewing_time"":6023.5},{""page_index"":4,""viewing_time"":5716.300000071526},{""page_index"":5,""viewing_time"":6041},{""page_index"":6,""viewing_time"":11308.899999976158},{""page_index"":7,""viewing_time"":10587.100000023842},{""page_index"":8,""viewing_time"":6570.5},{""page_index"":9,""viewing_time"":7975.799999952316},{""page_index"":10,""viewing_time"":8032.899999976158},{""page_index"":11,""viewing_time"":7049.200000047684},{""page_index"":12,""viewing_time"":6853.899999976158},{""page_index"":13,""viewing_time"":4712.5}]","108516.5","","","","","","","","","","","","","","","","","","","","","","","",""
"pit-trial","8","135624","0.0-2.0-4.0-0.0","battery-v0.2","","""event"",""trial"",""time""
""fullscreenenter"",""1"",""2500""
","
","
","""event"",""trial"",""time""
""fullscreenenter"",""1"",""2500""
","
","","","818.5","","","25","3181","2189","&#9784;","elianto","#FFFFF080"," "," ","1","&#10004","[1669.3999999761581]","1","0","0","","","","","","","",""
"pit-trial","9","139322","0.0-2.0-4.1-0.1","battery-v0.2","","""event"",""trial"",""time""
""fullscreenenter"",""1"",""2500""
","
","
","""event"",""trial"",""time""
""fullscreenenter"",""1"",""2500""
","
","","","841.5","","","25","3181","2189","&#9784;","elianto","#FFFFF080"," "," ","1","&#10004","[1691.8999999761581]","1","0","0","","","","","","","",""
"pit-trial","10","143089","0.0-2.0-4.2-0.2","battery-v0.2","","""event"",""trial"",""time""
""fullscreenenter"",""1"",""2500""
","
","
","""event"",""trial"",""time""
""fullscreenenter"",""1"",""2500""
","
","","","910.8000000715256","","","25","3181","2189","&#9784;","elianto","#FFFFF080"," "," ","1","&#10004","[1760.7999999523163]","1","0","0","","","","","","","",""
"pit-trial","11","146577","0.0-2.0-4.3-0.3","battery-v0.2","","""event"",""trial"",""time""
""fullscreenenter"",""1"",""2500""
","
","
","""event"",""trial"",""time""
""fullscreenenter"",""1"",""2500""
","
","","","628.3000000715256","","","25","3181","2189","&#9784;","elianto","#FFFFF080"," "," ","1","&#10004","[1482.2000000476837]","1","0","0","","","","","","","",""
"pit-trial","12","150258","0.0-2.0-4.4-0.4","battery-v0.2","","""event"",""trial"",""time""
""fullscreenenter"",""1"",""2500""
","
","
","""event"",""trial"",""time""
""fullscreenenter"",""1"",""2500""
","
","","","825.5","","","25","3181","2189","&#9784;","elianto","#FFFFF080"," "," ","1","&#10004","[1676.7000000476837]","1","0","0","","","","","","","",""
"pit-instructions","13","172616","0.0-2.0-5.0","battery-v0.2","","""event"",""trial"",""time""
""fullscreenenter"",""1"",""2500""
","
","
","""event"",""trial"",""time""
""fullscreenenter"",""1"",""2500""
","
","","[{""page_index"":0,""viewing_time"":4940.799999952316},{""page_index"":1,""viewing_time"":5474.100000023842},{""page_index"":2,""viewing_time"":5010.100000023842},{""page_index"":3,""viewing_time"":6930.099999904633}]","22355.399999976158","","","","","","","","","","","","","","","","","","","","","","","",""
"pit-trial","14","177473","0.0-2.0-6.0-0.0","battery-v0.2","","""event"",""trial"",""time""
""fullscreenenter"",""1"",""2500""
","
","
","""event"",""trial"",""time""
""fullscreenenter"",""1"",""2500""
","
","","","-1","","","25","3181","2189","&#9854;","elianto","#FFFFF080","-1","-1","1","&#10004","[]","0","0","1","","","","","","","",""
"pit-trial","15","182332","0.0-2.0-6.1-0.1","battery-v0.2","","""event"",""trial"",""time""
""fullscreenenter"",""1"",""2500""
","
","
","""event"",""trial"",""time""
""fullscreenenter"",""1"",""2500""
","
","","","-1","","","25","3181","2189","&#9854;","elianto","#FFFFF080","-1","-1","1","&#10004","[]","0","0","1","","","","","","","",""
"pit-trial","16","187191","0.0-2.0-6.2-0.2","battery-v0.2","","""event"",""trial"",""time""
""fullscreenenter"",""1"",""2500""
","
","
","""event"",""trial"",""time""
""fullscreenenter"",""1"",""2500""
","
","","","-1","","","25","3181","2189","&#9854;","elianto","#FFFFF080","-1","-1","1","&#10004","[]","0","0","1","","","","","","","",""
"pit-trial","17","192048","0.0-2.0-6.3-0.3","battery-v0.2","","""event"",""trial"",""time""
""fullscreenenter"",""1"",""2500""
","
","
","""event"",""trial"",""time""
""fullscreenenter"",""1"",""2500""
","
","","","-1","","","25","3181","2189","&#9854;","elianto","#FFFFF080","-1","-1","1","&#10004","[]","0","0","1","","","","","","","",""
"pit-trial","18","196903","0.0-2.0-6.4-0.4","battery-v0.2","","""event"",""trial"",""time""
""fullscreenenter"",""1"",""2500""
","
","
","""event"",""trial"",""time""
""fullscreenenter"",""1"",""2500""
","
","","","-1","","","25","3181","2189","&#9854;","elianto","#FFFFF080","-1","-1","1","&#10004","[]","0","0","1","","","","","","","",""
"pit-instructions","19","307674","0.0-2.0-7.0","battery-v0.2","","""event"",""trial"",""time""
""fullscreenenter"",""1"",""2500""
","
","
","""event"",""trial"",""time""
""fullscreenenter"",""1"",""2500""
","
","","[{""page_index"":0,""viewing_time"":5739.599999904633},{""page_index"":1,""viewing_time"":6776.700000047684},{""page_index"":2,""viewing_time"":5661.399999976158},{""page_index"":3,""viewing_time"":7126.899999976158},{""page_index"":4,""viewing_time"":5124},{""page_index"":5,""viewing_time"":5205},{""page_index"":6,""viewing_time"":4996.300000071526},{""page_index"":7,""viewing_time"":7844.199999928474},{""page_index"":8,""viewing_time"":6940},{""page_index"":9,""viewing_time"":5960.400000095367},{""page_index"":10,""viewing_time"":6136.799999952316},{""page_index"":11,""viewing_time"":4125.799999952316},{""page_index"":12,""viewing_time"":6447.600000023842},{""page_index"":13,""viewing_time"":6715.300000071526},{""page_index"":14,""viewing_time"":6756.5},{""page_index"":15,""viewing_time"":6088.899999976158},{""page_index"":16,""viewing_time"":6210.199999928474},{""page_index"":17,""viewing_time"":6909.800000071526}]","110765.59999990463","","","","","","","","","","","","","","","","","","","","","","","",""
"pit-trial","20","311079","0.0-2.0-8.0-0.0","battery-v0.2","","""event"",""trial"",""time""
""fullscreenenter"",""1"",""2500""
","
","
","""event"",""trial"",""time""
""fullscreenenter"",""1"",""2500""
","
","","","549.2000000476837","","","25","3181","2189","&#9776;","elianto","#3366ff99"," "," ","1","+10","[1399.6000000238419]","1","0","1","","","","","","","",""
"pit-trial","21","314423","0.0-2.0-8.0-1.0","battery-v0.2","","""event"",""trial"",""time""
""fullscreenenter"",""1"",""2500""
","
","
","""event"",""trial"",""time""
""fullscreenenter"",""1"",""2500""
","
","","","490.10000002384186","","","25","3181","2189","&#9776;","elianto","#3366ff99"," "," ","1","+10","[1340.3999999761581]","1","0","1","","","","","","","",""
"pit-trial","22","317743","0.0-2.0-8.0-2.0","battery-v0.2","","""event"",""trial"",""time""
""fullscreenenter"",""1"",""2500""
","
","
","""event"",""trial"",""time""
""fullscreenenter"",""1"",""2500""
","
","","","466.2999999523163","","","25","3181","2189","&#9776;","elianto","#3366ff99"," "," ","1","+10","[1316.3999999761581]","1","0","1","","","","","","","",""
"pit-trial","23","321075","0.0-2.0-8.0-3.0","battery-v0.2","","""event"",""trial"",""time""
""fullscreenenter"",""1"",""2500""
","
","
","""event"",""trial"",""time""
""fullscreenenter"",""1"",""2500""
","
","","","474.89999997615814","","","25","3181","2189","&#9776;","elianto","#3366ff99"," "," ","1","0","[1325.7999999523163]","1","0","1","","","","","","","",""
"pit-trial","24","324379","0.0-2.0-8.0-4.0","battery-v0.2","","""event"",""trial"",""time""
""fullscreenenter"",""1"",""2500""
","
","
","""event"",""trial"",""time""
""fullscreenenter"",""1"",""2500""
","
","","","448.89999997615814","","","25","3181","2189","&#9776;","elianto","#3366ff99"," "," ","1","+10","[1300.0999999046326]","1","0","1","","","","","","","",""
"call-function","25","324380","0.0-2.0-9.0","battery-v0.2","","""event"",""trial"",""time""
""fullscreenenter"",""1"",""2500""
","
","
","""event"",""trial"",""time""
""fullscreenenter"",""1"",""2500""
","
","","","","","","","","","","","","","","","","","","","","","","","","","","",""
"pit-instructions","26","363292","0.0-2.0-10.0","battery-v0.2","","""event"",""trial"",""time""
""fullscreenenter"",""1"",""2500""
","
","
","""event"",""trial"",""time""
""fullscreenenter"",""1"",""2500""
","
","","[{""page_index"":0,""viewing_time"":6378.899999976158},{""page_index"":1,""viewing_time"":6886.299999952316},{""page_index"":2,""viewing_time"":9434},{""page_index"":3,""viewing_time"":8644.399999976158},{""page_index"":4,""viewing_time"":7566.300000071526}]","38910.199999928474","","","","","","","","","","","","","","","","","","","","","","","",""
"pit-trial","27","368147","0.0-2.0-11.0-0.0","battery-v0.2","","""event"",""trial"",""time""
""fullscreenenter"",""1"",""2500""
","
","
","""event"",""trial"",""time""
""fullscreenenter"",""1"",""2500""
","
","","","-1","","","25","3181","2189","&#9761;","elianto","#3366ff99","-1","-1","1","+10","[]","0","0","2","","","","","","","",""
"pit-trial","28","373003","0.0-2.0-11.0-1.0","battery-v0.2","","""event"",""trial"",""time""
""fullscreenenter"",""1"",""2500""
","
","
","""event"",""trial"",""time""
""fullscreenenter"",""1"",""2500""
","
","","","-1","","","25","3181","2189","&#9761;","elianto","#3366ff99","-1","-1","1","+10","[]","0","0","2","","","","","","","",""
"pit-trial","29","377861","0.0-2.0-11.0-2.0","battery-v0.2","","""event"",""trial"",""time""
""fullscreenenter"",""1"",""2500""
","
","
","""event"",""trial"",""time""
""fullscreenenter"",""1"",""2500""
","
","","","-1","","","25","3181","2189","&#9761;","elianto","#3366ff99","-1","-1","1","+10","[]","0","0","2","","","","","","","",""
"pit-trial","30","382720","0.0-2.0-11.0-3.0","battery-v0.2","","""event"",""trial"",""time""
""fullscreenenter"",""1"",""2500""
","
","
","""event"",""trial"",""time""
""fullscreenenter"",""1"",""2500""
","
","","","-1","","","25","3181","2189","&#9761;","elianto","#3366ff99","-1","-1","1","0","[]","0","0","2","","","","","","","",""
"pit-trial","31","387580","0.0-2.0-11.0-4.0","battery-v0.2","","""event"",""trial"",""time""
""fullscreenenter"",""1"",""2500""
","
","
","""event"",""trial"",""time""
""fullscreenenter"",""1"",""2500""
","
","","","-1","","","25","3181","2189","&#9761;","elianto","#3366ff99","-1","-1","1","+10","[]","0","0","2","","","","","","","",""
"call-function","32","387581","0.0-2.0-12.0","battery-v0.2","","""event"",""trial"",""time""
""fullscreenenter"",""1"",""2500""
","
","
","""event"",""trial"",""time""
""fullscreenenter"",""1"",""2500""
","
","","","","","","","","","","","","","","","","","","","","","","","","","","",""
"pit-instructions","33","418913","0.0-2.0-13.0","battery-v0.2","","""event"",""trial"",""time""
""fullscreenenter"",""1"",""2500""
","
","
","""event"",""trial"",""time""
""fullscreenenter"",""1"",""2500""
","
","","[{""page_index"":0,""viewing_time"":4993.099999904633},{""page_index"":1,""viewing_time"":7352},{""page_index"":2,""viewing_time"":3399.9000000953674},{""page_index"":3,""viewing_time"":10805.299999952316},{""page_index"":4,""viewing_time"":4780.700000047684}]","31331.299999952316","","","","","","","","","","","","","","","","","","","","","","","",""
"pit-trial","34","422651","0.0-2.0-14.0-0.0","battery-v0.2","","""event"",""trial"",""time""
""fullscreenenter"",""1"",""2500""
","
","
","""event"",""trial"",""time""
""fullscreenenter"",""1"",""2500""
","
","","","885.2000000476837","","","25","3181","2189","&#9826;","elianto","#f73b6a7A","-1"," ","0","-10","[1735.6000000238419]","1","0","3","","","","","","","",""
"pit-trial","35","427506","0.0-2.0-14.0-1.0","battery-v0.2","","""event"",""trial"",""time""
""fullscreenenter"",""1"",""2500""
","
","
","""event"",""trial"",""time""
""fullscreenenter"",""1"",""2500""
","
","","","-1","","","25","3181","2189","&#9826;","elianto","#f73b6a7A","-1","-1","1","0","[]","0","0","3","","","","","","","",""
"pit-trial","36","432360","0.0-2.0-14.0-2.0","battery-v0.2","","""event"",""trial"",""time""
""fullscreenenter"",""1"",""2500""
","
","
","""event"",""trial"",""time""
""fullscreenenter"",""1"",""2500""
","
","","","-1","","","25","3181","2189","&#9826;","elianto","#f73b6a7A","-1","-1","1","0","[]","0","0","3","","","","","","","",""
"pit-trial","37","437214","0.0-2.0-14.0-3.0","battery-v0.2","","""event"",""trial"",""time""
""fullscreenenter"",""1"",""2500""
","
","
","""event"",""trial"",""time""
""fullscreenenter"",""1"",""2500""
","
","","","-1","","","25","3181","2189","&#9826;","elianto","#f73b6a7A","-1","-1","1","-10","[]","0","0","3","","","","","","","",""
"pit-trial","38","442072","0.0-2.0-14.0-4.0","battery-v0.2","","""event"",""trial"",""time""
""fullscreenenter"",""1"",""2500""
","
","
","""event"",""trial"",""time""
""fullscreenenter"",""1"",""2500""
","
","","","-1","","","25","3181","2189","&#9826;","elianto","#f73b6a7A","-1","-1","1","0","[]","0","0","3","","","","","","","",""
"call-function","39","442074","0.0-2.0-15.0","battery-v0.2","","""event"",""trial"",""time""
""fullscreenenter"",""1"",""2500""
","
","
","""event"",""trial"",""time""
""fullscreenenter"",""1"",""2500""
","
","","","","","","","","","","","","","","","","","","","","","","","","","","",""
"pit-instructions","40","468818","0.0-2.0-16.0","battery-v0.2","","""event"",""trial"",""time""
""fullscreenenter"",""1"",""2500""
","
","
","""event"",""trial"",""time""
""fullscreenenter"",""1"",""2500""
","
","","[{""page_index"":0,""viewing_time"":6612.799999952316},{""page_index"":1,""viewing_time"":9358.600000023842},{""page_index"":2,""viewing_time"":6136.5},{""page_index"":3,""viewing_time"":4634.899999976158}]","26743.100000023842","","","","","","","","","","","","","","","","","","","","","","","",""
"pit-trial","41","472196","0.0-2.0-17.0-0.0","battery-v0.2","","""event"",""trial"",""time""
""fullscreenenter"",""1"",""2500""
","
","
","""event"",""trial"",""time""
""fullscreenenter"",""1"",""2500""
","
","","","520.8999999761581","","","25","3181","2189","&#9789;","elianto","#f73b6a7A"," "," ","1","0","[1372.7999999523163]","1","0","4","","","","","","","",""
"pit-trial","42","475551","0.0-2.0-17.0-1.0","battery-v0.2","","""event"",""trial"",""time""
""fullscreenenter"",""1"",""2500""
","
","
","""event"",""trial"",""time""
""fullscreenenter"",""1"",""2500""
","
","","","498.60000002384186","","","25","3181","2189","&#9789;","elianto","#f73b6a7A"," "," ","1","0","[1349.3999999761581]","1","0","4","","","","","","","",""
"pit-trial","43","478939","0.0-2.0-17.0-2.0","battery-v0.2","","""event"",""trial"",""time""
""fullscreenenter"",""1"",""2500""
","
","
","""event"",""trial"",""time""
""fullscreenenter"",""1"",""2500""
","
","","","532.6000000238419","","","25","3181","2189","&#9789;","elianto","#f73b6a7A"," "," ","1","0","[1383.7999999523163]","1","0","4","","","","","","","",""
"pit-trial","44","482384","0.0-2.0-17.0-3.0","battery-v0.2","","""event"",""trial"",""time""
""fullscreenenter"",""1"",""2500""
","
","
","""event"",""trial"",""time""
""fullscreenenter"",""1"",""2500""
","
","","","589.2000000476837","","","25","3181","2189","&#9789;","elianto","#f73b6a7A"," "," ","1","-10","[1440.3999999761581]","1","0","4","","","","","","","",""
"pit-trial","45","485814","0.0-2.0-17.0-4.0","battery-v0.2","","""event"",""trial"",""time""
""fullscreenenter"",""1"",""2500""
","
","
","""event"",""trial"",""time""
""fullscreenenter"",""1"",""2500""
","
","","","574.2000000476837","","","25","3181","2189","&#9789;","elianto","#f73b6a7A"," "," ","1","0","[1425.2999999523163]","1","0","4","","","","","","","",""
"call-function","46","485816","0.0-2.0-18.0","battery-v0.2","","""event"",""trial"",""time""
""fullscreenenter"",""1"",""2500""
","
","
","""event"",""trial"",""time""
""fullscreenenter"",""1"",""2500""
","
","","","","","","","","","","","","","","","","","","","","","","","","","","",""
"pit-instructions","47","553393","0.0-2.0-19.0","battery-v0.2","","""event"",""trial"",""time""
""fullscreenenter"",""1"",""2500""
","
","
","""event"",""trial"",""time""
""fullscreenenter"",""1"",""2500""
","
","","[{""page_index"":0,""viewing_time"":6601.100000023842},{""page_index"":1,""viewing_time"":5873.699999928474},{""page_index"":2,""viewing_time"":13023.399999976158},{""page_index"":3,""viewing_time"":7175.5},{""page_index"":4,""viewing_time"":7958.400000095367},{""page_index"":5,""viewing_time"":8378.299999952316},{""page_index"":6,""viewing_time"":8924.399999976158},{""page_index"":7,""viewing_time"":5889.700000047684},{""page_index"":8,""viewing_time"":3750.600000023842}]","67575.39999997616","","","","","","","","","","","","","","","","","","","","","","","",""
"pit-comprehension","48","557943","0.0-2.0-20.0-0.0","battery-v0.2","","""event"",""trial"",""time""
""fullscreenenter"",""1"",""2500""
","
","
","""event"",""trial"",""time""
""fullscreenenter"",""1"",""2500""
","
","","","4546.5","[""SPACE""]","0","25","3181","2189","","","","","","","","","","","","","","","","","","",""
"pit-instructions","49","561169","0.0-2.0-20.0-1.0","battery-v0.2","","""event"",""trial"",""time""
""fullscreenenter"",""1"",""2500""
","
","
","""event"",""trial"",""time""
""fullscreenenter"",""1"",""2500""
","
","","[{""page_index"":0,""viewing_time"":3209}]","3209.4000000953674","","","","","","","","","","","","","","","","","","","","","","","",""
"pit-comprehension","50","566979","0.0-2.0-21.0-0.0","battery-v0.2","","""event"",""trial"",""time""
""fullscreenenter"",""1"",""2500""
","
","
","""event"",""trial"",""time""
""fullscreenenter"",""1"",""2500""
","
","","","5806.899999976158","[""10""]","0","25","3181","2189","","","","","","","","","","","","","","","","","","",""
"pit-instructions","51","568932","0.0-2.0-21.0-1.0","battery-v0.2","","""event"",""trial"",""time""
""fullscreenenter"",""1"",""2500""
","
","
","""event"",""trial"",""time""
""fullscreenenter"",""1"",""2500""
","
","","[{""page_index"":0,""viewing_time"":1935.7999999523163}]","1936.1000000238419","","","","","","","","","","","","","","","","","","","","","","","",""
"pit-comprehension","52","575513","0.0-2.0-22.0-0.0","battery-v0.2","","""event"",""trial"",""time""
""fullscreenenter"",""1"",""2500""
","
","
","""event"",""trial"",""time""
""fullscreenenter"",""1"",""2500""
","
","","","6575.5","[""0""]","0","25","3181","2189","","","","","","","","","","","","","","","","","","",""
"pit-instructions","53","578485","0.0-2.0-22.0-1.0","battery-v0.2","","""event"",""trial"",""time""
""fullscreenenter"",""1"",""2500""
","
","
","""event"",""trial"",""time""
""fullscreenenter"",""1"",""2500""
","
","","[{""page_index"":0,""viewing_time"":2952.899999976158}]","2953.2000000476837","","","","","","","","","","","","","","","","","","","","","","","",""
"pit-comprehension","54","586972","0.0-2.0-23.0-0.0","battery-v0.2","","""event"",""trial"",""time""
""fullscreenenter"",""1"",""2500""
","
","
","""event"",""trial"",""time""
""fullscreenenter"",""1"",""2500""
","
","","","8479.600000023842","[""True""]","0","25","3181","2189","","","","","","","","","","","","","","","","","","",""
"pit-instructions","55","588858","0.0-2.0-23.0-1.0","battery-v0.2","","""event"",""trial"",""time""
""fullscreenenter"",""1"",""2500""
","
","
","""event"",""trial"",""time""
""fullscreenenter"",""1"",""2500""
","
","","[{""page_index"":0,""viewing_time"":1868.2999999523163}]","1868.5999999046326","","","","","","","","","","","","","","","","","","","","","","","",""
"pit-comprehension","56","597288","0.0-2.0-24.0-0.0","battery-v0.2","","""event"",""trial"",""time""
""fullscreenenter"",""1"",""2500""
","
","
","""event"",""trial"",""time""
""fullscreenenter"",""1"",""2500""
","
","","","8424.5","[""True""]","0","25","3181","2189","","","","","","","","","","","","","","","","","","",""
"pit-instructions","57","599541","0.0-2.0-24.0-1.0","battery-v0.2","","""event"",""trial"",""time""
""fullscreenenter"",""1"",""2500""
","
","
","""event"",""trial"",""time""
""fullscreenenter"",""1"",""2500""
","
","","[{""page_index"":0,""viewing_time"":2234.399999976158}]","2234.7999999523163","","","","","","","","","","","","","","","","","","","","","","","",""
"pit-comprehension","58","605969","0.0-2.0-25.0-0.0","battery-v0.2","","""event"",""trial"",""time""
""fullscreenenter"",""1"",""2500""
","
","
","""event"",""trial"",""time""
""fullscreenenter"",""1"",""2500""
","
","","","6424.5","[""True""]","0","25","3181","2189","","","","","","","","","","","","","","","","","","",""
"pit-instructions","59","607802","0.0-2.0-25.0-1.0","battery-v0.2","","""event"",""trial"",""time""
""fullscreenenter"",""1"",""2500""
","
","
","""event"",""trial"",""time""
""fullscreenenter"",""1"",""2500""
","
","","[{""page_index"":0,""viewing_time"":1814.7999999523163}]","1815","","","","","","","","","","","","","","","","","","","","","","","",""
"pit-comprehension","60","612653","0.0-2.0-26.0-0.0","battery-v0.2","","""event"",""trial"",""time""
""fullscreenenter"",""1"",""2500""
","
","
","""event"",""trial"",""time""
""fullscreenenter"",""1"",""2500""
","
","","","4847.200000047684","[""False""]","0","25","3181","2189","","","","","","","","","","","","","","","","","","",""
"pit-instructions","61","614811","0.0-2.0-26.0-1.0","battery-v0.2","","""event"",""trial"",""time""
""fullscreenenter"",""1"",""2500""
","
","
","""event"",""trial"",""time""
""fullscreenenter"",""1"",""2500""
","
","","[{""page_index"":0,""viewing_time"":2140.7999999523163}]","2141","","","","","","","","","","","","","","","","","","","","","","","",""
"pit-instructions","62","632215","0.0-3.0","battery-v0.2","","""event"",""trial"",""time""
""fullscreenenter"",""1"",""2500""
","
","
","""event"",""trial"",""time""
""fullscreenenter"",""1"",""2500""
","
","","[{""page_index"":0,""viewing_time"":4761.300000071526},{""page_index"":1,""viewing_time"":5278.299999952316},{""page_index"":2,""viewing_time"":7361.700000047684}]","17401.600000023842","","","","","","","","","","","","","","","","","","","","","","","",""
"pit-trial","63","635600","0.0-4.0","battery-v0.2","","""event"",""trial"",""time""
""fullscreenenter"",""1"",""2500""
","
","
","""event"",""trial"",""time""
""fullscreenenter"",""1"",""2500""
","
","","","528.2000000476837","","","25","3181","2189","&#9733;","elianto","#3366ff99","-1"," ","0","+10","[1378.8000000715256]","1","1","","","3181","1","2","2","win","no-go","1"
"pit-trial","64","639362","0.0-5.0","battery-v0.2","","""event"",""trial"",""time""
""fullscreenenter"",""1"",""2500""
","
","
","""event"",""trial"",""time""
""fullscreenenter"",""1"",""2500""
","
","","","906.8999999761581","","","25","3181","2189","&#9752;","elianto","#f73b6a7A"," "," ","1","0","[1758.8999999761581]","1","1","","","3181","2","3","3","lose","go","0"
"pit-trial","65","643193","0.0-6.0","battery-v0.2","","""event"",""trial"",""time""
""fullscreenenter"",""1"",""2500""
","
","
","""event"",""trial"",""time""
""fullscreenenter"",""1"",""2500""
","
","","","977.4000000953674","","","25","3181","2189","&#9730;","elianto","#3366ff99"," "," ","1","+10","[1829.3000000715256]","1","1","","","3181","3","1","1","win","go","0"
"pit-trial","66","646720","0.0-7.0","battery-v0.2","","""event"",""trial"",""time""
""fullscreenenter"",""1"",""2500""
","
","
","""event"",""trial"",""time""
""fullscreenenter"",""1"",""2500""
","
","","","669.8000000715256","","","25","3181","2189","&#9728;","elianto","#f73b6a7A","-1"," ","0","-10","[1520.3000000715256]","1","1","","","3181","4","0","4","lose","no-go","0"
"pit-trial","67","650498","0.0-8.0","battery-v0.2","","""event"",""trial"",""time""
""fullscreenenter"",""1"",""2500""
","
","
","""event"",""trial"",""time""
""fullscreenenter"",""1"",""2500""
","
","","","920.1000000238419","","","25","3181","2189","&#9752;","elianto","#f73b6a7A"," "," ","1","0","[1771.5]","1","1","","","3181","5","3","3","lose","go","0"
"pit-trial","68","654322","0.0-9.0","battery-v0.2","","""event"",""trial"",""time""
""fullscreenenter"",""1"",""2500""
","
","
","""event"",""trial"",""time""
""fullscreenenter"",""1"",""2500""
","
","","","965.5","","","25","3181","2189","&#9730;","elianto","#3366ff99"," "," ","1","+10","[1817]","1","1","","","3181","6","1","1","win","go","0"
"pit-trial","69","657944","0.0-10.0","battery-v0.2","","""event"",""trial"",""time""
""fullscreenenter"",""1"",""2500""
","
","
","""event"",""trial"",""time""
""fullscreenenter"",""1"",""2500""
","
","","","768.6000000238419","","","25","3181","2189","&#9733;","elianto","#3366ff99","-1"," ","0","0","[1619.6000000238419]","1","1","","","3181","7","2","2","win","no-go","0"
"pit-trial","70","662804","0.0-11.0","battery-v0.2","","""event"",""trial"",""time""
""fullscreenenter"",""1"",""2500""
","
","
","""event"",""trial"",""time""
""fullscreenenter"",""1"",""2500""
","
","","","-1","","","25","3181","2189","&#9728;","elianto","#f73b6a7A","-1","-1","1","0","[]","0","1","","","3181","8","0","4","lose","no-go","0"
"pit-trial","71","666455","0.0-12.0","battery-v0.2","","""event"",""trial"",""time""
""fullscreenenter"",""1"",""2500""
","
","
","""event"",""trial"",""time""
""fullscreenenter"",""1"",""2500""
","
","","","793.5","","","25","3181","2189","&#9730;","elianto","#3366ff99"," "," ","1","+10","[1644.3999999761581]","1","1","","","3181","9","1","1","win","go","0"
"pit-trial","72","670171","0.0-13.0","battery-v0.2","","""event"",""trial"",""time""
""fullscreenenter"",""1"",""2500""
","
","
","""event"",""trial"",""time""
""fullscreenenter"",""1"",""2500""
","
","","","859","","","25","3181","2189","&#9752;","elianto","#f73b6a7A"," "," ","1","0","[1710.6000000238419]","1","1","","","3181","10","3","3","lose","go","0"
"pit-trial","73","675030","0.0-14.0","battery-v0.2","","""event"",""trial"",""time""
""fullscreenenter"",""1"",""2500""
","
","
","""event"",""trial"",""time""
""fullscreenenter"",""1"",""2500""
","
","","","-1","","","25","3181","2189","&#9728;","elianto","#f73b6a7A","-1","-1","1","-10","[]","0","1","","","3181","11","0","4","lose","no-go","1"
"pit-trial","74","678716","0.0-15.0","battery-v0.2","","""event"",""trial"",""time""
""fullscreenenter"",""1"",""2500""
","
","
","""event"",""trial"",""time""
""fullscreenenter"",""1"",""2500""
","
","","","829.1999999284744","","","25","3181","2189","&#9733;","elianto","#3366ff99","-1"," ","0","0","[1679.4000000953674]","1","1","","","3181","12","2","2","win","no-go","0"
"pit-trial","75","683575","0.0-16.0","battery-v0.2","","""event"",""trial"",""time""
""fullscreenenter"",""1"",""2500""
","
","
","""event"",""trial"",""time""
""fullscreenenter"",""1"",""2500""
","
","","","-1","","","25","3181","2189","&#9728;","elianto","#f73b6a7A","-1","-1","1","0","[]","0","1","","","3181","13","0","4","lose","no-go","0"
"pit-trial","76","688434","0.0-17.0","battery-v0.2","","""event"",""trial"",""time""
""fullscreenenter"",""1"",""2500""
","
","
","""event"",""trial"",""time""
""fullscreenenter"",""1"",""2500""
","
","","","-1","","","25","3181","2189","&#9733;","elianto","#3366ff99","-1","-1","1","+10","[]","0","1","","","3181","14","2","2","win","no-go","0"
"pit-trial","77","691912","0.0-18.0","battery-v0.2","","""event"",""trial"",""time""
""fullscreenenter"",""1"",""2500""
","
","
","""event"",""trial"",""time""
""fullscreenenter"",""1"",""2500""
","
","","","619.6999999284744","","","25","3181","2189","&#9730;","elianto","#3366ff99"," "," ","1","+10","[1470.1999999284744]","1","1","","","3181","15","1","1","win","go","0"
"pit-trial","78","695604","0.0-19.0","battery-v0.2","","""event"",""trial"",""time""
""fullscreenenter"",""1"",""2500""
","
","
","""event"",""trial"",""time""
""fullscreenenter"",""1"",""2500""
","
","","","837","","","25","3181","2189","&#9752;","elianto","#f73b6a7A"," "," ","1","0","[1687.6000000238419]","1","1","","","3181","16","3","3","lose","go","0"
"pit-trial","79","700462","0.0-20.0","battery-v0.2","","""event"",""trial"",""time""
""fullscreenenter"",""1"",""2500""
","
","
","""event"",""trial"",""time""
""fullscreenenter"",""1"",""2500""
","
","","","-1","","","25","3181","2189","&#9728;","elianto","#f73b6a7A","-1","-1","1","-10","[]","0","1","","","3181","17","0","4","lose","no-go","1"
"pit-trial","80","704375","0.0-21.0","battery-v0.2","","""event"",""trial"",""time""
""fullscreenenter"",""1"",""2500""
","
","
","""event"",""trial"",""time""
""fullscreenenter"",""1"",""2500""
","
","","","1053.6000000238419","","","25","3181","2189","&#9752;","elianto","#f73b6a7A"," "," ","1","0","[1909]","1","1","","","3181","18","3","3","lose","go","0"
"pit-trial","81","707974","0.0-22.0","battery-v0.2","","""event"",""trial"",""time""
""fullscreenenter"",""1"",""2500""
","
","
","""event"",""trial"",""time""
""fullscreenenter"",""1"",""2500""
","
","","","742.2999999523163","","","25","3181","2189","&#9730;","elianto","#3366ff99"," "," ","1","+10","[1593]","1","1","","","3181","19","1","1","win","go","0"
"pit-trial","82","712833","0.0-23.0","battery-v0.2","","""event"",""trial"",""time""
""fullscreenenter"",""1"",""2500""
","
","
","""event"",""trial"",""time""
""fullscreenenter"",""1"",""2500""
","
","","","-1","","","25","3181","2189","&#9733;","elianto","#3366ff99","-1","-1","1","+10","[]","0","1","","","3181","20","2","2","win","no-go","0"
"pit-instructions","83","725294","0.0-24.0","battery-v0.2","","""event"",""trial"",""time""
""fullscreenenter"",""1"",""2500""
","
","
","""event"",""trial"",""time""
""fullscreenenter"",""1"",""2500""
","
","","[{""page_index"":0,""viewing_time"":5735.800000071526},{""page_index"":1,""viewing_time"":6723}]","12459","","","","","","","","","","","","","","","","","","","","","","","",""
"pit-trial","84","728926","0.0-25.0","battery-v0.2","","""event"",""trial"",""time""
""fullscreenenter"",""1"",""2500""
","
","
","""event"",""trial"",""time""
""fullscreenenter"",""1"",""2500""
","
","","","778.7999999523163","","","25","3181","2189","m","elianto","#f73b6a7A","-1"," ","0","0","[1629]","1","2","","","3181","21","0","4","lose","no-go","1"
"pit-trial","85","733106","0.0-26.0","battery-v0.2","","""event"",""trial"",""time""
""fullscreenenter"",""1"",""2500""
","
","
","""event"",""trial"",""time""
""fullscreenenter"",""1"",""2500""
","
","","","1327.0999999046326","","","25","3181","2189","h","elianto","#f73b6a7A"," "," ","1","0","[2178.1999999284744]","1","2","","","3181","22","3","3","lose","go","0"
"pit-trial","86","737269","0.0-27.0","battery-v0.2","","""event"",""trial"",""time""
""fullscreenenter"",""1"",""2500""
","
","
","""event"",""trial"",""time""
""fullscreenenter"",""1"",""2500""
","
","","","1306.2000000476837","","","25","3181","2189","y","elianto","#f73b6a7A","-1"," ","0","0","[2157]","1","2","","","3181","23","2","4","lose","no-go","1"
"pit-trial","87","741053","0.0-28.0","battery-v0.2","","""event"",""trial"",""time""
""fullscreenenter"",""1"",""2500""
","
","
","""event"",""trial"",""time""
""fullscreenenter"",""1"",""2500""
","
","","","927.1000000238419","","","25","3181","2189","r","elianto","#3366ff99"," "," ","1","+10","[1778.6999999284744]","1","2","","","3181","24","1","1","win","go","0"
"pit-trial","88","744653","0.0-29.0","battery-v0.2","","""event"",""trial"",""time""
""fullscreenenter"",""1"",""2500""
","
","
","""event"",""trial"",""time""
""fullscreenenter"",""1"",""2500""
","
","","","745","","","25","3181","2189","r","elianto","#3366ff99"," "," ","1","+10","[1595.8999999761581]","1","2","","","3181","25","1","1","win","go","0"
"pit-trial","89","748323","0.0-30.0","battery-v0.2","","""event"",""trial"",""time""
""fullscreenenter"",""1"",""2500""
","
","
","""event"",""trial"",""time""
""fullscreenenter"",""1"",""2500""
","
","","","817.0999999046326","","","25","3181","2189","h","elianto","#f73b6a7A"," "," ","1","0","[1667.3999999761581]","1","2","","","3181","26","3","3","lose","go","0"
"pit-trial","90","752031","0.0-31.0","battery-v0.2","","""event"",""trial"",""time""
""fullscreenenter"",""1"",""2500""
","
","
","""event"",""trial"",""time""
""fullscreenenter"",""1"",""2500""
","
","","","853.1000000238419","","","25","3181","2189","y","elianto","#f73b6a7A","-1"," ","0","-10","[1703.5]","1","2","","","3181","27","2","4","lose","no-go","0"
"pit-trial","91","755713","0.0-32.0","battery-v0.2","","""event"",""trial"",""time""
""fullscreenenter"",""1"",""2500""
","
","
","""event"",""trial"",""time""
""fullscreenenter"",""1"",""2500""
","
","","","819.2999999523163","","","25","3181","2189","m","elianto","#f73b6a7A","-1"," ","0","0","[1674.5999999046326]","1","2","","","3181","28","0","4","lose","no-go","1"
"pit-trial","92","759416","0.0-33.0","battery-v0.2","","""event"",""trial"",""time""
""fullscreenenter"",""1"",""2500""
","
","
","""event"",""trial"",""time""
""fullscreenenter"",""1"",""2500""
","
","","","847.1000000238419","","","25","3181","2189","r","elianto","#3366ff99"," "," ","1","0","[1698.2000000476837]","1","2","","","3181","29","1","1","win","go","1"
"pit-trial","93","763491","0.0-34.0","battery-v0.2","","""event"",""trial"",""time""
""fullscreenenter"",""1"",""2500""
","
","
","""event"",""trial"",""time""
""fullscreenenter"",""1"",""2500""
","
","","","1215.3000000715256","","","25","3181","2189","m","elianto","#f73b6a7A","-1"," ","0","-10","[2067.3000000715256]","1","2","","","3181","30","0","4","lose","no-go","0"
"pit-trial","94","768351","0.0-35.0","battery-v0.2","","""event"",""trial"",""time""
""fullscreenenter"",""1"",""2500""
","
","
","""event"",""trial"",""time""
""fullscreenenter"",""1"",""2500""
","
","","","-1","","","25","3181","2189","y","elianto","#f73b6a7A","-1","-1","1","0","[]","0","2","","","3181","31","2","4","lose","no-go","0"
"pit-trial","95","772420","0.0-36.0","battery-v0.2","","""event"",""trial"",""time""
""fullscreenenter"",""1"",""2500""
","
","
","""event"",""trial"",""time""
""fullscreenenter"",""1"",""2500""
","
","","","1211.6000000238419","","","25","3181","2189","h","elianto","#f73b6a7A"," "," ","1","-10","[2062.5]","1","2","","","3181","32","3","3","lose","go","1"
"pit-trial","96","776095","0.0-37.0","battery-v0.2","","""event"",""trial"",""time""
""fullscreenenter"",""1"",""2500""
","
","
","""event"",""trial"",""time""
""fullscreenenter"",""1"",""2500""
","
","","","815.7999999523163","","","25","3181","2189","r","elianto","#3366ff99"," "," ","1","+10","[1666.8999999761581]","1","2","","","3181","33","1","1","win","go","0"
"pit-trial","97","780953","0.0-38.0","battery-v0.2","","""event"",""trial"",""time""
""fullscreenenter"",""1"",""2500""
","
","
","""event"",""trial"",""time""
""fullscreenenter"",""1"",""2500""
","
","","","-1","","","25","3181","2189","h","elianto","#f73b6a7A"," ","-1","0","-10","[]","0","2","","","3181","34","3","3","lose","go","0"
"pit-trial","98","785812","0.0-39.0","battery-v0.2","","""event"",""trial"",""time""
""fullscreenenter"",""1"",""2500""
","
","
","""event"",""trial"",""time""
""fullscreenenter"",""1"",""2500""
","
","","","-1","","","25","3181","2189","y","elianto","#f73b6a7A","-1","-1","1","0","[]","0","2","","","3181","35","2","4","lose","no-go","0"
"pit-trial","99","789806","0.0-40.0","battery-v0.2","","""event"",""trial"",""time""
""fullscreenenter"",""1"",""2500""
","
","
","""event"",""trial"",""time""
""fullscreenenter"",""1"",""2500""
","
","","","1133.8000000715256","","","25","3181","2189","m","elianto","#f73b6a7A","-1"," ","0","-10","[1987.4000000953674]","1","2","","","3181","36","0","4","lose","no-go","0"
"pit-trial","100","794665","0.0-41.0","battery-v0.2","","""event"",""trial"",""time""
""fullscreenenter"",""1"",""2500""
","
","
","""event"",""trial"",""time""
""fullscreenenter"",""1"",""2500""
","
","","","-1","","","25","3181","2189","h","elianto","#f73b6a7A"," ","-1","0","-10","[]","0","2","","","3181","37","3","3","lose","go","0"
"pit-trial","101","798328","0.0-42.0","battery-v0.2","","""event"",""trial"",""time""
""fullscreenenter"",""1"",""2500""
","
","
","""event"",""trial"",""time""
""fullscreenenter"",""1"",""2500""
","
","","","806.1000000238419","","","25","3181","2189","r","elianto","#3366ff99"," "," ","1","+10","[1657.5]","1","2","","","3181","38","1","1","win","go","0"
"pit-trial","102","803187","0.0-43.0","battery-v0.2","","""event"",""trial"",""time""
""fullscreenenter"",""1"",""2500""
","
","
","""event"",""trial"",""time""
""fullscreenenter"",""1"",""2500""
","
","","","-1","","","25","3181","2189","y","elianto","#f73b6a7A","-1","-1","1","0","[]","0","2","","","3181","39","2","4","lose","no-go","0"
"pit-trial","103","807175","0.0-44.0","battery-v0.2","","""event"",""trial"",""time""
""fullscreenenter"",""1"",""2500""
","
","
","""event"",""trial"",""time""
""fullscreenenter"",""1"",""2500""
","
","","","1133.5","","","25","3181","2189","m","elianto","#f73b6a7A","-1"," ","0","-10","[1984]","1","2","","","3181","40","0","4","lose","no-go","0"
"pit-trial","104","812034","0.0-45.0","battery-v0.2","","""event"",""trial"",""time""
""fullscreenenter"",""1"",""2500""
","
","
","""event"",""trial"",""time""
""fullscreenenter"",""1"",""2500""
","
","","","-1","","","25","3181","2189","y","elianto","#f73b6a7A","-1","-1","1","0","[]","0","2","","","3181","41","2","4","lose","no-go","0"
"pit-trial","105","816173","0.0-46.0","battery-v0.2","","""event"",""trial"",""time""
""fullscreenenter"",""1"",""2500""
","
","
","""event"",""trial"",""time""
""fullscreenenter"",""1"",""2500""
","
","","","1278.5","","","25","3181","2189","h","elianto","#f73b6a7A"," "," ","1","0","[2134.6999999284744]","1","2","","","3181","42","3","3","lose","go","0"
"pit-trial","106","819732","0.0-47.0","battery-v0.2","","""event"",""trial"",""time""
""fullscreenenter"",""1"",""2500""
","
","
","""event"",""trial"",""time""
""fullscreenenter"",""1"",""2500""
","
","","","701","","","25","3181","2189","r","elianto","#3366ff99"," "," ","1","+10","[1555.6999999284744]","1","2","","","3181","43","1","1","win","go","0"
"pit-trial","107","824591","0.0-48.0","battery-v0.2","","""event"",""trial"",""time""
""fullscreenenter"",""1"",""2500""
","
","
","""event"",""trial"",""time""
""fullscreenenter"",""1"",""2500""
","
","","","-1","","","25","3181","2189","m","elianto","#f73b6a7A","-1","-1","1","-10","[]","0","2","","","3181","44","0","4","lose","no-go","1"
"pit-trial","108","828649","0.0-49.0","battery-v0.2","","""event"",""trial"",""time""
""fullscreenenter"",""1"",""2500""
","
","
","""event"",""trial"",""time""
""fullscreenenter"",""1"",""2500""
","
","","","1198.5","","","25","3181","2189","z","elianto","#3366ff99","-1"," ","0","0","[2049.899999976158]","1","2","","","3181","45","4","2","win","no-go","0"
"pit-trial","109","833508","0.0-50.0","battery-v0.2","","""event"",""trial"",""time""
""fullscreenenter"",""1"",""2500""
","
","
","""event"",""trial"",""time""
""fullscreenenter"",""1"",""2500""
","
","","","-1","","","25","3181","2189","y","elianto","#f73b6a7A","-1","-1","1","0","[]","0","2","","","3181","46","2","4","lose","no-go","0"
"pit-trial","110","837391","0.0-51.0","battery-v0.2","","""event"",""trial"",""time""
""fullscreenenter"",""1"",""2500""
","
","
","""event"",""trial"",""time""
""fullscreenenter"",""1"",""2500""
","
","","","1029.7999999523163","","","25","3181","2189","h","elianto","#f73b6a7A"," "," ","1","0","[1880]","1","2","","","3181","47","3","3","lose","go","0"
"pit-trial","111","842250","0.0-52.0","battery-v0.2","","""event"",""trial"",""time""
""fullscreenenter"",""1"",""2500""
","
","
","""event"",""trial"",""time""
""fullscreenenter"",""1"",""2500""
","
","","","-1","","","25","3181","2189","m","elianto","#f73b6a7A","-1","-1","1","0","[]","0","2","","","3181","48","0","4","lose","no-go","0"
"pit-trial","112","845878","0.0-53.0","battery-v0.2","","""event"",""trial"",""time""
""fullscreenenter"",""1"",""2500""
","
","
","""event"",""trial"",""time""
""fullscreenenter"",""1"",""2500""
","
","","","769.2000000476837","","","25","3181","2189","r","elianto","#3366ff99"," "," ","1","+10","[1620.5]","1","2","","","3181","49","1","1","win","go","0"
"pit-trial","113","850737","0.0-54.0","battery-v0.2","","""event"",""trial"",""time""
""fullscreenenter"",""1"",""2500""
","
","
","""event"",""trial"",""time""
""fullscreenenter"",""1"",""2500""
","
","","","-1","","","25","3181","2189","z","elianto","#3366ff99","-1","-1","1","+10","[]","0","2","","","3181","50","4","2","win","no-go","0"
"pit-trial","114","854331","0.0-55.0","battery-v0.2","","""event"",""trial"",""time""
""fullscreenenter"",""1"",""2500""
","
","
","""event"",""trial"",""time""
""fullscreenenter"",""1"",""2500""
","
","","","739.7000000476837","","","25","3181","2189","h","elianto","#f73b6a7A"," "," ","1","0","[1589.8000000715256]","1","2","","","3181","51","3","3","lose","go","0"
"pit-trial","115","859190","0.0-56.0","battery-v0.2","","""event"",""trial"",""time""
""fullscreenenter"",""1"",""2500""
","
","
","""event"",""trial"",""time""
""fullscreenenter"",""1"",""2500""
","
","","","-1","","","25","3181","2189","m","elianto","#f73b6a7A","-1","-1","1","0","[]","0","2","","","3181","52","0","4","lose","no-go","0"
"pit-trial","116","864049","0.0-57.0","battery-v0.2","","""event"",""trial"",""time""
""fullscreenenter"",""1"",""2500""
","
","
","""event"",""trial"",""time""
""fullscreenenter"",""1"",""2500""
","
","","","-1","","","25","3181","2189","z","elianto","#3366ff99","-1","-1","1","0","[]","0","2","","","3181","53","4","2","win","no-go","1"
"pit-trial","117","868908","0.0-58.0","battery-v0.2","","""event"",""trial"",""time""
""fullscreenenter"",""1"",""2500""
","
","
","""event"",""trial"",""time""
""fullscreenenter"",""1"",""2500""
","
","","","-1","","","25","3181","2189","y","elianto","#f73b6a7A","-1","-1","1","0","[]","0","2","","","3181","54","2","4","lose","no-go","0"
"pit-trial","118","872600","0.0-59.0","battery-v0.2","","""event"",""trial"",""time""
""fullscreenenter"",""1"",""2500""
","
","
","""event"",""trial"",""time""
""fullscreenenter"",""1"",""2500""
","
","","","833.7999999523163","","","25","3181","2189","r","elianto","#3366ff99"," "," ","1","+10","[1687.7999999523163]","1","2","","","3181","55","1","1","win","go","0"
"pit-trial","119","877458","0.0-60.0","battery-v0.2","","""event"",""trial"",""time""
""fullscreenenter"",""1"",""2500""
","
","
","""event"",""trial"",""time""
""fullscreenenter"",""1"",""2500""
","
","","","-1","","","25","3181","2189","m","elianto","#f73b6a7A","-1","-1","1","0","[]","0","2","","","3181","56","0","4","lose","no-go","0"
"pit-trial","120","881174","0.0-61.0","battery-v0.2","","""event"",""trial"",""time""
""fullscreenenter"",""1"",""2500""
","
","
","""event"",""trial"",""time""
""fullscreenenter"",""1"",""2500""
","
","","","858.3999999761581","","","25","3181","2189","h","elianto","#f73b6a7A"," "," ","1","-10","[1710.3999999761581]","1","2","","","3181","57","3","3","lose","go","1"
"pit-trial","121","886033","0.0-62.0","battery-v0.2","","""event"",""trial"",""time""
""fullscreenenter"",""1"",""2500""
","
","
","""event"",""trial"",""time""
""fullscreenenter"",""1"",""2500""
","
","","","-1","","","25","3181","2189","z","elianto","#3366ff99","-1","-1","1","+10","[]","0","2","","","3181","58","4","2","win","no-go","0"
"pit-trial","122","889591","0.0-63.0","battery-v0.2","","""event"",""trial"",""time""
""fullscreenenter"",""1"",""2500""
","
","
","""event"",""trial"",""time""
""fullscreenenter"",""1"",""2500""
","
","","","700.1999999284744","","","25","3181","2189","r","elianto","#3366ff99"," "," ","1","+10","[1551.5]","1","2","","","3181","59","1","1","win","go","0"
"pit-trial","123","894450","0.0-64.0","battery-v0.2","","""event"",""trial"",""time""
""fullscreenenter"",""1"",""2500""
","
","
","""event"",""trial"",""time""
""fullscreenenter"",""1"",""2500""
","
","","","-1","","","25","3181","2189","m","elianto","#f73b6a7A","-1","-1","1","-10","[]","0","2","","","3181","60","0","4","lose","no-go","1"
"pit-trial","124","898113","0.0-65.0","battery-v0.2","","""event"",""trial"",""time""
""fullscreenenter"",""1"",""2500""
","
","
","""event"",""trial"",""time""
""fullscreenenter"",""1"",""2500""
","
","","","809.0999999046326","","","25","3181","2189","r","elianto","#3366ff99"," "," ","1","+10","[1660.5]","1","2","","","3181","61","1","1","win","go","0"
"pit-trial","125","902972","0.0-66.0","battery-v0.2","","""event"",""trial"",""time""
""fullscreenenter"",""1"",""2500""
","
","
","""event"",""trial"",""time""
""fullscreenenter"",""1"",""2500""
","
","","","-1","","","25","3181","2189","z","elianto","#3366ff99","-1","-1","1","+10","[]","0","2","","","3181","62","4","2","win","no-go","0"
"pit-trial","126","907831","0.0-67.0","battery-v0.2","","""event"",""trial"",""time""
""fullscreenenter"",""1"",""2500""
","
","
","""event"",""trial"",""time""
""fullscreenenter"",""1"",""2500""
","
","","","-1","","","25","3181","2189","y","elianto","#f73b6a7A","-1","-1","1","0","[]","0","2","","","3181","63","2","4","lose","no-go","0"
"pit-trial","127","911491","0.0-68.0","battery-v0.2","","""event"",""trial"",""time""
""fullscreenenter"",""1"",""2500""
","
","
","""event"",""trial"",""time""
""fullscreenenter"",""1"",""2500""
","
","","","803.5999999046326","","","25","3181","2189","h","elianto","#f73b6a7A"," "," ","1","0","[1655.2999999523163]","1","2","","","3181","64","3","3","lose","go","0"
"pit-trial","128","915337","0.0-69.0","battery-v0.2","","""event"",""trial"",""time""
""fullscreenenter"",""1"",""2500""
","
","
","""event"",""trial"",""time""
""fullscreenenter"",""1"",""2500""
","
","","","988.7000000476837","","","25","3181","2189","h","elianto","#f73b6a7A"," "," ","1","-10","[1840.2000000476837]","1","2","","","3181","65","3","3","lose","go","1"
"pit-trial","129","918960","0.0-70.0","battery-v0.2","","""event"",""trial"",""time""
""fullscreenenter"",""1"",""2500""
","
","
","""event"",""trial"",""time""
""fullscreenenter"",""1"",""2500""
","
","","","766.9000000953674","","","25","3181","2189","r","elianto","#3366ff99"," "," ","1","+10","[1617.7000000476837]","1","2","","","3181","66","1","1","win","go","0"
"pit-trial","130","923819","0.0-71.0","battery-v0.2","","""event"",""trial"",""time""
""fullscreenenter"",""1"",""2500""
","
","
","""event"",""trial"",""time""
""fullscreenenter"",""1"",""2500""
","
","","","-1","","","25","3181","2189","y","elianto","#f73b6a7A","-1","-1","1","-10","[]","0","2","","","3181","67","2","4","lose","no-go","1"
"pit-trial","131","928678","0.0-72.0","battery-v0.2","","""event"",""trial"",""time""
""fullscreenenter"",""1"",""2500""
","
","
","""event"",""trial"",""time""
""fullscreenenter"",""1"",""2500""
","
","","","-1","","","25","3181","2189","z","elianto","#3366ff99","-1","-1","1","+10","[]","0","2","","","3181","68","4","2","win","no-go","0"
"pit-trial","132","933537","0.0-73.0","battery-v0.2","","""event"",""trial"",""time""
""fullscreenenter"",""1"",""2500""
","
","
","""event"",""trial"",""time""
""fullscreenenter"",""1"",""2500""
","
","","","-1","","","25","3181","2189","z","elianto","#3366ff99","-1","-1","1","+10","[]","0","2","","","3181","69","4","2","win","no-go","0"
"pit-trial","133","937373","0.0-74.0","battery-v0.2","","""event"",""trial"",""time""
""fullscreenenter"",""1"",""2500""
","
","
","""event"",""trial"",""time""
""fullscreenenter"",""1"",""2500""
","
","","","978.1000000238419","","","25","3181","2189","h","elianto","#f73b6a7A"," "," ","1","0","[1829.3999999761581]","1","2","","","3181","70","3","3","lose","go","0"
"pit-trial","134","940973","0.0-75.0","battery-v0.2","","""event"",""trial"",""time""
""fullscreenenter"",""1"",""2500""
","
","
","""event"",""trial"",""time""
""fullscreenenter"",""1"",""2500""
","
","","","746","","","25","3181","2189","r","elianto","#3366ff99"," "," ","1","+10","[1596.2000000476837]","1","2","","","3181","71","1","1","win","go","0"
"pit-trial","135","945228","0.0-76.0","battery-v0.2","","""event"",""trial"",""time""
""fullscreenenter"",""1"",""2500""
","
","
","""event"",""trial"",""time""
""fullscreenenter"",""1"",""2500""
","
","","","1399.7999999523163","","","25","3181","2189","c","elianto","#3366ff99"," "," ","1","+10","[2250.600000023842]","1","2","","","3181","72","5","1","win","go","0"
"pit-trial","136","950087","0.0-77.0","battery-v0.2","","""event"",""trial"",""time""
""fullscreenenter"",""1"",""2500""
","
","
","""event"",""trial"",""time""
""fullscreenenter"",""1"",""2500""
","
","","","-1","","","25","3181","2189","z","elianto","#3366ff99","-1","-1","1","+10","[]","0","2","","","3181","73","4","2","win","no-go","0"
"pit-trial","137","953878","0.0-78.0","battery-v0.2","","""event"",""trial"",""time""
""fullscreenenter"",""1"",""2500""
","
","
","""event"",""trial"",""time""
""fullscreenenter"",""1"",""2500""
","
","","","932.1000000238419","","","25","3181","2189","h","elianto","#f73b6a7A"," "," ","1","0","[1783.7000000476837]","1","2","","","3181","74","3","3","lose","go","0"
"pit-trial","138","957523","0.0-79.0","battery-v0.2","","""event"",""trial"",""time""
""fullscreenenter"",""1"",""2500""
","
","
","""event"",""trial"",""time""
""fullscreenenter"",""1"",""2500""
","
","","","791.6999999284744","","","25","3181","2189","r","elianto","#3366ff99"," "," ","1","0","[1642.3999999761581]","1","2","","","3181","75","1","1","win","go","1"
"pit-trial","139","961236","0.0-80.0","battery-v0.2","","""event"",""trial"",""time""
""fullscreenenter"",""1"",""2500""
","
","
","""event"",""trial"",""time""
""fullscreenenter"",""1"",""2500""
","
","","","856.1000000238419","","","25","3181","2189","c","elianto","#3366ff99"," "," ","1","+10","[1707.1999999284744]","1","2","","","3181","76","5","1","win","go","0"
"pit-trial","140","965024","0.0-81.0","battery-v0.2","","""event"",""trial"",""time""
""fullscreenenter"",""1"",""2500""
","
","
","""event"",""trial"",""time""
""fullscreenenter"",""1"",""2500""
","
","","","933.3999999761581","","","25","3181","2189","c","elianto","#3366ff99"," "," ","1","0","[1783.7000000476837]","1","2","","","3181","77","5","1","win","go","1"
"pit-trial","141","969766","0.0-82.0","battery-v0.2","","""event"",""trial"",""time""
""fullscreenenter"",""1"",""2500""
","
","
","""event"",""trial"",""time""
""fullscreenenter"",""1"",""2500""
","
","","","1886.3999999761581","","","25","3181","2189","b","elianto","#f73b6a7A","-1"," ","0","-10","[2738.2000000476837]","1","2","","","3181","78","6","4","lose","no-go","0"
"pit-trial","142","974625","0.0-83.0","battery-v0.2","","""event"",""trial"",""time""
""fullscreenenter"",""1"",""2500""
","
","
","""event"",""trial"",""time""
""fullscreenenter"",""1"",""2500""
","
","","","-1","","","25","3181","2189","z","elianto","#3366ff99","-1","-1","1","+10","[]","0","2","","","3181","79","4","2","win","no-go","0"
"pit-trial","143","978422","0.0-84.0","battery-v0.2","","""event"",""trial"",""time""
""fullscreenenter"",""1"",""2500""
","
","
","""event"",""trial"",""time""
""fullscreenenter"",""1"",""2500""
","
","","","941.1999999284744","","","25","3181","2189","h","elianto","#f73b6a7A"," "," ","1","-10","[1791.6999999284744]","1","2","","","3181","80","3","3","lose","go","1"
"pit-trial","144","983281","0.0-85.0","battery-v0.2","","""event"",""trial"",""time""
""fullscreenenter"",""1"",""2500""
","
","
","""event"",""trial"",""time""
""fullscreenenter"",""1"",""2500""
","
","","","-1","","","25","3181","2189","b","elianto","#f73b6a7A","-1","-1","1","0","[]","0","2","","","3181","81","6","4","lose","no-go","0"
"pit-trial","145","987891","0.0-86.0","battery-v0.2","","""event"",""trial"",""time""
""fullscreenenter"",""1"",""2500""
","
","
","""event"",""trial"",""time""
""fullscreenenter"",""1"",""2500""
","
","","","1756.7000000476837","","","25","3181","2189","t","elianto","#f73b6a7A"," "," ","1","0","[2607.600000023842]","1","2","","","3181","82","7","3","lose","go","0"
"pit-trial","146","991535","0.0-87.0","battery-v0.2","","""event"",""trial"",""time""
""fullscreenenter"",""1"",""2500""
","
","
","""event"",""trial"",""time""
""fullscreenenter"",""1"",""2500""
","
","","","787","","","25","3181","2189","c","elianto","#3366ff99"," "," ","1","+10","[1637.3999999761581]","1","2","","","3181","83","5","1","win","go","0"
"pit-trial","147","996395","0.0-88.0","battery-v0.2","","""event"",""trial"",""time""
""fullscreenenter"",""1"",""2500""
","
","
","""event"",""trial"",""time""
""fullscreenenter"",""1"",""2500""
","
","","","-1","","","25","3181","2189","z","elianto","#3366ff99","-1","-1","1","+10","[]","0","2","","","3181","84","4","2","win","no-go","0"
"pit-trial","148","1001254","0.0-89.0","battery-v0.2","","""event"",""trial"",""time""
""fullscreenenter"",""1"",""2500""
","
","
","""event"",""trial"",""time""
""fullscreenenter"",""1"",""2500""
","
","","","-1","","","25","3181","2189","z","elianto","#3366ff99","-1","-1","1","+10","[]","0","2","","","3181","85","4","2","win","no-go","0"
"pit-trial","149","1005364","0.0-90.0","battery-v0.2","","""event"",""trial"",""time""
""fullscreenenter"",""1"",""2500""
","
","
","""event"",""trial"",""time""
""fullscreenenter"",""1"",""2500""
","
","","","1251","","","25","3181","2189","t","elianto","#f73b6a7A"," "," ","1","0","[2102.4000000953674]","1","2","","","3181","86","7","3","lose","go","0"
"pit-trial","150","1010223","0.0-91.0","battery-v0.2","","""event"",""trial"",""time""
""fullscreenenter"",""1"",""2500""
","
","
","""event"",""trial"",""time""
""fullscreenenter"",""1"",""2500""
","
","","","-1","","","25","3181","2189","b","elianto","#f73b6a7A","-1","-1","1","0","[]","0","2","","","3181","87","6","4","lose","no-go","0"
"pit-trial","151","1013950","0.0-92.0","battery-v0.2","","""event"",""trial"",""time""
""fullscreenenter"",""1"",""2500""
","
","
","""event"",""trial"",""time""
""fullscreenenter"",""1"",""2500""
","
","","","870.6000000238419","","","25","3181","2189","c","elianto","#3366ff99"," "," ","1","+10","[1722.1000000238419]","1","2","","","3181","88","5","1","win","go","0"
"pit-trial","152","1018524","0.0-93.0","battery-v0.2","","""event"",""trial"",""time""
""fullscreenenter"",""1"",""2500""
","
","
","""event"",""trial"",""time""
""fullscreenenter"",""1"",""2500""
","
","","","1716.1999999284744","","","25","3181","2189","c","elianto","#3366ff99"," "," ","1","+10","[2568.399999976158]","1","2","","","3181","89","5","1","win","go","0"
"pit-trial","153","1023383","0.0-94.0","battery-v0.2","","""event"",""trial"",""time""
""fullscreenenter"",""1"",""2500""
","
","
","""event"",""trial"",""time""
""fullscreenenter"",""1"",""2500""
","
","","","-1","","","25","3181","2189","b","elianto","#f73b6a7A","-1","-1","1","0","[]","0","2","","","3181","90","6","4","lose","no-go","0"
"pit-trial","154","1028242","0.0-95.0","battery-v0.2","","""event"",""trial"",""time""
""fullscreenenter"",""1"",""2500""
","
","
","""event"",""trial"",""time""
""fullscreenenter"",""1"",""2500""
","
","","","-1","","","25","3181","2189","z","elianto","#3366ff99","-1","-1","1","+10","[]","0","2","","","3181","91","4","2","win","no-go","0"
"pit-trial","155","1031864","0.0-96.0","battery-v0.2","","""event"",""trial"",""time""
""fullscreenenter"",""1"",""2500""
","
","
","""event"",""trial"",""time""
""fullscreenenter"",""1"",""2500""
","
","","","763.7999999523163","","","25","3181","2189","t","elianto","#f73b6a7A"," "," ","1","0","[1614.7999999523163]","1","2","","","3181","92","7","3","lose","go","0"
"pit-trial","156","1036723","0.0-97.0","battery-v0.2","","""event"",""trial"",""time""
""fullscreenenter"",""1"",""2500""
","
","
","""event"",""trial"",""time""
""fullscreenenter"",""1"",""2500""
","
","","","-1","","","25","3181","2189","b","elianto","#f73b6a7A","-1","-1","1","0","[]","0","2","","","3181","93","6","4","lose","no-go","0"
"pit-trial","157","1040322","0.0-98.0","battery-v0.2","","""event"",""trial"",""time""
""fullscreenenter"",""1"",""2500""
","
","
","""event"",""trial"",""time""
""fullscreenenter"",""1"",""2500""
","
","","","743","","","25","3181","2189","c","elianto","#3366ff99"," "," ","1","+10","[1596.8999999761581]","1","2","","","3181","94","5","1","win","go","0"
"pit-trial","158","1043956","0.0-99.0","battery-v0.2","","""event"",""trial"",""time""
""fullscreenenter"",""1"",""2500""
","
","
","""event"",""trial"",""time""
""fullscreenenter"",""1"",""2500""
","
","","","775.2000000476837","","","25","3181","2189","t","elianto","#f73b6a7A"," "," ","1","-10","[1626.7000000476837]","1","2","","","3181","95","7","3","lose","go","1"
"pit-trial","159","1048067","0.0-100.0","battery-v0.2","","""event"",""trial"",""time""
""fullscreenenter"",""1"",""2500""
","
","
","""event"",""trial"",""time""
""fullscreenenter"",""1"",""2500""
","
","","","1255.8999999761581","","","25","3181","2189","f","elianto","#3366ff99","-1"," ","0","0","[2107.4000000953674]","1","2","","","3181","96","8","2","win","no-go","0"
"pit-trial","160","1052925","0.0-101.0","battery-v0.2","","""event"",""trial"",""time""
""fullscreenenter"",""1"",""2500""
","
","
","""event"",""trial"",""time""
""fullscreenenter"",""1"",""2500""
","
","","","-1","","","25","3181","2189","f","elianto","#3366ff99","-1","-1","1","+10","[]","0","2","","","3181","97","8","2","win","no-go","0"
"pit-trial","161","1056531","0.0-102.0","battery-v0.2","","""event"",""trial"",""time""
""fullscreenenter"",""1"",""2500""
","
","
","""event"",""trial"",""time""
""fullscreenenter"",""1"",""2500""
","
","","","747.8000000715256","","","25","3181","2189","c","elianto","#3366ff99"," "," ","1","+10","[1599.1000000238419]","1","2","","","3181","98","5","1","win","go","0"
"pit-trial","162","1061389","0.0-103.0","battery-v0.2","","""event"",""trial"",""time""
""fullscreenenter"",""1"",""2500""
","
","
","""event"",""trial"",""time""
""fullscreenenter"",""1"",""2500""
","
","","","-1","","","25","3181","2189","b","elianto","#f73b6a7A","-1","-1","1","-10","[]","0","2","","","3181","99","6","4","lose","no-go","1"
"pit-trial","163","1065073","0.0-104.0","battery-v0.2","","""event"",""trial"",""time""
""fullscreenenter"",""1"",""2500""
","
","
","""event"",""trial"",""time""
""fullscreenenter"",""1"",""2500""
","
","","","828.2999999523163","","","25","3181","2189","t","elianto","#f73b6a7A"," "," ","1","0","[1678.6999999284744]","1","2","","","3181","100","7","3","lose","go","0"
"pit-trial","164","1069929","0.0-105.0","battery-v0.2","","""event"",""trial"",""time""
""fullscreenenter"",""1"",""2500""
","
","
","""event"",""trial"",""time""
""fullscreenenter"",""1"",""2500""
","
","","","-1","","","25","3181","2189","b","elianto","#f73b6a7A","-1","-1","1","0","[]","0","2","","","3181","101","6","4","lose","no-go","0"
"pit-trial","165","1074788","0.0-106.0","battery-v0.2","","""event"",""trial"",""time""
""fullscreenenter"",""1"",""2500""
","
","
","""event"",""trial"",""time""
""fullscreenenter"",""1"",""2500""
","
","","","-1","","","25","3181","2189","f","elianto","#3366ff99","-1","-1","1","+10","[]","0","2","","","3181","102","8","2","win","no-go","0"
"pit-trial","166","1078468","0.0-107.0","battery-v0.2","","""event"",""trial"",""time""
""fullscreenenter"",""1"",""2500""
","
","
","""event"",""trial"",""time""
""fullscreenenter"",""1"",""2500""
","
","","","822.7000000476837","","","25","3181","2189","c","elianto","#3366ff99"," "," ","1","+10","[1674.2999999523163]","1","2","","","3181","103","5","1","win","go","0"
"pit-trial","167","1083327","0.0-108.0","battery-v0.2","","""event"",""trial"",""time""
""fullscreenenter"",""1"",""2500""
","
","
","""event"",""trial"",""time""
""fullscreenenter"",""1"",""2500""
","
","","","-1","","","25","3181","2189","n","elianto","#3366ff99","-1","-1","1","+10","[2864.5999999046326]","1","2","","","3181","104","9","2","win","no-go","0"
"pit-trial","168","1088186","0.0-109.0","battery-v0.2","","""event"",""trial"",""time""
""fullscreenenter"",""1"",""2500""
","
","
","""event"",""trial"",""time""
""fullscreenenter"",""1"",""2500""
","
","","","-1","","","25","3181","2189","b","elianto","#f73b6a7A","-1","-1","1","0","[]","0","2","","","3181","105","6","4","lose","no-go","0"
"pit-trial","169","1091884","0.0-110.0","battery-v0.2","","""event"",""trial"",""time""
""fullscreenenter"",""1"",""2500""
","
","
","""event"",""trial"",""time""
""fullscreenenter"",""1"",""2500""
","
","","","840.7000000476837","","","25","3181","2189","c","elianto","#3366ff99"," "," ","1","+10","[1691.1000000238419]","1","2","","","3181","106","5","1","win","go","0"
"pit-trial","170","1095622","0.0-111.0","battery-v0.2","","""event"",""trial"",""time""
""fullscreenenter"",""1"",""2500""
","
","
","""event"",""trial"",""time""
""fullscreenenter"",""1"",""2500""
","
","","","886.3000000715256","","","25","3181","2189","n","elianto","#3366ff99","-1"," ","0","0","[1736.3999999761581]","1","2","","","3181","107","9","2","win","no-go","0"
"pit-trial","171","1100481","0.0-112.0","battery-v0.2","","""event"",""trial"",""time""
""fullscreenenter"",""1"",""2500""
","
","
","""event"",""trial"",""time""
""fullscreenenter"",""1"",""2500""
","
","","","-1","","","25","3181","2189","f","elianto","#3366ff99","-1","-1","1","+10","[]","0","2","","","3181","108","8","2","win","no-go","0"
"pit-trial","172","1104197","0.0-113.0","battery-v0.2","","""event"",""trial"",""time""
""fullscreenenter"",""1"",""2500""
","
","
","""event"",""trial"",""time""
""fullscreenenter"",""1"",""2500""
","
","","","862.3000000715256","","","25","3181","2189","c","elianto","#3366ff99"," "," ","1","+10","[1712.3000000715256]","1","2","","","3181","109","5","1","win","go","0"
"pit-trial","173","1108098","0.0-114.0","battery-v0.2","","""event"",""trial"",""time""
""fullscreenenter"",""1"",""2500""
","
","
","""event"",""trial"",""time""
""fullscreenenter"",""1"",""2500""
","
","","","1044.7999999523163","","","25","3181","2189","n","elianto","#3366ff99","-1"," ","0","0","[1896.1999999284744]","1","2","","","3181","110","9","2","win","no-go","0"
"pit-trial","174","1112957","0.0-115.0","battery-v0.2","","""event"",""trial"",""time""
""fullscreenenter"",""1"",""2500""
","
","
","""event"",""trial"",""time""
""fullscreenenter"",""1"",""2500""
","
","","","-1","","","25","3181","2189","b","elianto","#f73b6a7A","-1","-1","1","0","[]","0","2","","","3181","111","6","4","lose","no-go","0"
"pit-trial","175","1117816","0.0-116.0","battery-v0.2","","""event"",""trial"",""time""
""fullscreenenter"",""1"",""2500""
","
","
","""event"",""trial"",""time""
""fullscreenenter"",""1"",""2500""
","
","","","-1","","","25","3181","2189","f","elianto","#3366ff99","-1","-1","1","+10","[]","0","2","","","3181","112","8","2","win","no-go","0"
"pit-trial","176","1122677","0.0-117.0","battery-v0.2","","""event"",""trial"",""time""
""fullscreenenter"",""1"",""2500""
","
","
","""event"",""trial"",""time""
""fullscreenenter"",""1"",""2500""
","
","","","-1","","","25","3181","2189","n","elianto","#3366ff99","-1","-1","1","0","[]","0","2","","","3181","113","9","2","win","no-go","1"
"pit-trial","177","1127533","0.0-118.0","battery-v0.2","","""event"",""trial"",""time""
""fullscreenenter"",""1"",""2500""
","
","
","""event"",""trial"",""time""
""fullscreenenter"",""1"",""2500""
","
","","","-1","","","25","3181","2189","f","elianto","#3366ff99","-1","-1","1","+10","[]","0","2","","","3181","114","8","2","win","no-go","0"
"pit-trial","178","1131226","0.0-119.0","battery-v0.2","","""event"",""trial"",""time""
""fullscreenenter"",""1"",""2500""
","
","
","""event"",""trial"",""time""
""fullscreenenter"",""1"",""2500""
","
","","","839","","","25","3181","2189","t","elianto","#f73b6a7A"," "," ","1","0","[1689.3999999761581]","1","2","","","3181","115","7","3","lose","go","0"
"pit-trial","179","1134929","0.0-120.0","battery-v0.2","","""event"",""trial"",""time""
""fullscreenenter"",""1"",""2500""
","
","
","""event"",""trial"",""time""
""fullscreenenter"",""1"",""2500""
","
","","","849.9000000953674","","","25","3181","2189","c","elianto","#3366ff99"," "," ","1","+10","[1700.4000000953674]","1","2","","","3181","116","5","1","win","go","0"
"pit-trial","180","1139788","0.0-121.0","battery-v0.2","","""event"",""trial"",""time""
""fullscreenenter"",""1"",""2500""
","
","
","""event"",""trial"",""time""
""fullscreenenter"",""1"",""2500""
","
","","","-1","","","25","3181","2189","f","elianto","#3366ff99","-1","-1","1","+10","[]","0","2","","","3181","117","8","2","win","no-go","0"
"pit-trial","181","1144647","0.0-122.0","battery-v0.2","","""event"",""trial"",""time""
""fullscreenenter"",""1"",""2500""
","
","
","""event"",""trial"",""time""
""fullscreenenter"",""1"",""2500""
","
","","","-1","","","25","3181","2189","b","elianto","#f73b6a7A","-1","-1","1","0","[]","0","2","","","3181","118","6","4","lose","no-go","0"
"pit-trial","182","1148176","0.0-123.0","battery-v0.2","","""event"",""trial"",""time""
""fullscreenenter"",""1"",""2500""
","
","
","""event"",""trial"",""time""
""fullscreenenter"",""1"",""2500""
","
","","","673.1000000238419","","","25","3181","2189","c","elianto","#3366ff99"," "," ","1","+10","[1524.6000000238419]","1","2","","","3181","119","5","1","win","go","0"
"pit-trial","183","1153035","0.0-124.0","battery-v0.2","","""event"",""trial"",""time""
""fullscreenenter"",""1"",""2500""
","
","
","""event"",""trial"",""time""
""fullscreenenter"",""1"",""2500""
","
","","","-1","","","25","3181","2189","n","elianto","#3366ff99","-1","-1","1","+10","[]","0","2","","","3181","120","9","2","win","no-go","0"
"pit-trial","184","1157894","0.0-125.0","battery-v0.2","","""event"",""trial"",""time""
""fullscreenenter"",""1"",""2500""
","
","
","""event"",""trial"",""time""
""fullscreenenter"",""1"",""2500""
","
","","","-1","","","25","3181","2189","f","elianto","#3366ff99","-1","-1","1","+10","[]","0","2","","","3181","121","8","2","win","no-go","0"
"pit-trial","185","1161534","0.0-126.0","battery-v0.2","","""event"",""trial"",""time""
""fullscreenenter"",""1"",""2500""
","
","
","""event"",""trial"",""time""
""fullscreenenter"",""1"",""2500""
","
","","","783","","","25","3181","2189","c","elianto","#3366ff99"," "," ","1","+10","[1635.6000000238419]","1","2","","","3181","122","5","1","win","go","0"
"pit-trial","186","1165157","0.0-127.0","battery-v0.2","","""event"",""trial"",""time""
""fullscreenenter"",""1"",""2500""
","
","
","""event"",""trial"",""time""
""fullscreenenter"",""1"",""2500""
","
","","","769.7000000476837","","","25","3181","2189","t","elianto","#f73b6a7A"," "," ","1","0","[1620.2000000476837]","1","2","","","3181","123","7","3","lose","go","0"
"pit-trial","187","1170016","0.0-128.0","battery-v0.2","","""event"",""trial"",""time""
""fullscreenenter"",""1"",""2500""
","
","
","""event"",""trial"",""time""
""fullscreenenter"",""1"",""2500""
","
","","","-1","","","25","3181","2189","n","elianto","#3366ff99","-1","-1","1","+10","[]","0","2","","","3181","124","9","2","win","no-go","0"
"pit-trial","188","1174875","0.0-129.0","battery-v0.2","","""event"",""trial"",""time""
""fullscreenenter"",""1"",""2500""
","
","
","""event"",""trial"",""time""
""fullscreenenter"",""1"",""2500""
","
","","","-1","","","25","3181","2189","f","elianto","#3366ff99","-1","-1","1","+10","[]","0","2","","","3181","125","8","2","win","no-go","0"
"pit-trial","189","1179733","0.0-130.0","battery-v0.2","","""event"",""trial"",""time""
""fullscreenenter"",""1"",""2500""
","
","
","""event"",""trial"",""time""
""fullscreenenter"",""1"",""2500""
","
","","","-1","","","25","3181","2189","b","elianto","#f73b6a7A","-1","-1","1","0","[]","0","2","","","3181","126","6","4","lose","no-go","0"
"pit-trial","190","1183367","0.0-131.0","battery-v0.2","","""event"",""trial"",""time""
""fullscreenenter"",""1"",""2500""
","
","
","""event"",""trial"",""time""
""fullscreenenter"",""1"",""2500""
","
","","","775.5","","","25","3181","2189","t","elianto","#f73b6a7A"," "," ","1","0","[1627.1999999284744]","1","2","","","3181","127","7","3","lose","go","0"
"pit-trial","191","1188226","0.0-132.0","battery-v0.2","","""event"",""trial"",""time""
""fullscreenenter"",""1"",""2500""
","
","
","""event"",""trial"",""time""
""fullscreenenter"",""1"",""2500""
","
","","","-1","","","25","3181","2189","n","elianto","#3366ff99","-1","-1","1","+10","[]","0","2","","","3181","128","9","2","win","no-go","0"
"pit-trial","192","1193086","0.0-133.0","battery-v0.2","","""event"",""trial"",""time""
""fullscreenenter"",""1"",""2500""
","
","
","""event"",""trial"",""time""
""fullscreenenter"",""1"",""2500""
","
","","","-1","","","25","3181","2189","n","elianto","#3366ff99","-1","-1","1","+10","[]","0","2","","","3181","129","9","2","win","no-go","0"
"pit-trial","193","1197944","0.0-134.0","battery-v0.2","","""event"",""trial"",""time""
""fullscreenenter"",""1"",""2500""
","
","
","""event"",""trial"",""time""
""fullscreenenter"",""1"",""2500""
","
","","","-1","","","25","3181","2189","f","elianto","#3366ff99","-1","-1","1","+10","[]","0","2","","","3181","130","8","2","win","no-go","0"
"pit-trial","194","1202803","0.0-135.0","battery-v0.2","","""event"",""trial"",""time""
""fullscreenenter"",""1"",""2500""
","
","
","""event"",""trial"",""time""
""fullscreenenter"",""1"",""2500""
","
","","","-1","","","25","3181","2189","b","elianto","#f73b6a7A","-1","-1","1","0","[]","0","2","","","3181","131","6","4","lose","no-go","0"
"pit-trial","195","1206340","0.0-136.0","battery-v0.2","","""event"",""trial"",""time""
""fullscreenenter"",""1"",""2500""
","
","
","""event"",""trial"",""time""
""fullscreenenter"",""1"",""2500""
","
","","","679.8999999761581","","","25","3181","2189","t","elianto","#f73b6a7A"," "," ","1","0","[1531.7000000476837]","1","2","","","3181","132","7","3","lose","go","0"
"pit-trial","196","1211197","0.0-137.0","battery-v0.2","","""event"",""trial"",""time""
""fullscreenenter"",""1"",""2500""
","
","
","""event"",""trial"",""time""
""fullscreenenter"",""1"",""2500""
","
","","","-1","","","25","3181","2189","b","elianto","#f73b6a7A","-1","-1","1","-10","[]","0","2","","","3181","133","6","4","lose","no-go","1"
"pit-trial","197","1214959","0.0-138.0","battery-v0.2","","""event"",""trial"",""time""
""fullscreenenter"",""1"",""2500""
","
","
","""event"",""trial"",""time""
""fullscreenenter"",""1"",""2500""
","
","","","904.5","","","25","3181","2189","t","elianto","#f73b6a7A"," "," ","1","0","[1756.8999999761581]","1","2","","","3181","134","7","3","lose","go","0"
"pit-trial","198","1219818","0.0-139.0","battery-v0.2","","""event"",""trial"",""time""
""fullscreenenter"",""1"",""2500""
","
","
","""event"",""trial"",""time""
""fullscreenenter"",""1"",""2500""
","
","","","-1","","","25","3181","2189","f","elianto","#3366ff99","-1","-1","1","+10","[]","0","2","","","3181","135","8","2","win","no-go","0"
"pit-trial","199","1224677","0.0-140.0","battery-v0.2","","""event"",""trial"",""time""
""fullscreenenter"",""1"",""2500""
","
","
","""event"",""trial"",""time""
""fullscreenenter"",""1"",""2500""
","
","","","-1","","","25","3181","2189","n","elianto","#3366ff99","-1","-1","1","+10","[]","0","2","","","3181","136","9","2","win","no-go","0"
"pit-trial","200","1229536","0.0-141.0","battery-v0.2","","""event"",""trial"",""time""
""fullscreenenter"",""1"",""2500""
","
","
","""event"",""trial"",""time""
""fullscreenenter"",""1"",""2500""
","
","","","-1","","","25","3181","2189","f","elianto","#3366ff99","-1","-1","1","+10","[]","0","2","","","3181","137","8","2","win","no-go","0"
"pit-trial","201","1234395","0.0-142.0","battery-v0.2","","""event"",""trial"",""time""
""fullscreenenter"",""1"",""2500""
","
","
","""event"",""trial"",""time""
""fullscreenenter"",""1"",""2500""
","
","","","-1","","","25","3181","2189","b","elianto","#f73b6a7A","-1","-1","1","-10","[]","0","2","","","3181","138","6","4","lose","no-go","1"
"pit-trial","202","1239254","0.0-143.0","battery-v0.2","","""event"",""trial"",""time""
""fullscreenenter"",""1"",""2500""
","
","
","""event"",""trial"",""time""
""fullscreenenter"",""1"",""2500""
","
","","","-1","","","25","3181","2189","n","elianto","#3366ff99","-1","-1","1","0","[]","0","2","","","3181","139","9","2","win","no-go","1"
"pit-trial","203","1242881","0.0-144.0","battery-v0.2","","""event"",""trial"",""time""
""fullscreenenter"",""1"",""2500""
","
","
","""event"",""trial"",""time""
""fullscreenenter"",""1"",""2500""
","
","","","769.5","","","25","3181","2189","t","elianto","#f73b6a7A"," "," ","1","0","[1619.7999999523163]","1","2","","","3181","140","7","3","lose","go","0"
"pit-instructions","204","1257274","0.0-145.0","battery-v0.2","","""event"",""trial"",""time""
""fullscreenenter"",""1"",""2500""
","
","
","""event"",""trial"",""time""
""fullscreenenter"",""1"",""2500""
","
","","[{""page_index"":0,""viewing_time"":6245.100000023842},{""page_index"":1,""viewing_time"":8145.600000023842}]","14390.899999976158","","","","","","","","","","","","","","","","","","","","","","","",""
"pit-trial","205","1261442","0.0-146.0","battery-v0.2","","""event"",""trial"",""time""
""fullscreenenter"",""1"",""2500""
","
","
","""event"",""trial"",""time""
""fullscreenenter"",""1"",""2500""
","
","","","1309.2000000476837","","","25","3181","2189","a","elianto","#f73b6a7A"," "," ","1","-10","[2159.600000023842]","1","3","","","3181","141","2","3","lose","go","1"
"pit-trial","206","1265958","0.0-147.0","battery-v0.2","","""event"",""trial"",""time""
""fullscreenenter"",""1"",""2500""
","
","
","""event"",""trial"",""time""
""fullscreenenter"",""1"",""2500""
","
","","","1660","","","25","3181","2189","l","elianto","#3366ff99","-1"," ","0","0","[2511.9000000953674]","1","3","","","3181","142","1","2","win","no-go","0"
"pit-trial","207","1270817","0.0-148.0","battery-v0.2","","""event"",""trial"",""time""
""fullscreenenter"",""1"",""2500""
","
","
","""event"",""trial"",""time""
""fullscreenenter"",""1"",""2500""
","
","","","-1","","","25","3181","2189","g","elianto","#f73b6a7A","-1","-1","1","0","[]","0","3","","","3181","143","3","4","lose","no-go","0"
"pit-trial","208","1275345","0.0-149.0","battery-v0.2","","""event"",""trial"",""time""
""fullscreenenter"",""1"",""2500""
","
","
","""event"",""trial"",""time""
""fullscreenenter"",""1"",""2500""
","
","","","1673.1999999284744","","","25","3181","2189","u","elianto","#f73b6a7A"," "," ","1","0","[2525.5]","1","3","","","3181","144","0","3","lose","go","0"
"pit-trial","209","1280204","0.0-150.0","battery-v0.2","","""event"",""trial"",""time""
""fullscreenenter"",""1"",""2500""
","
","
","""event"",""trial"",""time""
""fullscreenenter"",""1"",""2500""
","
","","","-1","","","25","3181","2189","a","elianto","#f73b6a7A"," ","-1","0","-10","[]","0","3","","","3181","145","2","3","lose","go","0"
"pit-trial","210","1284993","0.0-151.0","battery-v0.2","","""event"",""trial"",""time""
""fullscreenenter"",""1"",""2500""
","
","
","""event"",""trial"",""time""
""fullscreenenter"",""1"",""2500""
","
","","","1936.1999999284744","","","25","3181","2189","u","elianto","#f73b6a7A"," "," ","1","-10","[2787.100000023842]","1","3","","","3181","146","0","3","lose","go","1"
"pit-trial","211","1289848","0.0-152.0","battery-v0.2","","""event"",""trial"",""time""
""fullscreenenter"",""1"",""2500""
","
","
","""event"",""trial"",""time""
""fullscreenenter"",""1"",""2500""
","
","","","-1","","","25","3181","2189","l","elianto","#3366ff99","-1","-1","1","+10","[]","0","3","","","3181","147","1","2","win","no-go","0"
"pit-trial","212","1294707","0.0-153.0","battery-v0.2","","""event"",""trial"",""time""
""fullscreenenter"",""1"",""2500""
","
","
","""event"",""trial"",""time""
""fullscreenenter"",""1"",""2500""
","
","","","-1","","","25","3181","2189","g","elianto","#f73b6a7A","-1","-1","1","0","[]","0","3","","","3181","148","3","4","lose","no-go","0"
"pit-trial","213","1299566","0.0-154.0","battery-v0.2","","""event"",""trial"",""time""
""fullscreenenter"",""1"",""2500""
","
","
","""event"",""trial"",""time""
""fullscreenenter"",""1"",""2500""
","
","","","-1","","","25","3181","2189","g","elianto","#f73b6a7A","-1","-1","1","0","[]","0","3","","","3181","149","3","4","lose","no-go","0"
"pit-trial","214","1304424","0.0-155.0","battery-v0.2","","""event"",""trial"",""time""
""fullscreenenter"",""1"",""2500""
","
","
","""event"",""trial"",""time""
""fullscreenenter"",""1"",""2500""
","
","","","-1","","","25","3181","2189","u","elianto","#f73b6a7A"," ","-1","0","-10","[]","0","3","","","3181","150","0","3","lose","go","0"
"pit-trial","215","1309283","0.0-156.0","battery-v0.2","","""event"",""trial"",""time""
""fullscreenenter"",""1"",""2500""
","
","
","""event"",""trial"",""time""
""fullscreenenter"",""1"",""2500""
","
","","","-1","","","25","3181","2189","a","elianto","#f73b6a7A"," ","-1","0","-10","[]","0","3","","","3181","151","2","3","lose","go","0"
"pit-trial","216","1314142","0.0-157.0","battery-v0.2","","""event"",""trial"",""time""
""fullscreenenter"",""1"",""2500""
","
","
","""event"",""trial"",""time""
""fullscreenenter"",""1"",""2500""
","
","","","-1","","","25","3181","2189","l","elianto","#3366ff99","-1","-1","1","+10","[]","0","3","","","3181","152","1","2","win","no-go","0"
"pit-trial","217","1319001","0.0-158.0","battery-v0.2","","""event"",""trial"",""time""
""fullscreenenter"",""1"",""2500""
","
","
","""event"",""trial"",""time""
""fullscreenenter"",""1"",""2500""
","
","","","-1","","","25","3181","2189","g","elianto","#f73b6a7A","-1","-1","1","0","[]","0","3","","","3181","153","3","4","lose","no-go","0"
"pit-trial","218","1322513","0.0-159.0","battery-v0.2","","""event"",""trial"",""time""
""fullscreenenter"",""1"",""2500""
","
","
","""event"",""trial"",""time""
""fullscreenenter"",""1"",""2500""
","
","","","654.7000000476837","","","25","3181","2189","a","elianto","#f73b6a7A"," "," ","1","0","[1505.3000000715256]","1","3","","","3181","154","2","3","lose","go","0"
"pit-trial","219","1326089","0.0-160.0","battery-v0.2","","""event"",""trial"",""time""
""fullscreenenter"",""1"",""2500""
","
","
","""event"",""trial"",""time""
""fullscreenenter"",""1"",""2500""
","
","","","713.7999999523163","","","25","3181","2189","u","elianto","#f73b6a7A"," "," ","1","0","[1568.6000000238419]","1","3","","","3181","155","0","3","lose","go","0"
"pit-trial","220","1330948","0.0-161.0","battery-v0.2","","""event"",""trial"",""time""
""fullscreenenter"",""1"",""2500""
","
","
","""event"",""trial"",""time""
""fullscreenenter"",""1"",""2500""
","
","","","-1","","","25","3181","2189","l","elianto","#3366ff99","-1","-1","1","0","[]","0","3","","","3181","156","1","2","win","no-go","1"
"pit-trial","221","1335807","0.0-162.0","battery-v0.2","","""event"",""trial"",""time""
""fullscreenenter"",""1"",""2500""
","
","
","""event"",""trial"",""time""
""fullscreenenter"",""1"",""2500""
","
","","","-1","","","25","3181","2189","l","elianto","#3366ff99","-1","-1","1","0","[]","0","3","","","3181","157","1","2","win","no-go","1"
"pit-trial","222","1340668","0.0-163.0","battery-v0.2","","""event"",""trial"",""time""
""fullscreenenter"",""1"",""2500""
","
","
","""event"",""trial"",""time""
""fullscreenenter"",""1"",""2500""
","
","","","-1","","","25","3181","2189","g","elianto","#f73b6a7A","-1","-1","1","0","[]","0","3","","","3181","158","3","4","lose","no-go","0"
"pit-trial","223","1344561","0.0-164.0","battery-v0.2","","""event"",""trial"",""time""
""fullscreenenter"",""1"",""2500""
","
","
","""event"",""trial"",""time""
""fullscreenenter"",""1"",""2500""
","
","","","1038.7000000476837","","","25","3181","2189","u","elianto","#f73b6a7A"," "," ","1","0","[1890.2999999523163]","1","3","","","3181","159","0","3","lose","go","0"
"pit-trial","224","1348282","0.0-165.0","battery-v0.2","","""event"",""trial"",""time""
""fullscreenenter"",""1"",""2500""
","
","
","""event"",""trial"",""time""
""fullscreenenter"",""1"",""2500""
","
","","","863.2000000476837","","","25","3181","2189","a","elianto","#f73b6a7A"," "," ","1","0","[1714]","1","3","","","3181","160","2","3","lose","go","0"
"pit-trial","225","1352033","0.0-166.0","battery-v0.2","","""event"",""trial"",""time""
""fullscreenenter"",""1"",""2500""
","
","
","""event"",""trial"",""time""
""fullscreenenter"",""1"",""2500""
","
","","","891.1000000238419","","","25","3181","2189","a","elianto","#f73b6a7A"," "," ","1","0","[1745.2999999523163]","1","3","","","3181","161","2","3","lose","go","0"
"pit-trial","226","1355839","0.0-167.0","battery-v0.2","","""event"",""trial"",""time""
""fullscreenenter"",""1"",""2500""
","
","
","""event"",""trial"",""time""
""fullscreenenter"",""1"",""2500""
","
","","","948.1000000238419","","","25","3181","2189","u","elianto","#f73b6a7A"," "," ","1","0","[1799.8999999761581]","1","3","","","3181","162","0","3","lose","go","0"
"pit-trial","227","1360694","0.0-168.0","battery-v0.2","","""event"",""trial"",""time""
""fullscreenenter"",""1"",""2500""
","
","
","""event"",""trial"",""time""
""fullscreenenter"",""1"",""2500""
","
","","","-1","","","25","3181","2189","l","elianto","#3366ff99","-1","-1","1","+10","[]","0","3","","","3181","163","1","2","win","no-go","0"
"pit-trial","228","1365553","0.0-169.0","battery-v0.2","","""event"",""trial"",""time""
""fullscreenenter"",""1"",""2500""
","
","
","""event"",""trial"",""time""
""fullscreenenter"",""1"",""2500""
","
","","","-1","","","25","3181","2189","g","elianto","#f73b6a7A","-1","-1","1","0","[]","0","3","","","3181","164","3","4","lose","no-go","0"
"pit-trial","229","1369657","0.0-170.0","battery-v0.2","","""event"",""trial"",""time""
""fullscreenenter"",""1"",""2500""
","
","
","""event"",""trial"",""time""
""fullscreenenter"",""1"",""2500""
","
","","","1247.1000000238419","","","25","3181","2189","u","elianto","#f73b6a7A"," "," ","1","0","[2097.399999976158]","1","3","","","3181","165","0","3","lose","go","0"
"pit-trial","230","1373564","0.0-171.0","battery-v0.2","","""event"",""trial"",""time""
""fullscreenenter"",""1"",""2500""
","
","
","""event"",""trial"",""time""
""fullscreenenter"",""1"",""2500""
","
","","","1053","","","25","3181","2189","a","elianto","#f73b6a7A"," "," ","1","0","[1904.7999999523163]","1","3","","","3181","166","2","3","lose","go","0"
"pit-trial","231","1378423","0.0-172.0","battery-v0.2","","""event"",""trial"",""time""
""fullscreenenter"",""1"",""2500""
","
","
","""event"",""trial"",""time""
""fullscreenenter"",""1"",""2500""
","
","","","-1","","","25","3181","2189","g","elianto","#f73b6a7A","-1","-1","1","0","[]","0","3","","","3181","167","3","4","lose","no-go","0"
"pit-trial","232","1383282","0.0-173.0","battery-v0.2","","""event"",""trial"",""time""
""fullscreenenter"",""1"",""2500""
","
","
","""event"",""trial"",""time""
""fullscreenenter"",""1"",""2500""
","
","","","-1","","","25","3181","2189","l","elianto","#3366ff99","-1","-1","1","+10","[]","0","3","","","3181","168","1","2","win","no-go","0"
"pit-trial","233","1387096","0.0-174.0","battery-v0.2","","""event"",""trial"",""time""
""fullscreenenter"",""1"",""2500""
","
","
","""event"",""trial"",""time""
""fullscreenenter"",""1"",""2500""
","
","","","959.8999999761581","","","25","3181","2189","a","elianto","#f73b6a7A"," "," ","1","0","[1810.1999999284744]","1","3","","","3181","169","2","3","lose","go","0"
"pit-trial","234","1391955","0.0-175.0","battery-v0.2","","""event"",""trial"",""time""
""fullscreenenter"",""1"",""2500""
","
","
","""event"",""trial"",""time""
""fullscreenenter"",""1"",""2500""
","
","","","-1","","","25","3181","2189","l","elianto","#3366ff99","-1","-1","1","+10","[]","0","3","","","3181","170","1","2","win","no-go","0"
"pit-trial","235","1396814","0.0-176.0","battery-v0.2","","""event"",""trial"",""time""
""fullscreenenter"",""1"",""2500""
","
","
","""event"",""trial"",""time""
""fullscreenenter"",""1"",""2500""
","
","","","-1","","","25","3181","2189","g","elianto","#f73b6a7A","-1","-1","1","0","[]","0","3","","","3181","171","3","4","lose","no-go","0"
"pit-trial","236","1400871","0.0-177.0","battery-v0.2","","""event"",""trial"",""time""
""fullscreenenter"",""1"",""2500""
","
","
","""event"",""trial"",""time""
""fullscreenenter"",""1"",""2500""
","
","","","1198.7000000476837","","","25","3181","2189","u","elianto","#f73b6a7A"," "," ","1","0","[2050.2999999523163]","1","3","","","3181","172","0","3","lose","go","0"
"pit-trial","237","1404587","0.0-178.0","battery-v0.2","","""event"",""trial"",""time""
""fullscreenenter"",""1"",""2500""
","
","
","""event"",""trial"",""time""
""fullscreenenter"",""1"",""2500""
","
","","","853","","","25","3181","2189","a","elianto","#f73b6a7A"," "," ","1","0","[1710.2999999523163]","1","3","","","3181","173","2","3","lose","go","0"
"pit-trial","238","1409446","0.0-179.0","battery-v0.2","","""event"",""trial"",""time""
""fullscreenenter"",""1"",""2500""
","
","
","""event"",""trial"",""time""
""fullscreenenter"",""1"",""2500""
","
","","","-1","","","25","3181","2189","g","elianto","#f73b6a7A","-1","-1","1","-10","[]","0","3","","","3181","174","3","4","lose","no-go","1"
"pit-trial","239","1414305","0.0-180.0","battery-v0.2","","""event"",""trial"",""time""
""fullscreenenter"",""1"",""2500""
","
","
","""event"",""trial"",""time""
""fullscreenenter"",""1"",""2500""
","
","","","-1","","","25","3181","2189","l","elianto","#3366ff99","-1","-1","1","+10","[]","0","3","","","3181","175","1","2","win","no-go","0"
"pit-trial","240","1418177","0.0-181.0","battery-v0.2","","""event"",""trial"",""time""
""fullscreenenter"",""1"",""2500""
","
","
","""event"",""trial"",""time""
""fullscreenenter"",""1"",""2500""
","
","","","1018.6999999284744","","","25","3181","2189","u","elianto","#f73b6a7A"," "," ","1","0","[1869.5999999046326]","1","3","","","3181","176","0","3","lose","go","0"
"pit-trial","241","1422293","0.0-182.0","battery-v0.2","","""event"",""trial"",""time""
""fullscreenenter"",""1"",""2500""
","
","
","""event"",""trial"",""time""
""fullscreenenter"",""1"",""2500""
","
","","","1260.8999999761581","","","25","3181","2189","p","elianto","#3366ff99"," "," ","1","+10","[2112.7999999523163]","1","3","","","3181","177","4","1","win","go","0"
"pit-trial","242","1427151","0.0-183.0","battery-v0.2","","""event"",""trial"",""time""
""fullscreenenter"",""1"",""2500""
","
","
","""event"",""trial"",""time""
""fullscreenenter"",""1"",""2500""
","
","","","-1","","","25","3181","2189","g","elianto","#f73b6a7A","-1","-1","1","0","[]","0","3","","","3181","178","3","4","lose","no-go","0"
"pit-trial","243","1430826","0.0-184.0","battery-v0.2","","""event"",""trial"",""time""
""fullscreenenter"",""1"",""2500""
","
","
","""event"",""trial"",""time""
""fullscreenenter"",""1"",""2500""
","
","","","821","","","25","3181","2189","u","elianto","#f73b6a7A"," "," ","1","0","[1672.4000000953674]","1","3","","","3181","179","0","3","lose","go","0"
"pit-trial","244","1434437","0.0-185.0","battery-v0.2","","""event"",""trial"",""time""
""fullscreenenter"",""1"",""2500""
","
","
","""event"",""trial"",""time""
""fullscreenenter"",""1"",""2500""
","
","","","751.8999999761581","","","25","3181","2189","a","elianto","#f73b6a7A"," "," ","1","0","[1603.7999999523163]","1","3","","","3181","180","2","3","lose","go","0"
"pit-trial","245","1439295","0.0-186.0","battery-v0.2","","""event"",""trial"",""time""
""fullscreenenter"",""1"",""2500""
","
","
","""event"",""trial"",""time""
""fullscreenenter"",""1"",""2500""
","
","","","-1","","","25","3181","2189","g","elianto","#f73b6a7A","-1","-1","1","-10","[]","0","3","","","3181","181","3","4","lose","no-go","1"
"pit-trial","246","1443209","0.0-187.0","battery-v0.2","","""event"",""trial"",""time""
""fullscreenenter"",""1"",""2500""
","
","
","""event"",""trial"",""time""
""fullscreenenter"",""1"",""2500""
","
","","","1054.7999999523163","","","25","3181","2189","p","elianto","#3366ff99"," "," ","1","+10","[1906.1000000238419]","1","3","","","3181","182","4","1","win","go","0"
"pit-trial","247","1447626","0.0-188.0","battery-v0.2","","""event"",""trial"",""time""
""fullscreenenter"",""1"",""2500""
","
","
","""event"",""trial"",""time""
""fullscreenenter"",""1"",""2500""
","
","","","1557.6000000238419","","","25","3181","2189","a","elianto","#f73b6a7A"," "," ","1","0","[2411.7000000476837]","1","3","","","3181","183","2","3","lose","go","0"
"pit-trial","248","1452485","0.0-189.0","battery-v0.2","","""event"",""trial"",""time""
""fullscreenenter"",""1"",""2500""
","
","
","""event"",""trial"",""time""
""fullscreenenter"",""1"",""2500""
","
","","","-1","","","25","3181","2189","l","elianto","#3366ff99","-1","-1","1","+10","[]","0","3","","","3181","184","1","2","win","no-go","0"
"pit-trial","249","1457344","0.0-190.0","battery-v0.2","","""event"",""trial"",""time""
""fullscreenenter"",""1"",""2500""
","
","
","""event"",""trial"",""time""
""fullscreenenter"",""1"",""2500""
","
","","","-1","","","25","3181","2189","l","elianto","#3366ff99","-1","-1","1","+10","[]","0","3","","","3181","185","1","2","win","no-go","0"
"pit-trial","250","1462197","0.0-191.0","battery-v0.2","","""event"",""trial"",""time""
""fullscreenenter"",""1"",""2500""
","
","
","""event"",""trial"",""time""
""fullscreenenter"",""1"",""2500""
","
","","","-1","","","25","3181","2189","g","elianto","#f73b6a7A","-1","-1","1","-10","[]","0","3","","","3181","186","3","4","lose","no-go","1"
"pit-trial","251","1467056","0.0-192.0","battery-v0.2","","""event"",""trial"",""time""
""fullscreenenter"",""1"",""2500""
","
","
","""event"",""trial"",""time""
""fullscreenenter"",""1"",""2500""
","
","","","-1","","","25","3181","2189","s","elianto","#3366ff99","-1","-1","1","+10","[]","0","3","","","3181","187","5","2","win","no-go","0"
"pit-trial","252","1470908","0.0-193.0","battery-v0.2","","""event"",""trial"",""time""
""fullscreenenter"",""1"",""2500""
","
","
","""event"",""trial"",""time""
""fullscreenenter"",""1"",""2500""
","
","","","994.5","","","25","3181","2189","p","elianto","#3366ff99"," "," ","1","+10","[1845.5]","1","3","","","3181","188","4","1","win","go","0"
"pit-trial","253","1475189","0.0-194.0","battery-v0.2","","""event"",""trial"",""time""
""fullscreenenter"",""1"",""2500""
","
","
","""event"",""trial"",""time""
""fullscreenenter"",""1"",""2500""
","
","","","1424.8000000715256","","","25","3181","2189","a","elianto","#f73b6a7A"," "," ","1","0","[2275.5]","1","3","","","3181","189","2","3","lose","go","0"
"pit-trial","254","1479793","0.0-195.0","battery-v0.2","","""event"",""trial"",""time""
""fullscreenenter"",""1"",""2500""
","
","
","""event"",""trial"",""time""
""fullscreenenter"",""1"",""2500""
","
","","","1747.5","","","25","3181","2189","p","elianto","#3366ff99"," "," ","1","+10","[2598.399999976158]","1","3","","","3181","190","4","1","win","go","0"
"pit-trial","255","1484652","0.0-196.0","battery-v0.2","","""event"",""trial"",""time""
""fullscreenenter"",""1"",""2500""
","
","
","""event"",""trial"",""time""
""fullscreenenter"",""1"",""2500""
","
","","","-1","","","25","3181","2189","s","elianto","#3366ff99","-1","-1","1","0","[]","0","3","","","3181","191","5","2","win","no-go","1"
"pit-trial","256","1489510","0.0-197.0","battery-v0.2","","""event"",""trial"",""time""
""fullscreenenter"",""1"",""2500""
","
","
","""event"",""trial"",""time""
""fullscreenenter"",""1"",""2500""
","
","","","-1","","","25","3181","2189","l","elianto","#3366ff99","-1","-1","1","+10","[]","0","3","","","3181","192","1","2","win","no-go","0"
"pit-trial","257","1494369","0.0-198.0","battery-v0.2","","""event"",""trial"",""time""
""fullscreenenter"",""1"",""2500""
","
","
","""event"",""trial"",""time""
""fullscreenenter"",""1"",""2500""
","
","","","-1","","","25","3181","2189","l","elianto","#3366ff99","-1","-1","1","+10","[]","0","3","","","3181","193","1","2","win","no-go","0"
"pit-trial","258","1498520","0.0-199.0","battery-v0.2","","""event"",""trial"",""time""
""fullscreenenter"",""1"",""2500""
","
","
","""event"",""trial"",""time""
""fullscreenenter"",""1"",""2500""
","
","","","1294.7999999523163","","","25","3181","2189","p","elianto","#3366ff99"," "," ","1","+10","[2145.399999976158]","1","3","","","3181","194","4","1","win","go","0"
"pit-trial","259","1503381","0.0-200.0","battery-v0.2","","""event"",""trial"",""time""
""fullscreenenter"",""1"",""2500""
","
","
","""event"",""trial"",""time""
""fullscreenenter"",""1"",""2500""
","
","","","-1","","","25","3181","2189","s","elianto","#3366ff99","-1","-1","1","+10","[]","0","3","","","3181","195","5","2","win","no-go","0"
"pit-trial","260","1508238","0.0-201.0","battery-v0.2","","""event"",""trial"",""time""
""fullscreenenter"",""1"",""2500""
","
","
","""event"",""trial"",""time""
""fullscreenenter"",""1"",""2500""
","
","","","-1","","","25","3181","2189","g","elianto","#f73b6a7A","-1","-1","1","-10","[]","0","3","","","3181","196","3","4","lose","no-go","1"
"pit-trial","261","1512650","0.0-202.0","battery-v0.2","","""event"",""trial"",""time""
""fullscreenenter"",""1"",""2500""
","
","
","""event"",""trial"",""time""
""fullscreenenter"",""1"",""2500""
","
","","","1557.6000000238419","","","25","3181","2189","g","elianto","#f73b6a7A","-1"," ","0","-10","[2409]","1","3","","","3181","197","3","4","lose","no-go","0"
"pit-trial","262","1517364","0.0-203.0","battery-v0.2","","""event"",""trial"",""time""
""fullscreenenter"",""1"",""2500""
","
","
","""event"",""trial"",""time""
""fullscreenenter"",""1"",""2500""
","
","","","1859","","","25","3181","2189","p","elianto","#3366ff99"," "," ","1","0","[2709.4000000953674]","1","3","","","3181","198","4","1","win","go","1"
"pit-trial","263","1522223","0.0-204.0","battery-v0.2","","""event"",""trial"",""time""
""fullscreenenter"",""1"",""2500""
","
","
","""event"",""trial"",""time""
""fullscreenenter"",""1"",""2500""
","
","","","-1","","","25","3181","2189","s","elianto","#3366ff99","-1","-1","1","0","[]","0","3","","","3181","199","5","2","win","no-go","1"
"pit-trial","264","1526443","0.0-205.0","battery-v0.2","","""event"",""trial"",""time""
""fullscreenenter"",""1"",""2500""
","
","
","""event"",""trial"",""time""
""fullscreenenter"",""1"",""2500""
","
","","","1363.8999999761581","","","25","3181","2189","p","elianto","#3366ff99"," "," ","1","+10","[2214.5]","1","3","","","3181","200","4","1","win","go","0"
"pit-trial","265","1531302","0.0-206.0","battery-v0.2","","""event"",""trial"",""time""
""fullscreenenter"",""1"",""2500""
","
","
","""event"",""trial"",""time""
""fullscreenenter"",""1"",""2500""
","
","","","-1","","","25","3181","2189","e","elianto","#f73b6a7A","-1","-1","1","0","[]","0","3","","","3181","201","7","4","lose","no-go","0"
"pit-trial","266","1535122","0.0-207.0","battery-v0.2","","""event"",""trial"",""time""
""fullscreenenter"",""1"",""2500""
","
","
","""event"",""trial"",""time""
""fullscreenenter"",""1"",""2500""
","
","","","965.8999999761581","","","25","3181","2189","p","elianto","#3366ff99"," "," ","1","+10","[1816.2999999523163]","1","3","","","3181","202","4","1","win","go","0"
"pit-trial","267","1539981","0.0-208.0","battery-v0.2","","""event"",""trial"",""time""
""fullscreenenter"",""1"",""2500""
","
","
","""event"",""trial"",""time""
""fullscreenenter"",""1"",""2500""
","
