"trial_type","trial_index","time_elapsed","internal_node_id","task_version","subject_id","interactions","blur_events","focus_events","fullscreenenter_events","fullscreenexit_events","success","view_history","rt","responses","num_errors","age","subject","participantId","rune","rune_set","hex","correct","choice","accuracy","outcome","keys","total_keys","block","practice","value","sub","trial","stimulus","robot","valence","action","sham"
"pavlovia","0","5","0.0-0.0","battery-v0.2","","""event"",""trial"",""time""
""blur"",""1"",""3665""
""focus"",""1"",""8548""
""fullscreenenter"",""1"",""9780""
","""event"",""trial"",""time""
""blur"",""1"",""3665""
","""event"",""trial"",""time""
""focus"",""1"",""8548""
","""event"",""trial"",""time""
""fullscreenenter"",""1"",""9780""
","
","","","","","","","","","","","","","","","","","","","","","","","","","","",""
"fullscreen","1","10754","0.0-1.0","battery-v0.2","","""event"",""trial"",""time""
""blur"",""1"",""3665""
""focus"",""1"",""8548""
""fullscreenenter"",""1"",""9780""
","""event"",""trial"",""time""
""blur"",""1"",""3665""
","""event"",""trial"",""time""
""focus"",""1"",""8548""
","""event"",""trial"",""time""
""fullscreenenter"",""1"",""9780""
","
","true","","","","","","","","","","","","","","","","","","","","","","","","","",""
"pit-instructions","2","20012","0.0-2.0-0.0","battery-v0.2","","""event"",""trial"",""time""
""blur"",""1"",""3665""
""focus"",""1"",""8548""
""fullscreenenter"",""1"",""9780""
","""event"",""trial"",""time""
""blur"",""1"",""3665""
","""event"",""trial"",""time""
""focus"",""1"",""8548""
","""event"",""trial"",""time""
""fullscreenenter"",""1"",""9780""
","
","","[{""page_index"":0,""viewing_time"":9252.999999999998}]","9252.999999999998","","","","","","","","","","","","","","","","","","","","","","","",""
"pit-comprehension","3","25222","0.0-2.0-1.0-0.0","battery-v0.2","","""event"",""trial"",""time""
""blur"",""1"",""3665""
""focus"",""1"",""8548""
""fullscreenenter"",""1"",""9780""
","""event"",""trial"",""time""
""blur"",""1"",""3665""
","""event"",""trial"",""time""
""focus"",""1"",""8548""
","""event"",""trial"",""time""
""fullscreenenter"",""1"",""9780""
","
","","","5172","[""shark""]","0","19","11606","5341","","","","","","","","","","","","","","","","","","",""
"pit-instructions","4","26588","0.0-2.0-1.0-1.0","battery-v0.2","","""event"",""trial"",""time""
""blur"",""1"",""3665""
""focus"",""1"",""8548""
""fullscreenenter"",""1"",""9780""
","""event"",""trial"",""time""
""blur"",""1"",""3665""
","""event"",""trial"",""time""
""focus"",""1"",""8548""
","""event"",""trial"",""time""
""fullscreenenter"",""1"",""9780""
","
","","[{""page_index"":0,""viewing_time"":1362}]","1362","","","","","","","","","","","","","","","","","","","","","","","",""
"pit-comprehension","5","29255","0.0-2.0-2.0-0.0","battery-v0.2","","""event"",""trial"",""time""
""blur"",""1"",""3665""
""focus"",""1"",""8548""
""fullscreenenter"",""1"",""9780""
","""event"",""trial"",""time""
""blur"",""1"",""3665""
","""event"",""trial"",""time""
""focus"",""1"",""8548""
","""event"",""trial"",""time""
""fullscreenenter"",""1"",""9780""
","
","","","2664","[""tiger""]","0","19","11606","5341","","","","","","","","","","","","","","","","","","",""
"pit-instructions","6","30301","0.0-2.0-2.0-1.0","battery-v0.2","","""event"",""trial"",""time""
""blur"",""1"",""3665""
""focus"",""1"",""8548""
""fullscreenenter"",""1"",""9780""
","""event"",""trial"",""time""
""blur"",""1"",""3665""
","""event"",""trial"",""time""
""focus"",""1"",""8548""
","""event"",""trial"",""time""
""fullscreenenter"",""1"",""9780""
","
","","[{""page_index"":0,""viewing_time"":1042}]","1043","","","","","","","","","","","","","","","","","","","","","","","",""
"pit-instructions","7","135042","0.0-2.0-3.0","battery-v0.2","","""event"",""trial"",""time""
""blur"",""1"",""3665""
""focus"",""1"",""8548""
""fullscreenenter"",""1"",""9780""
","""event"",""trial"",""time""
""blur"",""1"",""3665""
","""event"",""trial"",""time""
""focus"",""1"",""8548""
","""event"",""trial"",""time""
""fullscreenenter"",""1"",""9780""
","
","","[{""page_index"":0,""viewing_time"":11434.000000000007},{""page_index"":1,""viewing_time"":6128},{""page_index"":2,""viewing_time"":6250},{""page_index"":3,""viewing_time"":7275.999999999993},{""page_index"":4,""viewing_time"":6665},{""page_index"":5,""viewing_time"":5977},{""page_index"":6,""viewing_time"":8233},{""page_index"":7,""viewing_time"":6950},{""page_index"":8,""viewing_time"":6218},{""page_index"":9,""viewing_time"":8399.000000000015},{""page_index"":10,""viewing_time"":8719.999999999985},{""page_index"":11,""viewing_time"":8905.000000000015},{""page_index"":12,""viewing_time"":7781.999999999985},{""page_index"":13,""viewing_time"":5805}]","104742","","","","","","","","","","","","","","","","","","","","","","","",""
"pit-trial","8","138412","0.0-2.0-4.0-0.0","battery-v0.2","","""event"",""trial"",""time""
""blur"",""1"",""3665""
""focus"",""1"",""8548""
""fullscreenenter"",""1"",""9780""
","""event"",""trial"",""time""
""blur"",""1"",""3665""
","""event"",""trial"",""time""
""focus"",""1"",""8548""
","""event"",""trial"",""time""
""fullscreenenter"",""1"",""9780""
","
","","","513.9999999999709","","","19","11606","5341","&#9784;","elianto","#FFFFF080"," "," ","1","&#10004","[1364]","1","0","0","","","","","","","",""
"pit-trial","9","142047","0.0-2.0-4.1-0.1","battery-v0.2","","""event"",""trial"",""time""
""blur"",""1"",""3665""
""focus"",""1"",""8548""
""fullscreenenter"",""1"",""9780""
","""event"",""trial"",""time""
""blur"",""1"",""3665""
","""event"",""trial"",""time""
""focus"",""1"",""8548""
","""event"",""trial"",""time""
""fullscreenenter"",""1"",""9780""
","
","","","778","","","19","11606","5341","&#9784;","elianto","#FFFFF080"," "," ","1","&#10004","[1626.999999999971]","1","0","0","","","","","","","",""
"pit-trial","10","145428","0.0-2.0-4.2-0.2","battery-v0.2","","""event"",""trial"",""time""
""blur"",""1"",""3665""
""focus"",""1"",""8548""
""fullscreenenter"",""1"",""9780""
","""event"",""trial"",""time""
""blur"",""1"",""3665""
","""event"",""trial"",""time""
""focus"",""1"",""8548""
","""event"",""trial"",""time""
""fullscreenenter"",""1"",""9780""
","
","","","523","","","19","11606","5341","&#9784;","elianto","#FFFFF080"," "," ","1","&#10004","[1372]","1","0","0","","","","","","","",""
"pit-trial","11","148706","0.0-2.0-4.3-0.3","battery-v0.2","","""event"",""trial"",""time""
""blur"",""1"",""3665""
""focus"",""1"",""8548""
""fullscreenenter"",""1"",""9780""
","""event"",""trial"",""time""
""blur"",""1"",""3665""
","""event"",""trial"",""time""
""focus"",""1"",""8548""
","""event"",""trial"",""time""
""fullscreenenter"",""1"",""9780""
","
","","","422","","","19","11606","5341","&#9784;","elianto","#FFFFF080"," "," ","1","&#10004","[1272]","1","0","0","","","","","","","",""
"pit-trial","12","152017","0.0-2.0-4.4-0.4","battery-v0.2","","""event"",""trial"",""time""
""blur"",""1"",""3665""
""focus"",""1"",""8548""
""fullscreenenter"",""1"",""9780""
","""event"",""trial"",""time""
""blur"",""1"",""3665""
","""event"",""trial"",""time""
""focus"",""1"",""8548""
","""event"",""trial"",""time""
""fullscreenenter"",""1"",""9780""
","
","","","454","","","19","11606","5341","&#9784;","elianto","#FFFFF080"," "," ","1","&#10004","[1305]","1","0","0","","","","","","","",""
"pit-instructions","13","175516","0.0-2.0-5.0","battery-v0.2","","""event"",""trial"",""time""
""blur"",""1"",""3665""
""focus"",""1"",""8548""
""fullscreenenter"",""1"",""9780""
","""event"",""trial"",""time""
""blur"",""1"",""3665""
","""event"",""trial"",""time""
""focus"",""1"",""8548""
","""event"",""trial"",""time""
""fullscreenenter"",""1"",""9780""
","
","","[{""page_index"":0,""viewing_time"":5300.999999999971},{""page_index"":1,""viewing_time"":6159},{""page_index"":2,""viewing_time"":5988},{""page_index"":3,""viewing_time"":6044}]","23491.99999999997","","","","","","","","","","","","","","","","","","","","","","","",""
"pit-trial","14","180370","0.0-2.0-6.0-0.0","battery-v0.2","","""event"",""trial"",""time""
""blur"",""1"",""3665""
""focus"",""1"",""8548""
""fullscreenenter"",""1"",""9780""
","""event"",""trial"",""time""
""blur"",""1"",""3665""
","""event"",""trial"",""time""
""focus"",""1"",""8548""
","""event"",""trial"",""time""
""fullscreenenter"",""1"",""9780""
","
","","","-1","","","19","11606","5341","&#9854;","elianto","#FFFFF080","-1","-1","1","&#10004","[]","0","0","1","","","","","","","",""
"pit-trial","15","185227","0.0-2.0-6.1-0.1","battery-v0.2","","""event"",""trial"",""time""
""blur"",""1"",""3665""
""focus"",""1"",""8548""
""fullscreenenter"",""1"",""9780""
","""event"",""trial"",""time""
""blur"",""1"",""3665""
","""event"",""trial"",""time""
""focus"",""1"",""8548""
","""event"",""trial"",""time""
""fullscreenenter"",""1"",""9780""
","
","","","-1","","","19","11606","5341","&#9854;","elianto","#FFFFF080","-1","-1","1","&#10004","[]","0","0","1","","","","","","","",""
"pit-trial","16","190084","0.0-2.0-6.2-0.2","battery-v0.2","","""event"",""trial"",""time""
""blur"",""1"",""3665""
""focus"",""1"",""8548""
""fullscreenenter"",""1"",""9780""
","""event"",""trial"",""time""
""blur"",""1"",""3665""
","""event"",""trial"",""time""
""focus"",""1"",""8548""
","""event"",""trial"",""time""
""fullscreenenter"",""1"",""9780""
","
","","","-1","","","19","11606","5341","&#9854;","elianto","#FFFFF080","-1","-1","1","&#10004","[]","0","0","1","","","","","","","",""
"pit-trial","17","194940","0.0-2.0-6.3-0.3","battery-v0.2","","""event"",""trial"",""time""
""blur"",""1"",""3665""
""focus"",""1"",""8548""
""fullscreenenter"",""1"",""9780""
","""event"",""trial"",""time""
""blur"",""1"",""3665""
","""event"",""trial"",""time""
""focus"",""1"",""8548""
","""event"",""trial"",""time""
""fullscreenenter"",""1"",""9780""
","
","","","-1","","","19","11606","5341","&#9854;","elianto","#FFFFF080","-1","-1","1","&#10004","[]","0","0","1","","","","","","","",""
"pit-trial","18","199795","0.0-2.0-6.4-0.4","battery-v0.2","","""event"",""trial"",""time""
""blur"",""1"",""3665""
""focus"",""1"",""8548""
""fullscreenenter"",""1"",""9780""
","""event"",""trial"",""time""
""blur"",""1"",""3665""
","""event"",""trial"",""time""
""focus"",""1"",""8548""
","""event"",""trial"",""time""
""fullscreenenter"",""1"",""9780""
","
","","","-1","","","19","11606","5341","&#9854;","elianto","#FFFFF080","-1","-1","1","&#10004","[]","0","0","1","","","","","","","",""
"pit-instructions","19","315913","0.0-2.0-7.0","battery-v0.2","","""event"",""trial"",""time""
""blur"",""1"",""3665""
""focus"",""1"",""8548""
""fullscreenenter"",""1"",""9780""
","""event"",""trial"",""time""
""blur"",""1"",""3665""
","""event"",""trial"",""time""
""focus"",""1"",""8548""
","""event"",""trial"",""time""
""fullscreenenter"",""1"",""9780""
","
","","[{""page_index"":0,""viewing_time"":5421},{""page_index"":1,""viewing_time"":7442},{""page_index"":2,""viewing_time"":6256},{""page_index"":3,""viewing_time"":6412.000000000029},{""page_index"":4,""viewing_time"":5240.999999999971},{""page_index"":5,""viewing_time"":5443.000000000029},{""page_index"":6,""viewing_time"":5699.999999999971},{""page_index"":7,""viewing_time"":7808},{""page_index"":8,""viewing_time"":7008.999999999971},{""page_index"":9,""viewing_time"":5583.000000000029},{""page_index"":10,""viewing_time"":6485},{""page_index"":11,""viewing_time"":4800},{""page_index"":12,""viewing_time"":7284},{""page_index"":13,""viewing_time"":6883},{""page_index"":14,""viewing_time"":7959},{""page_index"":15,""viewing_time"":6846},{""page_index"":16,""viewing_time"":6328},{""page_index"":17,""viewing_time"":7217.000000000058}]","116117.00000000006","","","","","","","","","","","","","","","","","","","","","","","",""
"pit-trial","20","319371","0.0-2.0-8.0-0.0","battery-v0.2","","""event"",""trial"",""time""
""blur"",""1"",""3665""
""focus"",""1"",""8548""
""fullscreenenter"",""1"",""9780""
","""event"",""trial"",""time""
""blur"",""1"",""3665""
","""event"",""trial"",""time""
""focus"",""1"",""8548""
","""event"",""trial"",""time""
""fullscreenenter"",""1"",""9780""
","
","","","604","","","19","11606","5341","&#9776;","elianto","#3366ff99"," "," ","1","+10","[1455]","1","0","1","","","","","","","",""
"pit-trial","21","322772","0.0-2.0-8.0-1.0","battery-v0.2","","""event"",""trial"",""time""
""blur"",""1"",""3665""
""focus"",""1"",""8548""
""fullscreenenter"",""1"",""9780""
","""event"",""trial"",""time""
""blur"",""1"",""3665""
","""event"",""trial"",""time""
""focus"",""1"",""8548""
","""event"",""trial"",""time""
""fullscreenenter"",""1"",""9780""
","
","","","545.0000000000582","","","19","11606","5341","&#9776;","elianto","#3366ff99"," "," ","1","+10","[1396.0000000000582]","1","0","1","","","","","","","",""
"pit-trial","22","326024","0.0-2.0-8.0-2.0","battery-v0.2","","""event"",""trial"",""time""
""blur"",""1"",""3665""
""focus"",""1"",""8548""
""fullscreenenter"",""1"",""9780""
","""event"",""trial"",""time""
""blur"",""1"",""3665""
","""event"",""trial"",""time""
""focus"",""1"",""8548""
","""event"",""trial"",""time""
""fullscreenenter"",""1"",""9780""
","
","","","395","","","19","11606","5341","&#9776;","elianto","#3366ff99"," "," ","1","+10","[1245]","1","0","1","","","","","","","",""
"pit-trial","23","329282","0.0-2.0-8.0-3.0","battery-v0.2","","""event"",""trial"",""time""
""blur"",""1"",""3665""
""focus"",""1"",""8548""
""fullscreenenter"",""1"",""9780""
","""event"",""trial"",""time""
""blur"",""1"",""3665""
","""event"",""trial"",""time""
""focus"",""1"",""8548""
","""event"",""trial"",""time""
""fullscreenenter"",""1"",""9780""
","
","","","400","","","19","11606","5341","&#9776;","elianto","#3366ff99"," "," ","1","0","[1252]","1","0","1","","","","","","","",""
"pit-trial","24","332421","0.0-2.0-8.0-4.0","battery-v0.2","","""event"",""trial"",""time""
""blur"",""1"",""3665""
""focus"",""1"",""8548""
""fullscreenenter"",""1"",""9780""
","""event"",""trial"",""time""
""blur"",""1"",""3665""
","""event"",""trial"",""time""
""focus"",""1"",""8548""
","""event"",""trial"",""time""
""fullscreenenter"",""1"",""9780""
","
","","","282","","","19","11606","5341","&#9776;","elianto","#3366ff99"," "," ","1","+10","[1131.9999999999418]","1","0","1","","","","","","","",""
"pit-trial","25","335562","0.0-2.0-8.1-0.1","battery-v0.2","","""event"",""trial"",""time""
""blur"",""1"",""3665""
""focus"",""1"",""8548""
""fullscreenenter"",""1"",""9780""
","""event"",""trial"",""time""
""blur"",""1"",""3665""
","""event"",""trial"",""time""
""focus"",""1"",""8548""
","""event"",""trial"",""time""
""fullscreenenter"",""1"",""9780""
","
","","","284.0000000000582","","","19","11606","5341","&#9776;","elianto","#3366ff99"," "," ","1","+10","[1134.0000000000582]","1","0","1","","","","","","","",""
"pit-trial","26","338704","0.0-2.0-8.1-1.1","battery-v0.2","","""event"",""trial"",""time""
""blur"",""1"",""3665""
""focus"",""1"",""8548""
""fullscreenenter"",""1"",""9780""
","""event"",""trial"",""time""
""blur"",""1"",""3665""
","""event"",""trial"",""time""
""focus"",""1"",""8548""
","""event"",""trial"",""time""
""fullscreenenter"",""1"",""9780""
","
","","","285","","","19","11606","5341","&#9776;","elianto","#3366ff99"," "," ","1","+10","[1136]","1","0","1","","","","","","","",""
"pit-trial","27","341866","0.0-2.0-8.1-2.1","battery-v0.2","","""event"",""trial"",""time""
""blur"",""1"",""3665""
""focus"",""1"",""8548""
""fullscreenenter"",""1"",""9780""
","""event"",""trial"",""time""
""blur"",""1"",""3665""
","""event"",""trial"",""time""
""focus"",""1"",""8548""
","""event"",""trial"",""time""
""fullscreenenter"",""1"",""9780""
","
","","","305","","","19","11606","5341","&#9776;","elianto","#3366ff99"," "," ","1","+10","[1156]","1","0","1","","","","","","","",""
"pit-trial","28","345067","0.0-2.0-8.1-3.1","battery-v0.2","","""event"",""trial"",""time""
""blur"",""1"",""3665""
""focus"",""1"",""8548""
""fullscreenenter"",""1"",""9780""
","""event"",""trial"",""time""
""blur"",""1"",""3665""
","""event"",""trial"",""time""
""focus"",""1"",""8548""
","""event"",""trial"",""time""
""fullscreenenter"",""1"",""9780""
","
","","","342.9999999999418","","","19","11606","5341","&#9776;","elianto","#3366ff99"," "," ","1","0","[1193.9999999999418]","1","0","1","","","","","","","",""
"pit-trial","29","348333","0.0-2.0-8.1-4.1","battery-v0.2","","""event"",""trial"",""time""
""blur"",""1"",""3665""
""focus"",""1"",""8548""
""fullscreenenter"",""1"",""9780""
","""event"",""trial"",""time""
""blur"",""1"",""3665""
","""event"",""trial"",""time""
""focus"",""1"",""8548""
","""event"",""trial"",""time""
""fullscreenenter"",""1"",""9780""
","
","","","411","","","19","11606","5341","&#9776;","elianto","#3366ff99"," "," ","1","+10","[1261]","1","0","1","","","","","","","",""
"pit-trial","30","351523","0.0-2.0-8.2-0.2","battery-v0.2","","""event"",""trial"",""time""
""blur"",""1"",""3665""
""focus"",""1"",""8548""
""fullscreenenter"",""1"",""9780""
","""event"",""trial"",""time""
""blur"",""1"",""3665""
","""event"",""trial"",""time""
""focus"",""1"",""8548""
","""event"",""trial"",""time""
""fullscreenenter"",""1"",""9780""
","
","","","332","","","19","11606","5341","&#9776;","elianto","#3366ff99"," "," ","1","+10","[1183]","1","0","1","","","","","","","",""
"pit-trial","31","354668","0.0-2.0-8.2-1.2","battery-v0.2","","""event"",""trial"",""time""
""blur"",""1"",""3665""
""focus"",""1"",""8548""
""fullscreenenter"",""1"",""9780""
","""event"",""trial"",""time""
""blur"",""1"",""3665""
","""event"",""trial"",""time""
""focus"",""1"",""8548""
","""event"",""trial"",""time""
""fullscreenenter"",""1"",""9780""
","
","","","288","","","19","11606","5341","&#9776;","elianto","#3366ff99"," "," ","1","+10","[1138]","1","0","1","","","","","","","",""
"pit-trial","32","358006","0.0-2.0-8.2-2.2","battery-v0.2","","""event"",""trial"",""time""
""blur"",""1"",""3665""
""focus"",""1"",""8548""
""fullscreenenter"",""1"",""9780""
","""event"",""trial"",""time""
""blur"",""1"",""3665""
","""event"",""trial"",""time""
""focus"",""1"",""8548""
","""event"",""trial"",""time""
""fullscreenenter"",""1"",""9780""
","
","","","482","","","19","11606","5341","&#9776;","elianto","#3366ff99"," "," ","1","+10","[1332]","1","0","1","","","","","","","",""
"pit-trial","33","361276","0.0-2.0-8.2-3.2","battery-v0.2","","""event"",""trial"",""time""
""blur"",""1"",""3665""
""focus"",""1"",""8548""
""fullscreenenter"",""1"",""9780""
","""event"",""trial"",""time""
""blur"",""1"",""3665""
","""event"",""trial"",""time""
""focus"",""1"",""8548""
","""event"",""trial"",""time""
""fullscreenenter"",""1"",""9780""
","
","","","414","","","19","11606","5341","&#9776;","elianto","#3366ff99"," "," ","1","0","[1265]","1","0","1","","","","","","","",""
"pit-trial","34","364759","0.0-2.0-8.2-4.2","battery-v0.2","","""event"",""trial"",""time""
""blur"",""1"",""3665""
""focus"",""1"",""8548""
""fullscreenenter"",""1"",""9780""
","""event"",""trial"",""time""
""blur"",""1"",""3665""
","""event"",""trial"",""time""
""focus"",""1"",""8548""
","""event"",""trial"",""time""
""fullscreenenter"",""1"",""9780""
","
","","","626.0000000000582","","","19","11606","5341","&#9776;","elianto","#3366ff99"," "," ","1","+10","[1477.0000000000582]","1","0","1","","","","","","","",""
"call-function","35","364765","0.0-2.0-9.0","battery-v0.2","","""event"",""trial"",""time""
""blur"",""1"",""3665""
""focus"",""1"",""8548""
""fullscreenenter"",""1"",""9780""
","""event"",""trial"",""time""
""blur"",""1"",""3665""
","""event"",""trial"",""time""
""focus"",""1"",""8548""
","""event"",""trial"",""time""
""fullscreenenter"",""1"",""9780""
","
","","","","","","","","","","","","","","","","","","","","","","","","","","",""
"pit-instructions","36","406551","0.0-2.0-10.0","battery-v0.2","","""event"",""trial"",""time""
""blur"",""1"",""3665""
""focus"",""1"",""8548""
""fullscreenenter"",""1"",""9780""
","""event"",""trial"",""time""
""blur"",""1"",""3665""
","""event"",""trial"",""time""
""focus"",""1"",""8548""
","""event"",""trial"",""time""
""fullscreenenter"",""1"",""9780""
","
","","[{""page_index"":0,""viewing_time"":8552},{""page_index"":1,""viewing_time"":6797},{""page_index"":2,""viewing_time"":9732},{""page_index"":3,""viewing_time"":8268},{""page_index"":4,""viewing_time"":8438}]","41788","","","","","","","","","","","","","","","","","","","","","","","",""
"pit-trial","37","409974","0.0-2.0-11.0-0.0","battery-v0.2","","""event"",""trial"",""time""
""blur"",""1"",""3665""
""focus"",""1"",""8548""
""fullscreenenter"",""1"",""9780""
","""event"",""trial"",""time""
""blur"",""1"",""3665""
","""event"",""trial"",""time""
""focus"",""1"",""8548""
","""event"",""trial"",""time""
""fullscreenenter"",""1"",""9780""
","
","","","571","","","19","11606","5341","&#9761;","elianto","#3366ff99","-1"," ","0","0","[1420.9999999999418]","1","0","2","","","","","","","",""
"pit-trial","38","414829","0.0-2.0-11.0-1.0","battery-v0.2","","""event"",""trial"",""time""
""blur"",""1"",""3665""
""focus"",""1"",""8548""
""fullscreenenter"",""1"",""9780""
","""event"",""trial"",""time""
""blur"",""1"",""3665""
","""event"",""trial"",""time""
""focus"",""1"",""8548""
","""event"",""trial"",""time""
""fullscreenenter"",""1"",""9780""
","
","","","-1","","","19","11606","5341","&#9761;","elianto","#3366ff99","-1","-1","1","+10","[]","0","0","2","","","","","","","",""
"pit-trial","39","419685","0.0-2.0-11.0-2.0","battery-v0.2","","""event"",""trial"",""time""
""blur"",""1"",""3665""
""focus"",""1"",""8548""
""fullscreenenter"",""1"",""9780""
","""event"",""trial"",""time""
""blur"",""1"",""3665""
","""event"",""trial"",""time""
""focus"",""1"",""8548""
","""event"",""trial"",""time""
""fullscreenenter"",""1"",""9780""
","
","","","-1","","","19","11606","5341","&#9761;","elianto","#3366ff99","-1","-1","1","+10","[]","0","0","2","","","","","","","",""
"pit-trial","40","424541","0.0-2.0-11.0-3.0","battery-v0.2","","""event"",""trial"",""time""
""blur"",""1"",""3665""
""focus"",""1"",""8548""
""fullscreenenter"",""1"",""9780""
","""event"",""trial"",""time""
""blur"",""1"",""3665""
","""event"",""trial"",""time""
""focus"",""1"",""8548""
","""event"",""trial"",""time""
""fullscreenenter"",""1"",""9780""
","
","","","-1","","","19","11606","5341","&#9761;","elianto","#3366ff99","-1","-1","1","0","[]","0","0","2","","","","","","","",""
"pit-trial","41","429397","0.0-2.0-11.0-4.0","battery-v0.2","","""event"",""trial"",""time""
""blur"",""1"",""3665""
""focus"",""1"",""8548""
""fullscreenenter"",""1"",""9780""
","""event"",""trial"",""time""
""blur"",""1"",""3665""
","""event"",""trial"",""time""
""focus"",""1"",""8548""
","""event"",""trial"",""time""
""fullscreenenter"",""1"",""9780""
","
","","","-1","","","19","11606","5341","&#9761;","elianto","#3366ff99","-1","-1","1","+10","[]","0","0","2","","","","","","","",""
"pit-trial","42","434258","0.0-2.0-11.1-0.1","battery-v0.2","","""event"",""trial"",""time""
""blur"",""1"",""3665""
""focus"",""1"",""8548""
""fullscreenenter"",""1"",""9780""
","""event"",""trial"",""time""
""blur"",""1"",""3665""
","""event"",""trial"",""time""
""focus"",""1"",""8548""
","""event"",""trial"",""time""
""fullscreenenter"",""1"",""9780""
","
","","","-1","","","19","11606","5341","&#9761;","elianto","#3366ff99","-1","-1","1","+10","[]","0","0","2","","","","","","","",""
"pit-trial","43","439116","0.0-2.0-11.1-1.1","battery-v0.2","","""event"",""trial"",""time""
""blur"",""1"",""3665""
""focus"",""1"",""8548""
""fullscreenenter"",""1"",""9780""
","""event"",""trial"",""time""
""blur"",""1"",""3665""
","""event"",""trial"",""time""
""focus"",""1"",""8548""
","""event"",""trial"",""time""
""fullscreenenter"",""1"",""9780""
","
","","","-1","","","19","11606","5341","&#9761;","elianto","#3366ff99","-1","-1","1","+10","[]","0","0","2","","","","","","","",""
"pit-trial","44","443972","0.0-2.0-11.1-2.1","battery-v0.2","","""event"",""trial"",""time""
""blur"",""1"",""3665""
""focus"",""1"",""8548""
""fullscreenenter"",""1"",""9780""
","""event"",""trial"",""time""
""blur"",""1"",""3665""
","""event"",""trial"",""time""
""focus"",""1"",""8548""
","""event"",""trial"",""time""
""fullscreenenter"",""1"",""9780""
","
","","","-1","","","19","11606","5341","&#9761;","elianto","#3366ff99","-1","-1","1","+10","[]","0","0","2","","","","","","","",""
"pit-trial","45","448830","0.0-2.0-11.1-3.1","battery-v0.2","","""event"",""trial"",""time""
""blur"",""1"",""3665""
""focus"",""1"",""8548""
""fullscreenenter"",""1"",""9780""
","""event"",""trial"",""time""
""blur"",""1"",""3665""
","""event"",""trial"",""time""
""focus"",""1"",""8548""
","""event"",""trial"",""time""
""fullscreenenter"",""1"",""9780""
","
","","","-1","","","19","11606","5341","&#9761;","elianto","#3366ff99","-1","-1","1","0","[]","0","0","2","","","","","","","",""
"pit-trial","46","453686","0.0-2.0-11.1-4.1","battery-v0.2","","""event"",""trial"",""time""
""blur"",""1"",""3665""
""focus"",""1"",""8548""
""fullscreenenter"",""1"",""9780""
","""event"",""trial"",""time""
""blur"",""1"",""3665""
","""event"",""trial"",""time""
""focus"",""1"",""8548""
","""event"",""trial"",""time""
""fullscreenenter"",""1"",""9780""
","
","","","-1","","","19","11606","5341","&#9761;","elianto","#3366ff99","-1","-1","1","+10","[]","0","0","2","","","","","","","",""
"pit-trial","47","458542","0.0-2.0-11.2-0.2","battery-v0.2","","""event"",""trial"",""time""
""blur"",""1"",""3665""
""focus"",""1"",""8548""
""fullscreenenter"",""1"",""9780""
","""event"",""trial"",""time""
""blur"",""1"",""3665""
","""event"",""trial"",""time""
""focus"",""1"",""8548""
","""event"",""trial"",""time""
""fullscreenenter"",""1"",""9780""
","
","","","-1","","","19","11606","5341","&#9761;","elianto","#3366ff99","-1","-1","1","+10","[]","0","0","2","","","","","","","",""
"pit-trial","48","463399","0.0-2.0-11.2-1.2","battery-v0.2","","""event"",""trial"",""time""
""blur"",""1"",""3665""
""focus"",""1"",""8548""
""fullscreenenter"",""1"",""9780""
","""event"",""trial"",""time""
""blur"",""1"",""3665""
","""event"",""trial"",""time""
""focus"",""1"",""8548""
","""event"",""trial"",""time""
""fullscreenenter"",""1"",""9780""
","
","","","-1","","","19","11606","5341","&#9761;","elianto","#3366ff99","-1","-1","1","+10","[]","0","0","2","","","","","","","",""
"pit-trial","49","468256","0.0-2.0-11.2-2.2","battery-v0.2","","""event"",""trial"",""time""
""blur"",""1"",""3665""
""focus"",""1"",""8548""
""fullscreenenter"",""1"",""9780""
","""event"",""trial"",""time""
""blur"",""1"",""3665""
","""event"",""trial"",""time""
""focus"",""1"",""8548""
","""event"",""trial"",""time""
""fullscreenenter"",""1"",""9780""
","
","","","-1","","","19","11606","5341","&#9761;","elianto","#3366ff99","-1","-1","1","+10","[]","0","0","2","","","","","","","",""
"pit-trial","50","473113","0.0-2.0-11.2-3.2","battery-v0.2","","""event"",""trial"",""time""
""blur"",""1"",""3665""
""focus"",""1"",""8548""
""fullscreenenter"",""1"",""9780""
","""event"",""trial"",""time""
""blur"",""1"",""3665""
","""event"",""trial"",""time""
""focus"",""1"",""8548""
","""event"",""trial"",""time""
""fullscreenenter"",""1"",""9780""
","
","","","-1","","","19","11606","5341","&#9761;","elianto","#3366ff99","-1","-1","1","0","[]","0","0","2","","","","","","","",""
"pit-trial","51","477970","0.0-2.0-11.2-4.2","battery-v0.2","","""event"",""trial"",""time""
""blur"",""1"",""3665""
""focus"",""1"",""8548""
""fullscreenenter"",""1"",""9780""
","""event"",""trial"",""time""
""blur"",""1"",""3665""
","""event"",""trial"",""time""
""focus"",""1"",""8548""
","""event"",""trial"",""time""
""fullscreenenter"",""1"",""9780""
","
","","","-1","","","19","11606","5341","&#9761;","elianto","#3366ff99","-1","-1","1","+10","[]","0","0","2","","","","","","","",""
"pit-trial","52","482826","0.0-2.0-11.3-0.3","battery-v0.2","","""event"",""trial"",""time""
""blur"",""1"",""3665""
""focus"",""1"",""8548""
""fullscreenenter"",""1"",""9780""
","""event"",""trial"",""time""
""blur"",""1"",""3665""
","""event"",""trial"",""time""
""focus"",""1"",""8548""
","""event"",""trial"",""time""
""fullscreenenter"",""1"",""9780""
","
","","","-1","","","19","11606","5341","&#9761;","elianto","#3366ff99","-1","-1","1","+10","[]","0","0","2","","","","","","","",""
"pit-trial","53","487683","0.0-2.0-11.3-1.3","battery-v0.2","","""event"",""trial"",""time""
""blur"",""1"",""3665""
""focus"",""1"",""8548""
""fullscreenenter"",""1"",""9780""
","""event"",""trial"",""time""
""blur"",""1"",""3665""
","""event"",""trial"",""time""
""focus"",""1"",""8548""
","""event"",""trial"",""time""
""fullscreenenter"",""1"",""9780""
","
","","","-1","","","19","11606","5341","&#9761;","elianto","#3366ff99","-1","-1","1","+10","[]","0","0","2","","","","","","","",""
"pit-trial","54","492539","0.0-2.0-11.3-2.3","battery-v0.2","","""event"",""trial"",""time""
""blur"",""1"",""3665""
""focus"",""1"",""8548""
""fullscreenenter"",""1"",""9780""
","""event"",""trial"",""time""
""blur"",""1"",""3665""
","""event"",""trial"",""time""
""focus"",""1"",""8548""
","""event"",""trial"",""time""
""fullscreenenter"",""1"",""9780""
","
","","","-1","","","19","11606","5341","&#9761;","elianto","#3366ff99","-1","-1","1","+10","[]","0","0","2","","","","","","","",""
"pit-trial","55","497396","0.0-2.0-11.3-3.3","battery-v0.2","","""event"",""trial"",""time""
""blur"",""1"",""3665""
""focus"",""1"",""8548""
""fullscreenenter"",""1"",""9780""
","""event"",""trial"",""time""
""blur"",""1"",""3665""
","""event"",""trial"",""time""
""focus"",""1"",""8548""
","""event"",""trial"",""time""
""fullscreenenter"",""1"",""9780""
","
","","","-1","","","19","11606","5341","&#9761;","elianto","#3366ff99","-1","-1","1","0","[]","0","0","2","","","","","","","",""
"pit-trial","56","502253","0.0-2.0-11.3-4.3","battery-v0.2","","""event"",""trial"",""time""
""blur"",""1"",""3665""
""focus"",""1"",""8548""
""fullscreenenter"",""1"",""9780""
","""event"",""trial"",""time""
""blur"",""1"",""3665""
","""event"",""trial"",""time""
""focus"",""1"",""8548""
","""event"",""trial"",""time""
""fullscreenenter"",""1"",""9780""
","
","","","-1","","","19","11606","5341","&#9761;","elianto","#3366ff99","-1","-1","1","+10","[]","0","0","2","","","","","","","",""
"call-function","57","502257","0.0-2.0-12.0","battery-v0.2","","""event"",""trial"",""time""
""blur"",""1"",""3665""
""focus"",""1"",""8548""
""fullscreenenter"",""1"",""9780""
","""event"",""trial"",""time""
""blur"",""1"",""3665""
","""event"",""trial"",""time""
""focus"",""1"",""8548""
","""event"",""trial"",""time""
""fullscreenenter"",""1"",""9780""
","
","","","","","","","","","","","","","","","","","","","","","","","","","","",""
"pit-instructions","58","532599","0.0-2.0-13.0","battery-v0.2","","""event"",""trial"",""time""
""blur"",""1"",""3665""
""focus"",""1"",""8548""
""fullscreenenter"",""1"",""9780""
","""event"",""trial"",""time""
""blur"",""1"",""3665""
","""event"",""trial"",""time""
""focus"",""1"",""8548""
","""event"",""trial"",""time""
""fullscreenenter"",""1"",""9780""
","
","","[{""page_index"":0,""viewing_time"":4621},{""page_index"":1,""viewing_time"":7026.000000000058},{""page_index"":2,""viewing_time"":3146.999999999942},{""page_index"":3,""viewing_time"":10877.000000000116},{""page_index"":4,""viewing_time"":4669.999999999884}]","30342","","","","","","","","","","","","","","","","","","","","","","","",""
"pit-trial","59","535880","0.0-2.0-14.0-0.0","battery-v0.2","","""event"",""trial"",""time""
""blur"",""1"",""3665""
""focus"",""1"",""8548""
""fullscreenenter"",""1"",""9780""
","""event"",""trial"",""time""
""blur"",""1"",""3665""
","""event"",""trial"",""time""
""focus"",""1"",""8548""
","""event"",""trial"",""time""
""fullscreenenter"",""1"",""9780""
","
","","","425","","","19","11606","5341","&#9826;","elianto","#f73b6a7A","-1"," ","0","-10","[1275]","1","0","3","","","","","","","",""
"pit-trial","60","540736","0.0-2.0-14.0-1.0","battery-v0.2","","""event"",""trial"",""time""
""blur"",""1"",""3665""
""focus"",""1"",""8548""
""fullscreenenter"",""1"",""9780""
","""event"",""trial"",""time""
""blur"",""1"",""3665""
","""event"",""trial"",""time""
""focus"",""1"",""8548""
","""event"",""trial"",""time""
""fullscreenenter"",""1"",""9780""
","
","","","-1","","","19","11606","5341","&#9826;","elianto","#f73b6a7A","-1","-1","1","0","[]","0","0","3","","","","","","","",""
"pit-trial","61","545593","0.0-2.0-14.0-2.0","battery-v0.2","","""event"",""trial"",""time""
""blur"",""1"",""3665""
""focus"",""1"",""8548""
""fullscreenenter"",""1"",""9780""
","""event"",""trial"",""time""
""blur"",""1"",""3665""
","""event"",""trial"",""time""
""focus"",""1"",""8548""
","""event"",""trial"",""time""
""fullscreenenter"",""1"",""9780""
","
","","","-1","","","19","11606","5341","&#9826;","elianto","#f73b6a7A","-1","-1","1","0","[]","0","0","3","","","","","","","",""
"pit-trial","62","550456","0.0-2.0-14.0-3.0","battery-v0.2","","""event"",""trial"",""time""
""blur"",""1"",""3665""
""focus"",""1"",""8548""
""fullscreenenter"",""1"",""9780""
","""event"",""trial"",""time""
""blur"",""1"",""3665""
","""event"",""trial"",""time""
""focus"",""1"",""8548""
","""event"",""trial"",""time""
""fullscreenenter"",""1"",""9780""
","
","","","-1","","","19","11606","5341","&#9826;","elianto","#f73b6a7A","-1","-1","1","-10","[]","0","0","3","","","","","","","",""
"pit-trial","63","555313","0.0-2.0-14.0-4.0","battery-v0.2","","""event"",""trial"",""time""
""blur"",""1"",""3665""
""focus"",""1"",""8548""
""fullscreenenter"",""1"",""9780""
","""event"",""trial"",""time""
""blur"",""1"",""3665""
","""event"",""trial"",""time""
""focus"",""1"",""8548""
","""event"",""trial"",""time""
""fullscreenenter"",""1"",""9780""
","
","","","-1","","","19","11606","5341","&#9826;","elianto","#f73b6a7A","-1","-1","1","0","[]","0","0","3","","","","","","","",""
"pit-trial","64","560171","0.0-2.0-14.1-0.1","battery-v0.2","","""event"",""trial"",""time""
""blur"",""1"",""3665""
""focus"",""1"",""8548""
""fullscreenenter"",""1"",""9780""
","""event"",""trial"",""time""
""blur"",""1"",""3665""
","""event"",""trial"",""time""
""focus"",""1"",""8548""
","""event"",""trial"",""time""
""fullscreenenter"",""1"",""9780""
","
","","","-1","","","19","11606","5341","&#9826;","elianto","#f73b6a7A","-1","-1","1","0","[]","0","0","3","","","","","","","",""
"pit-trial","65","565027","0.0-2.0-14.1-1.1","battery-v0.2","","""event"",""trial"",""time""
""blur"",""1"",""3665""
""focus"",""1"",""8548""
""fullscreenenter"",""1"",""9780""
","""event"",""trial"",""time""
""blur"",""1"",""3665""
","""event"",""trial"",""time""
""focus"",""1"",""8548""
","""event"",""trial"",""time""
""fullscreenenter"",""1"",""9780""
","
","","","-1","","","19","11606","5341","&#9826;","elianto","#f73b6a7A","-1","-1","1","0","[]","0","0","3","","","","","","","",""
"pit-trial","66","569884","0.0-2.0-14.1-2.1","battery-v0.2","","""event"",""trial"",""time""
""blur"",""1"",""3665""
""focus"",""1"",""8548""
""fullscreenenter"",""1"",""9780""
","""event"",""trial"",""time""
""blur"",""1"",""3665""
","""event"",""trial"",""time""
""focus"",""1"",""8548""
","""event"",""trial"",""time""
""fullscreenenter"",""1"",""9780""
","
","","","-1","","","19","11606","5341","&#9826;","elianto","#f73b6a7A","-1","-1","1","0","[]","0","0","3","","","","","","","",""
"pit-trial","67","574739","0.0-2.0-14.1-3.1","battery-v0.2","","""event"",""trial"",""time""
""blur"",""1"",""3665""
""focus"",""1"",""8548""
""fullscreenenter"",""1"",""9780""
","""event"",""trial"",""time""
""blur"",""1"",""3665""
","""event"",""trial"",""time""
""focus"",""1"",""8548""
","""event"",""trial"",""time""
""fullscreenenter"",""1"",""9780""
","
","","","-1","","","19","11606","5341","&#9826;","elianto","#f73b6a7A","-1","-1","1","-10","[]","0","0","3","","","","","","","",""
"pit-trial","68","579596","0.0-2.0-14.1-4.1","battery-v0.2","","""event"",""trial"",""time""
""blur"",""1"",""3665""
""focus"",""1"",""8548""
""fullscreenenter"",""1"",""9780""
","""event"",""trial"",""time""
""blur"",""1"",""3665""
","""event"",""trial"",""time""
""focus"",""1"",""8548""
","""event"",""trial"",""time""
""fullscreenenter"",""1"",""9780""
","
","","","-1","","","19","11606","5341","&#9826;","elianto","#f73b6a7A","-1","-1","1","0","[]","0","0","3","","","","","","","",""
"pit-trial","69","584454","0.0-2.0-14.2-0.2","battery-v0.2","","""event"",""trial"",""time""
""blur"",""1"",""3665""
""focus"",""1"",""8548""
""fullscreenenter"",""1"",""9780""
","""event"",""trial"",""time""
""blur"",""1"",""3665""
","""event"",""trial"",""time""
""focus"",""1"",""8548""
","""event"",""trial"",""time""
""fullscreenenter"",""1"",""9780""
","
","","","-1","","","19","11606","5341","&#9826;","elianto","#f73b6a7A","-1","-1","1","0","[]","0","0","3","","","","","","","",""
"pit-trial","70","589310","0.0-2.0-14.2-1.2","battery-v0.2","","""event"",""trial"",""time""
""blur"",""1"",""3665""
""focus"",""1"",""8548""
""fullscreenenter"",""1"",""9780""
","""event"",""trial"",""time""
""blur"",""1"",""3665""
","""event"",""trial"",""time""
""focus"",""1"",""8548""
","""event"",""trial"",""time""
""fullscreenenter"",""1"",""9780""
","
","","","-1","","","19","11606","5341","&#9826;","elianto","#f73b6a7A","-1","-1","1","0","[]","0","0","3","","","","","","","",""
"pit-trial","71","594167","0.0-2.0-14.2-2.2","battery-v0.2","","""event"",""trial"",""time""
""blur"",""1"",""3665""
""focus"",""1"",""8548""
""fullscreenenter"",""1"",""9780""
","""event"",""trial"",""time""
""blur"",""1"",""3665""
","""event"",""trial"",""time""
""focus"",""1"",""8548""
","""event"",""trial"",""time""
""fullscreenenter"",""1"",""9780""
","
","","","-1","","","19","11606","5341","&#9826;","elianto","#f73b6a7A","-1","-1","1","0","[]","0","0","3","","","","","","","",""
"pit-trial","72","599023","0.0-2.0-14.2-3.2","battery-v0.2","","""event"",""trial"",""time""
""blur"",""1"",""3665""
""focus"",""1"",""8548""
""fullscreenenter"",""1"",""9780""
","""event"",""trial"",""time""
""blur"",""1"",""3665""
","""event"",""trial"",""time""
""focus"",""1"",""8548""
","""event"",""trial"",""time""
""fullscreenenter"",""1"",""9780""
","
","","","-1","","","19","11606","5341","&#9826;","elianto","#f73b6a7A","-1","-1","1","-10","[]","0","0","3","","","","","","","",""
"pit-trial","73","603879","0.0-2.0-14.2-4.2","battery-v0.2","","""event"",""trial"",""time""
""blur"",""1"",""3665""
""focus"",""1"",""8548""
""fullscreenenter"",""1"",""9780""
","""event"",""trial"",""time""
""blur"",""1"",""3665""
","""event"",""trial"",""time""
""focus"",""1"",""8548""
","""event"",""trial"",""time""
""fullscreenenter"",""1"",""9780""
","
","","","-1","","","19","11606","5341","&#9826;","elianto","#f73b6a7A","-1","-1","1","0","[]","0","0","3","","","","","","","",""
"pit-trial","74","608736","0.0-2.0-14.3-0.3","battery-v0.2","","""event"",""trial"",""time""
""blur"",""1"",""3665""
""focus"",""1"",""8548""
""fullscreenenter"",""1"",""9780""
","""event"",""trial"",""time""
""blur"",""1"",""3665""
","""event"",""trial"",""time""
""focus"",""1"",""8548""
","""event"",""trial"",""time""
""fullscreenenter"",""1"",""9780""
","
","","","-1","","","19","11606","5341","&#9826;","elianto","#f73b6a7A","-1","-1","1","0","[]","0","0","3","","","","","","","",""
"pit-trial","75","613594","0.0-2.0-14.3-1.3","battery-v0.2","","""event"",""trial"",""time""
""blur"",""1"",""3665""
""focus"",""1"",""8548""
""fullscreenenter"",""1"",""9780""
","""event"",""trial"",""time""
""blur"",""1"",""3665""
","""event"",""trial"",""time""
""focus"",""1"",""8548""
","""event"",""trial"",""time""
""fullscreenenter"",""1"",""9780""
","
","","","-1","","","19","11606","5341","&#9826;","elianto","#f73b6a7A","-1","-1","1","0","[]","0","0","3","","","","","","","",""
"pit-trial","76","618451","0.0-2.0-14.3-2.3","battery-v0.2","","""event"",""trial"",""time""
""blur"",""1"",""3665""
""focus"",""1"",""8548""
""fullscreenenter"",""1"",""9780""
","""event"",""trial"",""time""
""blur"",""1"",""3665""
","""event"",""trial"",""time""
""focus"",""1"",""8548""
","""event"",""trial"",""time""
""fullscreenenter"",""1"",""9780""
","
","","","-1","","","19","11606","5341","&#9826;","elianto","#f73b6a7A","-1","-1","1","0","[]","0","0","3","","","","","","","",""
"pit-trial","77","623308","0.0-2.0-14.3-3.3","battery-v0.2","","""event"",""trial"",""time""
""blur"",""1"",""3665""
""focus"",""1"",""8548""
""fullscreenenter"",""1"",""9780""
","""event"",""trial"",""time""
""blur"",""1"",""3665""
","""event"",""trial"",""time""
""focus"",""1"",""8548""
","""event"",""trial"",""time""
""fullscreenenter"",""1"",""9780""
","
","","","-1","","","19","11606","5341","&#9826;","elianto","#f73b6a7A","-1","-1","1","-10","[]","0","0","3","","","","","","","",""
"pit-trial","78","628164","0.0-2.0-14.3-4.3","battery-v0.2","","""event"",""trial"",""time""
""blur"",""1"",""3665""
""focus"",""1"",""8548""
""fullscreenenter"",""1"",""9780""
","""event"",""trial"",""time""
""blur"",""1"",""3665""
","""event"",""trial"",""time""
""focus"",""1"",""8548""
","""event"",""trial"",""time""
""fullscreenenter"",""1"",""9780""
","
","","","-1","","","19","11606","5341","&#9826;","elianto","#f73b6a7A","-1","-1","1","0","[]","0","0","3","","","","","","","",""
"call-function","79","628168","0.0-2.0-15.0","battery-v0.2","","""event"",""trial"",""time""
""blur"",""1"",""3665""
""focus"",""1"",""8548""
""fullscreenenter"",""1"",""9780""
","""event"",""trial"",""time""
""blur"",""1"",""3665""
","""event"",""trial"",""time""
""focus"",""1"",""8548""
","""event"",""trial"",""time""
""fullscreenenter"",""1"",""9780""
","
","","","","","","","","","","","","","","","","","","","","","","","","","","",""
"pit-instructions","80","652482","0.0-2.0-16.0","battery-v0.2","","""event"",""trial"",""time""
""blur"",""1"",""3665""
""focus"",""1"",""8548""
""fullscreenenter"",""1"",""9780""
","""event"",""trial"",""time""
""blur"",""1"",""3665""
","""event"",""trial"",""time""
""focus"",""1"",""8548""
","""event"",""trial"",""time""
""fullscreenenter"",""1"",""9780""
","
","","[{""page_index"":0,""viewing_time"":6515},{""page_index"":1,""viewing_time"":8616},{""page_index"":2,""viewing_time"":4287},{""page_index"":3,""viewing_time"":4896}]","24314","","","","","","","","","","","","","","","","","","","","","","","",""
"pit-trial","81","655705","0.0-2.0-17.0-0.0","battery-v0.2","","""event"",""trial"",""time""
""blur"",""1"",""3665""
""focus"",""1"",""8548""
""fullscreenenter"",""1"",""9780""
","""event"",""trial"",""time""
""blur"",""1"",""3665""
","""event"",""trial"",""time""
""focus"",""1"",""8548""
","""event"",""trial"",""time""
""fullscreenenter"",""1"",""9780""
","
","","","368","","","19","11606","5341","&#9789;","elianto","#f73b6a7A"," "," ","1","0","[1219]","1","0","4","","","","","","","",""
"pit-trial","82","658663","0.0-2.0-17.0-1.0","battery-v0.2","","""event"",""trial"",""time""
""blur"",""1"",""3665""
""focus"",""1"",""8548""
""fullscreenenter"",""1"",""9780""
","""event"",""trial"",""time""
""blur"",""1"",""3665""
","""event"",""trial"",""time""
""focus"",""1"",""8548""
","""event"",""trial"",""time""
""fullscreenenter"",""1"",""9780""
","
","","","101","","","19","11606","5341","&#9789;","elianto","#f73b6a7A"," "," ","1","0","[952]","1","0","4","","","","","","","",""
"pit-trial","83","661684","0.0-2.0-17.0-2.0","battery-v0.2","","""event"",""trial"",""time""
""blur"",""1"",""3665""
""focus"",""1"",""8548""
""fullscreenenter"",""1"",""9780""
","""event"",""trial"",""time""
""blur"",""1"",""3665""
","""event"",""trial"",""time""
""focus"",""1"",""8548""
","""event"",""trial"",""time""
""fullscreenenter"",""1"",""9780""
","
","","","163","","","19","11606","5341","&#9789;","elianto","#f73b6a7A"," "," ","1","0","[1014]","1","0","4","","","","","","","",""
"pit-trial","84","664716","0.0-2.0-17.0-3.0","battery-v0.2","","""event"",""trial"",""time""
""blur"",""1"",""3665""
""focus"",""1"",""8548""
""fullscreenenter"",""1"",""9780""
","""event"",""trial"",""time""
""blur"",""1"",""3665""
","""event"",""trial"",""time""
""focus"",""1"",""8548""
","""event"",""trial"",""time""
""fullscreenenter"",""1"",""9780""
","
","","","175","","","19","11606","5341","&#9789;","elianto","#f73b6a7A"," "," ","1","-10","[1026]","1","0","4","","","","","","","",""
"pit-trial","85","667746","0.0-2.0-17.0-4.0","battery-v0.2","","""event"",""trial"",""time""
""blur"",""1"",""3665""
""focus"",""1"",""8548""
""fullscreenenter"",""1"",""9780""
","""event"",""trial"",""time""
""blur"",""1"",""3665""
","""event"",""trial"",""time""
""focus"",""1"",""8548""
","""event"",""trial"",""time""
""fullscreenenter"",""1"",""9780""
","
","","","174","","","19","11606","5341","&#9789;","elianto","#f73b6a7A"," "," ","1","0","[1025]","1","0","4","","","","","","","",""
"pit-trial","86","670810","0.0-2.0-17.1-0.1","battery-v0.2","","""event"",""trial"",""time""
""blur"",""1"",""3665""
""focus"",""1"",""8548""
""fullscreenenter"",""1"",""9780""
","""event"",""trial"",""time""
""blur"",""1"",""3665""
","""event"",""trial"",""time""
""focus"",""1"",""8548""
","""event"",""trial"",""time""
""fullscreenenter"",""1"",""9780""
","
","","","206","","","19","11606","5341","&#9789;","elianto","#f73b6a7A"," "," ","1","0","[1056]","1","0","4","","","","","","","",""
"pit-trial","87","673812","0.0-2.0-17.1-1.1","battery-v0.2","","""event"",""trial"",""time""
""blur"",""1"",""3665""
""focus"",""1"",""8548""
""fullscreenenter"",""1"",""9780""
","""event"",""trial"",""time""
""blur"",""1"",""3665""
","""event"",""trial"",""time""
""focus"",""1"",""8548""
","""event"",""trial"",""time""
""fullscreenenter"",""1"",""9780""
","
","","","147","","","19","11606","5341","&#9789;","elianto","#f73b6a7A"," "," ","1","0","[997]","1","0","4","","","","","","","",""
"pit-trial","88","676839","0.0-2.0-17.1-2.1","battery-v0.2","","""event"",""trial"",""time""
""blur"",""1"",""3665""
""focus"",""1"",""8548""
""fullscreenenter"",""1"",""9780""
","""event"",""trial"",""time""
""blur"",""1"",""3665""
","""event"",""trial"",""time""
""focus"",""1"",""8548""
","""event"",""trial"",""time""
""fullscreenenter"",""1"",""9780""
","
","","","170","","","19","11606","5341","&#9789;","elianto","#f73b6a7A"," "," ","1","0","[1021]","1","0","4","","","","","","","",""
"pit-trial","89","679829","0.0-2.0-17.1-3.1","battery-v0.2","","""event"",""trial"",""time""
""blur"",""1"",""3665""
""focus"",""1"",""8548""
""fullscreenenter"",""1"",""9780""
","""event"",""trial"",""time""
""blur"",""1"",""3665""
","""event"",""trial"",""time""
""focus"",""1"",""8548""
","""event"",""trial"",""time""
""fullscreenenter"",""1"",""9780""
","
","","","133","","","19","11606","5341","&#9789;","elianto","#f73b6a7A"," "," ","1","-10","[984]","1","0","4","","","","","","","",""
"pit-trial","90","682822","0.0-2.0-17.1-4.1","battery-v0.2","","""event"",""trial"",""time""
""blur"",""1"",""3665""
""focus"",""1"",""8548""
""fullscreenenter"",""1"",""9780""
","""event"",""trial"",""time""
""blur"",""1"",""3665""
","""event"",""trial"",""time""
""focus"",""1"",""8548""
","""event"",""trial"",""time""
""fullscreenenter"",""1"",""9780""
","
","","","137","","","19","11606","5341","&#9789;","elianto","#f73b6a7A"," "," ","1","0","[988]","1","0","4","","","","","","","",""
"pit-trial","91","685815","0.0-2.0-17.2-0.2","battery-v0.2","","""event"",""trial"",""time""
""blur"",""1"",""3665""
""focus"",""1"",""8548""
""fullscreenenter"",""1"",""9780""
","""event"",""trial"",""time""
""blur"",""1"",""3665""
","""event"",""trial"",""time""
""focus"",""1"",""8548""
","""event"",""trial"",""time""
""fullscreenenter"",""1"",""9780""
","
","","","137","","","19","11606","5341","&#9789;","elianto","#f73b6a7A"," "," ","1","0","[988]","1","0","4","","","","","","","",""
"pit-trial","92","688878","0.0-2.0-17.2-1.2","battery-v0.2","","""event"",""trial"",""time""
""blur"",""1"",""3665""
""focus"",""1"",""8548""
""fullscreenenter"",""1"",""9780""
","""event"",""trial"",""time""
""blur"",""1"",""3665""
","""event"",""trial"",""time""
""focus"",""1"",""8548""
","""event"",""trial"",""time""
""fullscreenenter"",""1"",""9780""
","
","","","207","","","19","11606","5341","&#9789;","elianto","#f73b6a7A"," "," ","1","0","[1056.9999999998836]","1","0","4","","","","","","","",""
"pit-trial","93","691828","0.0-2.0-17.2-2.2","battery-v0.2","","""event"",""trial"",""time""
""blur"",""1"",""3665""
""focus"",""1"",""8548""
""fullscreenenter"",""1"",""9780""
","""event"",""trial"",""time""
""blur"",""1"",""3665""
","""event"",""trial"",""time""
""focus"",""1"",""8548""
","""event"",""trial"",""time""
""fullscreenenter"",""1"",""9780""
","
","","","94","","","19","11606","5341","&#9789;","elianto","#f73b6a7A"," "," ","1","0","[944]","1","0","4","","","","","","","",""
"pit-trial","94","694893","0.0-2.0-17.2-3.2","battery-v0.2","","""event"",""trial"",""time""
""blur"",""1"",""3665""
""focus"",""1"",""8548""
""fullscreenenter"",""1"",""9780""
","""event"",""trial"",""time""
""blur"",""1"",""3665""
","""event"",""trial"",""time""
""focus"",""1"",""8548""
","""event"",""trial"",""time""
""fullscreenenter"",""1"",""9780""
","
","","","208","","","19","11606","5341","&#9789;","elianto","#f73b6a7A"," "," ","1","-10","[1058.0000000001164]","1","0","4","","","","","","","",""
"pit-trial","95","698243","0.0-2.0-17.2-4.2","battery-v0.2","","""event"",""trial"",""time""
""blur"",""1"",""3665""
""focus"",""1"",""8548""
""fullscreenenter"",""1"",""9780""
","""event"",""trial"",""time""
""blur"",""1"",""3665""
","""event"",""trial"",""time""
""focus"",""1"",""8548""
","""event"",""trial"",""time""
""fullscreenenter"",""1"",""9780""
","
","","","493","","","19","11606","5341","&#9789;","elianto","#f73b6a7A"," "," ","1","0","[649,1344]","2","0","4","","","","","","","",""
"pit-trial","96","701306","0.0-2.0-17.3-0.3","battery-v0.2","","""event"",""trial"",""time""
""blur"",""1"",""3665""
""focus"",""1"",""8548""
""fullscreenenter"",""1"",""9780""
","""event"",""trial"",""time""
""blur"",""1"",""3665""
","""event"",""trial"",""time""
""focus"",""1"",""8548""
","""event"",""trial"",""time""
""fullscreenenter"",""1"",""9780""
","
","","","205.99999999988358","","","19","11606","5341","&#9789;","elianto","#f73b6a7A"," "," ","1","0","[1056.9999999998836]","1","0","4","","","","","","","",""
"pit-trial","97","704708","0.0-2.0-17.3-1.3","battery-v0.2","","""event"",""trial"",""time""
""blur"",""1"",""3665""
""focus"",""1"",""8548""
""fullscreenenter"",""1"",""9780""
","""event"",""trial"",""time""
""blur"",""1"",""3665""
","""event"",""trial"",""time""
""focus"",""1"",""8548""
","""event"",""trial"",""time""
""fullscreenenter"",""1"",""9780""
","
","","","545","","","19","11606","5341","&#9789;","elianto","#f73b6a7A"," "," ","1","0","[1395]","1","0","4","","","","","","","",""
"pit-trial","98","707873","0.0-2.0-17.3-2.3","battery-v0.2","","""event"",""trial"",""time""
""blur"",""1"",""3665""
""focus"",""1"",""8548""
""fullscreenenter"",""1"",""9780""
","""event"",""trial"",""time""
""blur"",""1"",""3665""
","""event"",""trial"",""time""
""focus"",""1"",""8548""
","""event"",""trial"",""time""
""fullscreenenter"",""1"",""9780""
","
","","","309.0000000001164","","","19","11606","5341","&#9789;","elianto","#f73b6a7A"," "," ","1","0","[1159]","1","0","4","","","","","","","",""
"pit-trial","99","710878","0.0-2.0-17.3-3.3","battery-v0.2","","""event"",""trial"",""time""
""blur"",""1"",""3665""
""focus"",""1"",""8548""
""fullscreenenter"",""1"",""9780""
","""event"",""trial"",""time""
""blur"",""1"",""3665""
","""event"",""trial"",""time""
""focus"",""1"",""8548""
","""event"",""trial"",""time""
""fullscreenenter"",""1"",""9780""
","
","","","150","","","19","11606","5341","&#9789;","elianto","#f73b6a7A"," "," ","1","-10","[1000]","1","0","4","","","","","","","",""
"pit-trial","100","713877","0.0-2.0-17.3-4.3","battery-v0.2","","""event"",""trial"",""time""
""blur"",""1"",""3665""
""focus"",""1"",""8548""
""fullscreenenter"",""1"",""9780""
","""event"",""trial"",""time""
""blur"",""1"",""3665""
","""event"",""trial"",""time""
""focus"",""1"",""8548""
","""event"",""trial"",""time""
""fullscreenenter"",""1"",""9780""
","
","","","141","","","19","11606","5341","&#9789;","elianto","#f73b6a7A"," "," ","1","0","[992]","1","0","4","","","","","","","",""
"call-function","101","713881","0.0-2.0-18.0","battery-v0.2","","""event"",""trial"",""time""
""blur"",""1"",""3665""
""focus"",""1"",""8548""
""fullscreenenter"",""1"",""9780""
","""event"",""trial"",""time""
""blur"",""1"",""3665""
","""event"",""trial"",""time""
""focus"",""1"",""8548""
","""event"",""trial"",""time""
""fullscreenenter"",""1"",""9780""
","
","","","","","","","","","","","","","","","","","","","","","","","","","","",""
"pit-instructions","102","775546","0.0-2.0-19.0","battery-v0.2","","""event"",""trial"",""time""
""blur"",""1"",""3665""
""focus"",""1"",""8548""
""fullscreenenter"",""1"",""9780""
","""event"",""trial"",""time""
""blur"",""1"",""3665""
","""event"",""trial"",""time""
""focus"",""1"",""8548""
","""event"",""trial"",""time""
""fullscreenenter"",""1"",""9780""
","
","","[{""page_index"":0,""viewing_time"":6232},{""page_index"":1,""viewing_time"":5920},{""page_index"":2,""viewing_time"":8098},{""page_index"":3,""viewing_time"":8995},{""page_index"":4,""viewing_time"":9107},{""page_index"":5,""viewing_time"":8698},{""page_index"":6,""viewing_time"":4316},{""page_index"":7,""viewing_time"":5899},{""page_index"":8,""viewing_time"":4401}]","61666","","","","","","","","","","","","","","","","","","","","","","","",""
"pit-comprehension","103","780530","0.0-2.0-20.0-0.0","battery-v0.2","","""event"",""trial"",""time""
""blur"",""1"",""3665""
""focus"",""1"",""8548""
""fullscreenenter"",""1"",""9780""
","""event"",""trial"",""time""
""blur"",""1"",""3665""
","""event"",""trial"",""time""
""focus"",""1"",""8548""
","""event"",""trial"",""time""
""fullscreenenter"",""1"",""9780""
","
","","","4980","[""SPACE""]","0","19","11606","5341","","","","","","","","","","","","","","","","","","",""
"pit-instructions","104","784501","0.0-2.0-20.0-1.0","battery-v0.2","","""event"",""trial"",""time""
""blur"",""1"",""3665""
""focus"",""1"",""8548""
""fullscreenenter"",""1"",""9780""
","""event"",""trial"",""time""
""blur"",""1"",""3665""
","""event"",""trial"",""time""
""focus"",""1"",""8548""
","""event"",""trial"",""time""
""fullscreenenter"",""1"",""9780""
","
","","[{""page_index"":0,""viewing_time"":3944}]","3944","","","","","","","","","","","","","","","","","","","","","","","",""
"pit-comprehension","105","791297","0.0-2.0-21.0-0.0","battery-v0.2","","""event"",""trial"",""time""
""blur"",""1"",""3665""
""focus"",""1"",""8548""
""fullscreenenter"",""1"",""9780""
","""event"",""trial"",""time""
""blur"",""1"",""3665""
","""event"",""trial"",""time""
""focus"",""1"",""8548""
","""event"",""trial"",""time""
""fullscreenenter"",""1"",""9780""
","
","","","6795","[""10""]","0","19","11606","5341","","","","","","","","","","","","","","","","","","",""
"pit-instructions","106","792994","0.0-2.0-21.0-1.0","battery-v0.2","","""event"",""trial"",""time""
""blur"",""1"",""3665""
""focus"",""1"",""8548""
""fullscreenenter"",""1"",""9780""
","""event"",""trial"",""time""
""blur"",""1"",""3665""
","""event"",""trial"",""time""
""focus"",""1"",""8548""
","""event"",""trial"",""time""
""fullscreenenter"",""1"",""9780""
","
","","[{""page_index"":0,""viewing_time"":1669}]","1669","","","","","","","","","","","","","","","","","","","","","","","",""
"pit-comprehension","107","799982","0.0-2.0-22.0-0.0","battery-v0.2","","""event"",""trial"",""time""
""blur"",""1"",""3665""
""focus"",""1"",""8548""
""fullscreenenter"",""1"",""9780""
","""event"",""trial"",""time""
""blur"",""1"",""3665""
","""event"",""trial"",""time""
""focus"",""1"",""8548""
","""event"",""trial"",""time""
""fullscreenenter"",""1"",""9780""
","
","","","6983","[""0""]","0","19","11606","5341","","","","","","","","","","","","","","","","","","",""
"pit-instructions","108","801653","0.0-2.0-22.0-1.0","battery-v0.2","","""event"",""trial"",""time""
""blur"",""1"",""3665""
""focus"",""1"",""8548""
""fullscreenenter"",""1"",""9780""
","""event"",""trial"",""time""
""blur"",""1"",""3665""
","""event"",""trial"",""time""
""focus"",""1"",""8548""
","""event"",""trial"",""time""
""fullscreenenter"",""1"",""9780""
","
","","[{""page_index"":0,""viewing_time"":1642}]","1643","","","","","","","","","","","","","","","","","","","","","","","",""
"pit-comprehension","109","810816","0.0-2.0-23.0-0.0","battery-v0.2","","""event"",""trial"",""time""
""blur"",""1"",""3665""
""focus"",""1"",""8548""
""fullscreenenter"",""1"",""9780""
","""event"",""trial"",""time""
""blur"",""1"",""3665""
","""event"",""trial"",""time""
""focus"",""1"",""8548""
","""event"",""trial"",""time""
""fullscreenenter"",""1"",""9780""
","
","","","9160","[""True""]","0","19","11606","5341","","","","","","","","","","","","","","","","","","",""
"pit-instructions","110","811861","0.0-2.0-23.0-1.0","battery-v0.2","","""event"",""trial"",""time""
""blur"",""1"",""3665""
""focus"",""1"",""8548""
""fullscreenenter"",""1"",""9780""
","""event"",""trial"",""time""
""blur"",""1"",""3665""
","""event"",""trial"",""time""
""focus"",""1"",""8548""
","""event"",""trial"",""time""
""fullscreenenter"",""1"",""9780""
","
","","[{""page_index"":0,""viewing_time"":1017}]","1018.0000000001164","","","","","","","","","","","","","","","","","","","","","","","",""
"pit-comprehension","111","819246","0.0-2.0-24.0-0.0","battery-v0.2","","""event"",""trial"",""time""
""blur"",""1"",""3665""
""focus"",""1"",""8548""
""fullscreenenter"",""1"",""9780""
","""event"",""trial"",""time""
""blur"",""1"",""3665""
","""event"",""trial"",""time""
""focus"",""1"",""8548""
","""event"",""trial"",""time""
""fullscreenenter"",""1"",""9780""
","
","","","7382","[""True""]","0","19","11606","5341","","","","","","","","","","","","","","","","","","",""
"pit-instructions","112","822502","0.0-2.0-24.0-1.0","battery-v0.2","","""event"",""trial"",""time""
""blur"",""1"",""3665""
""focus"",""1"",""8548""
""fullscreenenter"",""1"",""9780""
","""event"",""trial"",""time""
""blur"",""1"",""3665""
","""event"",""trial"",""time""
""focus"",""1"",""8548""
","""event"",""trial"",""time""
""fullscreenenter"",""1"",""9780""
","
","","[{""page_index"":0,""viewing_time"":3227}]","3227","","","","","","","","","","","","","","","","","","","","","","","",""
"pit-comprehension","113","828878","0.0-2.0-25.0-0.0","battery-v0.2","","""event"",""trial"",""time""
""blur"",""1"",""3665""
""focus"",""1"",""8548""
""fullscreenenter"",""1"",""9780""
","""event"",""trial"",""time""
""blur"",""1"",""3665""
","""event"",""trial"",""time""
""focus"",""1"",""8548""
","""event"",""trial"",""time""
""fullscreenenter"",""1"",""9780""
","
","","","6373","[""True""]","0","19","11606","5341","","","","","","","","","","","","","","","","","","",""
"pit-instructions","114","830450","0.0-2.0-25.0-1.0","battery-v0.2","","""event"",""trial"",""time""
""blur"",""1"",""3665""
""focus"",""1"",""8548""
""fullscreenenter"",""1"",""9780""
","""event"",""trial"",""time""
""blur"",""1"",""3665""
","""event"",""trial"",""time""
""focus"",""1"",""8548""
","""event"",""trial"",""time""
""fullscreenenter"",""1"",""9780""
","
","","[{""page_index"":0,""viewing_time"":1542}]","1542","","","","","","","","","","","","","","","","","","","","","","","",""
"pit-comprehension","115","838980","0.0-2.0-26.0-0.0","battery-v0.2","","""event"",""trial"",""time""
""blur"",""1"",""3665""
""focus"",""1"",""8548""
""fullscreenenter"",""1"",""9780""
","""event"",""trial"",""time""
""blur"",""1"",""3665""
","""event"",""trial"",""time""
""focus"",""1"",""8548""
","""event"",""trial"",""time""
""fullscreenenter"",""1"",""9780""
","
","","","8528","[""False""]","0","19","11606","5341","","","","","","","","","","","","","","","","","","",""
"pit-instructions","116","840460","0.0-2.0-26.0-1.0","battery-v0.2","","""event"",""trial"",""time""
""blur"",""1"",""3665""
""focus"",""1"",""8548""
""fullscreenenter"",""1"",""9780""
","""event"",""trial"",""time""
""blur"",""1"",""3665""
","""event"",""trial"",""time""
""focus"",""1"",""8548""
","""event"",""trial"",""time""
""fullscreenenter"",""1"",""9780""
","
","","[{""page_index"":0,""viewing_time"":1449}]","1449","","","","","","","","","","","","","","","","","","","","","","","",""
"pit-instructions","117","857726","0.0-3.0","battery-v0.2","","""event"",""trial"",""time""
""blur"",""1"",""3665""
""focus"",""1"",""8548""
""fullscreenenter"",""1"",""9780""
","""event"",""trial"",""time""
""blur"",""1"",""3665""
","""event"",""trial"",""time""
""focus"",""1"",""8548""
","""event"",""trial"",""time""
""fullscreenenter"",""1"",""9780""
","
","","[{""page_index"":0,""viewing_time"":3612},{""page_index"":1,""viewing_time"":6219},{""page_index"":2,""viewing_time"":7432}]","17263","","","","","","","","","","","","","","","","","","","","","","","",""
"pit-trial","118","861432","0.0-4.0","battery-v0.2","","""event"",""trial"",""time""
""blur"",""1"",""3665""
""focus"",""1"",""8548""
""fullscreenenter"",""1"",""9780""
","""event"",""trial"",""time""
""blur"",""1"",""3665""
","""event"",""trial"",""time""
""focus"",""1"",""8548""
","""event"",""trial"",""time""
""fullscreenenter"",""1"",""9780""
","
","","","850","","","19","11606","5341","&#9728;","elianto","#f73b6a7A","-1"," ","0","0","[1699.9999999998836]","1","1","","","11606","1","0","4","lose","no-go","1"
"pit-trial","119","865096","0.0-5.0","battery-v0.2","","""event"",""trial"",""time""
""blur"",""1"",""3665""
""focus"",""1"",""8548""
""fullscreenenter"",""1"",""9780""
","""event"",""trial"",""time""
""blur"",""1"",""3665""
","""event"",""trial"",""time""
""focus"",""1"",""8548""
","""event"",""trial"",""time""
""fullscreenenter"",""1"",""9780""
","
","","","808","","","19","11606","5341","&#9730;","elianto","#3366ff99"," "," ","1","+10","[1657.9999999998836]","1","1","","","11606","2","1","1","win","go","0"
"pit-trial","120","868572","0.0-6.0","battery-v0.2","","""event"",""trial"",""time""
""blur"",""1"",""3665""
""focus"",""1"",""8548""
""fullscreenenter"",""1"",""9780""
","""event"",""trial"",""time""
""blur"",""1"",""3665""
","""event"",""trial"",""time""
""focus"",""1"",""8548""
","""event"",""trial"",""time""
""fullscreenenter"",""1"",""9780""
","
","","","619","","","19","11606","5341","&#9733;","elianto","#3366ff99","-1"," ","0","+10","[1470]","1","1","","","11606","3","2","2","win","no-go","1"
"pit-trial","121","872080","0.0-7.0","battery-v0.2","","""event"",""trial"",""time""
""blur"",""1"",""3665""
""focus"",""1"",""8548""
""fullscreenenter"",""1"",""9780""
","""event"",""trial"",""time""
""blur"",""1"",""3665""
","""event"",""trial"",""time""
""focus"",""1"",""8548""
","""event"",""trial"",""time""
""fullscreenenter"",""1"",""9780""
","
","","","651.9999999998836","","","19","11606","5341","&#9752;","elianto","#f73b6a7A"," "," ","1","-10","[1502]","1","1","","","11606","4","3","3","lose","go","1"
"pit-trial","122","875605","0.0-8.0","battery-v0.2","","""event"",""trial"",""time""
""blur"",""1"",""3665""
""focus"",""1"",""8548""
""fullscreenenter"",""1"",""9780""
","""event"",""trial"",""time""
""blur"",""1"",""3665""
","""event"",""trial"",""time""
""focus"",""1"",""8548""
","""event"",""trial"",""time""
""fullscreenenter"",""1"",""9780""
","
","","","666.9999999998836","","","19","11606","5341","&#9730;","elianto","#3366ff99"," "," ","1","+10","[1517.9999999998836]","1","1","","","11606","5","1","1","win","go","0"
"pit-trial","123","879095","0.0-9.0","battery-v0.2","","""event"",""trial"",""time""
""blur"",""1"",""3665""
""focus"",""1"",""8548""
""fullscreenenter"",""1"",""9780""
","""event"",""trial"",""time""
""blur"",""1"",""3665""
","""event"",""trial"",""time""
""focus"",""1"",""8548""
","""event"",""trial"",""time""
""fullscreenenter"",""1"",""9780""
","
","","","631","","","19","11606","5341","&#9733;","elianto","#3366ff99","-1"," ","0","0","[1481]","1","1","","","11606","6","2","2","win","no-go","0"
"pit-trial","124","882779","0.0-10.0","battery-v0.2","","""event"",""trial"",""time""
""blur"",""1"",""3665""
""focus"",""1"",""8548""
""fullscreenenter"",""1"",""9780""
","""event"",""trial"",""time""
""blur"",""1"",""3665""
","""event"",""trial"",""time""
""focus"",""1"",""8548""
","""event"",""trial"",""time""
""fullscreenenter"",""1"",""9780""
","
","","","826","","","19","11606","5341","&#9728;","elianto","#f73b6a7A","-1"," ","0","-10","[1677]","1","1","","","11606","7","0","4","lose","no-go","0"
"pit-trial","125","886479","0.0-11.0","battery-v0.2","","""event"",""trial"",""time""
""blur"",""1"",""3665""
""focus"",""1"",""8548""
""fullscreenenter"",""1"",""9780""
","""event"",""trial"",""time""
""blur"",""1"",""3665""
","""event"",""trial"",""time""
""focus"",""1"",""8548""
","""event"",""trial"",""time""
""fullscreenenter"",""1"",""9780""
","
","","","840","","","19","11606","5341","&#9752;","elianto","#f73b6a7A"," "," ","1","0","[1691]","1","1","","","11606","8","3","3","lose","go","0"
"pit-trial","126","889906","0.0-12.0","battery-v0.2","","""event"",""trial"",""time""
""blur"",""1"",""3665""
""focus"",""1"",""8548""
""fullscreenenter"",""1"",""9780""
","""event"",""trial"",""time""
""blur"",""1"",""3665""
","""event"",""trial"",""time""
""focus"",""1"",""8548""
","""event"",""trial"",""time""
""fullscreenenter"",""1"",""9780""
","
","","","568","","","19","11606","5341","&#9733;","elianto","#3366ff99","-1"," ","0","+10","[1419]","1","1","","","11606","9","2","2","win","no-go","1"
"pit-trial","127","893481","0.0-13.0","battery-v0.2","","""event"",""trial"",""time""
""blur"",""1"",""3665""
""focus"",""1"",""8548""
""fullscreenenter"",""1"",""9780""
","""event"",""trial"",""time""
""blur"",""1"",""3665""
","""event"",""trial"",""time""
""focus"",""1"",""8548""
","""event"",""trial"",""time""
""fullscreenenter"",""1"",""9780""
","
","","","715.0000000001164","","","19","11606","5341","&#9728;","elianto","#f73b6a7A","-1"," ","0","-10","[1565.0000000001164]","1","1","","","11606","10","0","4","lose","no-go","0"
"pit-trial","128","897010","0.0-14.0","battery-v0.2","","""event"",""trial"",""time""
""blur"",""1"",""3665""
""focus"",""1"",""8548""
""fullscreenenter"",""1"",""9780""
","""event"",""trial"",""time""
""blur"",""1"",""3665""
","""event"",""trial"",""time""
""focus"",""1"",""8548""
","""event"",""trial"",""time""
""fullscreenenter"",""1"",""9780""
","
","","","670","","","19","11606","5341","&#9752;","elianto","#f73b6a7A"," "," ","1","-10","[1521]","1","1","","","11606","11","3","3","lose","go","1"
"pit-trial","129","900635","0.0-15.0","battery-v0.2","","""event"",""trial"",""time""
""blur"",""1"",""3665""
""focus"",""1"",""8548""
""fullscreenenter"",""1"",""9780""
","""event"",""trial"",""time""
""blur"",""1"",""3665""
","""event"",""trial"",""time""
""focus"",""1"",""8548""
","""event"",""trial"",""time""
""fullscreenenter"",""1"",""9780""
","
","","","766","","","19","11606","5341","&#9730;","elianto","#3366ff99"," "," ","1","+10","[1617]","1","1","","","11606","12","1","1","win","go","0"
"pit-trial","130","903938","0.0-16.0","battery-v0.2","","""event"",""trial"",""time""
""blur"",""1"",""3665""
""focus"",""1"",""8548""
""fullscreenenter"",""1"",""9780""
","""event"",""trial"",""time""
""blur"",""1"",""3665""
","""event"",""trial"",""time""
""focus"",""1"",""8548""
","""event"",""trial"",""time""
""fullscreenenter"",""1"",""9780""
","
","","","444","","","19","11606","5341","&#9730;","elianto","#3366ff99"," "," ","1","+10","[1293.9999999998836]","1","1","","","11606","13","1","1","win","go","0"
"pit-trial","131","907367","0.0-17.0","battery-v0.2","","""event"",""trial"",""time""
""blur"",""1"",""3665""
""focus"",""1"",""8548""
""fullscreenenter"",""1"",""9780""
","""event"",""trial"",""time""
""blur"",""1"",""3665""
","""event"",""trial"",""time""
""focus"",""1"",""8548""
","""event"",""trial"",""time""
""fullscreenenter"",""1"",""9780""
","
","","","572","","","19","11606","5341","&#9733;","elianto","#3366ff99","-1"," ","0","0","[1422]","1","1","","","11606","14","2","2","win","no-go","0"
"pit-trial","132","912226","0.0-18.0","battery-v0.2","","""event"",""trial"",""time""
""blur"",""1"",""3665""
""focus"",""1"",""8548""
""fullscreenenter"",""1"",""9780""
","""event"",""trial"",""time""
""blur"",""1"",""3665""
","""event"",""trial"",""time""
""focus"",""1"",""8548""
","""event"",""trial"",""time""
""fullscreenenter"",""1"",""9780""
","
","","","-1","","","19","11606","5341","&#9752;","elianto","#f73b6a7A"," ","-1","0","-10","[]","0","1","","","11606","15","3","3","lose","go","0"
"pit-trial","133","915628","0.0-19.0","battery-v0.2","","""event"",""trial"",""time""
""blur"",""1"",""3665""
""focus"",""1"",""8548""
""fullscreenenter"",""1"",""9780""
","""event"",""trial"",""time""
""blur"",""1"",""3665""
","""event"",""trial"",""time""
""focus"",""1"",""8548""
","""event"",""trial"",""time""
""fullscreenenter"",""1"",""9780""
","
","","","541.9999999998836","","","19","11606","5341","&#9728;","elianto","#f73b6a7A","-1"," ","0","-10","[1392.9999999998836]","1","1","","","11606","16","0","4","lose","no-go","0"
"pit-trial","134","919073","0.0-20.0","battery-v0.2","","""event"",""trial"",""time""
""blur"",""1"",""3665""
""focus"",""1"",""8548""
""fullscreenenter"",""1"",""9780""
","""event"",""trial"",""time""
""blur"",""1"",""3665""
","""event"",""trial"",""time""
""focus"",""1"",""8548""
","""event"",""trial"",""time""
""fullscreenenter"",""1"",""9780""
","
","","","586","","","19","11606","5341","&#9730;","elianto","#3366ff99"," "," ","1","+10","[1437]","1","1","","","11606","17","1","1","win","go","0"
"pit-trial","135","922673","0.0-21.0","battery-v0.2","","""event"",""trial"",""time""
""blur"",""1"",""3665""
""focus"",""1"",""8548""
""fullscreenenter"",""1"",""9780""
","""event"",""trial"",""time""
""blur"",""1"",""3665""
","""event"",""trial"",""time""
""focus"",""1"",""8548""
","""event"",""trial"",""time""
""fullscreenenter"",""1"",""9780""
","
","","","741.9999999998836","","","19","11606","5341","&#9752;","elianto","#f73b6a7A"," "," ","1","0","[1592.9999999998836]","1","1","","","11606","18","3","3","lose","go","0"
"pit-trial","136","926034","0.0-22.0","battery-v0.2","","""event"",""trial"",""time""
""blur"",""1"",""3665""
""focus"",""1"",""8548""
""fullscreenenter"",""1"",""9780""
","""event"",""trial"",""time""
""blur"",""1"",""3665""
","""event"",""trial"",""time""
""focus"",""1"",""8548""
","""event"",""trial"",""time""
""fullscreenenter"",""1"",""9780""
","
","","","504","","","19","11606","5341","&#9733;","elianto","#3366ff99","-1"," ","0","+10","[1353.9999999998836]","1","1","","","11606","19","2","2","win","no-go","1"
"pit-trial","137","929567","0.0-23.0","battery-v0.2","","""event"",""trial"",""time""
""blur"",""1"",""3665""
""focus"",""1"",""8548""
""fullscreenenter"",""1"",""9780""
","""event"",""trial"",""time""
""blur"",""1"",""3665""
","""event"",""trial"",""time""
""focus"",""1"",""8548""
","""event"",""trial"",""time""
""fullscreenenter"",""1"",""9780""
","
","","","674","","","19","11606","5341","&#9728;","elianto","#f73b6a7A","-1"," ","0","-10","[1525]","1","1","","","11606","20","0","4","lose","no-go","0"
"pit-instructions","138","945081","0.0-24.0","battery-v0.2","","""event"",""trial"",""time""
""blur"",""1"",""3665""
""focus"",""1"",""8548""
""fullscreenenter"",""1"",""9780""
","""event"",""trial"",""time""
""blur"",""1"",""3665""
","""event"",""trial"",""time""
""focus"",""1"",""8548""
","""event"",""trial"",""time""
""fullscreenenter"",""1"",""9780""
","
","","[{""page_index"":0,""viewing_time"":8592},{""page_index"":1,""viewing_time"":6916}]","15508","","","","","","","","","","","","","","","","","","","","","","","",""
"pit-trial","139","948703","0.0-25.0","battery-v0.2","","""event"",""trial"",""time""
""blur"",""1"",""3665""
""focus"",""1"",""8548""
""fullscreenenter"",""1"",""9780""
","""event"",""trial"",""time""
""blur"",""1"",""3665""
","""event"",""trial"",""time""
""focus"",""1"",""8548""
","""event"",""trial"",""time""
""fullscreenenter"",""1"",""9780""
","
","","","767.0000000001164","","","19","11606","5341","u","elianto","#f73b6a7A","-1"," ","0","0","[1618.0000000001164]","1","2","","","11606","21","0","4","lose","no-go","1"
"pit-trial","140","952109","0.0-26.0","battery-v0.2","","""event"",""trial"",""time""
""blur"",""1"",""3665""
""focus"",""1"",""8548""
""fullscreenenter"",""1"",""9780""
","""event"",""trial"",""time""
""blur"",""1"",""3665""
","""event"",""trial"",""time""
""focus"",""1"",""8548""
","""event"",""trial"",""time""
""fullscreenenter"",""1"",""9780""
","
","","","548","","","19","11606","5341","g","elianto","#f73b6a7A"," "," ","1","-10","[1399]","1","2","","","11606","22","3","3","lose","go","1"
"pit-trial","141","955541","0.0-27.0","battery-v0.2","","""event"",""trial"",""time""
""blur"",""1"",""3665""
""focus"",""1"",""8548""
""fullscreenenter"",""1"",""9780""
","""event"",""trial"",""time""
""blur"",""1"",""3665""
","""event"",""trial"",""time""
""focus"",""1"",""8548""
","""event"",""trial"",""time""
""fullscreenenter"",""1"",""9780""
","
","","","573","","","19","11606","5341","l","elianto","#3366ff99"," "," ","1","0","[1425]","1","2","","","11606","23","1","1","win","go","1"
"pit-trial","142","959127","0.0-28.0","battery-v0.2","","""event"",""trial"",""time""
""blur"",""1"",""3665""
""focus"",""1"",""8548""
""fullscreenenter"",""1"",""9780""
","""event"",""trial"",""time""
""blur"",""1"",""3665""
","""event"",""trial"",""time""
""focus"",""1"",""8548""
","""event"",""trial"",""time""
""fullscreenenter"",""1"",""9780""
","
","","","729","","","19","11606","5341","a","elianto","#f73b6a7A","-1"," ","0","-10","[1580]","1","2","","","11606","24","2","4","lose","no-go","0"
"pit-trial","143","963984","0.0-29.0","battery-v0.2","","""event"",""trial"",""time""
""blur"",""1"",""3665""
""focus"",""1"",""8548""
""fullscreenenter"",""1"",""9780""
","""event"",""trial"",""time""
""blur"",""1"",""3665""
","""event"",""trial"",""time""
""focus"",""1"",""8548""
","""event"",""trial"",""time""
""fullscreenenter"",""1"",""9780""
","
","","","-1","","","19","11606","5341","a","elianto","#f73b6a7A","-1","-1","1","0","[]","0","2","","","11606","25","2","4","lose","no-go","0"
"pit-trial","144","967824","0.0-30.0","battery-v0.2","","""event"",""trial"",""time""
""blur"",""1"",""3665""
""focus"",""1"",""8548""
""fullscreenenter"",""1"",""9780""
","""event"",""trial"",""time""
""blur"",""1"",""3665""
","""event"",""trial"",""time""
""focus"",""1"",""8548""
","""event"",""trial"",""time""
""fullscreenenter"",""1"",""9780""
","
","","","982","","","19","11606","5341","u","elianto","#f73b6a7A","-1"," ","0","-10","[1833]","1","2","","","11606","26","0","4","lose","no-go","0"
"pit-trial","145","971257","0.0-31.0","battery-v0.2","","""event"",""trial"",""time""
""blur"",""1"",""3665""
""focus"",""1"",""8548""
""fullscreenenter"",""1"",""9780""
","""event"",""trial"",""time""
""blur"",""1"",""3665""
","""event"",""trial"",""time""
""focus"",""1"",""8548""
","""event"",""trial"",""time""
""fullscreenenter"",""1"",""9780""
","
","","","575","","","19","11606","5341","l","elianto","#3366ff99"," "," ","1","0","[1424.9999999998836]","1","2","","","11606","27","1","1","win","go","1"
"pit-trial","146","976117","0.0-32.0","battery-v0.2","","""event"",""trial"",""time""
""blur"",""1"",""3665""
""focus"",""1"",""8548""
""fullscreenenter"",""1"",""9780""
","""event"",""trial"",""time""
""blur"",""1"",""3665""
","""event"",""trial"",""time""
""focus"",""1"",""8548""
","""event"",""trial"",""time""
""fullscreenenter"",""1"",""9780""
","
","","","-1","","","19","11606","5341","g","elianto","#f73b6a7A"," ","-1","0","-10","[]","0","2","","","11606","28","3","3","lose","go","0"
"pit-trial","147","979721","0.0-33.0","battery-v0.2","","""event"",""trial"",""time""
""blur"",""1"",""3665""
""focus"",""1"",""8548""
""fullscreenenter"",""1"",""9780""
","""event"",""trial"",""time""
""blur"",""1"",""3665""
","""event"",""trial"",""time""
""focus"",""1"",""8548""
","""event"",""trial"",""time""
""fullscreenenter"",""1"",""9780""
","
","","","745","","","19","11606","5341","g","elianto","#f73b6a7A"," "," ","1","0","[1595.0000000001164]","1","2","","","11606","29","3","3","lose","go","0"
"pit-trial","148","983133","0.0-34.0","battery-v0.2","","""event"",""trial"",""time""
""blur"",""1"",""3665""
""focus"",""1"",""8548""
""fullscreenenter"",""1"",""9780""
","""event"",""trial"",""time""
""blur"",""1"",""3665""
","""event"",""trial"",""time""
""focus"",""1"",""8548""
","""event"",""trial"",""time""
""fullscreenenter"",""1"",""9780""
","
","","","555","","","19","11606","5341","l","elianto","#3366ff99"," "," ","1","+10","[1405]","1","2","","","11606","30","1","1","win","go","0"
"pit-trial","149","987570","0.0-35.0","battery-v0.2","","""event"",""trial"",""time""
""blur"",""1"",""3665""
""focus"",""1"",""8548""
""fullscreenenter"",""1"",""9780""
","""event"",""trial"",""time""
""blur"",""1"",""3665""
","""event"",""trial"",""time""
""focus"",""1"",""8548""
","""event"",""trial"",""time""
""fullscreenenter"",""1"",""9780""
","
","","","1577","","","19","11606","5341","u","elianto","#f73b6a7A","-1"," ","0","-10","[2428]","1","2","","","11606","31","0","4","lose","no-go","0"
"pit-trial","150","991296","0.0-36.0","battery-v0.2","","""event"",""trial"",""time""
""blur"",""1"",""3665""
""focus"",""1"",""8548""
""fullscreenenter"",""1"",""9780""
","""event"",""trial"",""time""
""blur"",""1"",""3665""
","""event"",""trial"",""time""
""focus"",""1"",""8548""
","""event"",""trial"",""time""
""fullscreenenter"",""1"",""9780""
","
","","","867","","","19","11606","5341","a","elianto","#f73b6a7A","-1"," ","0","-10","[1717]","1","2","","","11606","32","2","4","lose","no-go","0"
"pit-trial","151","996155","0.0-37.0","battery-v0.2","","""event"",""trial"",""time""
""blur"",""1"",""3665""
""focus"",""1"",""8548""
""fullscreenenter"",""1"",""9780""
","""event"",""trial"",""time""
""blur"",""1"",""3665""
","""event"",""trial"",""time""
""focus"",""1"",""8548""
","""event"",""trial"",""time""
""fullscreenenter"",""1"",""9780""
","
","","","-1","","","19","11606","5341","u","elianto","#f73b6a7A","-1","-1","1","-10","[]","0","2","","","11606","33","0","4","lose","no-go","1"
"pit-trial","152","999629","0.0-38.0","battery-v0.2","","""event"",""trial"",""time""
""blur"",""1"",""3665""
""focus"",""1"",""8548""
""fullscreenenter"",""1"",""9780""
","""event"",""trial"",""time""
""blur"",""1"",""3665""
","""event"",""trial"",""time""
""focus"",""1"",""8548""
","""event"",""trial"",""time""
""fullscreenenter"",""1"",""9780""
","
","","","615","","","19","11606","5341","l","elianto","#3366ff99"," "," ","1","+10","[1466]","1","2","","","11606","34","1","1","win","go","0"
"pit-trial","153","1004488","0.0-39.0","battery-v0.2","","""event"",""trial"",""time""
""blur"",""1"",""3665""
""focus"",""1"",""8548""
""fullscreenenter"",""1"",""9780""
","""event"",""trial"",""time""
""blur"",""1"",""3665""
","""event"",""trial"",""time""
""focus"",""1"",""8548""
","""event"",""trial"",""time""
""fullscreenenter"",""1"",""9780""
","
","","","-1","","","19","11606","5341","a","elianto","#f73b6a7A","-1","-1","1","0","[]","0","2","","","11606","35","2","4","lose","no-go","0"
"pit-trial","154","1007936","0.0-40.0","battery-v0.2","","""event"",""trial"",""time""
""blur"",""1"",""3665""
""focus"",""1"",""8548""
""fullscreenenter"",""1"",""9780""
","""event"",""trial"",""time""
""blur"",""1"",""3665""
","""event"",""trial"",""time""
""focus"",""1"",""8548""
","""event"",""trial"",""time""
""fullscreenenter"",""1"",""9780""
","
","","","589","","","19","11606","5341","g","elianto","#f73b6a7A"," "," ","1","0","[1440]","1","2","","","11606","36","3","3","lose","go","0"
"pit-trial","155","1011444","0.0-41.0","battery-v0.2","","""event"",""trial"",""time""
""blur"",""1"",""3665""
""focus"",""1"",""8548""
""fullscreenenter"",""1"",""9780""
","""event"",""trial"",""time""
""blur"",""1"",""3665""
","""event"",""trial"",""time""
""focus"",""1"",""8548""
","""event"",""trial"",""time""
""fullscreenenter"",""1"",""9780""
","
","","","651","","","19","11606","5341","g","elianto","#f73b6a7A"," "," ","1","0","[1501]","1","2","","","11606","37","3","3","lose","go","0"
"pit-trial","156","1014963","0.0-42.0","battery-v0.2","","""event"",""trial"",""time""
""blur"",""1"",""3665""
""focus"",""1"",""8548""
""fullscreenenter"",""1"",""9780""
","""event"",""trial"",""time""
""blur"",""1"",""3665""
","""event"",""trial"",""time""
""focus"",""1"",""8548""
","""event"",""trial"",""time""
""fullscreenenter"",""1"",""9780""
","
","","","661","","","19","11606","5341","l","elianto","#3366ff99"," "," ","1","+10","[1512]","1","2","","","11606","38","1","1","win","go","0"
"pit-trial","157","1019821","0.0-43.0","battery-v0.2","","""event"",""trial"",""time""
""blur"",""1"",""3665""
""focus"",""1"",""8548""
""fullscreenenter"",""1"",""9780""
","""event"",""trial"",""time""
""blur"",""1"",""3665""
","""event"",""trial"",""time""
""focus"",""1"",""8548""
","""event"",""trial"",""time""
""fullscreenenter"",""1"",""9780""
","
","","","-1","","","19","11606","5341","a","elianto","#f73b6a7A","-1","-1","1","-10","[]","0","2","","","11606","39","2","4","lose","no-go","1"
"pit-trial","158","1024679","0.0-44.0","battery-v0.2","","""event"",""trial"",""time""
""blur"",""1"",""3665""
""focus"",""1"",""8548""
""fullscreenenter"",""1"",""9780""
","""event"",""trial"",""time""
""blur"",""1"",""3665""
","""event"",""trial"",""time""
""focus"",""1"",""8548""
","""event"",""trial"",""time""
""fullscreenenter"",""1"",""9780""
","
","","","-1","","","19","11606","5341","u","elianto","#f73b6a7A","-1","-1","1","0","[]","0","2","","","11606","40","0","4","lose","no-go","0"
"pit-trial","159","1029537","0.0-45.0","battery-v0.2","","""event"",""trial"",""time""
""blur"",""1"",""3665""
""focus"",""1"",""8548""
""fullscreenenter"",""1"",""9780""
","""event"",""trial"",""time""
""blur"",""1"",""3665""
","""event"",""trial"",""time""
""focus"",""1"",""8548""
","""event"",""trial"",""time""
""fullscreenenter"",""1"",""9780""
","
","","","-1","","","19","11606","5341","u","elianto","#f73b6a7A","-1","-1","1","0","[]","0","2","","","11606","41","0","4","lose","no-go","0"
"pit-trial","160","1034395","0.0-46.0","battery-v0.2","","""event"",""trial"",""time""
""blur"",""1"",""3665""
""focus"",""1"",""8548""
""fullscreenenter"",""1"",""9780""
","""event"",""trial"",""time""
""blur"",""1"",""3665""
","""event"",""trial"",""time""
""focus"",""1"",""8548""
","""event"",""trial"",""time""
""fullscreenenter"",""1"",""9780""
","
","","","-1","","","19","11606","5341","a","elianto","#f73b6a7A","-1","-1","1","-10","[]","0","2","","","11606","42","2","4","lose","no-go","1"
"pit-trial","161","1037902","0.0-47.0","battery-v0.2","","""event"",""trial"",""time""
""blur"",""1"",""3665""
""focus"",""1"",""8548""
""fullscreenenter"",""1"",""9780""
","""event"",""trial"",""time""
""blur"",""1"",""3665""
","""event"",""trial"",""time""
""focus"",""1"",""8548""
","""event"",""trial"",""time""
""fullscreenenter"",""1"",""9780""
","
","","","649.0000000001164","","","19","11606","5341","l","elianto","#3366ff99"," "," ","1","0","[1499]","1","2","","","11606","43","1","1","win","go","1"
"pit-trial","162","1041393","0.0-48.0","battery-v0.2","","""event"",""trial"",""time""
""blur"",""1"",""3665""
""focus"",""1"",""8548""
""fullscreenenter"",""1"",""9780""
","""event"",""trial"",""time""
""blur"",""1"",""3665""
","""event"",""trial"",""time""
""focus"",""1"",""8548""
","""event"",""trial"",""time""
""fullscreenenter"",""1"",""9780""
","
","","","633","","","19","11606","5341","g","elianto","#f73b6a7A"," "," ","1","0","[1482.9999999998836]","1","2","","","11606","44","3","3","lose","go","0"
"pit-trial","163","1044911","0.0-49.0","battery-v0.2","","""event"",""trial"",""time""
""blur"",""1"",""3665""
""focus"",""1"",""8548""
""fullscreenenter"",""1"",""9780""
","""event"",""trial"",""time""
""blur"",""1"",""3665""
","""event"",""trial"",""time""
""focus"",""1"",""8548""
","""event"",""trial"",""time""
""fullscreenenter"",""1"",""9780""
","
","","","659.0000000001164","","","19","11606","5341","g","elianto","#f73b6a7A"," "," ","1","0","[1509]","1","2","","","11606","45","3","3","lose","go","0"
"pit-trial","164","1048377","0.0-50.0","battery-v0.2","","""event"",""trial"",""time""
""blur"",""1"",""3665""
""focus"",""1"",""8548""
""fullscreenenter"",""1"",""9780""
","""event"",""trial"",""time""
""blur"",""1"",""3665""
","""event"",""trial"",""time""
""focus"",""1"",""8548""
","""event"",""trial"",""time""
""fullscreenenter"",""1"",""9780""
","
","","","606","","","19","11606","5341","p","elianto","#3366ff99","-1"," ","0","+10","[1455.9999999998836]","1","2","","","11606","46","4","2","win","no-go","1"
"pit-trial","165","1053235","0.0-51.0","battery-v0.2","","""event"",""trial"",""time""
""blur"",""1"",""3665""
""focus"",""1"",""8548""
""fullscreenenter"",""1"",""9780""
","""event"",""trial"",""time""
""blur"",""1"",""3665""
","""event"",""trial"",""time""
""focus"",""1"",""8548""
","""event"",""trial"",""time""
""fullscreenenter"",""1"",""9780""
","
","","","-1","","","19","11606","5341","u","elianto","#f73b6a7A","-1","-1","1","0","[]","0","2","","","11606","47","0","4","lose","no-go","0"
"pit-trial","166","1056841","0.0-52.0","battery-v0.2","","""event"",""trial"",""time""
""blur"",""1"",""3665""
""focus"",""1"",""8548""
""fullscreenenter"",""1"",""9780""
","""event"",""trial"",""time""
""blur"",""1"",""3665""
","""event"",""trial"",""time""
""focus"",""1"",""8548""
","""event"",""trial"",""time""
""fullscreenenter"",""1"",""9780""
","
","","","748","","","19","11606","5341","a","elianto","#f73b6a7A","-1"," ","0","-10","[1598]","1","2","","","11606","48","2","4","lose","no-go","0"
"pit-trial","167","1060777","0.0-53.0","battery-v0.2","","""event"",""trial"",""time""
""blur"",""1"",""3665""
""focus"",""1"",""8548""
""fullscreenenter"",""1"",""9780""
","""event"",""trial"",""time""
""blur"",""1"",""3665""
","""event"",""trial"",""time""
""focus"",""1"",""8548""
","""event"",""trial"",""time""
""fullscreenenter"",""1"",""9780""
","
","","","1079","","","19","11606","5341","g","elianto","#f73b6a7A"," "," ","1","0","[1929]","1","2","","","11606","49","3","3","lose","go","0"
"pit-trial","168","1064296","0.0-54.0","battery-v0.2","","""event"",""trial"",""time""
""blur"",""1"",""3665""
""focus"",""1"",""8548""
""fullscreenenter"",""1"",""9780""
","""event"",""trial"",""time""
""blur"",""1"",""3665""
","""event"",""trial"",""time""
""focus"",""1"",""8548""
","""event"",""trial"",""time""
""fullscreenenter"",""1"",""9780""
","
","","","662","","","19","11606","5341","p","elianto","#3366ff99","-1"," ","0","+10","[1512]","1","2","","","11606","50","4","2","win","no-go","1"
"pit-trial","169","1069154","0.0-55.0","battery-v0.2","","""event"",""trial"",""time""
""blur"",""1"",""3665""
""focus"",""1"",""8548""
""fullscreenenter"",""1"",""9780""
","""event"",""trial"",""time""
""blur"",""1"",""3665""
","""event"",""trial"",""time""
""focus"",""1"",""8548""
","""event"",""trial"",""time""
""fullscreenenter"",""1"",""9780""
","
","","","-1","","","19","11606","5341","u","elianto","#f73b6a7A","-1","-1","1","0","[]","0","2","","","11606","51","0","4","lose","no-go","0"
"pit-trial","170","1072603","0.0-56.0","battery-v0.2","","""event"",""trial"",""time""
""blur"",""1"",""3665""
""focus"",""1"",""8548""
""fullscreenenter"",""1"",""9780""
","""event"",""trial"",""time""
""blur"",""1"",""3665""
","""event"",""trial"",""time""
""focus"",""1"",""8548""
","""event"",""trial"",""time""
""fullscreenenter"",""1"",""9780""
","
","","","591","","","19","11606","5341","l","elianto","#3366ff99"," "," ","1","+10","[1442]","1","2","","","11606","52","1","1","win","go","0"
"pit-trial","171","1077461","0.0-57.0","battery-v0.2","","""event"",""trial"",""time""
""blur"",""1"",""3665""
""focus"",""1"",""8548""
""fullscreenenter"",""1"",""9780""
","""event"",""trial"",""time""
""blur"",""1"",""3665""
","""event"",""trial"",""time""
""focus"",""1"",""8548""
","""event"",""trial"",""time""
""fullscreenenter"",""1"",""9780""
","
","","","-1","","","19","11606","5341","u","elianto","#f73b6a7A","-1","-1","1","0","[]","0","2","","","11606","53","0","4","lose","no-go","0"
"pit-trial","172","1080909","0.0-58.0","battery-v0.2","","""event"",""trial"",""time""
""blur"",""1"",""3665""
""focus"",""1"",""8548""
""fullscreenenter"",""1"",""9780""
","""event"",""trial"",""time""
""blur"",""1"",""3665""
","""event"",""trial"",""time""
""focus"",""1"",""8548""
","""event"",""trial"",""time""
""fullscreenenter"",""1"",""9780""
","
","","","590","","","19","11606","5341","p","elianto","#3366ff99","-1"," ","0","0","[1440]","1","2","","","11606","54","4","2","win","no-go","0"
"pit-trial","173","1084248","0.0-59.0","battery-v0.2","","""event"",""trial"",""time""
""blur"",""1"",""3665""
""focus"",""1"",""8548""
""fullscreenenter"",""1"",""9780""
","""event"",""trial"",""time""
""blur"",""1"",""3665""
","""event"",""trial"",""time""
""focus"",""1"",""8548""
","""event"",""trial"",""time""
""fullscreenenter"",""1"",""9780""
","
","","","480","","","19","11606","5341","l","elianto","#3366ff99"," "," ","1","0","[1330]","1","2","","","11606","55","1","1","win","go","1"
"pit-trial","174","1089105","0.0-60.0","battery-v0.2","","""event"",""trial"",""time""
""blur"",""1"",""3665""
""focus"",""1"",""8548""
""fullscreenenter"",""1"",""9780""
","""event"",""trial"",""time""
""blur"",""1"",""3665""
","""event"",""trial"",""time""
""focus"",""1"",""8548""
","""event"",""trial"",""time""
""fullscreenenter"",""1"",""9780""
","
","","","-1","","","19","11606","5341","a","elianto","#f73b6a7A","-1","-1","1","0","[]","0","2","","","11606","56","2","4","lose","no-go","0"
"pit-trial","175","1092704","0.0-61.0","battery-v0.2","","""event"",""trial"",""time""
""blur"",""1"",""3665""
""focus"",""1"",""8548""
""fullscreenenter"",""1"",""9780""
","""event"",""trial"",""time""
""blur"",""1"",""3665""
","""event"",""trial"",""time""
""focus"",""1"",""8548""
","""event"",""trial"",""time""
""fullscreenenter"",""1"",""9780""
","
","","","741.0000000002328","","","19","11606","5341","l","elianto","#3366ff99"," "," ","1","0","[1592.0000000002328]","1","2","","","11606","57","1","1","win","go","1"
"pit-trial","176","1096171","0.0-62.0","battery-v0.2","","""event"",""trial"",""time""
""blur"",""1"",""3665""
""focus"",""1"",""8548""
""fullscreenenter"",""1"",""9780""
","""event"",""trial"",""time""
""blur"",""1"",""3665""
","""event"",""trial"",""time""
""focus"",""1"",""8548""
","""event"",""trial"",""time""
""fullscreenenter"",""1"",""9780""
","
","","","609","","","19","11606","5341","p","elianto","#3366ff99","-1"," ","0","0","[1459]","1","2","","","11606","58","4","2","win","no-go","0"
"pit-trial","177","1099790","0.0-63.0","battery-v0.2","","""event"",""trial"",""time""
""blur"",""1"",""3665""
""focus"",""1"",""8548""
""fullscreenenter"",""1"",""9780""
","""event"",""trial"",""time""
""blur"",""1"",""3665""
","""event"",""trial"",""time""
""focus"",""1"",""8548""
","""event"",""trial"",""time""
""fullscreenenter"",""1"",""9780""
","
","","","761.0000000002328","","","19","11606","5341","g","elianto","#f73b6a7A"," "," ","1","0","[1611.0000000002328]","1","2","","","11606","59","3","3","lose","go","0"
"pit-trial","178","1104649","0.0-64.0","battery-v0.2","","""event"",""trial"",""time""
""blur"",""1"",""3665""
""focus"",""1"",""8548""
""fullscreenenter"",""1"",""9780""
","""event"",""trial"",""time""
""blur"",""1"",""3665""
","""event"",""trial"",""time""
""focus"",""1"",""8548""
","""event"",""trial"",""time""
""fullscreenenter"",""1"",""9780""
","
","","","-1","","","19","11606","5341","u","elianto","#f73b6a7A","-1","-1","1","0","[]","0","2","","","11606","60","0","4","lose","no-go","0"
"pit-trial","179","1109509","0.0-65.0","battery-v0.2","","""event"",""trial"",""time""
""blur"",""1"",""3665""
""focus"",""1"",""8548""
""fullscreenenter"",""1"",""9780""
","""event"",""trial"",""time""
""blur"",""1"",""3665""
","""event"",""trial"",""time""
""focus"",""1"",""8548""
","""event"",""trial"",""time""
""fullscreenenter"",""1"",""9780""
","
","","","-1","","","19","11606","5341","a","elianto","#f73b6a7A","-1","-1","1","0","[]","0","2","","","11606","61","2","4","lose","no-go","0"
"pit-trial","180","1112983","0.0-66.0","battery-v0.2","","""event"",""trial"",""time""
""blur"",""1"",""3665""
""focus"",""1"",""8548""
""fullscreenenter"",""1"",""9780""
","""event"",""trial"",""time""
""blur"",""1"",""3665""
","""event"",""trial"",""time""
""focus"",""1"",""8548""
","""event"",""trial"",""time""
""fullscreenenter"",""1"",""9780""
","
","","","615.9999999997672","","","19","11606","5341","l","elianto","#3366ff99"," "," ","1","0","[1466]","1","2","","","11606","62","1","1","win","go","1"
"pit-trial","181","1116414","0.0-67.0","battery-v0.2","","""event"",""trial"",""time""
""blur"",""1"",""3665""
""focus"",""1"",""8548""
""fullscreenenter"",""1"",""9780""
","""event"",""trial"",""time""
""blur"",""1"",""3665""
","""event"",""trial"",""time""
""focus"",""1"",""8548""
","""event"",""trial"",""time""
""fullscreenenter"",""1"",""9780""
","
","","","572","","","19","11606","5341","p","elianto","#3366ff99","-1"," ","0","+10","[1423]","1","2","","","11606","63","4","2","win","no-go","1"
"pit-trial","182","1119890","0.0-68.0","battery-v0.2","","""event"",""trial"",""time""
""blur"",""1"",""3665""
""focus"",""1"",""8548""
""fullscreenenter"",""1"",""9780""
","""event"",""trial"",""time""
""blur"",""1"",""3665""
","""event"",""trial"",""time""
""focus"",""1"",""8548""
","""event"",""trial"",""time""
""fullscreenenter"",""1"",""9780""
","
","","","619","","","19","11606","5341","g","elianto","#f73b6a7A"," "," ","1","-10","[1469]","1","2","","","11606","64","3","3","lose","go","1"
"pit-trial","183","1123280","0.0-69.0","battery-v0.2","","""event"",""trial"",""time""
""blur"",""1"",""3665""
""focus"",""1"",""8548""
""fullscreenenter"",""1"",""9780""
","""event"",""trial"",""time""
""blur"",""1"",""3665""
","""event"",""trial"",""time""
""focus"",""1"",""8548""
","""event"",""trial"",""time""
""fullscreenenter"",""1"",""9780""
","
","","","533","","","19","11606","5341","p","elianto","#3366ff99","-1"," ","0","0","[1383]","1","2","","","11606","65","4","2","win","no-go","0"
"pit-trial","184","1126932","0.0-70.0","battery-v0.2","","""event"",""trial"",""time""
""blur"",""1"",""3665""
""focus"",""1"",""8548""
""fullscreenenter"",""1"",""9780""
","""event"",""trial"",""time""
""blur"",""1"",""3665""
","""event"",""trial"",""time""
""focus"",""1"",""8548""
","""event"",""trial"",""time""
""fullscreenenter"",""1"",""9780""
","
","","","793","","","19","11606","5341","g","elianto","#f73b6a7A"," "," ","1","-10","[1644]","1","2","","","11606","66","3","3","lose","go","1"
"pit-trial","185","1130351","0.0-71.0","battery-v0.2","","""event"",""trial"",""time""
""blur"",""1"",""3665""
""focus"",""1"",""8548""
""fullscreenenter"",""1"",""9780""
","""event"",""trial"",""time""
""blur"",""1"",""3665""
","""event"",""trial"",""time""
""focus"",""1"",""8548""
","""event"",""trial"",""time""
""fullscreenenter"",""1"",""9780""
","
","","","561","","","19","11606","5341","l","elianto","#3366ff99"," "," ","1","+10","[1411]","1","2","","","11606","67","1","1","win","go","0"
"pit-trial","186","1135209","0.0-72.0","battery-v0.2","","""event"",""trial"",""time""
""blur"",""1"",""3665""
""focus"",""1"",""8548""
""fullscreenenter"",""1"",""9780""
","""event"",""trial"",""time""
""blur"",""1"",""3665""
","""event"",""trial"",""time""
""focus"",""1"",""8548""
","""event"",""trial"",""time""
""fullscreenenter"",""1"",""9780""
","
","","","-1","","","19","11606","5341","a","elianto","#f73b6a7A","-1","-1","1","0","[]","0","2","","","11606","68","2","4","lose","no-go","0"
"pit-trial","187","1138709","0.0-73.0","battery-v0.2","","""event"",""trial"",""time""
""blur"",""1"",""3665""
""focus"",""1"",""8548""
""fullscreenenter"",""1"",""9780""
","""event"",""trial"",""time""
""blur"",""1"",""3665""
","""event"",""trial"",""time""
""focus"",""1"",""8548""
","""event"",""trial"",""time""
""fullscreenenter"",""1"",""9780""
","
","","","640","","","19","11606","5341","s","elianto","#3366ff99"," "," ","1","+10","[1491]","1","2","","","11606","69","5","1","win","go","0"
"pit-trial","188","1142094","0.0-74.0","battery-v0.2","","""event"",""trial"",""time""
""blur"",""1"",""3665""
""focus"",""1"",""8548""
""fullscreenenter"",""1"",""9780""
","""event"",""trial"",""time""
""blur"",""1"",""3665""
","""event"",""trial"",""time""
""focus"",""1"",""8548""
","""event"",""trial"",""time""
""fullscreenenter"",""1"",""9780""
","
","","","526.9999999997672","","","19","11606","5341","p","elianto","#3366ff99","-1"," ","0","+10","[1378]","1","2","","","11606","70","4","2","win","no-go","1"
"pit-trial","189","1145651","0.0-75.0","battery-v0.2","","""event"",""trial"",""time""
""blur"",""1"",""3665""
""focus"",""1"",""8548""
""fullscreenenter"",""1"",""9780""
","""event"",""trial"",""time""
""blur"",""1"",""3665""
","""event"",""trial"",""time""
""focus"",""1"",""8548""
","""event"",""trial"",""time""
""fullscreenenter"",""1"",""9780""
","
","","","698.9999999997672","","","19","11606","5341","g","elianto","#f73b6a7A"," "," ","1","0","[1549]","1","2","","","11606","71","3","3","lose","go","0"
"pit-trial","190","1149105","0.0-76.0","battery-v0.2","","""event"",""trial"",""time""
""blur"",""1"",""3665""
""focus"",""1"",""8548""
""fullscreenenter"",""1"",""9780""
","""event"",""trial"",""time""
""blur"",""1"",""3665""
","""event"",""trial"",""time""
