"trial_type","trial_index","time_elapsed","internal_node_id","task_version","subject_id","interactions","blur_events","focus_events","fullscreenenter_events","fullscreenexit_events","success","view_history","rt","responses","num_errors","age","subject","participantId","rune","rune_set","hex","correct","choice","accuracy","outcome","keys","total_keys","block","practice","value","sub","trial","stimulus","robot","valence","action","sham"
"pavlovia","0","16","0.0-0.0","battery-v0.2","","""event"",""trial"",""time""
""fullscreenenter"",""1"",""2952""
","
","
","""event"",""trial"",""time""
""fullscreenenter"",""1"",""2952""
","
","","","","","","","","","","","","","","","","","","","","","","","","","","",""
"fullscreen","1","3899","0.0-1.0","battery-v0.2","","""event"",""trial"",""time""
""fullscreenenter"",""1"",""2952""
","
","
","""event"",""trial"",""time""
""fullscreenenter"",""1"",""2952""
","
","true","","","","","","","","","","","","","","","","","","","","","","","","","",""
"pit-instructions","2","7751","0.0-2.0-0.0","battery-v0.2","","""event"",""trial"",""time""
""fullscreenenter"",""1"",""2952""
","
","
","""event"",""trial"",""time""
""fullscreenenter"",""1"",""2952""
","
","","[{""page_index"":0,""viewing_time"":3843.9000000003725}]","3844.5","","","","","","","","","","","","","","","","","","","","","","","",""
"pit-comprehension","3","11732","0.0-2.0-1.0-0.0","battery-v0.2","","""event"",""trial"",""time""
""fullscreenenter"",""1"",""2952""
","
","
","""event"",""trial"",""time""
""fullscreenenter"",""1"",""2952""
","
","","","3969.699999999255","[""shark""]","0","14","16470","6523","","","","","","","","","","","","","","","","","","",""
"pit-instructions","4","13403","0.0-2.0-1.0-1.0","battery-v0.2","","""event"",""trial"",""time""
""fullscreenenter"",""1"",""2952""
","
","
","""event"",""trial"",""time""
""fullscreenenter"",""1"",""2952""
","
","","[{""page_index"":0,""viewing_time"":1651.699999999255}]","1652.0999999996275","","","","","","","","","","","","","","","","","","","","","","","",""
"pit-comprehension","5","17649","0.0-2.0-2.0-0.0","battery-v0.2","","""event"",""trial"",""time""
""fullscreenenter"",""1"",""2952""
","
","
","""event"",""trial"",""time""
""fullscreenenter"",""1"",""2952""
","
","","","4239.9000000003725","[""tiger""]","0","14","16470","6523","","","","","","","","","","","","","","","","","","",""
"pit-instructions","6","19320","0.0-2.0-2.0-1.0","battery-v0.2","","""event"",""trial"",""time""
""fullscreenenter"",""1"",""2952""
","
","
","""event"",""trial"",""time""
""fullscreenenter"",""1"",""2952""
","
","","[{""page_index"":0,""viewing_time"":1666.2000000011176}]","1666.7000000011176","","","","","","","","","","","","","","","","","","","","","","","",""
"pit-instructions","7","164250","0.0-2.0-3.0","battery-v0.2","","""event"",""trial"",""time""
""fullscreenenter"",""1"",""2952""
","
","
","""event"",""trial"",""time""
""fullscreenenter"",""1"",""2952""
","
","","[{""page_index"":0,""viewing_time"":26355.5},{""page_index"":1,""viewing_time"":9114.5},{""page_index"":2,""viewing_time"":15910.699999999255},{""page_index"":3,""viewing_time"":7452.5},{""page_index"":4,""viewing_time"":8497.700000001118},{""page_index"":5,""viewing_time"":11658.900000000373},{""page_index"":6,""viewing_time"":7962.0999999996275},{""page_index"":7,""viewing_time"":8569},{""page_index"":8,""viewing_time"":6532.799999998882},{""page_index"":9,""viewing_time"":9919.10000000149},{""page_index"":10,""viewing_time"":8412.39999999851},{""page_index"":11,""viewing_time"":10592.60000000149},{""page_index"":12,""viewing_time"":7381.299999998882},{""page_index"":13,""viewing_time"":6564.9000000003725}]","144924.59999999963","","","","","","","","","","","","","","","","","","","","","","","",""
"pit-trial","8","167849","0.0-2.0-4.0-0.0","battery-v0.2","","""event"",""trial"",""time""
""fullscreenenter"",""1"",""2952""
","
","
","""event"",""trial"",""time""
""fullscreenenter"",""1"",""2952""
","
","","","745.0999999996275","","","14","16470","6523","&#9784;","elianto","#FFFFF080"," "," ","1","&#10004","[1595.2000000011176]","1","0","0","","","","","","","",""
"pit-trial","9","171606","0.0-2.0-4.1-0.1","battery-v0.2","","""event"",""trial"",""time""
""fullscreenenter"",""1"",""2952""
","
","
","""event"",""trial"",""time""
""fullscreenenter"",""1"",""2952""
","
","","","902.3000000007451","","","14","16470","6523","&#9784;","elianto","#FFFFF080"," "," ","1","&#10004","[1752.4000000003725]","1","0","0","","","","","","","",""
"pit-trial","10","175298","0.0-2.0-4.2-0.2","battery-v0.2","","""event"",""trial"",""time""
""fullscreenenter"",""1"",""2952""
","
","
","""event"",""trial"",""time""
""fullscreenenter"",""1"",""2952""
","
","","","837.6999999992549","","","14","16470","6523","&#9784;","elianto","#FFFFF080"," "," ","1","&#10004","[1688.5]","1","0","0","","","","","","","",""
"pit-trial","11","179002","0.0-2.0-4.3-0.3","battery-v0.2","","""event"",""trial"",""time""
""fullscreenenter"",""1"",""2952""
","
","
","""event"",""trial"",""time""
""fullscreenenter"",""1"",""2952""
","
","","","850.1000000014901","","","14","16470","6523","&#9784;","elianto","#FFFFF080"," "," ","1","&#10004","[1700.199999999255]","1","0","0","","","","","","","",""
"pit-trial","12","182648","0.0-2.0-4.4-0.4","battery-v0.2","","""event"",""trial"",""time""
""fullscreenenter"",""1"",""2952""
","
","
","""event"",""trial"",""time""
""fullscreenenter"",""1"",""2952""
","
","","","789.8999999985099","","","14","16470","6523","&#9784;","elianto","#FFFFF080"," "," ","1","&#10004","[1641.199999999255]","1","0","0","","","","","","","",""
"pit-instructions","13","212614","0.0-2.0-5.0","battery-v0.2","","""event"",""trial"",""time""
""fullscreenenter"",""1"",""2952""
","
","
","""event"",""trial"",""time""
""fullscreenenter"",""1"",""2952""
","
","","[{""page_index"":0,""viewing_time"":9214.300000000745},{""page_index"":1,""viewing_time"":8440.799999998882},{""page_index"":2,""viewing_time"":5711.700000001118},{""page_index"":3,""viewing_time"":6594.299999998882}]","29961.599999999627","","","","","","","","","","","","","","","","","","","","","","","",""
"pit-trial","14","217468","0.0-2.0-6.0-0.0","battery-v0.2","","""event"",""trial"",""time""
""fullscreenenter"",""1"",""2952""
","
","
","""event"",""trial"",""time""
""fullscreenenter"",""1"",""2952""
","
","","","-1","","","14","16470","6523","&#9854;","elianto","#FFFFF080","-1","-1","1","&#10004","[]","0","0","1","","","","","","","",""
"pit-trial","15","222323","0.0-2.0-6.1-0.1","battery-v0.2","","""event"",""trial"",""time""
""fullscreenenter"",""1"",""2952""
","
","
","""event"",""trial"",""time""
""fullscreenenter"",""1"",""2952""
","
","","","-1","","","14","16470","6523","&#9854;","elianto","#FFFFF080","-1","-1","1","&#10004","[]","0","0","1","","","","","","","",""
"pit-trial","16","227176","0.0-2.0-6.2-0.2","battery-v0.2","","""event"",""trial"",""time""
""fullscreenenter"",""1"",""2952""
","
","
","""event"",""trial"",""time""
""fullscreenenter"",""1"",""2952""
","
","","","-1","","","14","16470","6523","&#9854;","elianto","#FFFFF080","-1","-1","1","&#10004","[]","0","0","1","","","","","","","",""
"pit-trial","17","232031","0.0-2.0-6.3-0.3","battery-v0.2","","""event"",""trial"",""time""
""fullscreenenter"",""1"",""2952""
","
","
","""event"",""trial"",""time""
""fullscreenenter"",""1"",""2952""
","
","","","-1","","","14","16470","6523","&#9854;","elianto","#FFFFF080","-1","-1","1","&#10004","[]","0","0","1","","","","","","","",""
"pit-trial","18","236885","0.0-2.0-6.4-0.4","battery-v0.2","","""event"",""trial"",""time""
""fullscreenenter"",""1"",""2952""
","
","
","""event"",""trial"",""time""
""fullscreenenter"",""1"",""2952""
","
","","","-1","","","14","16470","6523","&#9854;","elianto","#FFFFF080","-1","-1","1","&#10004","[]","0","0","1","","","","","","","",""
"pit-instructions","19","407501","0.0-2.0-7.0","battery-v0.2","","""event"",""trial"",""time""
""fullscreenenter"",""1"",""2952""
","
","
","""event"",""trial"",""time""
""fullscreenenter"",""1"",""2952""
","
","","[{""page_index"":0,""viewing_time"":6781.0999999996275},{""page_index"":1,""viewing_time"":12951.900000000373},{""page_index"":2,""viewing_time"":8794.799999998882},{""page_index"":3,""viewing_time"":8080.700000001118},{""page_index"":4,""viewing_time"":6534.799999998882},{""page_index"":5,""viewing_time"":8110.300000000745},{""page_index"":6,""viewing_time"":6751.0999999996275},{""page_index"":7,""viewing_time"":10919.700000001118},{""page_index"":8,""viewing_time"":9790.699999999255},{""page_index"":9,""viewing_time"":8990.900000000373},{""page_index"":10,""viewing_time"":18657},{""page_index"":11,""viewing_time"":5995.5999999996275},{""page_index"":12,""viewing_time"":9460.699999999255},{""page_index"":13,""viewing_time"":11427.300000000745},{""page_index"":14,""viewing_time"":9499.699999999255},{""page_index"":15,""viewing_time"":10354.60000000149},{""page_index"":16,""viewing_time"":8125.39999999851},{""page_index"":17,""viewing_time"":9385.400000000373}]","170612.29999999888","","","","","","","","","","","","","","","","","","","","","","","",""
"pit-trial","20","411312","0.0-2.0-8.0-0.0","battery-v0.2","","""event"",""trial"",""time""
""fullscreenenter"",""1"",""2952""
","
","
","""event"",""trial"",""time""
""fullscreenenter"",""1"",""2952""
","
","","","957.5","","","14","16470","6523","&#9776;","elianto","#3366ff99"," "," ","1","+10","[1807.699999999255]","1","0","1","","","","","","","",""
"pit-trial","21","415236","0.0-2.0-8.0-1.0","battery-v0.2","","""event"",""trial"",""time""
""fullscreenenter"",""1"",""2952""
","
","
","""event"",""trial"",""time""
""fullscreenenter"",""1"",""2952""
","
","","","1071.5","","","14","16470","6523","&#9776;","elianto","#3366ff99"," "," ","1","+10","[1921.5]","1","0","1","","","","","","","",""
"pit-trial","22","418737","0.0-2.0-8.0-2.0","battery-v0.2","","""event"",""trial"",""time""
""fullscreenenter"",""1"",""2952""
","
","
","""event"",""trial"",""time""
""fullscreenenter"",""1"",""2952""
","
","","","647.5","","","14","16470","6523","&#9776;","elianto","#3366ff99"," "," ","1","+10","[1498.5]","1","0","1","","","","","","","",""
"pit-trial","23","422215","0.0-2.0-8.0-3.0","battery-v0.2","","""event"",""trial"",""time""
""fullscreenenter"",""1"",""2952""
","
","
","""event"",""trial"",""time""
""fullscreenenter"",""1"",""2952""
","
","","","624.0999999996275","","","14","16470","6523","&#9776;","elianto","#3366ff99"," "," ","1","0","[1474.199999999255]","1","0","1","","","","","","","",""
"pit-trial","24","425801","0.0-2.0-8.0-4.0","battery-v0.2","","""event"",""trial"",""time""
""fullscreenenter"",""1"",""2952""
","
","
","""event"",""trial"",""time""
""fullscreenenter"",""1"",""2952""
","
","","","732.2999999988824","","","14","16470","6523","&#9776;","elianto","#3366ff99"," "," ","1","+10","[1582.5]","1","0","1","","","","","","","",""
"pit-trial","25","429359","0.0-2.0-8.1-0.1","battery-v0.2","","""event"",""trial"",""time""
""fullscreenenter"",""1"",""2952""
","
","
","""event"",""trial"",""time""
""fullscreenenter"",""1"",""2952""
","
","","","702.4000000003725","","","14","16470","6523","&#9776;","elianto","#3366ff99"," "," ","1","+10","[1552.6000000014901]","1","0","1","","","","","","","",""
"pit-trial","26","432821","0.0-2.0-8.1-1.1","battery-v0.2","","""event"",""trial"",""time""
""fullscreenenter"",""1"",""2952""
","
","
","""event"",""trial"",""time""
""fullscreenenter"",""1"",""2952""
","
","","","609.3000000007451","","","14","16470","6523","&#9776;","elianto","#3366ff99"," "," ","1","+10","[1459.5]","1","0","1","","","","","","","",""
"pit-trial","27","436687","0.0-2.0-8.1-2.1","battery-v0.2","","""event"",""trial"",""time""
""fullscreenenter"",""1"",""2952""
","
","
","""event"",""trial"",""time""
""fullscreenenter"",""1"",""2952""
","
","","","1012.1999999992549","","","14","16470","6523","&#9776;","elianto","#3366ff99"," "," ","1","+10","[1862.2999999988824]","1","0","1","","","","","","","",""
"pit-trial","28","440160","0.0-2.0-8.1-3.1","battery-v0.2","","""event"",""trial"",""time""
""fullscreenenter"",""1"",""2952""
","
","
","""event"",""trial"",""time""
""fullscreenenter"",""1"",""2952""
","
","","","619.3000000007451","","","14","16470","6523","&#9776;","elianto","#3366ff99"," "," ","1","0","[1469.4000000003725]","1","0","1","","","","","","","",""
"pit-trial","29","443620","0.0-2.0-8.1-4.1","battery-v0.2","","""event"",""trial"",""time""
""fullscreenenter"",""1"",""2952""
","
","
","""event"",""trial"",""time""
""fullscreenenter"",""1"",""2952""
","
","","","605.3000000007451","","","14","16470","6523","&#9776;","elianto","#3366ff99"," "," ","1","+10","[1455.4000000003725]","1","0","1","","","","","","","",""
"pit-trial","30","447115","0.0-2.0-8.2-0.2","battery-v0.2","","""event"",""trial"",""time""
""fullscreenenter"",""1"",""2952""
","
","
","""event"",""trial"",""time""
""fullscreenenter"",""1"",""2952""
","
","","","638.6999999992549","","","14","16470","6523","&#9776;","elianto","#3366ff99"," "," ","1","+10","[1488.5999999996275]","1","0","1","","","","","","","",""
"pit-trial","31","450519","0.0-2.0-8.2-1.2","battery-v0.2","","""event"",""trial"",""time""
""fullscreenenter"",""1"",""2952""
","
","
","""event"",""trial"",""time""
""fullscreenenter"",""1"",""2952""
","
","","","548.6999999992549","","","14","16470","6523","&#9776;","elianto","#3366ff99"," "," ","1","+10","[1398.9000000003725]","1","0","1","","","","","","","",""
"pit-trial","32","454040","0.0-2.0-8.2-2.2","battery-v0.2","","""event"",""trial"",""time""
""fullscreenenter"",""1"",""2952""
","
","
","""event"",""trial"",""time""
""fullscreenenter"",""1"",""2952""
","
","","","666.3999999985099","","","14","16470","6523","&#9776;","elianto","#3366ff99"," "," ","1","+10","[1516.5]","1","0","1","","","","","","","",""
"pit-trial","33","457649","0.0-2.0-8.2-3.2","battery-v0.2","","""event"",""trial"",""time""
""fullscreenenter"",""1"",""2952""
","
","
","""event"",""trial"",""time""
""fullscreenenter"",""1"",""2952""
","
","","","755.6999999992549","","","14","16470","6523","&#9776;","elianto","#3366ff99"," "," ","1","0","[1606]","1","0","1","","","","","","","",""
"pit-trial","34","461082","0.0-2.0-8.2-4.2","battery-v0.2","","""event"",""trial"",""time""
""fullscreenenter"",""1"",""2952""
","
","
","""event"",""trial"",""time""
""fullscreenenter"",""1"",""2952""
","
","","","579.1000000014901","","","14","16470","6523","&#9776;","elianto","#3366ff99"," "," ","1","+10","[1429.4000000003725]","1","0","1","","","","","","","",""
"call-function","35","461087","0.0-2.0-9.0","battery-v0.2","","""event"",""trial"",""time""
""fullscreenenter"",""1"",""2952""
","
","
","""event"",""trial"",""time""
""fullscreenenter"",""1"",""2952""
","
","","","","","","","","","","","","","","","","","","","","","","","","","","",""
"pit-instructions","36","510283","0.0-2.0-10.0","battery-v0.2","","""event"",""trial"",""time""
""fullscreenenter"",""1"",""2952""
","
","
","""event"",""trial"",""time""
""fullscreenenter"",""1"",""2952""
","
","","[{""page_index"":0,""viewing_time"":8986.400000000373},{""page_index"":1,""viewing_time"":10760.299999998882},{""page_index"":2,""viewing_time"":10067.5},{""page_index"":3,""viewing_time"":10516.5},{""page_index"":4,""viewing_time"":8863.800000000745}]","49195","","","","","","","","","","","","","","","","","","","","","","","",""
"pit-trial","37","513746","0.0-2.0-11.0-0.0","battery-v0.2","","""event"",""trial"",""time""
""fullscreenenter"",""1"",""2952""
","
","
","""event"",""trial"",""time""
""fullscreenenter"",""1"",""2952""
","
","","","608.0999999996275","","","14","16470","6523","&#9761;","elianto","#3366ff99","-1"," ","0","0","[1459.0999999996275]","1","0","2","","","","","","","",""
"pit-trial","38","517115","0.0-2.0-11.0-1.0","battery-v0.2","","""event"",""trial"",""time""
""fullscreenenter"",""1"",""2952""
","
","
","""event"",""trial"",""time""
""fullscreenenter"",""1"",""2952""
","
","","","516.1999999992549","","","14","16470","6523","&#9761;","elianto","#3366ff99","-1"," ","0","0","[1366.5]","1","0","2","","","","","","","",""
"pit-trial","39","521968","0.0-2.0-11.0-2.0","battery-v0.2","","""event"",""trial"",""time""
""fullscreenenter"",""1"",""2952""
","
","
","""event"",""trial"",""time""
""fullscreenenter"",""1"",""2952""
","
","","","-1","","","14","16470","6523","&#9761;","elianto","#3366ff99","-1","-1","1","+10","[]","0","0","2","","","","","","","",""
"pit-trial","40","526821","0.0-2.0-11.0-3.0","battery-v0.2","","""event"",""trial"",""time""
""fullscreenenter"",""1"",""2952""
","
","
","""event"",""trial"",""time""
""fullscreenenter"",""1"",""2952""
","
","","","-1","","","14","16470","6523","&#9761;","elianto","#3366ff99","-1","-1","1","0","[]","0","0","2","","","","","","","",""
"pit-trial","41","531674","0.0-2.0-11.0-4.0","battery-v0.2","","""event"",""trial"",""time""
""fullscreenenter"",""1"",""2952""
","
","
","""event"",""trial"",""time""
""fullscreenenter"",""1"",""2952""
","
","","","-1","","","14","16470","6523","&#9761;","elianto","#3366ff99","-1","-1","1","+10","[]","0","0","2","","","","","","","",""
"pit-trial","42","536528","0.0-2.0-11.1-0.1","battery-v0.2","","""event"",""trial"",""time""
""fullscreenenter"",""1"",""2952""
","
","
","""event"",""trial"",""time""
""fullscreenenter"",""1"",""2952""
","
","","","-1","","","14","16470","6523","&#9761;","elianto","#3366ff99","-1","-1","1","+10","[]","0","0","2","","","","","","","",""
"pit-trial","43","541382","0.0-2.0-11.1-1.1","battery-v0.2","","""event"",""trial"",""time""
""fullscreenenter"",""1"",""2952""
","
","
","""event"",""trial"",""time""
""fullscreenenter"",""1"",""2952""
","
","","","-1","","","14","16470","6523","&#9761;","elianto","#3366ff99","-1","-1","1","+10","[]","0","0","2","","","","","","","",""
"pit-trial","44","546237","0.0-2.0-11.1-2.1","battery-v0.2","","""event"",""trial"",""time""
""fullscreenenter"",""1"",""2952""
","
","
","""event"",""trial"",""time""
""fullscreenenter"",""1"",""2952""
","
","","","-1","","","14","16470","6523","&#9761;","elianto","#3366ff99","-1","-1","1","+10","[]","0","0","2","","","","","","","",""
"pit-trial","45","551093","0.0-2.0-11.1-3.1","battery-v0.2","","""event"",""trial"",""time""
""fullscreenenter"",""1"",""2952""
","
","
","""event"",""trial"",""time""
""fullscreenenter"",""1"",""2952""
","
","","","-1","","","14","16470","6523","&#9761;","elianto","#3366ff99","-1","-1","1","0","[]","0","0","2","","","","","","","",""
"pit-trial","46","555948","0.0-2.0-11.1-4.1","battery-v0.2","","""event"",""trial"",""time""
""fullscreenenter"",""1"",""2952""
","
","
","""event"",""trial"",""time""
""fullscreenenter"",""1"",""2952""
","
","","","-1","","","14","16470","6523","&#9761;","elianto","#3366ff99","-1","-1","1","+10","[]","0","0","2","","","","","","","",""
"pit-trial","47","560802","0.0-2.0-11.2-0.2","battery-v0.2","","""event"",""trial"",""time""
""fullscreenenter"",""1"",""2952""
","
","
","""event"",""trial"",""time""
""fullscreenenter"",""1"",""2952""
","
","","","-1","","","14","16470","6523","&#9761;","elianto","#3366ff99","-1","-1","1","+10","[]","0","0","2","","","","","","","",""
"pit-trial","48","565658","0.0-2.0-11.2-1.2","battery-v0.2","","""event"",""trial"",""time""
""fullscreenenter"",""1"",""2952""
","
","
","""event"",""trial"",""time""
""fullscreenenter"",""1"",""2952""
","
","","","-1","","","14","16470","6523","&#9761;","elianto","#3366ff99","-1","-1","1","+10","[]","0","0","2","","","","","","","",""
"pit-trial","49","570514","0.0-2.0-11.2-2.2","battery-v0.2","","""event"",""trial"",""time""
""fullscreenenter"",""1"",""2952""
","
","
","""event"",""trial"",""time""
""fullscreenenter"",""1"",""2952""
","
","","","-1","","","14","16470","6523","&#9761;","elianto","#3366ff99","-1","-1","1","+10","[]","0","0","2","","","","","","","",""
"pit-trial","50","575370","0.0-2.0-11.2-3.2","battery-v0.2","","""event"",""trial"",""time""
""fullscreenenter"",""1"",""2952""
","
","
","""event"",""trial"",""time""
""fullscreenenter"",""1"",""2952""
","
","","","-1","","","14","16470","6523","&#9761;","elianto","#3366ff99","-1","-1","1","0","[]","0","0","2","","","","","","","",""
"pit-trial","51","580224","0.0-2.0-11.2-4.2","battery-v0.2","","""event"",""trial"",""time""
""fullscreenenter"",""1"",""2952""
","
","
","""event"",""trial"",""time""
""fullscreenenter"",""1"",""2952""
","
","","","-1","","","14","16470","6523","&#9761;","elianto","#3366ff99","-1","-1","1","+10","[]","0","0","2","","","","","","","",""
"pit-trial","52","585080","0.0-2.0-11.3-0.3","battery-v0.2","","""event"",""trial"",""time""
""fullscreenenter"",""1"",""2952""
","
","
","""event"",""trial"",""time""
""fullscreenenter"",""1"",""2952""
","
","","","-1","","","14","16470","6523","&#9761;","elianto","#3366ff99","-1","-1","1","+10","[]","0","0","2","","","","","","","",""
"pit-trial","53","589933","0.0-2.0-11.3-1.3","battery-v0.2","","""event"",""trial"",""time""
""fullscreenenter"",""1"",""2952""
","
","
","""event"",""trial"",""time""
""fullscreenenter"",""1"",""2952""
","
","","","-1","","","14","16470","6523","&#9761;","elianto","#3366ff99","-1","-1","1","+10","[]","0","0","2","","","","","","","",""
"pit-trial","54","594789","0.0-2.0-11.3-2.3","battery-v0.2","","""event"",""trial"",""time""
""fullscreenenter"",""1"",""2952""
","
","
","""event"",""trial"",""time""
""fullscreenenter"",""1"",""2952""
","
","","","-1","","","14","16470","6523","&#9761;","elianto","#3366ff99","-1","-1","1","+10","[]","0","0","2","","","","","","","",""
"pit-trial","55","599644","0.0-2.0-11.3-3.3","battery-v0.2","","""event"",""trial"",""time""
""fullscreenenter"",""1"",""2952""
","
","
","""event"",""trial"",""time""
""fullscreenenter"",""1"",""2952""
","
","","","-1","","","14","16470","6523","&#9761;","elianto","#3366ff99","-1","-1","1","0","[]","0","0","2","","","","","","","",""
"pit-trial","56","604500","0.0-2.0-11.3-4.3","battery-v0.2","","""event"",""trial"",""time""
""fullscreenenter"",""1"",""2952""
","
","
","""event"",""trial"",""time""
""fullscreenenter"",""1"",""2952""
","
","","","-1","","","14","16470","6523","&#9761;","elianto","#3366ff99","-1","-1","1","+10","[]","0","0","2","","","","","","","",""
"call-function","57","604504","0.0-2.0-12.0","battery-v0.2","","""event"",""trial"",""time""
""fullscreenenter"",""1"",""2952""
","
","
","""event"",""trial"",""time""
""fullscreenenter"",""1"",""2952""
","
","","","","","","","","","","","","","","","","","","","","","","","","","","",""
"pit-instructions","58","652009","0.0-2.0-13.0","battery-v0.2","","""event"",""trial"",""time""
""fullscreenenter"",""1"",""2952""
","
","
","""event"",""trial"",""time""
""fullscreenenter"",""1"",""2952""
","
","","[{""page_index"":0,""viewing_time"":8796.099999999627},{""page_index"":1,""viewing_time"":9125.700000001118},{""page_index"":2,""viewing_time"":7561.0999999996275},{""page_index"":3,""viewing_time"":12921.400000000373},{""page_index"":4,""viewing_time"":9098}]","47502.800000000745","","","","","","","","","","","","","","","","","","","","","","","",""
"pit-trial","59","656862","0.0-2.0-14.0-0.0","battery-v0.2","","""event"",""trial"",""time""
""fullscreenenter"",""1"",""2952""
","
","
","""event"",""trial"",""time""
""fullscreenenter"",""1"",""2952""
","
","","","-1","","","14","16470","6523","&#9826;","elianto","#f73b6a7A","-1","-1","1","0","[]","0","0","3","","","","","","","",""
"pit-trial","60","661715","0.0-2.0-14.0-1.0","battery-v0.2","","""event"",""trial"",""time""
""fullscreenenter"",""1"",""2952""
","
","
","""event"",""trial"",""time""
""fullscreenenter"",""1"",""2952""
","
","","","-1","","","14","16470","6523","&#9826;","elianto","#f73b6a7A","-1","-1","1","0","[]","0","0","3","","","","","","","",""
"pit-trial","61","666568","0.0-2.0-14.0-2.0","battery-v0.2","","""event"",""trial"",""time""
""fullscreenenter"",""1"",""2952""
","
","
","""event"",""trial"",""time""
""fullscreenenter"",""1"",""2952""
","
","","","-1","","","14","16470","6523","&#9826;","elianto","#f73b6a7A","-1","-1","1","0","[]","0","0","3","","","","","","","",""
"pit-trial","62","671421","0.0-2.0-14.0-3.0","battery-v0.2","","""event"",""trial"",""time""
""fullscreenenter"",""1"",""2952""
","
","
","""event"",""trial"",""time""
""fullscreenenter"",""1"",""2952""
","
","","","-1","","","14","16470","6523","&#9826;","elianto","#f73b6a7A","-1","-1","1","-10","[]","0","0","3","","","","","","","",""
"pit-trial","63","676274","0.0-2.0-14.0-4.0","battery-v0.2","","""event"",""trial"",""time""
""fullscreenenter"",""1"",""2952""
","
","
","""event"",""trial"",""time""
""fullscreenenter"",""1"",""2952""
","
","","","-1","","","14","16470","6523","&#9826;","elianto","#f73b6a7A","-1","-1","1","0","[]","0","0","3","","","","","","","",""
"pit-trial","64","681128","0.0-2.0-14.1-0.1","battery-v0.2","","""event"",""trial"",""time""
""fullscreenenter"",""1"",""2952""
","
","
","""event"",""trial"",""time""
""fullscreenenter"",""1"",""2952""
","
","","","-1","","","14","16470","6523","&#9826;","elianto","#f73b6a7A","-1","-1","1","0","[]","0","0","3","","","","","","","",""
"pit-trial","65","685984","0.0-2.0-14.1-1.1","battery-v0.2","","""event"",""trial"",""time""
""fullscreenenter"",""1"",""2952""
","
","
","""event"",""trial"",""time""
""fullscreenenter"",""1"",""2952""
","
","","","-1","","","14","16470","6523","&#9826;","elianto","#f73b6a7A","-1","-1","1","0","[]","0","0","3","","","","","","","",""
"pit-trial","66","690839","0.0-2.0-14.1-2.1","battery-v0.2","","""event"",""trial"",""time""
""fullscreenenter"",""1"",""2952""
","
","
","""event"",""trial"",""time""
""fullscreenenter"",""1"",""2952""
","
","","","-1","","","14","16470","6523","&#9826;","elianto","#f73b6a7A","-1","-1","1","0","[]","0","0","3","","","","","","","",""
"pit-trial","67","695693","0.0-2.0-14.1-3.1","battery-v0.2","","""event"",""trial"",""time""
""fullscreenenter"",""1"",""2952""
","
","
","""event"",""trial"",""time""
""fullscreenenter"",""1"",""2952""
","
","","","-1","","","14","16470","6523","&#9826;","elianto","#f73b6a7A","-1","-1","1","-10","[]","0","0","3","","","","","","","",""
"pit-trial","68","700549","0.0-2.0-14.1-4.1","battery-v0.2","","""event"",""trial"",""time""
""fullscreenenter"",""1"",""2952""
","
","
","""event"",""trial"",""time""
""fullscreenenter"",""1"",""2952""
","
","","","-1","","","14","16470","6523","&#9826;","elianto","#f73b6a7A","-1","-1","1","0","[]","0","0","3","","","","","","","",""
"pit-trial","69","705405","0.0-2.0-14.2-0.2","battery-v0.2","","""event"",""trial"",""time""
""fullscreenenter"",""1"",""2952""
","
","
","""event"",""trial"",""time""
""fullscreenenter"",""1"",""2952""
","
","","","-1","","","14","16470","6523","&#9826;","elianto","#f73b6a7A","-1","-1","1","0","[]","0","0","3","","","","","","","",""
"pit-trial","70","709527","0.0-2.0-14.2-1.2","battery-v0.2","","""event"",""trial"",""time""
""fullscreenenter"",""1"",""2952""
","
","
","""event"",""trial"",""time""
""fullscreenenter"",""1"",""2952""
","
","","","1264.7999999988824","","","14","16470","6523","&#9826;","elianto","#f73b6a7A","-1"," ","0","-10","[2115.7000000011176]","1","0","3","","","","","","","",""
"pit-trial","71","714383","0.0-2.0-14.2-2.2","battery-v0.2","","""event"",""trial"",""time""
""fullscreenenter"",""1"",""2952""
","
","
","""event"",""trial"",""time""
""fullscreenenter"",""1"",""2952""
","
","","","-1","","","14","16470","6523","&#9826;","elianto","#f73b6a7A","-1","-1","1","0","[]","0","0","3","","","","","","","",""
"pit-trial","72","719239","0.0-2.0-14.2-3.2","battery-v0.2","","""event"",""trial"",""time""
""fullscreenenter"",""1"",""2952""
","
","
","""event"",""trial"",""time""
""fullscreenenter"",""1"",""2952""
","
","","","-1","","","14","16470","6523","&#9826;","elianto","#f73b6a7A","-1","-1","1","-10","[]","0","0","3","","","","","","","",""
"pit-trial","73","724095","0.0-2.0-14.2-4.2","battery-v0.2","","""event"",""trial"",""time""
""fullscreenenter"",""1"",""2952""
","
","
","""event"",""trial"",""time""
""fullscreenenter"",""1"",""2952""
","
","","","-1","","","14","16470","6523","&#9826;","elianto","#f73b6a7A","-1","-1","1","0","[]","0","0","3","","","","","","","",""
"pit-trial","74","728950","0.0-2.0-14.3-0.3","battery-v0.2","","""event"",""trial"",""time""
""fullscreenenter"",""1"",""2952""
","
","
","""event"",""trial"",""time""
""fullscreenenter"",""1"",""2952""
","
","","","-1","","","14","16470","6523","&#9826;","elianto","#f73b6a7A","-1","-1","1","0","[]","0","0","3","","","","","","","",""
"pit-trial","75","733807","0.0-2.0-14.3-1.3","battery-v0.2","","""event"",""trial"",""time""
""fullscreenenter"",""1"",""2952""
","
","
","""event"",""trial"",""time""
""fullscreenenter"",""1"",""2952""
","
","","","-1","","","14","16470","6523","&#9826;","elianto","#f73b6a7A","-1","-1","1","0","[]","0","0","3","","","","","","","",""
"pit-trial","76","738663","0.0-2.0-14.3-2.3","battery-v0.2","","""event"",""trial"",""time""
""fullscreenenter"",""1"",""2952""
","
","
","""event"",""trial"",""time""
""fullscreenenter"",""1"",""2952""
","
","","","-1","","","14","16470","6523","&#9826;","elianto","#f73b6a7A","-1","-1","1","0","[]","0","0","3","","","","","","","",""
"pit-trial","77","743517","0.0-2.0-14.3-3.3","battery-v0.2","","""event"",""trial"",""time""
""fullscreenenter"",""1"",""2952""
","
","
","""event"",""trial"",""time""
""fullscreenenter"",""1"",""2952""
","
","","","-1","","","14","16470","6523","&#9826;","elianto","#f73b6a7A","-1","-1","1","-10","[]","0","0","3","","","","","","","",""
"pit-trial","78","748373","0.0-2.0-14.3-4.3","battery-v0.2","","""event"",""trial"",""time""
""fullscreenenter"",""1"",""2952""
","
","
","""event"",""trial"",""time""
""fullscreenenter"",""1"",""2952""
","
","","","-1","","","14","16470","6523","&#9826;","elianto","#f73b6a7A","-1","-1","1","0","[]","0","0","3","","","","","","","",""
"call-function","79","748377","0.0-2.0-15.0","battery-v0.2","","""event"",""trial"",""time""
""fullscreenenter"",""1"",""2952""
","
","
","""event"",""trial"",""time""
""fullscreenenter"",""1"",""2952""
","
","","","","","","","","","","","","","","","","","","","","","","","","","","",""
"pit-instructions","80","778650","0.0-2.0-16.0","battery-v0.2","","""event"",""trial"",""time""
""fullscreenenter"",""1"",""2952""
","
","
","""event"",""trial"",""time""
""fullscreenenter"",""1"",""2952""
","
","","[{""page_index"":0,""viewing_time"":7614.5},{""page_index"":1,""viewing_time"":9899.89999999851},{""page_index"":2,""viewing_time"":5576.200000001118},{""page_index"":3,""viewing_time"":7180.699999999255}]","30271.799999998882","","","","","","","","","","","","","","","","","","","","","","","",""
"pit-trial","81","782789","0.0-2.0-17.0-0.0","battery-v0.2","","""event"",""trial"",""time""
""fullscreenenter"",""1"",""2952""
","
","
","""event"",""trial"",""time""
""fullscreenenter"",""1"",""2952""
","
","","","1284.9000000003725","","","14","16470","6523","&#9789;","elianto","#f73b6a7A"," "," ","1","0","[2135.0999999996275]","1","0","4","","","","","","","",""
"pit-trial","82","786063","0.0-2.0-17.0-1.0","battery-v0.2","","""event"",""trial"",""time""
""fullscreenenter"",""1"",""2952""
","
","
","""event"",""trial"",""time""
""fullscreenenter"",""1"",""2952""
","
","","","420.09999999962747","","","14","16470","6523","&#9789;","elianto","#f73b6a7A"," "," ","1","0","[1270.2000000011176]","1","0","4","","","","","","","",""
"pit-trial","83","789401","0.0-2.0-17.0-2.0","battery-v0.2","","""event"",""trial"",""time""
""fullscreenenter"",""1"",""2952""
","
","
","""event"",""trial"",""time""
""fullscreenenter"",""1"",""2952""
","
","","","484.40000000037253","","","14","16470","6523","&#9789;","elianto","#f73b6a7A"," "," ","1","0","[1334.699999999255]","1","0","4","","","","","","","",""
"pit-trial","84","792458","0.0-2.0-17.0-3.0","battery-v0.2","","""event"",""trial"",""time""
""fullscreenenter"",""1"",""2952""
","
","
","""event"",""trial"",""time""
""fullscreenenter"",""1"",""2952""
","
","","","204.2999999988824","","","14","16470","6523","&#9789;","elianto","#f73b6a7A"," "," ","1","-10","[1054.699999999255]","1","0","4","","","","","","","",""
"pit-trial","85","795719","0.0-2.0-17.0-4.0","battery-v0.2","","""event"",""trial"",""time""
""fullscreenenter"",""1"",""2952""
","
","
","""event"",""trial"",""time""
""fullscreenenter"",""1"",""2952""
","
","","","407.40000000037253","","","14","16470","6523","&#9789;","elianto","#f73b6a7A"," "," ","1","0","[1257.4000000003725]","1","0","4","","","","","","","",""
"pit-trial","86","798944","0.0-2.0-17.1-0.1","battery-v0.2","","""event"",""trial"",""time""
""fullscreenenter"",""1"",""2952""
","
","
","""event"",""trial"",""time""
""fullscreenenter"",""1"",""2952""
","
","","","372","","","14","16470","6523","&#9789;","elianto","#f73b6a7A"," "," ","1","0","[1222.5]","1","0","4","","","","","","","",""
"pit-trial","87","802830","0.0-2.0-17.1-1.1","battery-v0.2","","""event"",""trial"",""time""
""fullscreenenter"",""1"",""2952""
","
","
","""event"",""trial"",""time""
""fullscreenenter"",""1"",""2952""
","
","","","1033.4000000003725","","","14","16470","6523","&#9789;","elianto","#f73b6a7A"," "," ","1","0","[1883.5]","1","0","4","","","","","","","",""
"pit-trial","88","807007","0.0-2.0-17.1-2.1","battery-v0.2","","""event"",""trial"",""time""
""fullscreenenter"",""1"",""2952""
","
","
","""event"",""trial"",""time""
""fullscreenenter"",""1"",""2952""
","
","","","1323.0999999996275","","","14","16470","6523","&#9789;","elianto","#f73b6a7A"," "," ","1","0","[2173.2000000011176]","1","0","4","","","","","","","",""
"pit-trial","89","810799","0.0-2.0-17.1-3.1","battery-v0.2","","""event"",""trial"",""time""
""fullscreenenter"",""1"",""2952""
","
","
","""event"",""trial"",""time""
""fullscreenenter"",""1"",""2952""
","
","","","936.8000000007451","","","14","16470","6523","&#9789;","elianto","#f73b6a7A"," "," ","1","-10","[1786.7999999988824]","1","0","4","","","","","","","",""
"pit-trial","90","814118","0.0-2.0-17.1-4.1","battery-v0.2","","""event"",""trial"",""time""
""fullscreenenter"",""1"",""2952""
","
","
","""event"",""trial"",""time""
""fullscreenenter"",""1"",""2952""
","
","","","463.59999999962747","","","14","16470","6523","&#9789;","elianto","#f73b6a7A"," "," ","1","0","[1313.699999999255]","1","0","4","","","","","","","",""
"pit-trial","91","817893","0.0-2.0-17.2-0.2","battery-v0.2","","""event"",""trial"",""time""
""fullscreenenter"",""1"",""2952""
","
","
","""event"",""trial"",""time""
""fullscreenenter"",""1"",""2952""
","
","","","919.0999999996275","","","14","16470","6523","&#9789;","elianto","#f73b6a7A"," "," ","1","0","[1769.1000000014901]","1","0","4","","","","","","","",""
"pit-trial","92","821696","0.0-2.0-17.2-1.2","battery-v0.2","","""event"",""trial"",""time""
""fullscreenenter"",""1"",""2952""
","
","
","""event"",""trial"",""time""
""fullscreenenter"",""1"",""2952""
","
","","","948.9000000003725","","","14","16470","6523","&#9789;","elianto","#f73b6a7A"," "," ","1","0","[1799.0999999996275]","1","0","4","","","","","","","",""
"pit-trial","93","825707","0.0-2.0-17.2-2.2","battery-v0.2","","""event"",""trial"",""time""
""fullscreenenter"",""1"",""2952""
","
","
","""event"",""trial"",""time""
""fullscreenenter"",""1"",""2952""
","
","","","1156.7999999988824","","","14","16470","6523","&#9789;","elianto","#f73b6a7A"," "," ","1","0","[2006.9000000003725]","1","0","4","","","","","","","",""
"pit-trial","94","829427","0.0-2.0-17.2-3.2","battery-v0.2","","""event"",""trial"",""time""
""fullscreenenter"",""1"",""2952""
","
","
","""event"",""trial"",""time""
""fullscreenenter"",""1"",""2952""
","
","","","864.2000000011176","","","14","16470","6523","&#9789;","elianto","#f73b6a7A"," "," ","1","-10","[1714.4000000003725]","1","0","4","","","","","","","",""
"pit-trial","95","833099","0.0-2.0-17.2-4.2","battery-v0.2","","""event"",""trial"",""time""
""fullscreenenter"",""1"",""2952""
","
","
","""event"",""trial"",""time""
""fullscreenenter"",""1"",""2952""
","
","","","817.3000000007451","","","14","16470","6523","&#9789;","elianto","#f73b6a7A"," "," ","1","0","[1667.7000000011176]","1","0","4","","","","","","","",""
"pit-trial","96","836496","0.0-2.0-17.3-0.3","battery-v0.2","","""event"",""trial"",""time""
""fullscreenenter"",""1"",""2952""
","
","
","""event"",""trial"",""time""
""fullscreenenter"",""1"",""2952""
","
","","","540.6999999992549","","","14","16470","6523","&#9789;","elianto","#f73b6a7A"," "," ","1","0","[1390.800000000745]","1","0","4","","","","","","","",""
"pit-trial","97","841137","0.0-2.0-17.3-1.3","battery-v0.2","","""event"",""trial"",""time""
""fullscreenenter"",""1"",""2952""
","
","
","""event"",""trial"",""time""
""fullscreenenter"",""1"",""2952""
","
","","","1785.2999999988824","","","14","16470","6523","&#9789;","elianto","#f73b6a7A"," "," ","1","0","[2635.300000000745]","1","0","4","","","","","","","",""
"pit-trial","98","845992","0.0-2.0-17.3-2.3","battery-v0.2","","""event"",""trial"",""time""
""fullscreenenter"",""1"",""2952""
","
","
","""event"",""trial"",""time""
""fullscreenenter"",""1"",""2952""
","
","","","-1","","","14","16470","6523","&#9789;","elianto","#f73b6a7A"," ","-1","0","-10","[]","0","0","4","","","","","","","",""
"pit-trial","99","850291","0.0-2.0-17.3-3.3","battery-v0.2","","""event"",""trial"",""time""
""fullscreenenter"",""1"",""2952""
","
","
","""event"",""trial"",""time""
""fullscreenenter"",""1"",""2952""
","
","","","1441.9000000003725","","","14","16470","6523","&#9789;","elianto","#f73b6a7A"," "," ","1","-10","[2293.300000000745]","1","0","4","","","","","","","",""
"pit-trial","100","853688","0.0-2.0-17.3-4.3","battery-v0.2","","""event"",""trial"",""time""
""fullscreenenter"",""1"",""2952""
","
","
","""event"",""trial"",""time""
""fullscreenenter"",""1"",""2952""
","
","","","543.2999999988824","","","14","16470","6523","&#9789;","elianto","#f73b6a7A"," "," ","1","0","[1393.4000000003725]","1","0","4","","","","","","","",""
"call-function","101","853690","0.0-2.0-18.0","battery-v0.2","","""event"",""trial"",""time""
""fullscreenenter"",""1"",""2952""
","
","
","""event"",""trial"",""time""
""fullscreenenter"",""1"",""2952""
","
","","","","","","","","","","","","","","","","","","","","","","","","","","",""
"pit-instructions","102","940949","0.0-2.0-19.0","battery-v0.2","","""event"",""trial"",""time""
""fullscreenenter"",""1"",""2952""
","
","
","""event"",""trial"",""time""
""fullscreenenter"",""1"",""2952""
","
","","[{""page_index"":0,""viewing_time"":8875.200000001118},{""page_index"":1,""viewing_time"":7267.5},{""page_index"":2,""viewing_time"":17989.099999999627},{""page_index"":3,""viewing_time"":11798.699999999255},{""page_index"":4,""viewing_time"":9911.200000001118},{""page_index"":5,""viewing_time"":8472.400000000373},{""page_index"":6,""viewing_time"":9852.799999998882},{""page_index"":7,""viewing_time"":7856.5},{""page_index"":8,""viewing_time"":5233.700000001118}]","87257.5","","","","","","","","","","","","","","","","","","","","","","","",""
"pit-comprehension","103","947321","0.0-2.0-20.0-0.0","battery-v0.2","","""event"",""trial"",""time""
""fullscreenenter"",""1"",""2952""
","
","
","""event"",""trial"",""time""
""fullscreenenter"",""1"",""2952""
","
","","","6365.799999998882","[""SPACE""]","0","14","16470","6523","","","","","","","","","","","","","","","","","","",""
"pit-instructions","104","952689","0.0-2.0-20.0-1.0","battery-v0.2","","""event"",""trial"",""time""
""fullscreenenter"",""1"",""2952""
","
","
","""event"",""trial"",""time""
""fullscreenenter"",""1"",""2952""
","
","","[{""page_index"":0,""viewing_time"":5324.800000000745}]","5325.200000001118","","","","","","","","","","","","","","","","","","","","","","","",""
"pit-comprehension","105","960664","0.0-2.0-21.0-0.0","battery-v0.2","","""event"",""trial"",""time""
""fullscreenenter"",""1"",""2952""
","
","
","""event"",""trial"",""time""
""fullscreenenter"",""1"",""2952""
","
","","","7970.0999999996275","[""10""]","0","14","16470","6523","","","","","","","","","","","","","","","","","","",""
"pit-instructions","106","965918","0.0-2.0-21.0-1.0","battery-v0.2","","""event"",""trial"",""time""
""fullscreenenter"",""1"",""2952""
","
","
","""event"",""trial"",""time""
""fullscreenenter"",""1"",""2952""
","
","","[{""page_index"":0,""viewing_time"":5214.299999998882}]","5214.799999998882","","","","","","","","","","","","","","","","","","","","","","","",""
"pit-comprehension","107","974372","0.0-2.0-22.0-0.0","battery-v0.2","","""event"",""trial"",""time""
""fullscreenenter"",""1"",""2952""
","
","
","""event"",""trial"",""time""
""fullscreenenter"",""1"",""2952""
","
","","","8449","[""0""]","0","14","16470","6523","","","","","","","","","","","","","","","","","","",""
"pit-instructions","108","977208","0.0-2.0-22.0-1.0","battery-v0.2","","""event"",""trial"",""time""
""fullscreenenter"",""1"",""2952""
","
","
","""event"",""trial"",""time""
""fullscreenenter"",""1"",""2952""
","
","","[{""page_index"":0,""viewing_time"":2794.39999999851}]","2794.89999999851","","","","","","","","","","","","","","","","","","","","","","","",""
"pit-comprehension","109","989282","0.0-2.0-23.0-0.0","battery-v0.2","","""event"",""trial"",""time""
""fullscreenenter"",""1"",""2952""
","
","
","""event"",""trial"",""time""
""fullscreenenter"",""1"",""2952""
","
","","","12069.799999998882","[""True""]","0","14","16470","6523","","","","","","","","","","","","","","","","","","",""
"pit-instructions","110","991210","0.0-2.0-23.0-1.0","battery-v0.2","","""event"",""trial"",""time""
""fullscreenenter"",""1"",""2952""
","
","
","""event"",""trial"",""time""
""fullscreenenter"",""1"",""2952""
","
","","[{""page_index"":0,""viewing_time"":1890.300000000745}]","1890.800000000745","","","","","","","","","","","","","","","","","","","","","","","",""
"pit-comprehension","111","999330","0.0-2.0-24.0-0.0","battery-v0.2","","""event"",""trial"",""time""
""fullscreenenter"",""1"",""2952""
","
","
","""event"",""trial"",""time""
""fullscreenenter"",""1"",""2952""
","
","","","8115.700000001118","[""True""]","0","14","16470","6523","","","","","","","","","","","","","","","","","","",""
"pit-instructions","112","1001101","0.0-2.0-24.0-1.0","battery-v0.2","","""event"",""trial"",""time""
""fullscreenenter"",""1"",""2952""
","
","
","""event"",""trial"",""time""
""fullscreenenter"",""1"",""2952""
","
","","[{""page_index"":0,""viewing_time"":1721.199999999255}]","1721.699999999255","","","","","","","","","","","","","","","","","","","","","","","",""
"pit-comprehension","113","1008842","0.0-2.0-25.0-0.0","battery-v0.2","","""event"",""trial"",""time""
""fullscreenenter"",""1"",""2952""
","
","
","""event"",""trial"",""time""
""fullscreenenter"",""1"",""2952""
","
","","","7735.9000000003725","[""True""]","0","14","16470","6523","","","","","","","","","","","","","","","","","","",""
"pit-instructions","114","1010358","0.0-2.0-25.0-1.0","battery-v0.2","","""event"",""trial"",""time""
""fullscreenenter"",""1"",""2952""
","
","
","""event"",""trial"",""time""
""fullscreenenter"",""1"",""2952""
","
","","[{""page_index"":0,""viewing_time"":1475.2000000011176}]","1475.7000000011176","","","","","","","","","","","","","","","","","","","","","","","",""
"pit-comprehension","115","1019067","0.0-2.0-26.0-0.0","battery-v0.2","","""event"",""trial"",""time""
""fullscreenenter"",""1"",""2952""
","
","
","""event"",""trial"",""time""
""fullscreenenter"",""1"",""2952""
","
","","","8703.5","[""False""]","0","14","16470","6523","","","","","","","","","","","","","","","","","","",""
"pit-instructions","116","1022688","0.0-2.0-26.0-1.0","battery-v0.2","","""event"",""trial"",""time""
""fullscreenenter"",""1"",""2952""
","
","
","""event"",""trial"",""time""
""fullscreenenter"",""1"",""2952""
","
","","[{""page_index"":0,""viewing_time"":3576.800000000745}]","3577.4000000003725","","","","","","","","","","","","","","","","","","","","","","","",""
"pit-instructions","117","1041309","0.0-3.0","battery-v0.2","","""event"",""trial"",""time""
""fullscreenenter"",""1"",""2952""
","
","
","""event"",""trial"",""time""
""fullscreenenter"",""1"",""2952""
","
","","[{""page_index"":0,""viewing_time"":4214.9000000003725},{""page_index"":1,""viewing_time"":5556.89999999851},{""page_index"":2,""viewing_time"":8845.200000001118}]","18617.599999999627","","","","","","","","","","","","","","","","","","","","","","","",""
"pit-trial","118","1045296","0.0-4.0","battery-v0.2","","""event"",""trial"",""time""
""fullscreenenter"",""1"",""2952""
","
","
","""event"",""trial"",""time""
""fullscreenenter"",""1"",""2952""
","
","","","1131.5","","","14","16470","6523","&#9752;","elianto","#f73b6a7A"," "," ","1","0","[1981.9000000003725]","1","1","","","16470","1","3","3","lose","go","0"
"pit-trial","119","1049011","0.0-5.0","battery-v0.2","","""event"",""trial"",""time""
""fullscreenenter"",""1"",""2952""
","
","
","""event"",""trial"",""time""
""fullscreenenter"",""1"",""2952""
","
","","","862","","","14","16470","6523","&#9733;","elianto","#3366ff99","-1"," ","0","+10","[1712.2000000011176]","1","1","","","16470","2","2","2","win","no-go","1"
"pit-trial","120","1052800","0.0-6.0","battery-v0.2","","""event"",""trial"",""time""
""fullscreenenter"",""1"",""2952""
","
","
","""event"",""trial"",""time""
""fullscreenenter"",""1"",""2952""
","
","","","935.8000000007451","","","14","16470","6523","&#9730;","elianto","#3366ff99"," "," ","1","+10","[1786.0999999996275]","1","1","","","16470","3","1","1","win","go","0"
"pit-trial","121","1056464","0.0-7.0","battery-v0.2","","""event"",""trial"",""time""
""fullscreenenter"",""1"",""2952""
","
","
","""event"",""trial"",""time""
""fullscreenenter"",""1"",""2952""
","
","","","809.8000000007451","","","14","16470","6523","&#9728;","elianto","#f73b6a7A","-1"," ","0","-10","[1661.199999999255]","1","1","","","16470","4","0","4","lose","no-go","0"
"pit-trial","122","1060202","0.0-8.0","battery-v0.2","","""event"",""trial"",""time""
""fullscreenenter"",""1"",""2952""
","
","
","""event"",""trial"",""time""
""fullscreenenter"",""1"",""2952""
","
","","","885.0999999996275","","","14","16470","6523","&#9730;","elianto","#3366ff99"," "," ","1","+10","[1735.5]","1","1","","","16470","5","1","1","win","go","0"
"pit-trial","123","1063979","0.0-9.0","battery-v0.2","","""event"",""trial"",""time""
""fullscreenenter"",""1"",""2952""
","
","
","""event"",""trial"",""time""
""fullscreenenter"",""1"",""2952""
","
","","","924.4000000003725","","","14","16470","6523","&#9752;","elianto","#f73b6a7A"," "," ","1","0","[1774.5999999996275]","1","1","","","16470","6","3","3","lose","go","0"
"pit-trial","124","1068832","0.0-10.0","battery-v0.2","","""event"",""trial"",""time""
""fullscreenenter"",""1"",""2952""
","
","
","""event"",""trial"",""time""
""fullscreenenter"",""1"",""2952""
","
","","","-1","","","14","16470","6523","&#9728;","elianto","#f73b6a7A","-1","-1","1","0","[]","0","1","","","16470","7","0","4","lose","no-go","0"
"pit-trial","125","1072427","0.0-11.0","battery-v0.2","","""event"",""trial"",""time""
""fullscreenenter"",""1"",""2952""
","
","
","""event"",""trial"",""time""
""fullscreenenter"",""1"",""2952""
","
","","","741.5","","","14","16470","6523","&#9733;","elianto","#3366ff99","-1"," ","0","0","[1591.5999999996275]","1","1","","","16470","8","2","2","win","no-go","0"
"pit-trial","126","1077282","0.0-12.0","battery-v0.2","","""event"",""trial"",""time""
""fullscreenenter"",""1"",""2952""
","
","
","""event"",""trial"",""time""
""fullscreenenter"",""1"",""2952""
","
","","","-1","","","14","16470","6523","&#9728;","elianto","#f73b6a7A","-1","-1","1","-10","[]","0","1","","","16470","9","0","4","lose","no-go","1"
"pit-trial","127","1080920","0.0-13.0","battery-v0.2","","""event"",""trial"",""time""
""fullscreenenter"",""1"",""2952""
","
","
","""event"",""trial"",""time""
""fullscreenenter"",""1"",""2952""
","
","","","782","","","14","16470","6523","&#9752;","elianto","#f73b6a7A"," "," ","1","-10","[1632.199999999255]","1","1","","","16470","10","3","3","lose","go","1"
"pit-trial","128","1085516","0.0-14.0","battery-v0.2","","""event"",""trial"",""time""
""fullscreenenter"",""1"",""2952""
","
","
","""event"",""trial"",""time""
""fullscreenenter"",""1"",""2952""
","
","","","1739.0999999996275","","","14","16470","6523","&#9730;","elianto","#3366ff99"," "," ","1","+10","[2589.199999999255]","1","1","","","16470","11","1","1","win","go","0"
"pit-trial","129","1089250","0.0-15.0","battery-v0.2","","""event"",""trial"",""time""
""fullscreenenter"",""1"",""2952""
","
","
","""event"",""trial"",""time""
""fullscreenenter"",""1"",""2952""
","
","","","878.5999999996275","","","14","16470","6523","&#9733;","elianto","#3366ff99","-1"," ","0","0","[1728.800000000745]","1","1","","","16470","12","2","2","win","no-go","0"
"pit-trial","130","1092994","0.0-16.0","battery-v0.2","","""event"",""trial"",""time""
""fullscreenenter"",""1"",""2952""
","
","
","""event"",""trial"",""time""
""fullscreenenter"",""1"",""2952""
","
","","","888.3000000007451","","","14","16470","6523","&#9730;","elianto","#3366ff99"," "," ","1","+10","[1738.5999999996275]","1","1","","","16470","13","1","1","win","go","0"
"pit-trial","131","1096626","0.0-17.0","battery-v0.2","","""event"",""trial"",""time""
""fullscreenenter"",""1"",""2952""
","
","
","""event"",""trial"",""time""
""fullscreenenter"",""1"",""2952""
","
","","","775.8000000007451","","","14","16470","6523","&#9752;","elianto","#f73b6a7A"," "," ","1","0","[1626.1000000014901]","1","1","","","16470","14","3","3","lose","go","0"
"pit-trial","132","1100295","0.0-18.0","battery-v0.2","","""event"",""trial"",""time""
""fullscreenenter"",""1"",""2952""
","
","
","""event"",""trial"",""time""
""fullscreenenter"",""1"",""2952""
","
","","","813.5","","","14","16470","6523","&#9733;","elianto","#3366ff99","-1"," ","0","0","[1663.5999999996275]","1","1","","","16470","15","2","2","win","no-go","0"
"pit-trial","133","1105151","0.0-19.0","battery-v0.2","","""event"",""trial"",""time""
""fullscreenenter"",""1"",""2952""
","
","
","""event"",""trial"",""time""
""fullscreenenter"",""1"",""2952""
","
","","","-1","","","14","16470","6523","&#9728;","elianto","#f73b6a7A","-1","-1","1","0","[]","0","1","","","16470","16","0","4","lose","no-go","0"
"pit-trial","134","1109046","0.0-20.0","battery-v0.2","","""event"",""trial"",""time""
""fullscreenenter"",""1"",""2952""
","
","
","""event"",""trial"",""time""
""fullscreenenter"",""1"",""2952""
","
","","","1040","","","14","16470","6523","&#9752;","elianto","#f73b6a7A"," "," ","1","0","[1890.0999999996275]","1","1","","","16470","17","3","3","lose","go","0"
"pit-trial","135","1113902","0.0-21.0","battery-v0.2","","""event"",""trial"",""time""
""fullscreenenter"",""1"",""2952""
","
","
","""event"",""trial"",""time""
""fullscreenenter"",""1"",""2952""
","
","","","-1","","","14","16470","6523","&#9728;","elianto","#f73b6a7A","-1","-1","1","-10","[]","0","1","","","16470","18","0","4","lose","no-go","1"
"pit-trial","136","1117477","0.0-22.0","battery-v0.2","","""event"",""trial"",""time""
""fullscreenenter"",""1"",""2952""
","
","
","""event"",""trial"",""time""
""fullscreenenter"",""1"",""2952""
","
","","","718.0999999996275","","","14","16470","6523","&#9730;","elianto","#3366ff99"," "," ","1","+10","[1569]","1","1","","","16470","19","1","1","win","go","0"
"pit-trial","137","1120930","0.0-23.0","battery-v0.2","","""event"",""trial"",""time""
""fullscreenenter"",""1"",""2952""
","
","
","""event"",""trial"",""time""
""fullscreenenter"",""1"",""2952""
","
","","","597.6999999992549","","","14","16470","6523","&#9733;","elianto","#3366ff99","-1"," ","0","0","[1447.8999999985099]","1","1","","","16470","20","2","2","win","no-go","0"
"pit-instructions","138","1134987","0.0-24.0","battery-v0.2","","""event"",""trial"",""time""
""fullscreenenter"",""1"",""2952""
","
","
","""event"",""trial"",""time""
""fullscreenenter"",""1"",""2952""
","
","","[{""page_index"":0,""viewing_time"":6204.200000001118},{""page_index"":1,""viewing_time"":7848}]","14052.800000000745","","","","","","","","","","","","","","","","","","","","","","","",""
"pit-trial","139","1139296","0.0-25.0","battery-v0.2","","""event"",""trial"",""time""
""fullscreenenter"",""1"",""2952""
","
","
","""event"",""trial"",""time""
""fullscreenenter"",""1"",""2952""
","
","","","1454.0999999996275","","","14","16470","6523","y","elianto","#f73b6a7A"," "," ","1","-10","[2304.199999999255]","1","2","","","16470","21","2","3","lose","go","1"
"pit-trial","140","1142967","0.0-26.0","battery-v0.2","","""event"",""trial"",""time""
""fullscreenenter"",""1"",""2952""
","
","
","""event"",""trial"",""time""
""fullscreenenter"",""1"",""2952""
","
","","","817.7000000011176","","","14","16470","6523","m","elianto","#f73b6a7A"," "," ","1","-10","[1668.1000000014901]","1","2","","","16470","22","0","3","lose","go","1"
"pit-trial","141","1146873","0.0-27.0","battery-v0.2","","""event"",""trial"",""time""
""fullscreenenter"",""1"",""2952""
","
","
","""event"",""trial"",""time""
""fullscreenenter"",""1"",""2952""
","
","","","1052.5","","","14","16470","6523","h","elianto","#f73b6a7A","-1"," ","0","-10","[1902.699999999255]","1","2","","","16470","23","3","4","lose","no-go","0"
"pit-trial","142","1150580","0.0-28.0","battery-v0.2","","""event"",""trial"",""time""
""fullscreenenter"",""1"",""2952""
","
","
","""event"",""trial"",""time""
""fullscreenenter"",""1"",""2952""
","
","","","853.3000000007451","","","14","16470","6523","r","elianto","#3366ff99","-1"," ","0","+10","[1703.4000000003725]","1","2","","","16470","24","1","2","win","no-go","1"
"pit-trial","143","1155433","0.0-29.0","battery-v0.2","","""event"",""trial"",""time""
""fullscreenenter"",""1"",""2952""
","
","
","""event"",""trial"",""time""
""fullscreenenter"",""1"",""2952""
","
","","","-1","","","14","16470","6523","h","elianto","#f73b6a7A","-1","-1","1","0","[]","0","2","","","16470","25","3","4","lose","no-go","0"
"pit-trial","144","1160287","0.0-30.0","battery-v0.2","","""event"",""trial"",""time""
""fullscreenenter"",""1"",""2952""
","
","
","""event"",""trial"",""time""
""fullscreenenter"",""1"",""2952""
","
","","","-1","","","14","16470","6523","m","elianto","#f73b6a7A"," ","-1","0","-10","[]","0","2","","","16470","26","0","3","lose","go","0"
"pit-trial","145","1165141","0.0-31.0","battery-v0.2","","""event"",""trial"",""time""
""fullscreenenter"",""1"",""2952""
","
","
","""event"",""trial"",""time""
""fullscreenenter"",""1"",""2952""
","
","","","-1","","","14","16470","6523","y","elianto","#f73b6a7A"," ","-1","0","-10","[]","0","2","","","16470","27","2","3","lose","go","0"
"pit-trial","146","1168584","0.0-32.0","battery-v0.2","","""event"",""trial"",""time""
""fullscreenenter"",""1"",""2952""
","
","
","""event"",""trial"",""time""
""fullscreenenter"",""1"",""2952""
","
","","","586.0999999996275","","","14","16470","6523","r","elianto","#3366ff99","-1"," ","0","0","[1437.5999999996275]","1","2","","","16470","28","1","2","win","no-go","0"
"pit-trial","147","1172268","0.0-33.0","battery-v0.2","","""event"",""trial"",""time""
""fullscreenenter"",""1"",""2952""
","
","
","""event"",""trial"",""time""
""fullscreenenter"",""1"",""2952""
","
","","","828.6999999992549","","","14","16470","6523","r","elianto","#3366ff99","-1"," ","0","+10","[1678.800000000745]","1","2","","","16470","29","1","2","win","no-go","1"
"pit-trial","148","1177125","0.0-34.0","battery-v0.2","","""event"",""trial"",""time""
""fullscreenenter"",""1"",""2952""
","
","
","""event"",""trial"",""time""
""fullscreenenter"",""1"",""2952""
","
","","","-1","","","14","16470","6523","h","elianto","#f73b6a7A","-1","-1","1","0","[]","0","2","","","16470","30","3","4","lose","no-go","0"
"pit-trial","149","1181981","0.0-35.0","battery-v0.2","","""event"",""trial"",""time""
""fullscreenenter"",""1"",""2952""
","
","
","""event"",""trial"",""time""
""fullscreenenter"",""1"",""2952""
","
","","","-1","","","14","16470","6523","y","elianto","#f73b6a7A"," ","-1","0","-10","[]","0","2","","","16470","31","2","3","lose","go","0"
"pit-trial","150","1186666","0.0-36.0","battery-v0.2","","""event"",""trial"",""time""
""fullscreenenter"",""1"",""2952""
","
","
","""event"",""trial"",""time""
""fullscreenenter"",""1"",""2952""
","
","","","1829.0999999996275","","","14","16470","6523","m","elianto","#f73b6a7A"," "," ","1","0","[2679.2999999988824]","1","2","","","16470","32","0","3","lose","go","0"
"pit-trial","151","1190679","0.0-37.0","battery-v0.2","","""event"",""trial"",""time""
""fullscreenenter"",""1"",""2952""
","
","
","""event"",""trial"",""time""
""fullscreenenter"",""1"",""2952""
","
","","","1156.9000000003725","","","14","16470","6523","y","elianto","#f73b6a7A"," "," ","1","0","[2006.9000000003725]","1","2","","","16470","33","2","3","lose","go","0"
"pit-trial","152","1194136","0.0-38.0","battery-v0.2","","""event"",""trial"",""time""
""fullscreenenter"",""1"",""2952""
","
","
","""event"",""trial"",""time""
""fullscreenenter"",""1"",""2952""
","
","","","601.9000000003725","","","14","16470","6523","r","elianto","#3366ff99","-1"," ","0","0","[1452.0999999996275]","1","2","","","16470","34","1","2","win","no-go","0"
"pit-trial","153","1198992","0.0-39.0","battery-v0.2","","""event"",""trial"",""time""
""fullscreenenter"",""1"",""2952""
","
","
","""event"",""trial"",""time""
""fullscreenenter"",""1"",""2952""
","
","","","-1","","","14","16470","6523","h","elianto","#f73b6a7A","-1","-1","1","-10","[]","0","2","","","16470","35","3","4","lose","no-go","1"
"pit-trial","154","1202676","0.0-40.0","battery-v0.2","","""event"",""trial"",""time""
""fullscreenenter"",""1"",""2952""
","
","
","""event"",""trial"",""time""
""fullscreenenter"",""1"",""2952""
","
","","","828.5","","","14","16470","6523","m","elianto","#f73b6a7A"," "," ","1","0","[1678.7000000011176]","1","2","","","16470","36","0","3","lose","go","0"
"pit-trial","155","1206420","0.0-41.0","battery-v0.2","","""event"",""trial"",""time""
""fullscreenenter"",""1"",""2952""
","
","
","""event"",""trial"",""time""
""fullscreenenter"",""1"",""2952""
","
","","","887.6999999992549","","","14","16470","6523","y","elianto","#f73b6a7A"," "," ","1","-10","[1737.7999999988824]","1","2","","","16470","37","2","3","lose","go","1"
"pit-trial","156","1209862","0.0-42.0","battery-v0.2","","""event"",""trial"",""time""
""fullscreenenter"",""1"",""2952""
","
","
","""event"",""trial"",""time""
""fullscreenenter"",""1"",""2952""
","
","","","586.9000000003725","","","14","16470","6523","r","elianto","#3366ff99","-1"," ","0","0","[1436.9000000003725]","1","2","","","16470","38","1","2","win","no-go","0"
"pit-trial","157","1214716","0.0-43.0","battery-v0.2","","""event"",""trial"",""time""
""fullscreenenter"",""1"",""2952""
","
","
","""event"",""trial"",""time""
""fullscreenenter"",""1"",""2952""
","
","","","-1","","","14","16470","6523","h","elianto","#f73b6a7A","-1","-1","1","-10","[]","0","2","","","16470","39","3","4","lose","no-go","1"
"pit-trial","158","1218447","0.0-44.0","battery-v0.2","","""event"",""trial"",""time""
""fullscreenenter"",""1"",""2952""
","
","
","""event"",""trial"",""time""
""fullscreenenter"",""1"",""2952""
","
","","","876.1999999992549","","","14","16470","6523","m","elianto","#f73b6a7A"," "," ","1","0","[1726.300000000745]","1","2","","","16470","40","0","3","lose","go","0"
"pit-trial","159","1222120","0.0-45.0","battery-v0.2","","""event"",""trial"",""time""
""fullscreenenter"",""1"",""2952""
","
","
","""event"",""trial"",""time""
""fullscreenenter"",""1"",""2952""
","
","","","819.4000000003725","","","14","16470","6523","h","elianto","#f73b6a7A","-1"," ","0","-10","[1669.5]","1","2","","","16470","41","3","4","lose","no-go","0"
"pit-trial","160","1225964","0.0-46.0","battery-v0.2","","""event"",""trial"",""time""
""fullscreenenter"",""1"",""2952""
","
","
","""event"",""trial"",""time""
""fullscreenenter"",""1"",""2952""
","
","","","987.6000000014901","","","14","16470","6523","y","elianto","#f73b6a7A"," "," ","1","-10","[1837.800000000745]","1","2","","","16470","42","2","3","lose","go","1"
"pit-trial","161","1229475","0.0-47.0","battery-v0.2","","""event"",""trial"",""time""
""fullscreenenter"",""1"",""2952""
","
","
","""event"",""trial"",""time""
""fullscreenenter"",""1"",""2952""
","
","","","654.6000000014901","","","14","16470","6523","r","elianto","#3366ff99","-1"," ","0","0","[1504.800000000745]","1","2","","","16470","43","1","2","win","no-go","0"
"pit-trial","162","1232965","0.0-48.0","battery-v0.2","","""event"",""trial"",""time""
""fullscreenenter"",""1"",""2952""
","
","
","""event"",""trial"",""time""
""fullscreenenter"",""1"",""2952""
","
","","","633.5999999996275","","","14","16470","6523","m","elianto","#f73b6a7A"," "," ","1","0","[1483.800000000745]","1","2","","","16470","44","0","3","lose","go","0"
"pit-trial","163","1237821","0.0-49.0","battery-v0.2","","""event"",""trial"",""time""
""fullscreenenter"",""1"",""2952""
","
","
","""event"",""trial"",""time""
""fullscreenenter"",""1"",""2952""
","
","","","-1","","","14","16470","6523","h","elianto","#f73b6a7A","-1","-1","1","0","[]","0","2","","","16470","45","3","4","lose","no-go","0"
"pit-trial","164","1242677","0.0-50.0","battery-v0.2","","""event"",""trial"",""time""
""fullscreenenter"",""1"",""2952""
","
","
","""event"",""trial"",""time""
""fullscreenenter"",""1"",""2952""
","
","","","-1","","","14","16470","6523","y","elianto","#f73b6a7A"," ","-1","0","-10","[]","0","2","","","16470","46","2","3","lose","go","0"
"pit-trial","165","1246924","0.0-51.0","battery-v0.2","","""event"",""trial"",""time""
""fullscreenenter"",""1"",""2952""
","
","
","""event"",""trial"",""time""
""fullscreenenter"",""1"",""2952""
","
","","","1391.0999999996275","","","14","16470","6523","m","elianto","#f73b6a7A"," "," ","1","0","[2241.9000000003725]","1","2","","","16470","47","0","3","lose","go","0"
"pit-trial","166","1250429","0.0-52.0","battery-v0.2","","""event"",""trial"",""time""
""fullscreenenter"",""1"",""2952""
","
","
","""event"",""trial"",""time""
""fullscreenenter"",""1"",""2952""
","
","","","648.6999999992549","","","14","16470","6523","r","elianto","#3366ff99","-1"," ","0","0","[1499.5]","1","2","","","16470","48","1","2","win","no-go","0"
"pit-trial","167","1254274","0.0-53.0","battery-v0.2","","""event"",""trial"",""time""
""fullscreenenter"",""1"",""2952""
","
","
","""event"",""trial"",""time""
""fullscreenenter"",""1"",""2952""
","
","","","988.5","","","14","16470","6523","m","elianto","#f73b6a7A"," "," ","1","-10","[1838.699999999255]","1","2","","","16470","49","0","3","lose","go","1"
"pit-trial","168","1259129","0.0-54.0","battery-v0.2","","""event"",""trial"",""time""
""fullscreenenter"",""1"",""2952""
","
","
","""event"",""trial"",""time""
""fullscreenenter"",""1"",""2952""
","
","","","-1","","","14","16470","6523","y","elianto","#f73b6a7A"," ","-1","0","-10","[]","0","2","","","16470","50","2","3","lose","go","0"
"pit-trial","169","1263039","0.0-55.0","battery-v0.2","","""event"",""trial"",""time""
""fullscreenenter"",""1"",""2952""
","
","
","""event"",""trial"",""time""
""fullscreenenter"",""1"",""2952""
","
","","","1054.5","","","14","16470","6523","r","elianto","#3366ff99","-1"," ","0","0","[1904.5999999996275]","1","2","","","16470","51","1","2","win","no-go","0"
"pit-trial","170","1267893","0.0-56.0","battery-v0.2","","""event"",""trial"",""time""
""fullscreenenter"",""1"",""2952""
","
","
","""event"",""trial"",""time""
""fullscreenenter"",""1"",""2952""
","
","","","-1","","","14","16470","6523","h","elianto","#f73b6a7A","-1","-1","1","0","[]","0","2","","","16470","52","3","4","lose","no-go","0"
"pit-trial","171","1271703","0.0-57.0","battery-v0.2","","""event"",""trial"",""time""
""fullscreenenter"",""1"",""2952""
","
","
","""event"",""trial"",""time""
""fullscreenenter"",""1"",""2952""
","
","","","953.5999999996275","","","14","16470","6523","r","elianto","#3366ff99","-1"," ","0","0","[1803.800000000745]","1","2","","","16470","53","1","2","win","no-go","0"
"pit-trial","172","1275478","0.0-58.0","battery-v0.2","","""event"",""trial"",""time""
""fullscreenenter"",""1"",""2952""
","
","
","""event"",""trial"",""time""
""fullscreenenter"",""1"",""2952""
","
","","","919.2000000011176","","","14","16470","6523","y","elianto","#f73b6a7A"," "," ","1","0","[1769.4000000003725]","1","2","","","16470","54","2","3","lose","go","0"
"pit-trial","173","1280334","0.0-59.0","battery-v0.2","","""event"",""trial"",""time""
""fullscreenenter"",""1"",""2952""
","
","
","""event"",""trial"",""time""
""fullscreenenter"",""1"",""2952""
","
","","","-1","","","14","16470","6523","h","elianto","#f73b6a7A","-1","-1","1","0","[]","0","2","","","16470","55","3","4","lose","no-go","0"
"pit-trial","174","1284404","0.0-60.0","battery-v0.2","","""event"",""trial"",""time""
""fullscreenenter"",""1"",""2952""
","
","
","""event"",""trial"",""time""
""fullscreenenter"",""1"",""2952""
","
","","","1214.199999999255","","","14","16470","6523","m","elianto","#f73b6a7A"," "," ","1","0","[2065.5]","1","2","","","16470","56","0","3","lose","go","0"
"pit-trial","175","1289260","0.0-61.0","battery-v0.2","","""event"",""trial"",""time""
""fullscreenenter"",""1"",""2952""
","
","
","""event"",""trial"",""time""
""fullscreenenter"",""1"",""2952""
","
","","","-1","","","14","16470","6523","h","elianto","#f73b6a7A","-1","-1","1","0","[]","0","2","","","16470","57","3","4","lose","no-go","0"
"pit-trial","176","1293269","0.0-62.0","battery-v0.2","","""event"",""trial"",""time""
""fullscreenenter"",""1"",""2952""
","
","
","""event"",""trial"",""time""
""fullscreenenter"",""1"",""2952""
","
","","","1154.4000000003725","","","14","16470","6523","y","elianto","#f73b6a7A"," "," ","1","0","[2004.3999999985099]","1","2","","","16470","58","2","3","lose","go","0"
"pit-trial","177","1297420","0.0-63.0","battery-v0.2","","""event"",""trial"",""time""
""fullscreenenter"",""1"",""2952""
","
","
","""event"",""trial"",""time""
""fullscreenenter"",""1"",""2952""
","
","","","1297.800000000745","","","14","16470","6523","m","elianto","#f73b6a7A"," "," ","1","-10","[2147.5999999996275]","1","2","","","16470","59","0","3","lose","go","1"
"pit-trial","178","1301363","0.0-64.0","battery-v0.2","","""event"",""trial"",""time""
""fullscreenenter"",""1"",""2952""
","
","
","""event"",""trial"",""time""
""fullscreenenter"",""1"",""2952""
","
","","","1087.0999999996275","","","14","16470","6523","z","elianto","#3366ff99"," "," ","1","+10","[1937.4000000003725]","1","2","","","16470","60","4","1","win","go","0"
"pit-trial","179","1304905","0.0-65.0","battery-v0.2","","""event"",""trial"",""time""
""fullscreenenter"",""1"",""2952""
","
","
","""event"",""trial"",""time""
""fullscreenenter"",""1"",""2952""
","
","","","684.5","","","14","16470","6523","r","elianto","#3366ff99","-1"," ","0","0","[1535.9000000003725]","1","2","","","16470","61","1","2","win","no-go","0"
"pit-trial","180","1309758","0.0-66.0","battery-v0.2","","""event"",""trial"",""time""
""fullscreenenter"",""1"",""2952""
","
","
","""event"",""trial"",""time""
""fullscreenenter"",""1"",""2952""
","
","","","-1","","","14","16470","6523","h","elianto","#f73b6a7A","-1","-1","1","0","[]","0","2","","","16470","62","3","4","lose","no-go","0"
"pit-trial","181","1313233","0.0-67.0","battery-v0.2","","""event"",""trial"",""time""
""fullscreenenter"",""1"",""2952""
","
","
","""event"",""trial"",""time""
""fullscreenenter"",""1"",""2952""
","
","","","621.2999999988824","","","14","16470","6523","z","elianto","#3366ff99"," "," ","1","+10","[1471.7999999988824]","1","2","","","16470","63","4","1","win","go","0"
"pit-trial","182","1317020","0.0-68.0","battery-v0.2","","""event"",""trial"",""time""
""fullscreenenter"",""1"",""2952""
","
","
","""event"",""trial"",""time""
""fullscreenenter"",""1"",""2952""
","
","","","930.8000000007451","","","14","16470","6523","y","elianto","#f73b6a7A"," "," ","1","0","[1781.0999999996275]","1","2","","","16470","64","2","3","lose","go","0"
"pit-trial","183","1320704","0.0-69.0","battery-v0.2","","""event"",""trial"",""time""
""fullscreenenter"",""1"",""2952""
","
","
","""event"",""trial"",""time""
""fullscreenenter"",""1"",""2952""
","
","","","829","","","14","16470","6523","r","elianto","#3366ff99","-1"," ","0","0","[1679.0999999996275]","1","2","","","16470","65","1","2","win","no-go","0"
"pit-trial","184","1325560","0.0-70.0","battery-v0.2","","""event"",""trial"",""time""
""fullscreenenter"",""1"",""2952""
","
","
","""event"",""trial"",""time""
""fullscreenenter"",""1"",""2952""
","
","","","-1","","","14","16470","6523","h","elianto","#f73b6a7A","-1","-1","1","0","[]","0","2","","","16470","66","3","4","lose","no-go","0"
"pit-trial","185","1329290","0.0-71.0","battery-v0.2","","""event"",""trial"",""time""
""fullscreenenter"",""1"",""2952""
","
","
","""event"",""trial"",""time""
""fullscreenenter"",""1"",""2952""
","
","","","874.5","","","14","16470","6523","c","elianto","#3366ff99","-1"," ","0","0","[1724.699999999255]","1","2","","","16470","67","5","2","win","no-go","0"
"pit-trial","186","1332983","0.0-72.0","battery-v0.2","","""event"",""trial"",""time""
""fullscreenenter"",""1"",""2952""
","
","
","""event"",""trial"",""time""
""fullscreenenter"",""1"",""2952""
","
","","","836.2000000011176","","","14","16470","6523","z","elianto","#3366ff99"," "," ","1","+10","[1686.5]","1","2","","","16470","68","4","1","win","go","0"
"pit-trial","187","1337728","0.0-73.0","battery-v0.2","","""event"",""trial"",""time""
""fullscreenenter"",""1"",""2952""
","
","
","""event"",""trial"",""time""
""fullscreenenter"",""1"",""2952""
","
","","","1890","","","14","16470","6523","z","elianto","#3366ff99"," "," ","1","0","[2740.2000000011176]","1","2","","","16470","69","4","1","win","go","1"
"pit-trial","188","1342247","0.0-74.0","battery-v0.2","","""event"",""trial"",""time""
""fullscreenenter"",""1"",""2952""
","
","
","""event"",""trial"",""time""
""fullscreenenter"",""1"",""2952""
","
","","","1663.699999999255","","","14","16470","6523","r","elianto","#3366ff99","-1"," ","0","+10","[2513.9000000003725]","1","2","","","16470","70","1","2","win","no-go","1"
"pit-trial","189","1345901","0.0-75.0","battery-v0.2","","""event"",""trial"",""time""
""fullscreenenter"",""1"",""2952""
","
","
","""event"",""trial"",""time""
""fullscreenenter"",""1"",""2952""
","
","","","798","","","14","16470","6523","c","elianto","#3366ff99","-1"," ","0","+10","[1648.300000000745]","1","2","","","16470","71","5","2","win","no-go","1"
"pit-trial","190","1349962","0.0-76.0","battery-v0.2","","""event"",""trial"",""time""
""fullscreenenter"",""1"",""2952""
","
","
","""event"",""trial"",""time""
""fullscreenenter"",""1"",""2952""
","
","","","1205.699999999255","","","14","16470","6523","y","elianto","#f73b6a7A"," "," ","1","-10","[2055.9000000003725]","1","2","","","16470","72","2","3","lose","go","1"
"pit-trial","191","1353799","0.0-77.0","battery-v0.2","","""event"",""trial"",""time""
""fullscreenenter"",""1"",""2952""
","
","
","""event"",""trial"",""time""
""fullscreenenter"",""1"",""2952""
","
","","","981","","","14","16470","6523","z","elianto","#3366ff99"," "," ","1","+10","[1831.5]","1","2","","","16470","73","4","1","win","go","0"
"pit-trial","192","1358655","0.0-78.0","battery-v0.2","","""event"",""trial"",""time""
""fullscreenenter"",""1"",""2952""
","
","
","""event"",""trial"",""time""
""fullscreenenter"",""1"",""2952""
","
","","","-1","","","14","16470","6523","h","elianto","#f73b6a7A","-1","-1","1","0","[]","0","2","","","16470","74","3","4","lose","no-go","0"
"pit-trial","193","1362309","0.0-79.0","battery-v0.2","","""event"",""trial"",""time""
""fullscreenenter"",""1"",""2952""
","
","
","""event"",""trial"",""time""
""fullscreenenter"",""1"",""2952""
","
","","","798.4000000003725","","","14","16470","6523","c","elianto","#3366ff99","-1"," ","0","0","[1648.5]","1","2","","","16470","75","5","2","win","no-go","0"
"pit-trial","194","1365977","0.0-80.0","battery-v0.2","","""event"",""trial"",""time""
""fullscreenenter"",""1"",""2952""
","
","
","""event"",""trial"",""time""
""fullscreenenter"",""1"",""2952""
","
","","","814.2999999988824","","","14","16470","6523","r","elianto","#3366ff99","-1"," ","0","0","[1664.5]","1","2","","","16470","76","1","2","win","no-go","0"
"pit-trial","195","1370831","0.0-81.0","battery-v0.2","","""event"",""trial"",""time""
""fullscreenenter"",""1"",""2952""
","
","
","""event"",""trial"",""time""
""fullscreenenter"",""1"",""2952""
","
","","","-1","","","14","16470","6523","h","elianto","#f73b6a7A","-1","-1","1","0","[]","0","2","","","16470","77","3","4","lose","no-go","0"
"pit-trial","196","1374794","0.0-82.0","battery-v0.2","","""event"",""trial"",""time""
""fullscreenenter"",""1"",""2952""
","
","
","""event"",""trial"",""time""
""fullscreenenter"",""1"",""2952""
","
","","","1106.4000000003725","","","14","16470","6523","z","elianto","#3366ff99"," "," ","1","+10","[1957]","1","2","","","16470","78","4","1","win","go","0"
"pit-trial","197","1378444","0.0-83.0","battery-v0.2","","""event"",""trial"",""time""
""fullscreenenter"",""1"",""2952""
","
","
","""event"",""trial"",""time""
""fullscreenenter"",""1"",""2952""
","
","","","794.0999999996275","","","14","16470","6523","z","elianto","#3366ff99"," "," ","1","+10","[1644.300000000745]","1","2","","","16470","79","4","1","win","go","0"
"pit-trial","198","1383300","0.0-84.0","battery-v0.2","","""event"",""trial"",""time""
""fullscreenenter"",""1"",""2952""
","
","
","""event"",""trial"",""time""
""fullscreenenter"",""1"",""2952""
","
","","","-1","","","14","16470","6523","c","elianto","#3366ff99","-1","-1","1","+10","[]","0","2","","","16470","80","5","2","win","no-go","0"
"pit-trial","199","1386915","0.0-85.0","battery-v0.2","","""event"",""trial"",""time""
""fullscreenenter"",""1"",""2952""
","
","
","""event"",""trial"",""time""
""fullscreenenter"",""1"",""2952""
","
","","","761.5","","","14","16470","6523","z","elianto","#3366ff99"," "," ","1","+10","[1611.699999999255]","1","2","","","16470","81","4","1","win","go","0"
"pit-trial","200","1390906","0.0-86.0","battery-v0.2","","""event"",""trial"",""time""
""fullscreenenter"",""1"",""2952""
","
","
","""event"",""trial"",""time""
""fullscreenenter"",""1"",""2952""
","
","","","1134.7999999988824","","","14","16470","6523","t","elianto","#f73b6a7A","-1"," ","0","-10","[1984.9000000003725]","1","2","","","16470","82","7","4","lose","no-go","0"
"pit-trial","201","1395762","0.0-87.0","battery-v0.2","","""event"",""trial"",""time""
""fullscreenenter"",""1"",""2952""
","
","
","""event"",""trial"",""time""
""fullscreenenter"",""1"",""2952""
","
","","","-1","","","14","16470","6523","h","elianto","#f73b6a7A","-1","-1","1","0","[]","0","2","","","16470","83","3","4","lose","no-go","0"
"pit-trial","202","1400617","0.0-88.0","battery-v0.2","","""event"",""trial"",""time""
""fullscreenenter"",""1"",""2952""
","
","
","""event"",""trial"",""time""
""fullscreenenter"",""1"",""2952""
","
","","","-1","","","14","16470","6523","c","elianto","#3366ff99","-1","-1","1","+10","[]","0","2","","","16470","84","5","2","win","no-go","0"
"pit-trial","203","1404194","0.0-89.0","battery-v0.2","","""event"",""trial"",""time""
""fullscreenenter"",""1"",""2952""
","
","
","""event"",""trial"",""time""
""fullscreenenter"",""1"",""2952""
","
","","","723.7999999988824","","","14","16470","6523","z","elianto","#3366ff99"," "," ","1","+10","[1573.9000000003725]","1","2","","","16470","85","4","1","win","go","0"
"pit-trial","204","1409051","0.0-90.0","battery-v0.2","","""event"",""trial"",""time""
""fullscreenenter"",""1"",""2952""
","
","
","""event"",""trial"",""time""
""fullscreenenter"",""1"",""2952""
","
","","","-1","","","14","16470","6523","c","elianto","#3366ff99","-1","-1","1","0","[]","0","2","","","16470","86","5","2","win","no-go","1"
"pit-trial","205","1413063","0.0-91.0","battery-v0.2","","""event"",""trial"",""time""
""fullscreenenter"",""1"",""2952""
","
","
","""event"",""trial"",""time""
""fullscreenenter"",""1"",""2952""
","
","","","1156.199999999255","","","14","16470","6523","b","elianto","#f73b6a7A"," "," ","1","0","[2005.5]","1","2","","","16470","87","6","3","lose","go","0"
"pit-trial","206","1417919","0.0-92.0","battery-v0.2","","""event"",""trial"",""time""
""fullscreenenter"",""1"",""2952""
","
","
","""event"",""trial"",""time""
""fullscreenenter"",""1"",""2952""
","
","","","-1","","","14","16470","6523","t","elianto","#f73b6a7A","-1","-1","1","0","[]","0","2","","","16470","88","7","4","lose","no-go","0"
"pit-trial","207","1422775","0.0-93.0","battery-v0.2","","""event"",""trial"",""time""
""fullscreenenter"",""1"",""2952""
","
","
","""event"",""trial"",""time""
""fullscreenenter"",""1"",""2952""
","
","","","-1","","","14","16470","6523","c","elianto","#3366ff99","-1","-1","1","+10","[]","0","2","","","16470","89","5","2","win","no-go","0"
"pit-trial","208","1426931","0.0-94.0","battery-v0.2","","""event"",""trial"",""time""
""fullscreenenter"",""1"",""2952""
","
","
","""event"",""trial"",""time""
""fullscreenenter"",""1"",""2952""
","
","","","1300.0999999996275","","","14","16470","6523","b","elianto","#f73b6a7A"," "," ","1","0","[2150.39999999851]","1","2","","","16470","90","6","3","lose","go","0"
"pit-trial","209","1431786","0.0-95.0","battery-v0.2","","""event"",""trial"",""time""
""fullscreenenter"",""1"",""2952""
","
","
","""event"",""trial"",""time""
""fullscreenenter"",""1"",""2952""
","
","","","-1","","","14","16470","6523","t","elianto","#f73b6a7A","-1","-1","1","0","[]","0","2","","","16470","91","7","4","lose","no-go","0"
"pit-trial","210","1435764","0.0-96.0","battery-v0.2","","""event"",""trial"",""time""
""fullscreenenter"",""1"",""2952""
","
","
","""event"",""trial"",""time""
""fullscreenenter"",""1"",""2952""
","
","","","1122","","","14","16470","6523","z","elianto","#3366ff99"," "," ","1","0","[1974.5999999996275]","1","2","","","16470","92","4","1","win","go","1"
"pit-trial","211","1440620","0.0-97.0","battery-v0.2","","""event"",""trial"",""time""
""fullscreenenter"",""1"",""2952""
","
","
","""event"",""trial"",""time""
""fullscreenenter"",""1"",""2952""
","
","","","-1","","","14","16470","6523","c","elianto","#3366ff99","-1","-1","1","0","[]","0","2","","","16470","93","5","2","win","no-go","1"
"pit-trial","212","1444968","0.0-98.0","battery-v0.2","","""event"",""trial"",""time""
""fullscreenenter"",""1"",""2952""
","
","
","""event"",""trial"",""time""
""fullscreenenter"",""1"",""2952""
","
","","","1491.8999999985099","","","14","16470","6523","f","elianto","#3366ff99"," "," ","1","+10","[2342]","1","2","","","16470","94","8","1","win","go","0"
"pit-trial","213","1449823","0.0-99.0","battery-v0.2","","""event"",""trial"",""time""
""fullscreenenter"",""1"",""2952""
","
","
","""event"",""trial"",""time""
""fullscreenenter"",""1"",""2952""
","
","","","-1","","","14","16470","6523","t","elianto","#f73b6a7A","-1","-1","1","-10","[]","0","2","","","16470","95","7","4","lose","no-go","1"
"pit-trial","214","1453479","0.0-100.0","battery-v0.2","","""event"",""trial"",""time""
""fullscreenenter"",""1"",""2952""
","
","
","""event"",""trial"",""time""
""fullscreenenter"",""1"",""2952""
","
","","","799.5999999996275","","","14","16470","6523","b","elianto","#f73b6a7A"," "," ","1","0","[1649.800000000745]","1","2","","","16470","96","6","3","lose","go","0"
"pit-trial","215","1458332","0.0-101.0","battery-v0.2","","""event"",""trial"",""time""
""fullscreenenter"",""1"",""2952""
","
","
","""event"",""trial"",""time""
""fullscreenenter"",""1"",""2952""
","
","","","-1","","","14","16470","6523","c","elianto","#3366ff99","-1","-1","1","+10","[]","0","2","","","16470","97","5","2","win","no-go","0"
"pit-trial","216","1462439","0.0-102.0","battery-v0.2","","""event"",""trial"",""time""
""fullscreenenter"",""1"",""2952""
","
","
","""event"",""trial"",""time""
""fullscreenenter"",""1"",""2952""
","
","","","1252.9000000003725","","","14","16470","6523","f","elianto","#3366ff99"," "," ","1","+10","[2103]","1","2","","","16470","98","8","1","win","go","0"
"pit-trial","217","1467294","0.0-103.0","battery-v0.2","","""event"",""trial"",""time""
""fullscreenenter"",""1"",""2952""
","
","
","""event"",""trial"",""time""
""fullscreenenter"",""1"",""2952""
","
","","","-1","","","14","16470","6523","t","elianto","#f73b6a7A","-1","-1","1","-10","[3842.9000000003725]","1","2","","","16470","99","7","4","lose","no-go","1"
"pit-trial","218","1471116","0.0-104.0","battery-v0.2","","""event"",""trial"",""time""
""fullscreenenter"",""1"",""2952""
","
","
","""event"",""trial"",""time""
""fullscreenenter"",""1"",""2952""
","
","","","965","","","14","16470","6523","b","elianto","#f73b6a7A"," "," ","1","-10","[1816.0999999996275]","1","2","","","16470","100","6","3","lose","go","1"
"pit-trial","219","1475729","0.0-105.0","battery-v0.2","","""event"",""trial"",""time""
""fullscreenenter"",""1"",""2952""
","
","
","""event"",""trial"",""time""
""fullscreenenter"",""1"",""2952""
","
","","","1757.2000000011176","","","14","16470","6523","t","elianto","#f73b6a7A","-1"," ","0","0","[2607.2000000011176]","1","2","","","16470","101","7","4","lose","no-go","1"
"pit-trial","220","1480584","0.0-106.0","battery-v0.2","","""event"",""trial"",""time""
""fullscreenenter"",""1"",""2952""
","
","
","""event"",""trial"",""time""
""fullscreenenter"",""1"",""2952""
","
","","","-1","","","14","16470","6523","c","elianto","#3366ff99","-1","-1","1","+10","[]","0","2","","","16470","102","5","2","win","no-go","0"
"pit-trial","221","1485316","0.0-107.0","battery-v0.2","","""event"",""trial"",""time""
""fullscreenenter"",""1"",""2952""
","
","
","""event"",""trial"",""time""
""fullscreenenter"",""1"",""2952""
","
","","","1876.300000000745","","","14","16470","6523","f","elianto","#3366ff99"," "," ","1","+10","[2726.5]","1","2","","","16470","103","8","1","win","go","0"
"pit-trial","222","1489405","0.0-108.0","battery-v0.2","","""event"",""trial"",""time""
""fullscreenenter"",""1"",""2952""
","
","
","""event"",""trial"",""time""
""fullscreenenter"",""1"",""2952""
","
","","","1232.199999999255","","","14","16470","6523","n","elianto","#3366ff99"," "," ","1","+10","[2082.4000000003725]","1","2","","","16470","104","9","1","win","go","0"
"pit-trial","223","1493908","0.0-109.0","battery-v0.2","","""event"",""trial"",""time""
""fullscreenenter"",""1"",""2952""
","
","
","""event"",""trial"",""time""
""fullscreenenter"",""1"",""2952""
","
","","","1647.7999999988824","","","14","16470","6523","f","elianto","#3366ff99"," "," ","1","0","[2497.800000000745]","1","2","","","16470","105","8","1","win","go","1"
"pit-trial","224","1497913","0.0-110.0","battery-v0.2","","""event"",""trial"",""time""
""fullscreenenter"",""1"",""2952""
","
","
","""event"",""trial"",""time""
""fullscreenenter"",""1"",""2952""
","
","","","1149.199999999255","","","14","16470","6523","b","elianto","#f73b6a7A"," "," ","1","0","[1999.199999999255]","1","2","","","16470","106","6","3","lose","go","0"
"pit-trial","225","1501791","0.0-111.0","battery-v0.2","","""event"",""trial"",""time""
""fullscreenenter"",""1"",""2952""
","
","
","""event"",""trial"",""time""
""fullscreenenter"",""1"",""2952""
","
","","","1022.3999999985099","","","14","16470","6523","n","elianto","#3366ff99"," "," ","1","+10","[1871.7999999988824]","1","2","","","16470","107","9","1","win","go","0"
"pit-trial","226","1506172","0.0-112.0","battery-v0.2","","""event"",""trial"",""time""
""fullscreenenter"",""1"",""2952""
","
","
","""event"",""trial"",""time""
""fullscreenenter"",""1"",""2952""
","
","","","1525","","","14","16470","6523","z","elianto","#3366ff99"," "," ","1","+10","[2375.2000000011176]","1","2","","","16470","108","4","1","win","go","0"
"pit-trial","227","1510119","0.0-113.0","battery-v0.2","","""event"",""trial"",""time""
""fullscreenenter"",""1"",""2952""
","
","
","""event"",""trial"",""time""
""fullscreenenter"",""1"",""2952""
","
","","","1091.2999999988824","","","14","16470","6523","f","elianto","#3366ff99"," "," ","1","+10","[1940.7999999988824]","1","2","","","16470","109","8","1","win","go","0"
"pit-trial","228","1513992","0.0-114.0","battery-v0.2","","""event"",""trial"",""time""
""fullscreenenter"",""1"",""2952""
","
","
","""event"",""trial"",""time""
""fullscreenenter"",""1"",""2952""
","
","","","1016.2000000011176","","","14","16470","6523","b","elianto","#f73b6a7A"," "," ","1","0","[1866.5]","1","2","","","16470","110","6","3","lose","go","0"
"pit-trial","229","1517756","0.0-115.0","battery-v0.2","","""event"",""trial"",""time""
""fullscreenenter"",""1"",""2952""
","
","
","""event"",""trial"",""time""
""fullscreenenter"",""1"",""2952""
","
","","","909.4000000003725","","","14","16470","6523","n","elianto","#3366ff99"," "," ","1","+10","[1759.300000000745]","1","2","","","16470","111","9","1","win","go","0"
"pit-trial","230","1522610","0.0-116.0","battery-v0.2","","""event"",""trial"",""time""
""fullscreenenter"",""1"",""2952""
","
","
","""event"",""trial"",""time""
""fullscreenenter"",""1"",""2952""
","
","","","-1","","","14","16470","6523","c","elianto","#3366ff99","-1","-1","1","+10","[]","0","2","","","16470","112","5","2","win","no-go","0"
"pit-trial","231","1527466","0.0-117.0","battery-v0.2","","""event"",""trial"",""time""
""fullscreenenter"",""1"",""2952""
","
","
","""event"",""trial"",""time""
""fullscreenenter"",""1"",""2952""
","
","","","-1","","","14","16470","6523","c","elianto","#3366ff99","-1","-1","1","0","[]","0","2","","","16470","113","5","2","win","no-go","1"
"pit-trial","232","1531113","0.0-118.0","battery-v0.2","","""event"",""trial"",""time""
""fullscreenenter"",""1"",""2952""
","
","
","""event"",""trial"",""time""
""fullscreenenter"",""1"",""2952""
","
","","","791.9000000003725","","","14","16470","6523","b","elianto","#f73b6a7A"," "," ","1","0","[1641.9000000003725]","1","2","","","16470","114","6","3","lose","go","0"
"pit-trial","233","1534949","0.0-119.0","battery-v0.2","","""event"",""trial"",""time""
""fullscreenenter"",""1"",""2952""
","
","
","""event"",""trial"",""time""
""fullscreenenter"",""1"",""2952""
","
","","","978.6999999992549","","","14","16470","6523","f","elianto","#3366ff99"," "," ","1","+10","[1830.4000000003725]","1","2","","","16470","115","8","1","win","go","0"
"pit-trial","234","1539247","0.0-120.0","battery-v0.2","","""event"",""trial"",""time""
""fullscreenenter"",""1"",""2952""
","
","
","""event"",""trial"",""time""
""fullscreenenter"",""1"",""2952""
","
","","","1442.5","","","14","16470","6523","n","elianto","#3366ff99"," "," ","1","+10","[2292.4000000003725]","1","2","","","16470","116","9","1","win","go","0"
"pit-trial","235","1543102","0.0-121.0","battery-v0.2","","""event"",""trial"",""time""
""fullscreenenter"",""1"",""2952""
","
","
","""event"",""trial"",""time""
""fullscreenenter"",""1"",""2952""
","
","","","999.4000000003725","","","14","16470","6523","b","elianto","#f73b6a7A"," "," ","1","0","[1851.6000000014901]","1","2","","","16470","117","6","3","lose","go","0"
"pit-trial","236","1547174","0.0-122.0","battery-v0.2","","""event"",""trial"",""time""
""fullscreenenter"",""1"",""2952""
","
","
","""event"",""trial"",""time""
""fullscreenenter"",""1"",""2952""
","
","","","1216.5","","","14","16470","6523","f","elianto","#3366ff99"," "," ","1","+10","[2066.699999999255]","1","2","","","16470","118","8","1","win","go","0"
"pit-trial","237","1550976","0.0-123.0","battery-v0.2","","""event"",""trial"",""time""
""fullscreenenter"",""1"",""2952""
","
","
","""event"",""trial"",""time""
""fullscreenenter"",""1"",""2952""
","
","","","945.7000000011176","","","14","16470","6523","n","elianto","#3366ff99"," "," ","1","+10","[1795.9000000003725]","1","2","","","16470","119","9","1","win","go","0"
"pit-trial","238","1555831","0.0-124.0","battery-v0.2","","""event"",""trial"",""time""
""fullscreenenter"",""1"",""2952""
","
","
","""event"",""trial"",""time""
""fullscreenenter"",""1"",""2952""
","
","","","-1","","","14","16470","6523","c","elianto","#3366ff99","-1","-1","1","0","[]","0","2","","","16470","120","5","2","win","no-go","1"
"pit-trial","239","1559888","0.0-125.0","battery-v0.2","","""event"",""trial"",""time""
""fullscreenenter"",""1"",""2952""
","
","
","""event"",""trial"",""time""
""fullscreenenter"",""1"",""2952""
","
","","","1201.0999999996275","","","14","16470","6523","f","elianto","#3366ff99"," "," ","1","+10","[2051.2999999988824]","1","2","","","16470","121","8","1","win","go","0"
"pit-trial","240","1564174","0.0-126.0","battery-v0.2","","""event"",""trial"",""time""
""fullscreenenter"",""1"",""2952""
","
","
","""event"",""trial"",""time""
""fullscreenenter"",""1"",""2952""
","
","","","1430.300000000745","","","14","16470","6523","t","elianto","#f73b6a7A","-1"," ","0","-10","[2280.5]","1","2","","","16470","122","7","4","lose","no-go","0"
"pit-trial","241","1568047","0.0-127.0","battery-v0.2","","""event"",""trial"",""time""
""fullscreenenter"",""1"",""2952""
","
","
","""event"",""trial"",""time""
""fullscreenenter"",""1"",""2952""
","
","","","1016.6999999992549","","","14","16470","6523","b","elianto","#f73b6a7A"," "," ","1","0","[1866.699999999255]","1","2","","","16470","123","6","3","lose","go","0"
"pit-trial","242","1571988","0.0-128.0","battery-v0.2","","""event"",""trial"",""time""
""fullscreenenter"",""1"",""2952""
","
","
","""event"",""trial"",""time""
""fullscreenenter"",""1"",""2952""
","
","","","1085.5","","","14","16470","6523","n","elianto","#3366ff99"," "," ","1","+10","[1935.7000000011176]","1","2","","","16470","124","9","1","win","go","0"
"pit-trial","243","1575966","0.0-129.0","battery-v0.2","","""event"",""trial"",""time""
""fullscreenenter"",""1"",""2952""
","
","
","""event"",""trial"",""time""
""fullscreenenter"",""1"",""2952""
","
","","","1122.0999999996275","","","14","16470","6523","f","elianto","#3366ff99"," "," ","1","+10","[1972.699999999255]","1","2","","","16470","125","8","1","win","go","0"
"pit-trial","244","1579761","0.0-130.0","battery-v0.2","","""event"",""trial"",""time""
""fullscreenenter"",""1"",""2952""
","
","
","""event"",""trial"",""time""
""fullscreenenter"",""1"",""2952""
","
","","","939","","","14","16470","6523","b","elianto","#f73b6a7A"," "," ","1","0","[1789.300000000745]","1","2","","","16470","126","6","3","lose","go","0"
"pit-trial","245","1584051","0.0-131.0","battery-v0.2","","""event"",""trial"",""time""
""fullscreenenter"",""1"",""2952""
","
","
","""event"",""trial"",""time""
""fullscreenenter"",""1"",""2952""
","
","","","1435.0999999996275","","","14","16470","6523","t","elianto","#f73b6a7A","-1"," ","0","-10","[2285.2000000011176]","1","2","","","16470","127","7","4","lose","no-go","0"
"pit-trial","246","1587769","0.0-132.0","battery-v0.2","","""event"",""trial"",""time""
""fullscreenenter"",""1"",""2952""
","
","
","""event"",""trial"",""time""
""fullscreenenter"",""1"",""2952""
","
","","","861.8000000007451","","","14","16470","6523","n","elianto","#3366ff99"," "," ","1","+10","[1712.0999999996275]","1","2","","","16470","128","9","1","win","go","0"
"pit-trial","247","1592623","0.0-133.0","battery-v0.2","","""event"",""trial"",""time""
""fullscreenenter"",""1"",""2952""
","
","
","""event"",""trial"",""time""
""fullscreenenter"",""1"",""2952""
","
","","","-1","","","14","16470","6523","t","elianto","#f73b6a7A","-1","-1","1","0","[]","0","2","","","16470","129","7","4","lose","no-go","0"
"pit-trial","248","1596130","0.0-134.0","battery-v0.2","","""event"",""trial"",""time""
""fullscreenenter"",""1"",""2952""
","
","
","""event"",""trial"",""time""
""fullscreenenter"",""1"",""2952""
","
","","","650","","","14","16470","6523","n","elianto","#3366ff99"," "," ","1","+10","[1500.0999999996275]","1","2","","","16470","130","9","1","win","go","0"
"pit-trial","249","1599981","0.0-135.0","battery-v0.2","","""event"",""trial"",""time""
""fullscreenenter"",""1"",""2952""
","
","
","""event"",""trial"",""time""
""fullscreenenter"",""1"",""2952""
","
","","","994.5999999996275","","","14","16470","6523","b","elianto","#f73b6a7A"," "," ","1","0","[1845.199999999255]","1","2","","","16470","131","6","3","lose","go","0"
"pit-trial","250","1604384","0.0-136.0","battery-v0.2","","""event"",""trial"",""time""
""fullscreenenter"",""1"",""2952""
","
","
","""event"",""trial"",""time""
""fullscreenenter"",""1"",""2952""
","
","","","1546.800000000745","","","14","16470","6523","f","elianto","#3366ff99"," "," ","1","+10","[2397.10000000149]","1","2","","","16470","132","8","1","win","go","0"
"pit-trial","251","1609240","0.0-137.0","battery-v0.2","","""event"",""trial"",""time""
""fullscreenenter"",""1"",""2952""
","
","
","""event"",""trial"",""time""
""fullscreenenter"",""1"",""2952""
","
","","","-1","","","14","16470","6523","t","elianto","#f73b6a7A","-1","-1","1","0","[]","0","2","","","16470","133","7","4","lose","no-go","0"
"pit-trial","252","1612921","0.0-138.0","battery-v0.2","","""event"",""trial"",""time""
""fullscreenenter"",""1"",""2952""
","
","
","""event"",""trial"",""time""
""fullscreenenter"",""1"",""2952""
","
","","","826","","","14","16470","6523","f","elianto","#3366ff99"," "," ","1","+10","[1676.1000000014901]","1","2","","","16470","134","8","1","win","go","0"
"pit-trial","253","1616664","0.0-139.0","battery-v0.2","","""event"",""trial"",""time""
""fullscreenenter"",""1"",""2952""
","
","
","""event"",""trial"",""time""
""fullscreenenter"",""1"",""2952""
","
","","","886.9000000003725","","","14","16470","6523","b","elianto","#f73b6a7A"," "," ","1","0","[1737.1000000014901]","1","2","","","16470","135","6","3","lose","go","0"
"pit-trial","254","1620450","0.0-140.0","battery-v0.2","","""event"",""trial"",""time""
""fullscreenenter"",""1"",""2952""
","
","
","""event"",""trial"",""time""
""fullscreenenter"",""1"",""2952""
","
","","","930.5","","","14","16470","6523","n","elianto","#3366ff99"," "," ","1","+10","[1780.5]","1","2","","","16470","136","9","1","win","go","0"
"pit-trial","255","1624216","0.0-141.0","battery-v0.2","","""event"",""trial"",""time""
""fullscreenenter"",""1"",""2952""
","
","
","""event"",""trial"",""time""
""fullscreenenter"",""1"",""2952""
","
","","","910.0999999996275","","","14","16470","6523","n","elianto","#3366ff99"," "," ","1","0","[1760.2000000011176]","1","2","","","16470","137","9","1","win","go","1"
"pit-trial","256","1628350","0.0-142.0","battery-v0.2","","""event"",""trial"",""time""
""fullscreenenter"",""1"",""2952""
","
","
","""event"",""trial"",""time""
""fullscreenenter"",""1"",""2952""
","
","","","1281.300000000745","","","14","16470","6523","f","elianto","#3366ff99"," "," ","1","0","[2131.2999999988824]","1","2","","","16470","138","8","1","win","go","1"
"pit-trial","257","1633203","0.0-143.0","battery-v0.2","","""event"",""trial"",""time""
""fullscreenenter"",""1"",""2952""
","
","
","""event"",""trial"",""time""
""fullscreenenter"",""1"",""2952""
","
","","","-1","","","14","16470","6523","t","elianto","#f73b6a7A","-1","-1","1","0","[]","0","2","","","16470","139","7","4","lose","no-go","0"
"pit-trial","258","1636943","0.0-144.0","battery-v0.2","","""event"",""trial"",""time""
""fullscreenenter"",""1"",""2952""
","
","
","""event"",""trial"",""time""
""fullscreenenter"",""1"",""2952""
","
","","","884.1999999992549","","","14","16470","6523","b","elianto","#f73b6a7A"," "," ","1","0","[1734.4000000003725]","1","2","","","16470","140","6","3","lose","go","0"
"pit-instructions","259","1657878","0.0-145.0","battery-v0.2","","""event"",""trial"",""time""
""fullscreenenter"",""1"",""2952""
","
","
","""event"",""trial"",""time""
""fullscreenenter"",""1"",""2952""
","
","","[{""page_index"":0,""viewing_time"":9384.300000000745},{""page_index"":1,""viewing_time"":11546.199999999255}]","20930.800000000745","","","","","","","","","","","","","","","","","","","","","","","",""
"pit-trial","260","1662734","0.0-146.0","battery-v0.2","","""event"",""trial"",""time""
""fullscreenenter"",""1"",""2952""
","
","
","""event"",""trial"",""time""
""fullscreenenter"",""1"",""2952""
","
","","","-1","","","14","16470","6523","d","elianto","#3366ff99"," ","-1","0","0","[4088.9000000003725]","1","3","","","16470","141","1","1","win","go","0"
"pit-trial","261","1667424","0.0-147.0","battery-v0.2","","""event"",""trial"",""time""
""fullscreenenter"",""1"",""2952""
","
","
","""event"",""trial"",""time""
""fullscreenenter"",""1"",""2952""
","
","","","1835.7999999988824","","","14","16470","6523","e","elianto","#f73b6a7A","-1"," ","0","-10","[2686.39999999851]","1","3","","","16470","142","2","4","lose","no-go","0"
"pit-trial","262","1671230","0.0-148.0","battery-v0.2","","""event"",""trial"",""time""
""fullscreenenter"",""1"",""2952""
","
","
","""event"",""trial"",""time""
""fullscreenenter"",""1"",""2952""
","
","","","953.8999999985099","","","14","16470","6523","j","elianto","#f73b6a7A","-1"," ","0","-10","[1804]","1","3","","","16470","143","0","4","lose","no-go","0"
"pit-trial","263","1674892","0.0-149.0","battery-v0.2","","""event"",""trial"",""time""
""fullscreenenter"",""1"",""2952""
","
","
","""event"",""trial"",""time""
""fullscreenenter"",""1"",""2952""
","
","","","808.2999999988824","","","14","16470","6523","w","elianto","#f73b6a7A"," "," ","1","0","[1658.4000000003725]","1","3","","","16470","144","3","3","lose","go","0"
"pit-trial","264","1678494","0.0-150.0","battery-v0.2","","""event"",""trial"",""time""
""fullscreenenter"",""1"",""2952""
","
","
","""event"",""trial"",""time""
""fullscreenenter"",""1"",""2952""
","
","","","746.5999999996275","","","14","16470","6523","w","elianto","#f73b6a7A"," "," ","1","0","[1597.0999999996275]","1","3","","","16470","145","3","3","lose","go","0"
"pit-trial","265","1682153","0.0-151.0","battery-v0.2","","""event"",""trial"",""time""
