"trial_type","trial_index","time_elapsed","internal_node_id","task_version","subject_id","interactions","blur_events","focus_events","fullscreenenter_events","fullscreenexit_events","success","view_history","rt","responses","num_errors","age","subject","participantId","rune","rune_set","hex","correct","choice","accuracy","outcome","keys","total_keys","block","practice","value","sub","trial","stimulus","robot","valence","action","sham"
"pavlovia","0","7","0.0-0.0","battery-v0.2","","""event"",""trial"",""time""
""fullscreenenter"",""1"",""2511""
","
","
","""event"",""trial"",""time""
""fullscreenenter"",""1"",""2511""
","
","","","","","","","","","","","","","","","","","","","","","","","","","","",""
"fullscreen","1","3498","0.0-1.0","battery-v0.2","","""event"",""trial"",""time""
""fullscreenenter"",""1"",""2511""
","
","
","""event"",""trial"",""time""
""fullscreenenter"",""1"",""2511""
","
","true","","","","","","","","","","","","","","","","","","","","","","","","","",""
"pit-instructions","2","7897","0.0-2.0-0.0","battery-v0.2","","""event"",""trial"",""time""
""fullscreenenter"",""1"",""2511""
","
","
","""event"",""trial"",""time""
""fullscreenenter"",""1"",""2511""
","
","","[{""page_index"":0,""viewing_time"":4394.699999988079}]","4395.199999988079","","","","","","","","","","","","","","","","","","","","","","","",""
"pit-comprehension","3","12921","0.0-2.0-1.0-0.0","battery-v0.2","","""event"",""trial"",""time""
""fullscreenenter"",""1"",""2511""
","
","
","""event"",""trial"",""time""
""fullscreenenter"",""1"",""2511""
","
","","","5021.800000011921","[""shark""]","0","16","8112","2223","","","","","","","","","","","","","","","","","","",""
"pit-instructions","4","14720","0.0-2.0-1.0-1.0","battery-v0.2","","""event"",""trial"",""time""
""fullscreenenter"",""1"",""2511""
","
","
","""event"",""trial"",""time""
""fullscreenenter"",""1"",""2511""
","
","","[{""page_index"":0,""viewing_time"":1790.5999999940395}]","1790.8999999910593","","","","","","","","","","","","","","","","","","","","","","","",""
"pit-comprehension","5","19256","0.0-2.0-2.0-0.0","battery-v0.2","","""event"",""trial"",""time""
""fullscreenenter"",""1"",""2511""
","
","
","""event"",""trial"",""time""
""fullscreenenter"",""1"",""2511""
","
","","","4533.5","[""tiger""]","0","16","8112","2223","","","","","","","","","","","","","","","","","","",""
"pit-instructions","6","20911","0.0-2.0-2.0-1.0","battery-v0.2","","""event"",""trial"",""time""
""fullscreenenter"",""1"",""2511""
","
","
","""event"",""trial"",""time""
""fullscreenenter"",""1"",""2511""
","
","","[{""page_index"":0,""viewing_time"":1652.6000000089407}]","1652.800000011921","","","","","","","","","","","","","","","","","","","","","","","",""
"pit-instructions","7","122992","0.0-2.0-3.0","battery-v0.2","","""event"",""trial"",""time""
""fullscreenenter"",""1"",""2511""
","
","
","""event"",""trial"",""time""
""fullscreenenter"",""1"",""2511""
","
","","[{""page_index"":0,""viewing_time"":7902},{""page_index"":1,""viewing_time"":6295.79999999702},{""page_index"":2,""viewing_time"":7753},{""page_index"":3,""viewing_time"":5927.0999999940395},{""page_index"":4,""viewing_time"":5824.100000008941},{""page_index"":5,""viewing_time"":6831.79999999702},{""page_index"":6,""viewing_time"":7320.5999999940395},{""page_index"":7,""viewing_time"":9247.29999999702},{""page_index"":8,""viewing_time"":8784.60000000894},{""page_index"":9,""viewing_time"":8567.89999999106},{""page_index"":10,""viewing_time"":7607.4000000059605},{""page_index"":11,""viewing_time"":7856.5999999940395},{""page_index"":12,""viewing_time"":6768.100000008941},{""page_index"":13,""viewing_time"":5392.20000000298}]","102079","","","","","","","","","","","","","","","","","","","","","","","",""
"pit-trial","8","127852","0.0-2.0-4.0-0.0","battery-v0.2","","""event"",""trial"",""time""
""fullscreenenter"",""1"",""2511""
","
","
","""event"",""trial"",""time""
""fullscreenenter"",""1"",""2511""
","
","","","-1","","","16","8112","2223","&#9784;","elianto","#FFFFF080"," ","-1","0","&#10060","[]","0","0","0","","","","","","","",""
"pit-trial","9","132715","0.0-2.0-4.1-0.1","battery-v0.2","","""event"",""trial"",""time""
""fullscreenenter"",""1"",""2511""
","
","
","""event"",""trial"",""time""
""fullscreenenter"",""1"",""2511""
","
","","","-1","","","16","8112","2223","&#9784;","elianto","#FFFFF080"," ","-1","0","&#10060","[]","0","0","0","","","","","","","",""
"pit-trial","10","137589","0.0-2.0-4.2-0.2","battery-v0.2","","""event"",""trial"",""time""
""fullscreenenter"",""1"",""2511""
","
","
","""event"",""trial"",""time""
""fullscreenenter"",""1"",""2511""
","
","","","-1","","","16","8112","2223","&#9784;","elianto","#FFFFF080"," ","-1","0","&#10060","[]","0","0","0","","","","","","","",""
"pit-trial","11","142457","0.0-2.0-4.3-0.3","battery-v0.2","","""event"",""trial"",""time""
""fullscreenenter"",""1"",""2511""
","
","
","""event"",""trial"",""time""
""fullscreenenter"",""1"",""2511""
","
","","","-1","","","16","8112","2223","&#9784;","elianto","#FFFFF080"," ","-1","0","&#10060","[4069.800000011921]","1","0","0","","","","","","","",""
"pit-trial","12","145893","0.0-2.0-4.4-0.4","battery-v0.2","","""event"",""trial"",""time""
""fullscreenenter"",""1"",""2511""
","
","
","""event"",""trial"",""time""
""fullscreenenter"",""1"",""2511""
","
","","","572.5999999940395","","","16","8112","2223","&#9784;","elianto","#FFFFF080"," "," ","1","&#10004","[576.7000000029802,1424.0999999940395]","2","0","0","","","","","","","",""
"pit-trial","13","149011","0.0-2.0-4.5-0.5","battery-v0.2","","""event"",""trial"",""time""
""fullscreenenter"",""1"",""2511""
","
","
","""event"",""trial"",""time""
""fullscreenenter"",""1"",""2511""
","
","","","248","","","16","8112","2223","&#9784;","elianto","#FFFFF080"," "," ","1","&#10004","[1101.2000000029802]","1","0","0","","","","","","","",""
"pit-trial","14","151944","0.0-2.0-4.6-0.6","battery-v0.2","","""event"",""trial"",""time""
""fullscreenenter"",""1"",""2511""
","
","
","""event"",""trial"",""time""
""fullscreenenter"",""1"",""2511""
","
","","","63.8999999910593","","","16","8112","2223","&#9784;","elianto","#FFFFF080"," "," ","1","&#10004","[399.40000000596046,919.2999999970198]","2","0","0","","","","","","","",""
"pit-instructions","15","167232","0.0-2.0-4.6-1.6-0.6","battery-v0.2","","""event"",""trial"",""time""
""fullscreenenter"",""1"",""2511""
","
","
","""event"",""trial"",""time""
""fullscreenenter"",""1"",""2511""
","
","","[{""page_index"":0,""viewing_time"":6230.4000000059605},{""page_index"":1,""viewing_time"":9056.09999999404}]","15286.79999999702","","","","","","","","","","","","","","","","","","","","","","","",""
"pit-instructions","16","191336","0.0-2.0-5.0","battery-v0.2","","""event"",""trial"",""time""
""fullscreenenter"",""1"",""2511""
","
","
","""event"",""trial"",""time""
""fullscreenenter"",""1"",""2511""
","
","","[{""page_index"":0,""viewing_time"":7069.5},{""page_index"":1,""viewing_time"":7328},{""page_index"":2,""viewing_time"":4219.5999999940395},{""page_index"":3,""viewing_time"":5484.600000008941}]","24102","","","","","","","","","","","","","","","","","","","","","","","",""
"pit-trial","17","194416","0.0-2.0-6.0-0.0","battery-v0.2","","""event"",""trial"",""time""
""fullscreenenter"",""1"",""2511""
","
","
","""event"",""trial"",""time""
""fullscreenenter"",""1"",""2511""
","
","","","218","","","16","8112","2223","&#9854;","elianto","#FFFFF080","-1"," ","0","&#10060","[1073.8999999910593]","1","0","1","","","","","","","",""
"pit-trial","18","199284","0.0-2.0-6.1-0.1","battery-v0.2","","""event"",""trial"",""time""
""fullscreenenter"",""1"",""2511""
","
","
","""event"",""trial"",""time""
""fullscreenenter"",""1"",""2511""
","
","","","-1","","","16","8112","2223","&#9854;","elianto","#FFFFF080","-1","-1","1","&#10004","[]","0","0","1","","","","","","","",""
"pit-trial","19","202370","0.0-2.0-6.2-0.2","battery-v0.2","","""event"",""trial"",""time""
""fullscreenenter"",""1"",""2511""
","
","
","""event"",""trial"",""time""
""fullscreenenter"",""1"",""2511""
","
","","","227.5","","","16","8112","2223","&#9854;","elianto","#FFFFF080","-1"," ","0","&#10060","[1078.3999999910593]","1","0","1","","","","","","","",""
"pit-trial","20","207234","0.0-2.0-6.3-0.3","battery-v0.2","","""event"",""trial"",""time""
""fullscreenenter"",""1"",""2511""
","
","
","""event"",""trial"",""time""
""fullscreenenter"",""1"",""2511""
","
","","","-1","","","16","8112","2223","&#9854;","elianto","#FFFFF080","-1","-1","1","&#10004","[]","0","0","1","","","","","","","",""
"pit-trial","21","212089","0.0-2.0-6.4-0.4","battery-v0.2","","""event"",""trial"",""time""
""fullscreenenter"",""1"",""2511""
","
","
","""event"",""trial"",""time""
""fullscreenenter"",""1"",""2511""
","
","","","-1","","","16","8112","2223","&#9854;","elianto","#FFFFF080","-1","-1","1","&#10004","[]","0","0","1","","","","","","","",""
"pit-trial","22","216966","0.0-2.0-6.5-0.5","battery-v0.2","","""event"",""trial"",""time""
""fullscreenenter"",""1"",""2511""
","
","
","""event"",""trial"",""time""
""fullscreenenter"",""1"",""2511""
","
","","","-1","","","16","8112","2223","&#9854;","elianto","#FFFFF080","-1","-1","1","&#10004","[]","0","0","1","","","","","","","",""
"pit-instructions","23","342448","0.0-2.0-7.0","battery-v0.2","","""event"",""trial"",""time""
""fullscreenenter"",""1"",""2511""
","
","
","""event"",""trial"",""time""
""fullscreenenter"",""1"",""2511""
","
","","[{""page_index"":0,""viewing_time"":6150.5999999940395},{""page_index"":1,""viewing_time"":7560},{""page_index"":2,""viewing_time"":7472},{""page_index"":3,""viewing_time"":7928},{""page_index"":4,""viewing_time"":5743.9000000059605},{""page_index"":5,""viewing_time"":5876.0999999940395},{""page_index"":6,""viewing_time"":5964.70000000298},{""page_index"":7,""viewing_time"":7762.4000000059605},{""page_index"":8,""viewing_time"":6373},{""page_index"":9,""viewing_time"":6000.0999999940395},{""page_index"":10,""viewing_time"":6194.79999999702},{""page_index"":11,""viewing_time"":5216.29999999702},{""page_index"":12,""viewing_time"":6204.70000000298},{""page_index"":13,""viewing_time"":7192.29999999702},{""page_index"":14,""viewing_time"":10360.10000000894},{""page_index"":15,""viewing_time"":9015.39999999106},{""page_index"":16,""viewing_time"":6872.100000008941},{""page_index"":17,""viewing_time"":7592.79999999702}]","125479.70000000298","","","","","","","","","","","","","","","","","","","","","","","",""
"pit-trial","24","347226","0.0-2.0-8.0-0.0","battery-v0.2","","""event"",""trial"",""time""
""fullscreenenter"",""1"",""2511""
","
","
","""event"",""trial"",""time""
""fullscreenenter"",""1"",""2511""
","
","","","1919.0999999940395","","","16","8112","2223","&#9776;","elianto","#3366ff99"," "," ","1","+10","[2776.0999999940395]","1","0","1","","","","","","","",""
"pit-trial","25","350864","0.0-2.0-8.0-1.0","battery-v0.2","","""event"",""trial"",""time""
""fullscreenenter"",""1"",""2511""
","
","
","""event"",""trial"",""time""
""fullscreenenter"",""1"",""2511""
","
","","","768.2999999970198","","","16","8112","2223","&#9776;","elianto","#3366ff99"," "," ","1","+10","[1622.7999999970198]","1","0","1","","","","","","","",""
"pit-trial","26","354607","0.0-2.0-8.0-2.0","battery-v0.2","","""event"",""trial"",""time""
""fullscreenenter"",""1"",""2511""
","
","
","""event"",""trial"",""time""
""fullscreenenter"",""1"",""2511""
","
","","","883.7000000029802","","","16","8112","2223","&#9776;","elianto","#3366ff99"," "," ","1","+10","[1736.800000011921]","1","0","1","","","","","","","",""
"pit-trial","27","358051","0.0-2.0-8.0-3.0","battery-v0.2","","""event"",""trial"",""time""
""fullscreenenter"",""1"",""2511""
","
","
","""event"",""trial"",""time""
""fullscreenenter"",""1"",""2511""
","
","","","584.4000000059605","","","16","8112","2223","&#9776;","elianto","#3366ff99"," "," ","1","0","[1441.5999999940395]","1","0","1","","","","","","","",""
"pit-trial","28","362922","0.0-2.0-8.0-4.0","battery-v0.2","","""event"",""trial"",""time""
""fullscreenenter"",""1"",""2511""
","
","
","""event"",""trial"",""time""
""fullscreenenter"",""1"",""2511""
","
","","","-1","","","16","8112","2223","&#9776;","elianto","#3366ff99"," ","-1","0","0","[]","0","0","1","","","","","","","",""
"pit-trial","29","366641","0.0-2.0-8.1-0.1","battery-v0.2","","""event"",""trial"",""time""
""fullscreenenter"",""1"",""2511""
","
","
","""event"",""trial"",""time""
""fullscreenenter"",""1"",""2511""
","
","","","844.5999999940395","","","16","8112","2223","&#9776;","elianto","#3366ff99"," "," ","1","+10","[1701.5]","1","0","1","","","","","","","",""
"pit-trial","30","369942","0.0-2.0-8.1-1.1","battery-v0.2","","""event"",""trial"",""time""
""fullscreenenter"",""1"",""2511""
","
","
","""event"",""trial"",""time""
""fullscreenenter"",""1"",""2511""
","
","","","427.09999999403954","","","16","8112","2223","&#9776;","elianto","#3366ff99"," "," ","1","+10","[1286.2999999970198]","1","0","1","","","","","","","",""
"pit-trial","31","373242","0.0-2.0-8.1-2.1","battery-v0.2","","""event"",""trial"",""time""
""fullscreenenter"",""1"",""2511""
","
","
","""event"",""trial"",""time""
""fullscreenenter"",""1"",""2511""
","
","","","440.09999999403954","","","16","8112","2223","&#9776;","elianto","#3366ff99"," "," ","1","+10","[1297.7999999970198]","1","0","1","","","","","","","",""
"pit-trial","32","376570","0.0-2.0-8.1-3.1","battery-v0.2","","""event"",""trial"",""time""
""fullscreenenter"",""1"",""2511""
","
","
","""event"",""trial"",""time""
""fullscreenenter"",""1"",""2511""
","
","","","474.5","","","16","8112","2223","&#9776;","elianto","#3366ff99"," "," ","1","0","[341.70000000298023,1326]","2","0","1","","","","","","","",""
"pit-trial","33","380483","0.0-2.0-8.1-4.1","battery-v0.2","","""event"",""trial"",""time""
""fullscreenenter"",""1"",""2511""
","
","
","""event"",""trial"",""time""
""fullscreenenter"",""1"",""2511""
","
","","","1058.7999999970198","","","16","8112","2223","&#9776;","elianto","#3366ff99"," "," ","1","+10","[1909.9000000059605]","1","0","1","","","","","","","",""
"pit-trial","34","383939","0.0-2.0-8.2-0.2","battery-v0.2","","""event"",""trial"",""time""
""fullscreenenter"",""1"",""2511""
","
","
","""event"",""trial"",""time""
""fullscreenenter"",""1"",""2511""
","
","","","603","","","16","8112","2223","&#9776;","elianto","#3366ff99"," "," ","1","+10","[1453.1000000089407]","1","0","1","","","","","","","",""
"pit-trial","35","388057","0.0-2.0-8.2-1.2","battery-v0.2","","""event"",""trial"",""time""
""fullscreenenter"",""1"",""2511""
""fullscreenexit"",""36"",""392139""
","
","
","""event"",""trial"",""time""
""fullscreenenter"",""1"",""2511""
","""event"",""trial"",""time""
""fullscreenexit"",""36"",""392139""
","","","1265.4000000059605","","","16","8112","2223","&#9776;","elianto","#3366ff99"," "," ","1","+10","[2116.9000000059605]","1","0","1","","","","","","","",""
"pit-trial","36","392482","0.0-2.0-8.2-2.2","battery-v0.2","","""event"",""trial"",""time""
""fullscreenenter"",""1"",""2511""
""fullscreenexit"",""36"",""392139""
","
","
","""event"",""trial"",""time""
""fullscreenenter"",""1"",""2511""
","""event"",""trial"",""time""
""fullscreenexit"",""36"",""392139""
","","","1573.4000000059605","","","16","8112","2223","&#9776;","elianto","#3366ff99"," "," ","1","+10","[2423.5]","1","0","1","","","","","","","",""
"pit-trial","37","397265","0.0-2.0-8.2-3.2","battery-v0.2","","""event"",""trial"",""time""
""fullscreenenter"",""1"",""2511""
""fullscreenexit"",""36"",""392139""
","
","
","""event"",""trial"",""time""
""fullscreenenter"",""1"",""2511""
","""event"",""trial"",""time""
""fullscreenexit"",""36"",""392139""
","","","1929.5999999940395","","","16","8112","2223","&#9776;","elianto","#3366ff99"," "," ","1","0","[765.3999999910593,2781.199999988079]","2","0","1","","","","","","","",""
"pit-trial","38","400675","0.0-2.0-8.2-4.2","battery-v0.2","","""event"",""trial"",""time""
""fullscreenenter"",""1"",""2511""
""fullscreenexit"",""36"",""392139""
","
","
","""event"",""trial"",""time""
""fullscreenenter"",""1"",""2511""
","""event"",""trial"",""time""
""fullscreenexit"",""36"",""392139""
","","","556.1000000089407","","","16","8112","2223","&#9776;","elianto","#3366ff99"," "," ","1","+10","[1406.6000000089407]","1","0","1","","","","","","","",""
"call-function","39","400676","0.0-2.0-9.0","battery-v0.2","","""event"",""trial"",""time""
""fullscreenenter"",""1"",""2511""
""fullscreenexit"",""36"",""392139""
","
","
","""event"",""trial"",""time""
""fullscreenenter"",""1"",""2511""
","""event"",""trial"",""time""
""fullscreenexit"",""36"",""392139""
","","","","","","","","","","","","","","","","","","","","","","","","","","",""
"pit-instructions","40","450904","0.0-2.0-10.0","battery-v0.2","","""event"",""trial"",""time""
""fullscreenenter"",""1"",""2511""
""fullscreenexit"",""36"",""392139""
","
","
","""event"",""trial"",""time""
""fullscreenenter"",""1"",""2511""
","""event"",""trial"",""time""
""fullscreenexit"",""36"",""392139""
","","[{""page_index"":0,""viewing_time"":9826.70000000298},{""page_index"":1,""viewing_time"":7176.0999999940395},{""page_index"":2,""viewing_time"":9704.20000000298},{""page_index"":3,""viewing_time"":12087.70000000298},{""page_index"":4,""viewing_time"":11432.199999988079}]","50227.29999999702","","","","","","","","","","","","","","","","","","","","","","","",""
"pit-trial","41","454514","0.0-2.0-11.0-0.0","battery-v0.2","","""event"",""trial"",""time""
""fullscreenenter"",""1"",""2511""
""fullscreenexit"",""36"",""392139""
","
","
","""event"",""trial"",""time""
""fullscreenenter"",""1"",""2511""
","""event"",""trial"",""time""
""fullscreenexit"",""36"",""392139""
","","","755.8999999910593","","","16","8112","2223","&#9761;","elianto","#3366ff99","-1"," ","0","0","[1606.7999999970198]","1","0","2","","","","","","","",""
"pit-trial","42","458059","0.0-2.0-11.0-1.0","battery-v0.2","","""event"",""trial"",""time""
""fullscreenenter"",""1"",""2511""
""fullscreenexit"",""36"",""392139""
","
","
","""event"",""trial"",""time""
""fullscreenenter"",""1"",""2511""
","""event"",""trial"",""time""
""fullscreenexit"",""36"",""392139""
","","","676.5999999940395","","","16","8112","2223","&#9761;","elianto","#3366ff99","-1"," ","0","0","[1533.7000000029802]","1","0","2","","","","","","","",""
"pit-trial","43","462079","0.0-2.0-11.0-2.0","battery-v0.2","","""event"",""trial"",""time""
""fullscreenenter"",""1"",""2511""
""fullscreenexit"",""36"",""392139""
","
","
","""event"",""trial"",""time""
""fullscreenenter"",""1"",""2511""
","""event"",""trial"",""time""
""fullscreenexit"",""36"",""392139""
","","","1161.0999999940395","","","16","8112","2223","&#9761;","elianto","#3366ff99","-1"," ","0","0","[2012.7999999970198]","1","0","2","","","","","","","",""
"pit-trial","44","466085","0.0-2.0-11.0-3.0","battery-v0.2","","""event"",""trial"",""time""
""fullscreenenter"",""1"",""2511""
""fullscreenexit"",""36"",""392139""
","
","
","""event"",""trial"",""time""
""fullscreenenter"",""1"",""2511""
","""event"",""trial"",""time""
""fullscreenexit"",""36"",""392139""
","","","1150.2000000029802","","","16","8112","2223","&#9761;","elianto","#3366ff99","-1"," ","0","+10","[2000.7000000029802]","1","0","2","","","","","","","",""
"pit-trial","45","470040","0.0-2.0-11.0-4.0","battery-v0.2","","""event"",""trial"",""time""
""fullscreenenter"",""1"",""2511""
""fullscreenexit"",""36"",""392139""
","
","
","""event"",""trial"",""time""
""fullscreenenter"",""1"",""2511""
","""event"",""trial"",""time""
""fullscreenexit"",""36"",""392139""
","","","1077.2000000029802","","","16","8112","2223","&#9761;","elianto","#3366ff99","-1"," ","0","0","[1937.8999999910593]","1","0","2","","","","","","","",""
"pit-trial","46","474900","0.0-2.0-11.1-0.1","battery-v0.2","","""event"",""trial"",""time""
""fullscreenenter"",""1"",""2511""
""fullscreenexit"",""36"",""392139""
","
","
","""event"",""trial"",""time""
""fullscreenenter"",""1"",""2511""
","""event"",""trial"",""time""
""fullscreenexit"",""36"",""392139""
","","","-1","","","16","8112","2223","&#9761;","elianto","#3366ff99","-1","-1","1","+10","[]","0","0","2","","","","","","","",""
"pit-trial","47","479065","0.0-2.0-11.1-1.1","battery-v0.2","","""event"",""trial"",""time""
""fullscreenenter"",""1"",""2511""
""fullscreenexit"",""36"",""392139""
","
","
","""event"",""trial"",""time""
""fullscreenenter"",""1"",""2511""
","""event"",""trial"",""time""
""fullscreenexit"",""36"",""392139""
","","","1305.7000000029802","","","16","8112","2223","&#9761;","elianto","#3366ff99","-1"," ","0","0","[2164]","1","0","2","","","","","","","",""
"pit-trial","48","483918","0.0-2.0-11.1-2.1","battery-v0.2","","""event"",""trial"",""time""
""fullscreenenter"",""1"",""2511""
""fullscreenexit"",""36"",""392139""
","
","
","""event"",""trial"",""time""
""fullscreenenter"",""1"",""2511""
","""event"",""trial"",""time""
""fullscreenexit"",""36"",""392139""
","","","-1","","","16","8112","2223","&#9761;","elianto","#3366ff99","-1","-1","1","+10","[]","0","0","2","","","","","","","",""
"pit-trial","49","488770","0.0-2.0-11.1-3.1","battery-v0.2","","""event"",""trial"",""time""
""fullscreenenter"",""1"",""2511""
""fullscreenexit"",""36"",""392139""
","
","
","""event"",""trial"",""time""
""fullscreenenter"",""1"",""2511""
","""event"",""trial"",""time""
""fullscreenexit"",""36"",""392139""
","","","-1","","","16","8112","2223","&#9761;","elianto","#3366ff99","-1","-1","1","0","[]","0","0","2","","","","","","","",""
"pit-trial","50","492082","0.0-2.0-11.1-4.1","battery-v0.2","","""event"",""trial"",""time""
""fullscreenenter"",""1"",""2511""
""fullscreenexit"",""36"",""392139""
","
","
","""event"",""trial"",""time""
""fullscreenenter"",""1"",""2511""
","""event"",""trial"",""time""
""fullscreenexit"",""36"",""392139""
","","","458.70000000298023","","","16","8112","2223","&#9761;","elianto","#3366ff99","-1"," ","0","0","[1309.9000000059605]","1","0","2","","","","","","","",""
"pit-trial","51","495449","0.0-2.0-11.2-0.2","battery-v0.2","","""event"",""trial"",""time""
""fullscreenenter"",""1"",""2511""
""fullscreenexit"",""36"",""392139""
","
","
","""event"",""trial"",""time""
""fullscreenenter"",""1"",""2511""
","""event"",""trial"",""time""
""fullscreenexit"",""36"",""392139""
","","","514.5999999940395","","","16","8112","2223","&#9761;","elianto","#3366ff99","-1"," ","0","0","[1365.2999999970198]","1","0","2","","","","","","","",""
"pit-trial","52","499547","0.0-2.0-11.2-1.2","battery-v0.2","","""event"",""trial"",""time""
""fullscreenenter"",""1"",""2511""
""fullscreenexit"",""36"",""392139""
","
","
","""event"",""trial"",""time""
""fullscreenenter"",""1"",""2511""
","""event"",""trial"",""time""
""fullscreenexit"",""36"",""392139""
","","","1243.5999999940395","","","16","8112","2223","&#9761;","elianto","#3366ff99","-1"," ","0","0","[2094.2000000029802]","1","0","2","","","","","","","",""
"pit-trial","53","504339","0.0-2.0-11.2-2.2","battery-v0.2","","""event"",""trial"",""time""
""fullscreenenter"",""1"",""2511""
""fullscreenexit"",""36"",""392139""
","
","
","""event"",""trial"",""time""
""fullscreenenter"",""1"",""2511""
","""event"",""trial"",""time""
""fullscreenexit"",""36"",""392139""
","","","1937.7000000029802","","","16","8112","2223","&#9761;","elianto","#3366ff99","-1"," ","0","0","[2788.7000000029802]","1","0","2","","","","","","","",""
"pit-trial","54","509192","0.0-2.0-11.2-3.2","battery-v0.2","","""event"",""trial"",""time""
""fullscreenenter"",""1"",""2511""
""fullscreenexit"",""36"",""392139""
","
","
","""event"",""trial"",""time""
""fullscreenenter"",""1"",""2511""
","""event"",""trial"",""time""
""fullscreenexit"",""36"",""392139""
","","","-1","","","16","8112","2223","&#9761;","elianto","#3366ff99","-1","-1","1","0","[]","0","0","2","","","","","","","",""
"pit-trial","55","512833","0.0-2.0-11.2-4.2","battery-v0.2","","""event"",""trial"",""time""
""fullscreenenter"",""1"",""2511""
""fullscreenexit"",""36"",""392139""
","
","
","""event"",""trial"",""time""
""fullscreenenter"",""1"",""2511""
","""event"",""trial"",""time""
""fullscreenexit"",""36"",""392139""
","","","788.9000000059605","","","16","8112","2223","&#9761;","elianto","#3366ff99","-1"," ","0","0","[1639.4000000059605]","1","0","2","","","","","","","",""
"pit-trial","56","517685","0.0-2.0-11.3-0.3","battery-v0.2","","""event"",""trial"",""time""
""fullscreenenter"",""1"",""2511""
""fullscreenexit"",""36"",""392139""
","
","
","""event"",""trial"",""time""
""fullscreenenter"",""1"",""2511""
","""event"",""trial"",""time""
""fullscreenexit"",""36"",""392139""
","","","-1","","","16","8112","2223","&#9761;","elianto","#3366ff99","-1","-1","1","+10","[]","0","0","2","","","","","","","",""
"pit-trial","57","521346","0.0-2.0-11.3-1.3","battery-v0.2","","""event"",""trial"",""time""
""fullscreenenter"",""1"",""2511""
""fullscreenexit"",""36"",""392139""
","
","
","""event"",""trial"",""time""
""fullscreenenter"",""1"",""2511""
","""event"",""trial"",""time""
""fullscreenexit"",""36"",""392139""
","","","808.5","","","16","8112","2223","&#9761;","elianto","#3366ff99","-1"," ","0","0","[1658.4000000059605]","1","0","2","","","","","","","",""
"pit-trial","58","526198","0.0-2.0-11.3-2.3","battery-v0.2","","""event"",""trial"",""time""
""fullscreenenter"",""1"",""2511""
""fullscreenexit"",""36"",""392139""
","
","
","""event"",""trial"",""time""
""fullscreenenter"",""1"",""2511""
","""event"",""trial"",""time""
""fullscreenexit"",""36"",""392139""
","","","-1","","","16","8112","2223","&#9761;","elianto","#3366ff99","-1","-1","1","+10","[]","0","0","2","","","","","","","",""
"pit-trial","59","530345","0.0-2.0-11.3-3.3","battery-v0.2","","""event"",""trial"",""time""
""fullscreenenter"",""1"",""2511""
""fullscreenexit"",""36"",""392139""
","
","
","""event"",""trial"",""time""
""fullscreenenter"",""1"",""2511""
","""event"",""trial"",""time""
""fullscreenexit"",""36"",""392139""
","","","1294.0999999940395","","","16","8112","2223","&#9761;","elianto","#3366ff99","-1"," ","0","+10","[2145.5]","1","0","2","","","","","","","",""
"pit-trial","60","535197","0.0-2.0-11.3-4.3","battery-v0.2","","""event"",""trial"",""time""
""fullscreenenter"",""1"",""2511""
""fullscreenexit"",""36"",""392139""
","
","
","""event"",""trial"",""time""
""fullscreenenter"",""1"",""2511""
","""event"",""trial"",""time""
""fullscreenexit"",""36"",""392139""
","","","-1","","","16","8112","2223","&#9761;","elianto","#3366ff99","-1","-1","1","+10","[]","0","0","2","","","","","","","",""
"call-function","61","535198","0.0-2.0-12.0","battery-v0.2","","""event"",""trial"",""time""
""fullscreenenter"",""1"",""2511""
""fullscreenexit"",""36"",""392139""
","
","
","""event"",""trial"",""time""
""fullscreenenter"",""1"",""2511""
","""event"",""trial"",""time""
""fullscreenexit"",""36"",""392139""
","","","","","","","","","","","","","","","","","","","","","","","","","","",""
"pit-instructions","62","575520","0.0-2.0-13.0","battery-v0.2","","""event"",""trial"",""time""
""fullscreenenter"",""1"",""2511""
""fullscreenexit"",""36"",""392139""
","
","
","""event"",""trial"",""time""
""fullscreenenter"",""1"",""2511""
","""event"",""trial"",""time""
""fullscreenexit"",""36"",""392139""
","","[{""page_index"":0,""viewing_time"":5033.20000000298},{""page_index"":1,""viewing_time"":8288.29999999702},{""page_index"":2,""viewing_time"":6551.70000000298},{""page_index"":3,""viewing_time"":12296},{""page_index"":4,""viewing_time"":8152.4000000059605}]","40321.79999999702","","","","","","","","","","","","","","","","","","","","","","","",""
"pit-trial","63","579188","0.0-2.0-14.0-0.0","battery-v0.2","","""event"",""trial"",""time""
""fullscreenenter"",""1"",""2511""
""fullscreenexit"",""36"",""392139""
","
","
","""event"",""trial"",""time""
""fullscreenenter"",""1"",""2511""
","""event"",""trial"",""time""
""fullscreenexit"",""36"",""392139""
","","","800.1000000089407","","","16","8112","2223","&#9826;","elianto","#f73b6a7A","-1"," ","0","-10","[1654.3999999910593]","1","0","3","","","","","","","",""
"pit-trial","64","584048","0.0-2.0-14.0-1.0","battery-v0.2","","""event"",""trial"",""time""
""fullscreenenter"",""1"",""2511""
""fullscreenexit"",""36"",""392139""
","
","
","""event"",""trial"",""time""
""fullscreenenter"",""1"",""2511""
","""event"",""trial"",""time""
""fullscreenexit"",""36"",""392139""
","","","-1","","","16","8112","2223","&#9826;","elianto","#f73b6a7A","-1","-1","1","0","[]","0","0","3","","","","","","","",""
"pit-trial","65","588924","0.0-2.0-14.0-2.0","battery-v0.2","","""event"",""trial"",""time""
""fullscreenenter"",""1"",""2511""
""fullscreenexit"",""36"",""392139""
","
","
","""event"",""trial"",""time""
""fullscreenenter"",""1"",""2511""
","""event"",""trial"",""time""
""fullscreenexit"",""36"",""392139""
","","","-1","","","16","8112","2223","&#9826;","elianto","#f73b6a7A","-1","-1","1","0","[]","0","0","3","","","","","","","",""
"pit-trial","66","593789","0.0-2.0-14.0-3.0","battery-v0.2","","""event"",""trial"",""time""
""fullscreenenter"",""1"",""2511""
""fullscreenexit"",""36"",""392139""
","
","
","""event"",""trial"",""time""
""fullscreenenter"",""1"",""2511""
","""event"",""trial"",""time""
""fullscreenexit"",""36"",""392139""
","","","-1","","","16","8112","2223","&#9826;","elianto","#f73b6a7A","-1","-1","1","-10","[]","0","0","3","","","","","","","",""
"pit-trial","67","598651","0.0-2.0-14.0-4.0","battery-v0.2","","""event"",""trial"",""time""
""fullscreenenter"",""1"",""2511""
""fullscreenexit"",""36"",""392139""
","
","
","""event"",""trial"",""time""
""fullscreenenter"",""1"",""2511""
","""event"",""trial"",""time""
""fullscreenexit"",""36"",""392139""
","","","-1","","","16","8112","2223","&#9826;","elianto","#f73b6a7A","-1","-1","1","0","[3537.7999999970198]","1","0","3","","","","","","","",""
"pit-trial","68","603512","0.0-2.0-14.1-0.1","battery-v0.2","","""event"",""trial"",""time""
""fullscreenenter"",""1"",""2511""
""fullscreenexit"",""36"",""392139""
","
","
","""event"",""trial"",""time""
""fullscreenenter"",""1"",""2511""
","""event"",""trial"",""time""
""fullscreenexit"",""36"",""392139""
","","","-1","","","16","8112","2223","&#9826;","elianto","#f73b6a7A","-1","-1","1","0","[]","0","0","3","","","","","","","",""
"pit-trial","69","608365","0.0-2.0-14.1-1.1","battery-v0.2","","""event"",""trial"",""time""
""fullscreenenter"",""1"",""2511""
""fullscreenexit"",""36"",""392139""
","
","
","""event"",""trial"",""time""
""fullscreenenter"",""1"",""2511""
","""event"",""trial"",""time""
""fullscreenexit"",""36"",""392139""
","","","-1","","","16","8112","2223","&#9826;","elianto","#f73b6a7A","-1","-1","1","0","[]","0","0","3","","","","","","","",""
"pit-trial","70","613228","0.0-2.0-14.1-2.1","battery-v0.2","","""event"",""trial"",""time""
""fullscreenenter"",""1"",""2511""
""fullscreenexit"",""36"",""392139""
","
","
","""event"",""trial"",""time""
""fullscreenenter"",""1"",""2511""
","""event"",""trial"",""time""
""fullscreenexit"",""36"",""392139""
","","","-1","","","16","8112","2223","&#9826;","elianto","#f73b6a7A","-1","-1","1","0","[]","0","0","3","","","","","","","",""
"pit-trial","71","618080","0.0-2.0-14.1-3.1","battery-v0.2","","""event"",""trial"",""time""
""fullscreenenter"",""1"",""2511""
""fullscreenexit"",""36"",""392139""
","
","
","""event"",""trial"",""time""
""fullscreenenter"",""1"",""2511""
","""event"",""trial"",""time""
""fullscreenexit"",""36"",""392139""
","","","-1","","","16","8112","2223","&#9826;","elianto","#f73b6a7A","-1","-1","1","-10","[]","0","0","3","","","","","","","",""
"pit-trial","72","622933","0.0-2.0-14.1-4.1","battery-v0.2","","""event"",""trial"",""time""
""fullscreenenter"",""1"",""2511""
""fullscreenexit"",""36"",""392139""
","
","
","""event"",""trial"",""time""
""fullscreenenter"",""1"",""2511""
","""event"",""trial"",""time""
""fullscreenexit"",""36"",""392139""
","","","-1","","","16","8112","2223","&#9826;","elianto","#f73b6a7A","-1","-1","1","0","[4165.20000000298]","1","0","3","","","","","","","",""
"pit-trial","73","625960","0.0-2.0-14.2-0.2","battery-v0.2","","""event"",""trial"",""time""
""fullscreenenter"",""1"",""2511""
""fullscreenexit"",""36"",""392139""
","
","
","""event"",""trial"",""time""
""fullscreenenter"",""1"",""2511""
","""event"",""trial"",""time""
""fullscreenexit"",""36"",""392139""
","","","174.30000001192093","","","16","8112","2223","&#9826;","elianto","#f73b6a7A","-1"," ","0","-10","[376.90000000596046,697.7000000029802,1025.300000011921]","3","0","3","","","","","","","",""
"pit-trial","74","630812","0.0-2.0-14.2-1.2","battery-v0.2","","""event"",""trial"",""time""
""fullscreenenter"",""1"",""2511""
""fullscreenexit"",""36"",""392139""
","
","
","""event"",""trial"",""time""
""fullscreenenter"",""1"",""2511""
","""event"",""trial"",""time""
""fullscreenexit"",""36"",""392139""
","","","-1","","","16","8112","2223","&#9826;","elianto","#f73b6a7A","-1","-1","1","0","[]","0","0","3","","","","","","","",""
"pit-trial","75","635666","0.0-2.0-14.2-2.2","battery-v0.2","","""event"",""trial"",""time""
""fullscreenenter"",""1"",""2511""
""fullscreenexit"",""36"",""392139""
","
","
","""event"",""trial"",""time""
""fullscreenenter"",""1"",""2511""
","""event"",""trial"",""time""
""fullscreenexit"",""36"",""392139""
","","","-1","","","16","8112","2223","&#9826;","elianto","#f73b6a7A","-1","-1","1","0","[]","0","0","3","","","","","","","",""
"pit-trial","76","640526","0.0-2.0-14.2-3.2","battery-v0.2","","""event"",""trial"",""time""
""fullscreenenter"",""1"",""2511""
""fullscreenexit"",""36"",""392139""
","
","
","""event"",""trial"",""time""
""fullscreenenter"",""1"",""2511""
","""event"",""trial"",""time""
""fullscreenexit"",""36"",""392139""
","","","-1","","","16","8112","2223","&#9826;","elianto","#f73b6a7A","-1","-1","1","-10","[]","0","0","3","","","","","","","",""
"pit-trial","77","645378","0.0-2.0-14.2-4.2","battery-v0.2","","""event"",""trial"",""time""
""fullscreenenter"",""1"",""2511""
""fullscreenexit"",""36"",""392139""
","
","
","""event"",""trial"",""time""
""fullscreenenter"",""1"",""2511""
","""event"",""trial"",""time""
""fullscreenexit"",""36"",""392139""
","","","-1","","","16","8112","2223","&#9826;","elianto","#f73b6a7A","-1","-1","1","0","[3167.1000000089407]","1","0","3","","","","","","","",""
"pit-trial","78","650231","0.0-2.0-14.3-0.3","battery-v0.2","","""event"",""trial"",""time""
""fullscreenenter"",""1"",""2511""
""fullscreenexit"",""36"",""392139""
","
","
","""event"",""trial"",""time""
""fullscreenenter"",""1"",""2511""
","""event"",""trial"",""time""
""fullscreenexit"",""36"",""392139""
","","","-1","","","16","8112","2223","&#9826;","elianto","#f73b6a7A","-1","-1","1","0","[]","0","0","3","","","","","","","",""
"pit-trial","79","655084","0.0-2.0-14.3-1.3","battery-v0.2","","""event"",""trial"",""time""
""fullscreenenter"",""1"",""2511""
""fullscreenexit"",""36"",""392139""
","
","
","""event"",""trial"",""time""
""fullscreenenter"",""1"",""2511""
","""event"",""trial"",""time""
""fullscreenexit"",""36"",""392139""
","","","-1","","","16","8112","2223","&#9826;","elianto","#f73b6a7A","-1","-1","1","0","[]","0","0","3","","","","","","","",""
"pit-trial","80","659936","0.0-2.0-14.3-2.3","battery-v0.2","","""event"",""trial"",""time""
""fullscreenenter"",""1"",""2511""
""fullscreenexit"",""36"",""392139""
","
","
","""event"",""trial"",""time""
""fullscreenenter"",""1"",""2511""
","""event"",""trial"",""time""
""fullscreenexit"",""36"",""392139""
","","","-1","","","16","8112","2223","&#9826;","elianto","#f73b6a7A","-1","-1","1","0","[]","0","0","3","","","","","","","",""
"pit-trial","81","664789","0.0-2.0-14.3-3.3","battery-v0.2","","""event"",""trial"",""time""
""fullscreenenter"",""1"",""2511""
""fullscreenexit"",""36"",""392139""
","
","
","""event"",""trial"",""time""
""fullscreenenter"",""1"",""2511""
","""event"",""trial"",""time""
""fullscreenexit"",""36"",""392139""
","","","-1","","","16","8112","2223","&#9826;","elianto","#f73b6a7A","-1","-1","1","-10","[]","0","0","3","","","","","","","",""
"pit-trial","82","669641","0.0-2.0-14.3-4.3","battery-v0.2","","""event"",""trial"",""time""
""fullscreenenter"",""1"",""2511""
""fullscreenexit"",""36"",""392139""
","
","
","""event"",""trial"",""time""
""fullscreenenter"",""1"",""2511""
","""event"",""trial"",""time""
""fullscreenexit"",""36"",""392139""
","","","-1","","","16","8112","2223","&#9826;","elianto","#f73b6a7A","-1","-1","1","0","[]","0","0","3","","","","","","","",""
"call-function","83","669642","0.0-2.0-15.0","battery-v0.2","","""event"",""trial"",""time""
""fullscreenenter"",""1"",""2511""
""fullscreenexit"",""36"",""392139""
","
","
","""event"",""trial"",""time""
""fullscreenenter"",""1"",""2511""
","""event"",""trial"",""time""
""fullscreenexit"",""36"",""392139""
","","","","","","","","","","","","","","","","","","","","","","","","","","",""
"pit-instructions","84","704504","0.0-2.0-16.0","battery-v0.2","","""event"",""trial"",""time""
""fullscreenenter"",""1"",""2511""
""fullscreenexit"",""36"",""392139""
","
","
","""event"",""trial"",""time""
""fullscreenenter"",""1"",""2511""
","""event"",""trial"",""time""
""fullscreenexit"",""36"",""392139""
","","[{""page_index"":0,""viewing_time"":8212.59999999404},{""page_index"":1,""viewing_time"":9687.90000000596},{""page_index"":2,""viewing_time"":11320},{""page_index"":3,""viewing_time"":5640.899999991059}]","34861.69999998808","","","","","","","","","","","","","","","","","","","","","","","",""
"pit-trial","85","709372","0.0-2.0-17.0-0.0","battery-v0.2","","""event"",""trial"",""time""
""fullscreenenter"",""1"",""2511""
""fullscreenexit"",""36"",""392139""
","
","
","""event"",""trial"",""time""
""fullscreenenter"",""1"",""2511""
","""event"",""trial"",""time""
""fullscreenexit"",""36"",""392139""
","","","-1","","","16","8112","2223","&#9789;","elianto","#f73b6a7A"," ","-1","0","-10","[]","0","0","4","","","","","","","",""
"pit-trial","86","714236","0.0-2.0-17.0-1.0","battery-v0.2","","""event"",""trial"",""time""
""fullscreenenter"",""1"",""2511""
""fullscreenexit"",""36"",""392139""
","
","
","""event"",""trial"",""time""
""fullscreenenter"",""1"",""2511""
","""event"",""trial"",""time""
""fullscreenexit"",""36"",""392139""
","","","-1","","","16","8112","2223","&#9789;","elianto","#f73b6a7A"," ","-1","0","-10","[]","0","0","4","","","","","","","",""
"pit-trial","87","719098","0.0-2.0-17.0-2.0","battery-v0.2","","""event"",""trial"",""time""
""fullscreenenter"",""1"",""2511""
""fullscreenexit"",""36"",""392139""
","
","
","""event"",""trial"",""time""
""fullscreenenter"",""1"",""2511""
","""event"",""trial"",""time""
""fullscreenexit"",""36"",""392139""
","","","-1","","","16","8112","2223","&#9789;","elianto","#f73b6a7A"," ","-1","0","-10","[]","0","0","4","","","","","","","",""
"pit-trial","88","723951","0.0-2.0-17.0-3.0","battery-v0.2","","""event"",""trial"",""time""
""fullscreenenter"",""1"",""2511""
""fullscreenexit"",""36"",""392139""
","
","
","""event"",""trial"",""time""
""fullscreenenter"",""1"",""2511""
","""event"",""trial"",""time""
""fullscreenexit"",""36"",""392139""
","","","-1","","","16","8112","2223","&#9789;","elianto","#f73b6a7A"," ","-1","0","0","[]","0","0","4","","","","","","","",""
"pit-trial","89","728813","0.0-2.0-17.0-4.0","battery-v0.2","","""event"",""trial"",""time""
""fullscreenenter"",""1"",""2511""
""fullscreenexit"",""36"",""392139""
","
","
","""event"",""trial"",""time""
""fullscreenenter"",""1"",""2511""
","""event"",""trial"",""time""
""fullscreenexit"",""36"",""392139""
","","","-1","","","16","8112","2223","&#9789;","elianto","#f73b6a7A"," ","-1","0","-10","[]","0","0","4","","","","","","","",""
"pit-trial","90","733678","0.0-2.0-17.1-0.1","battery-v0.2","","""event"",""trial"",""time""
""fullscreenenter"",""1"",""2511""
""fullscreenexit"",""36"",""392139""
","
","
","""event"",""trial"",""time""
""fullscreenenter"",""1"",""2511""
","""event"",""trial"",""time""
""fullscreenexit"",""36"",""392139""
","","","-1","","","16","8112","2223","&#9789;","elianto","#f73b6a7A"," ","-1","0","-10","[]","0","0","4","","","","","","","",""
"pit-trial","91","738530","0.0-2.0-17.1-1.1","battery-v0.2","","""event"",""trial"",""time""
""fullscreenenter"",""1"",""2511""
""fullscreenexit"",""36"",""392139""
","
","
","""event"",""trial"",""time""
""fullscreenenter"",""1"",""2511""
","""event"",""trial"",""time""
""fullscreenexit"",""36"",""392139""
","","","-1","","","16","8112","2223","&#9789;","elianto","#f73b6a7A"," ","-1","0","-10","[]","0","0","4","","","","","","","",""
"pit-trial","92","743383","0.0-2.0-17.1-2.1","battery-v0.2","","""event"",""trial"",""time""
""fullscreenenter"",""1"",""2511""
""fullscreenexit"",""36"",""392139""
","
","
","""event"",""trial"",""time""
""fullscreenenter"",""1"",""2511""
","""event"",""trial"",""time""
""fullscreenexit"",""36"",""392139""
","","","-1","","","16","8112","2223","&#9789;","elianto","#f73b6a7A"," ","-1","0","-10","[]","0","0","4","","","","","","","",""
"pit-trial","93","748234","0.0-2.0-17.1-3.1","battery-v0.2","","""event"",""trial"",""time""
""fullscreenenter"",""1"",""2511""
""fullscreenexit"",""36"",""392139""
","
","
","""event"",""trial"",""time""
""fullscreenenter"",""1"",""2511""
","""event"",""trial"",""time""
""fullscreenexit"",""36"",""392139""
","","","-1","","","16","8112","2223","&#9789;","elianto","#f73b6a7A"," ","-1","0","0","[]","0","0","4","","","","","","","",""
"pit-trial","94","753088","0.0-2.0-17.1-4.1","battery-v0.2","","""event"",""trial"",""time""
""fullscreenenter"",""1"",""2511""
""fullscreenexit"",""36"",""392139""
","
","
","""event"",""trial"",""time""
""fullscreenenter"",""1"",""2511""
","""event"",""trial"",""time""
""fullscreenexit"",""36"",""392139""
","","","-1","","","16","8112","2223","&#9789;","elianto","#f73b6a7A"," ","-1","0","-10","[]","0","0","4","","","","","","","",""
"pit-trial","95","757942","0.0-2.0-17.2-0.2","battery-v0.2","","""event"",""trial"",""time""
""fullscreenenter"",""1"",""2511""
""fullscreenexit"",""36"",""392139""
","
","
","""event"",""trial"",""time""
""fullscreenenter"",""1"",""2511""
","""event"",""trial"",""time""
""fullscreenexit"",""36"",""392139""
","","","-1","","","16","8112","2223","&#9789;","elianto","#f73b6a7A"," ","-1","0","-10","[]","0","0","4","","","","","","","",""
"pit-trial","96","762794","0.0-2.0-17.2-1.2","battery-v0.2","","""event"",""trial"",""time""
""fullscreenenter"",""1"",""2511""
""fullscreenexit"",""36"",""392139""
""blur"",""97"",""771235""
","""event"",""trial"",""time""
""blur"",""97"",""771235""
","
","""event"",""trial"",""time""
""fullscreenenter"",""1"",""2511""
","""event"",""trial"",""time""
""fullscreenexit"",""36"",""392139""
","","","-1","","","16","8112","2223","&#9789;","elianto","#f73b6a7A"," ","-1","0","-10","[]","0","0","4","","","","","","","",""
"pit-trial","97","771236","0.0-2.0-17.2-2.2","battery-v0.2","","""event"",""trial"",""time""
""fullscreenenter"",""1"",""2511""
""fullscreenexit"",""36"",""392139""
""blur"",""97"",""771235""
""focus"",""98"",""771243""
""blur"",""98"",""775351""
","""event"",""trial"",""time""
""blur"",""97"",""771235""
""blur"",""98"",""775351""
","""event"",""trial"",""time""
""focus"",""98"",""771243""
","""event"",""trial"",""time""
""fullscreenenter"",""1"",""2511""
","""event"",""trial"",""time""
""fullscreenexit"",""36"",""392139""
","","","-1","","","16","8112","2223","&#9789;","elianto","#f73b6a7A"," ","-1","0","-10","[]","0","0","4","","","","","","","",""
"pit-trial","98","776748","0.0-2.0-17.2-3.2","battery-v0.2","","""event"",""trial"",""time""
""fullscreenenter"",""1"",""2511""
""fullscreenexit"",""36"",""392139""
""blur"",""97"",""771235""
""focus"",""98"",""771243""
""blur"",""98"",""775351""
""focus"",""99"",""777019""
","""event"",""trial"",""time""
""blur"",""97"",""771235""
""blur"",""98"",""775351""
","""event"",""trial"",""time""
""focus"",""98"",""771243""
""focus"",""99"",""777019""
","""event"",""trial"",""time""
""fullscreenenter"",""1"",""2511""
","""event"",""trial"",""time""
""fullscreenexit"",""36"",""392139""
","","","-1","","","16","8112","2223","&#9789;","elianto","#f73b6a7A"," ","-1","0","0","[]","0","0","4","","","","","","","",""
"pit-trial","99","781602","0.0-2.0-17.2-4.2","battery-v0.2","","""event"",""trial"",""time""
""fullscreenenter"",""1"",""2511""
""fullscreenexit"",""36"",""392139""
""blur"",""97"",""771235""
""focus"",""98"",""771243""
""blur"",""98"",""775351""
""focus"",""99"",""777019""
""blur"",""100"",""783015""
""focus"",""100"",""784562""
","""event"",""trial"",""time""
""blur"",""97"",""771235""
""blur"",""98"",""775351""
""blur"",""100"",""783015""
","""event"",""trial"",""time""
""focus"",""98"",""771243""
""focus"",""99"",""777019""
""focus"",""100"",""784562""
","""event"",""trial"",""time""
""fullscreenenter"",""1"",""2511""
","""event"",""trial"",""time""
""fullscreenexit"",""36"",""392139""
","","","-1","","","16","8112","2223","&#9789;","elianto","#f73b6a7A"," ","-1","0","-10","[]","0","0","4","","","","","","","",""
"pit-trial","100","786561","0.0-2.0-17.3-0.3","battery-v0.2","","""event"",""trial"",""time""
""fullscreenenter"",""1"",""2511""
""fullscreenexit"",""36"",""392139""
""blur"",""97"",""771235""
""focus"",""98"",""771243""
""blur"",""98"",""775351""
""focus"",""99"",""777019""
""blur"",""100"",""783015""
""focus"",""100"",""784562""
","""event"",""trial"",""time""
""blur"",""97"",""771235""
""blur"",""98"",""775351""
""blur"",""100"",""783015""
","""event"",""trial"",""time""
""focus"",""98"",""771243""
""focus"",""99"",""777019""
""focus"",""100"",""784562""
","""event"",""trial"",""time""
""fullscreenenter"",""1"",""2511""
","""event"",""trial"",""time""
""fullscreenexit"",""36"",""392139""
","","","-1","","","16","8112","2223","&#9789;","elianto","#f73b6a7A"," ","-1","0","-10","[]","0","0","4","","","","","","","",""
"pit-trial","101","791413","0.0-2.0-17.3-1.3","battery-v0.2","","""event"",""trial"",""time""
""fullscreenenter"",""1"",""2511""
""fullscreenexit"",""36"",""392139""
""blur"",""97"",""771235""
""focus"",""98"",""771243""
""blur"",""98"",""775351""
""focus"",""99"",""777019""
""blur"",""100"",""783015""
""focus"",""100"",""784562""
","""event"",""trial"",""time""
""blur"",""97"",""771235""
""blur"",""98"",""775351""
""blur"",""100"",""783015""
","""event"",""trial"",""time""
""focus"",""98"",""771243""
""focus"",""99"",""777019""
""focus"",""100"",""784562""
","""event"",""trial"",""time""
""fullscreenenter"",""1"",""2511""
","""event"",""trial"",""time""
""fullscreenexit"",""36"",""392139""
","","","-1","","","16","8112","2223","&#9789;","elianto","#f73b6a7A"," ","-1","0","-10","[]","0","0","4","","","","","","","",""
"pit-trial","102","796265","0.0-2.0-17.3-2.3","battery-v0.2","","""event"",""trial"",""time""
""fullscreenenter"",""1"",""2511""
""fullscreenexit"",""36"",""392139""
""blur"",""97"",""771235""
""focus"",""98"",""771243""
""blur"",""98"",""775351""
""focus"",""99"",""777019""
""blur"",""100"",""783015""
""focus"",""100"",""784562""
","""event"",""trial"",""time""
""blur"",""97"",""771235""
""blur"",""98"",""775351""
""blur"",""100"",""783015""
","""event"",""trial"",""time""
""focus"",""98"",""771243""
""focus"",""99"",""777019""
""focus"",""100"",""784562""
","""event"",""trial"",""time""
""fullscreenenter"",""1"",""2511""
","""event"",""trial"",""time""
""fullscreenexit"",""36"",""392139""
","","","-1","","","16","8112","2223","&#9789;","elianto","#f73b6a7A"," ","-1","0","-10","[]","0","0","4","","","","","","","",""
"pit-trial","103","801117","0.0-2.0-17.3-3.3","battery-v0.2","","""event"",""trial"",""time""
""fullscreenenter"",""1"",""2511""
""fullscreenexit"",""36"",""392139""
""blur"",""97"",""771235""
""focus"",""98"",""771243""
""blur"",""98"",""775351""
""focus"",""99"",""777019""
""blur"",""100"",""783015""
""focus"",""100"",""784562""
","""event"",""trial"",""time""
""blur"",""97"",""771235""
""blur"",""98"",""775351""
""blur"",""100"",""783015""
","""event"",""trial"",""time""
""focus"",""98"",""771243""
""focus"",""99"",""777019""
""focus"",""100"",""784562""
","""event"",""trial"",""time""
""fullscreenenter"",""1"",""2511""
","""event"",""trial"",""time""
""fullscreenexit"",""36"",""392139""
","","","-1","","","16","8112","2223","&#9789;","elianto","#f73b6a7A"," ","-1","0","0","[]","0","0","4","","","","","","","",""
"pit-trial","104","805970","0.0-2.0-17.3-4.3","battery-v0.2","","""event"",""trial"",""time""
""fullscreenenter"",""1"",""2511""
""fullscreenexit"",""36"",""392139""
""blur"",""97"",""771235""
""focus"",""98"",""771243""
""blur"",""98"",""775351""
""focus"",""99"",""777019""
""blur"",""100"",""783015""
""focus"",""100"",""784562""
","""event"",""trial"",""time""
""blur"",""97"",""771235""
""blur"",""98"",""775351""
""blur"",""100"",""783015""
","""event"",""trial"",""time""
""focus"",""98"",""771243""
""focus"",""99"",""777019""
""focus"",""100"",""784562""
","""event"",""trial"",""time""
""fullscreenenter"",""1"",""2511""
","""event"",""trial"",""time""
""fullscreenexit"",""36"",""392139""
","","","-1","","","16","8112","2223","&#9789;","elianto","#f73b6a7A"," ","-1","0","-10","[]","0","0","4","","","","","","","",""
"call-function","105","805971","0.0-2.0-18.0","battery-v0.2","","""event"",""trial"",""time""
""fullscreenenter"",""1"",""2511""
""fullscreenexit"",""36"",""392139""
""blur"",""97"",""771235""
""focus"",""98"",""771243""
""blur"",""98"",""775351""
""focus"",""99"",""777019""
""blur"",""100"",""783015""
""focus"",""100"",""784562""
","""event"",""trial"",""time""
""blur"",""97"",""771235""
""blur"",""98"",""775351""
""blur"",""100"",""783015""
","""event"",""trial"",""time""
""focus"",""98"",""771243""
""focus"",""99"",""777019""
""focus"",""100"",""784562""
","""event"",""trial"",""time""
""fullscreenenter"",""1"",""2511""
","""event"",""trial"",""time""
""fullscreenexit"",""36"",""392139""
","","","","","","","","","","","","","","","","","","","","","","","","","","",""
"pit-instructions","106","894702","0.0-2.0-19.0","battery-v0.2","","""event"",""trial"",""time""
""fullscreenenter"",""1"",""2511""
""fullscreenexit"",""36"",""392139""
""blur"",""97"",""771235""
""focus"",""98"",""771243""
""blur"",""98"",""775351""
""focus"",""99"",""777019""
""blur"",""100"",""783015""
""focus"",""100"",""784562""
","""event"",""trial"",""time""
""blur"",""97"",""771235""
""blur"",""98"",""775351""
""blur"",""100"",""783015""
","""event"",""trial"",""time""
""focus"",""98"",""771243""
""focus"",""99"",""777019""
""focus"",""100"",""784562""
","""event"",""trial"",""time""
""fullscreenenter"",""1"",""2511""
","""event"",""trial"",""time""
""fullscreenexit"",""36"",""392139""
","","[{""page_index"":0,""viewing_time"":7571.20000000298},{""page_index"":1,""viewing_time"":7367.70000000298},{""page_index"":2,""viewing_time"":18703.5},{""page_index"":3,""viewing_time"":9472.59999999404},{""page_index"":4,""viewing_time"":9807.29999999702},{""page_index"":5,""viewing_time"":11664.40000000596},{""page_index"":6,""viewing_time"":8784},{""page_index"":7,""viewing_time"":8663.59999999404},{""page_index"":8,""viewing_time"":6696.100000008941}]","88730.60000000894","","","","","","","","","","","","","","","","","","","","","","","",""
"pit-comprehension","107","901863","0.0-2.0-20.0-0.0","battery-v0.2","","""event"",""trial"",""time""
""fullscreenenter"",""1"",""2511""
""fullscreenexit"",""36"",""392139""
""blur"",""97"",""771235""
""focus"",""98"",""771243""
""blur"",""98"",""775351""
""focus"",""99"",""777019""
""blur"",""100"",""783015""
""focus"",""100"",""784562""
","""event"",""trial"",""time""
""blur"",""97"",""771235""
""blur"",""98"",""775351""
""blur"",""100"",""783015""
","""event"",""trial"",""time""
""focus"",""98"",""771243""
""focus"",""99"",""777019""
""focus"",""100"",""784562""
","""event"",""trial"",""time""
""fullscreenenter"",""1"",""2511""
","""event"",""trial"",""time""
""fullscreenexit"",""36"",""392139""
","","","7157.800000011921","[""SPACE""]","0","16","8112","2223","","","","","","","","","","","","","","","","","","",""
"pit-instructions","108","907734","0.0-2.0-20.0-1.0","battery-v0.2","","""event"",""trial"",""time""
""fullscreenenter"",""1"",""2511""
""fullscreenexit"",""36"",""392139""
""blur"",""97"",""771235""
""focus"",""98"",""771243""
""blur"",""98"",""775351""
""focus"",""99"",""777019""
""blur"",""100"",""783015""
""focus"",""100"",""784562""
","""event"",""trial"",""time""
""blur"",""97"",""771235""
""blur"",""98"",""775351""
""blur"",""100"",""783015""
","""event"",""trial"",""time""
""focus"",""98"",""771243""
""focus"",""99"",""777019""
""focus"",""100"",""784562""
","""event"",""trial"",""time""
""fullscreenenter"",""1"",""2511""
","""event"",""trial"",""time""
""fullscreenexit"",""36"",""392139""
","","[{""page_index"":0,""viewing_time"":5831.20000000298}]","5831.5","","","","","","","","","","","","","","","","","","","","","","","",""
"pit-comprehension","109","915575","0.0-2.0-21.0-0.0","battery-v0.2","","""event"",""trial"",""time""
""fullscreenenter"",""1"",""2511""
""fullscreenexit"",""36"",""392139""
""blur"",""97"",""771235""
""focus"",""98"",""771243""
""blur"",""98"",""775351""
""focus"",""99"",""777019""
""blur"",""100"",""783015""
""focus"",""100"",""784562""
","""event"",""trial"",""time""
""blur"",""97"",""771235""
""blur"",""98"",""775351""
""blur"",""100"",""783015""
","""event"",""trial"",""time""
""focus"",""98"",""771243""
""focus"",""99"",""777019""
""focus"",""100"",""784562""
","""event"",""trial"",""time""
""fullscreenenter"",""1"",""2511""
","""event"",""trial"",""time""
""fullscreenexit"",""36"",""392139""
","","","7838.4000000059605","[""10""]","0","16","8112","2223","","","","","","","","","","","","","","","","","","",""
"pit-instructions","110","923623","0.0-2.0-21.0-1.0","battery-v0.2","","""event"",""trial"",""time""
""fullscreenenter"",""1"",""2511""
""fullscreenexit"",""36"",""392139""
""blur"",""97"",""771235""
""focus"",""98"",""771243""
""blur"",""98"",""775351""
""focus"",""99"",""777019""
""blur"",""100"",""783015""
""focus"",""100"",""784562""
","""event"",""trial"",""time""
""blur"",""97"",""771235""
""blur"",""98"",""775351""
""blur"",""100"",""783015""
","""event"",""trial"",""time""
""focus"",""98"",""771243""
""focus"",""99"",""777019""
""focus"",""100"",""784562""
","""event"",""trial"",""time""
""fullscreenenter"",""1"",""2511""
","""event"",""trial"",""time""
""fullscreenexit"",""36"",""392139""
","","[{""page_index"":0,""viewing_time"":8010.29999999702}]","8010.70000000298","","","","","","","","","","","","","","","","","","","","","","","",""
"pit-comprehension","111","933312","0.0-2.0-22.0-0.0","battery-v0.2","","""event"",""trial"",""time""
""fullscreenenter"",""1"",""2511""
""fullscreenexit"",""36"",""392139""
""blur"",""97"",""771235""
""focus"",""98"",""771243""
""blur"",""98"",""775351""
""focus"",""99"",""777019""
""blur"",""100"",""783015""
""focus"",""100"",""784562""
","""event"",""trial"",""time""
""blur"",""97"",""771235""
""blur"",""98"",""775351""
""blur"",""100"",""783015""
","""event"",""trial"",""time""
""focus"",""98"",""771243""
""focus"",""99"",""777019""
""focus"",""100"",""784562""
","""event"",""trial"",""time""
""fullscreenenter"",""1"",""2511""
","""event"",""trial"",""time""
""fullscreenexit"",""36"",""392139""
","","","9684.90000000596","[""-10""]","1","16","8112","2223","","","","","","","","","","","","","","","","","","",""
"pit-instructions","112","937399","0.0-2.0-22.0-1.0","battery-v0.2","","""event"",""trial"",""time""
""fullscreenenter"",""1"",""2511""
""fullscreenexit"",""36"",""392139""
""blur"",""97"",""771235""
""focus"",""98"",""771243""
""blur"",""98"",""775351""
""focus"",""99"",""777019""
""blur"",""100"",""783015""
""focus"",""100"",""784562""
","""event"",""trial"",""time""
""blur"",""97"",""771235""
""blur"",""98"",""775351""
""blur"",""100"",""783015""
","""event"",""trial"",""time""
""focus"",""98"",""771243""
""focus"",""99"",""777019""
""focus"",""100"",""784562""
","""event"",""trial"",""time""
""fullscreenenter"",""1"",""2511""
","""event"",""trial"",""time""
""fullscreenexit"",""36"",""392139""
","","[{""page_index"":0,""viewing_time"":4048.2999999970198}]","4048.5999999940395","","","","","","","","","","","","","","","","","","","","","","","",""
"pit-instructions","113","939719","0.0-2.0-22.0-2.0-0.0","battery-v0.2","","""event"",""trial"",""time""
""fullscreenenter"",""1"",""2511""
""fullscreenexit"",""36"",""392139""
""blur"",""97"",""771235""
""focus"",""98"",""771243""
""blur"",""98"",""775351""
""focus"",""99"",""777019""
""blur"",""100"",""783015""
""focus"",""100"",""784562""
","""event"",""trial"",""time""
""blur"",""97"",""771235""
""blur"",""98"",""775351""
""blur"",""100"",""783015""
","""event"",""trial"",""time""
""focus"",""98"",""771243""
""focus"",""99"",""777019""
""focus"",""100"",""784562""
","""event"",""trial"",""time""
""fullscreenenter"",""1"",""2511""
","""event"",""trial"",""time""
""fullscreenexit"",""36"",""392139""
","","[{""page_index"":0,""viewing_time"":2319}]","2319.2999999970198","","","","","","","","","","","","","","","","","","","","","","","",""
"pit-comprehension","114","947671","0.0-2.0-22.1-0.1","battery-v0.2","","""event"",""trial"",""time""
""fullscreenenter"",""1"",""2511""
""fullscreenexit"",""36"",""392139""
""blur"",""97"",""771235""
""focus"",""98"",""771243""
""blur"",""98"",""775351""
""focus"",""99"",""777019""
""blur"",""100"",""783015""
""focus"",""100"",""784562""
","""event"",""trial"",""time""
""blur"",""97"",""771235""
""blur"",""98"",""775351""
""blur"",""100"",""783015""
","""event"",""trial"",""time""
""focus"",""98"",""771243""
""focus"",""99"",""777019""
""focus"",""100"",""784562""
","""event"",""trial"",""time""
""fullscreenenter"",""1"",""2511""
","""event"",""trial"",""time""
""fullscreenexit"",""36"",""392139""
","","","7948.5999999940395","[""0""]","0","16","8112","2223","","","","","","","","","","","","","","","","","","",""
"pit-instructions","115","951303","0.0-2.0-22.1-1.1","battery-v0.2","","""event"",""trial"",""time""
""fullscreenenter"",""1"",""2511""
""fullscreenexit"",""36"",""392139""
""blur"",""97"",""771235""
""focus"",""98"",""771243""
""blur"",""98"",""775351""
""focus"",""99"",""777019""
""blur"",""100"",""783015""
""focus"",""100"",""784562""
","""event"",""trial"",""time""
""blur"",""97"",""771235""
""blur"",""98"",""775351""
""blur"",""100"",""783015""
","""event"",""trial"",""time""
""focus"",""98"",""771243""
""focus"",""99"",""777019""
""focus"",""100"",""784562""
","""event"",""trial"",""time""
""fullscreenenter"",""1"",""2511""
","""event"",""trial"",""time""
""fullscreenexit"",""36"",""392139""
","","[{""page_index"":0,""viewing_time"":3593.199999988079}]","3593.5","","","","","","","","","","","","","","","","","","","","","","","",""
"pit-comprehension","116","962215","0.0-2.0-23.0-0.0","battery-v0.2","","""event"",""trial"",""time""
""fullscreenenter"",""1"",""2511""
""fullscreenexit"",""36"",""392139""
""blur"",""97"",""771235""
""focus"",""98"",""771243""
""blur"",""98"",""775351""
""focus"",""99"",""777019""
""blur"",""100"",""783015""
""focus"",""100"",""784562""
","""event"",""trial"",""time""
""blur"",""97"",""771235""
""blur"",""98"",""775351""
""blur"",""100"",""783015""
","""event"",""trial"",""time""
""focus"",""98"",""771243""
""focus"",""99"",""777019""
""focus"",""100"",""784562""
","""event"",""trial"",""time""
""fullscreenenter"",""1"",""2511""
","""event"",""trial"",""time""
""fullscreenexit"",""36"",""392139""
","","","10910.5","[""True""]","0","16","8112","2223","","","","","","","","","","","","","","","","","","",""
"pit-instructions","117","963807","0.0-2.0-23.0-1.0","battery-v0.2","","""event"",""trial"",""time""
""fullscreenenter"",""1"",""2511""
""fullscreenexit"",""36"",""392139""
""blur"",""97"",""771235""
""focus"",""98"",""771243""
""blur"",""98"",""775351""
""focus"",""99"",""777019""
""blur"",""100"",""783015""
""focus"",""100"",""784562""
","""event"",""trial"",""time""
""blur"",""97"",""771235""
""blur"",""98"",""775351""
""blur"",""100"",""783015""
","""event"",""trial"",""time""
""focus"",""98"",""771243""
""focus"",""99"",""777019""
""focus"",""100"",""784562""
","""event"",""trial"",""time""
""fullscreenenter"",""1"",""2511""
","""event"",""trial"",""time""
""fullscreenexit"",""36"",""392139""
","","[{""page_index"":0,""viewing_time"":1549.5999999940395}]","1549.7999999970198","","","","","","","","","","","","","","","","","","","","","","","",""
"pit-comprehension","118","973952","0.0-2.0-24.0-0.0","battery-v0.2","","""event"",""trial"",""time""
""fullscreenenter"",""1"",""2511""
""fullscreenexit"",""36"",""392139""
""blur"",""97"",""771235""
""focus"",""98"",""771243""
""blur"",""98"",""775351""
""focus"",""99"",""777019""
""blur"",""100"",""783015""
""focus"",""100"",""784562""
","""event"",""trial"",""time""
""blur"",""97"",""771235""
""blur"",""98"",""775351""
""blur"",""100"",""783015""
","""event"",""trial"",""time""
""focus"",""98"",""771243""
""focus"",""99"",""777019""
""focus"",""100"",""784562""
","""event"",""trial"",""time""
""fullscreenenter"",""1"",""2511""
","""event"",""trial"",""time""
""fullscreenexit"",""36"",""392139""
","","","10142.89999999106","[""False""]","1","16","8112","2223","","","","","","","","","","","","","","","","","","",""
"pit-instructions","119","976487","0.0-2.0-24.0-1.0","battery-v0.2","","""event"",""trial"",""time""
""fullscreenenter"",""1"",""2511""
""fullscreenexit"",""36"",""392139""
""blur"",""97"",""771235""
""focus"",""98"",""771243""
""blur"",""98"",""775351""
""focus"",""99"",""777019""
""blur"",""100"",""783015""
""focus"",""100"",""784562""
","""event"",""trial"",""time""
""blur"",""97"",""771235""
""blur"",""98"",""775351""
""blur"",""100"",""783015""
","""event"",""trial"",""time""
""focus"",""98"",""771243""
""focus"",""99"",""777019""
""focus"",""100"",""784562""
","""event"",""trial"",""time""
""fullscreenenter"",""1"",""2511""
","""event"",""trial"",""time""
""fullscreenexit"",""36"",""392139""
","","[{""page_index"":0,""viewing_time"":2494.2000000029802}]","2494.3999999910593","","","","","","","","","","","","","","","","","","","","","","","",""
"pit-instructions","120","977215","0.0-2.0-24.0-2.0-0.0","battery-v0.2","","""event"",""trial"",""time""
""fullscreenenter"",""1"",""2511""
""fullscreenexit"",""36"",""392139""
""blur"",""97"",""771235""
""focus"",""98"",""771243""
""blur"",""98"",""775351""
""focus"",""99"",""777019""
""blur"",""100"",""783015""
""focus"",""100"",""784562""
","""event"",""trial"",""time""
""blur"",""97"",""771235""
""blur"",""98"",""775351""
""blur"",""100"",""783015""
","""event"",""trial"",""time""
""focus"",""98"",""771243""
""focus"",""99"",""777019""
""focus"",""100"",""784562""
","""event"",""trial"",""time""
""fullscreenenter"",""1"",""2511""
","""event"",""trial"",""time""
""fullscreenexit"",""36"",""392139""
","","[{""page_index"":0,""viewing_time"":726.2999999970198}]","726.5","","","","","","","","","","","","","","","","","","","","","","","",""
"pit-comprehension","121","986591","0.0-2.0-24.1-0.1","battery-v0.2","","""event"",""trial"",""time""
""fullscreenenter"",""1"",""2511""
""fullscreenexit"",""36"",""392139""
""blur"",""97"",""771235""
""focus"",""98"",""771243""
""blur"",""98"",""775351""
""focus"",""99"",""777019""
""blur"",""100"",""783015""
""focus"",""100"",""784562""
","""event"",""trial"",""time""
""blur"",""97"",""771235""
""blur"",""98"",""775351""
""blur"",""100"",""783015""
","""event"",""trial"",""time""
""focus"",""98"",""771243""
""focus"",""99"",""777019""
""focus"",""100"",""784562""
","""event"",""trial"",""time""
""fullscreenenter"",""1"",""2511""
","""event"",""trial"",""time""
""fullscreenexit"",""36"",""392139""
","","","9373.800000011921","[""True""]","0","16","8112","2223","","","","","","","","","","","","","","","","","","",""
"pit-instructions","122","987823","0.0-2.0-24.1-1.1","battery-v0.2","","""event"",""trial"",""time""
""fullscreenenter"",""1"",""2511""
""fullscreenexit"",""36"",""392139""
""blur"",""97"",""771235""
""focus"",""98"",""771243""
""blur"",""98"",""775351""
""focus"",""99"",""777019""
""blur"",""100"",""783015""
""focus"",""100"",""784562""
","""event"",""trial"",""time""
""blur"",""97"",""771235""
""blur"",""98"",""775351""
""blur"",""100"",""783015""
","""event"",""trial"",""time""
""focus"",""98"",""771243""
""focus"",""99"",""777019""
""focus"",""100"",""784562""
","""event"",""trial"",""time""
""fullscreenenter"",""1"",""2511""
","""event"",""trial"",""time""
""fullscreenexit"",""36"",""392139""
","","[{""page_index"":0,""viewing_time"":1189.6000000089407}]","1189.9000000059605","","","","","","","","","","","","","","","","","","","","","","","",""
"pit-comprehension","123","997497","0.0-2.0-25.0-0.0","battery-v0.2","","""event"",""trial"",""time""
""fullscreenenter"",""1"",""2511""
""fullscreenexit"",""36"",""392139""
""blur"",""97"",""771235""
""focus"",""98"",""771243""
""blur"",""98"",""775351""
""focus"",""99"",""777019""
""blur"",""100"",""783015""
""focus"",""100"",""784562""
","""event"",""trial"",""time""
""blur"",""97"",""771235""
""blur"",""98"",""775351""
""blur"",""100"",""783015""
","""event"",""trial"",""time""
""focus"",""98"",""771243""
""focus"",""99"",""777019""
""focus"",""100"",""784562""
","""event"",""trial"",""time""
""fullscreenenter"",""1"",""2511""
","""event"",""trial"",""time""
""fullscreenexit"",""36"",""392139""
","","","9670.79999999702","[""True""]","0","16","8112","2223","","","","","","","","","","","","","","","","","","",""
"pit-instructions","124","999655","0.0-2.0-25.0-1.0","battery-v0.2","","""event"",""trial"",""time""
""fullscreenenter"",""1"",""2511""
""fullscreenexit"",""36"",""392139""
""blur"",""97"",""771235""
""focus"",""98"",""771243""
""blur"",""98"",""775351""
""focus"",""99"",""777019""
""blur"",""100"",""783015""
""focus"",""100"",""784562""
","""event"",""trial"",""time""
""blur"",""97"",""771235""
""blur"",""98"",""775351""
""blur"",""100"",""783015""
","""event"",""trial"",""time""
""focus"",""98"",""771243""
""focus"",""99"",""777019""
""focus"",""100"",""784562""
","""event"",""trial"",""time""
""fullscreenenter"",""1"",""2511""
","""event"",""trial"",""time""
""fullscreenexit"",""36"",""392139""
","","[{""page_index"":0,""viewing_time"":2115.7999999970198}]","2116","","","","","","","","","","","","","","","","","","","","","","","",""
"pit-comprehension","125","1006151","0.0-2.0-26.0-0.0","battery-v0.2","","""event"",""trial"",""time""
""fullscreenenter"",""1"",""2511""
""fullscreenexit"",""36"",""392139""
""blur"",""97"",""771235""
""focus"",""98"",""771243""
""blur"",""98"",""775351""
""focus"",""99"",""777019""
""blur"",""100"",""783015""
""focus"",""100"",""784562""
","""event"",""trial"",""time""
""blur"",""97"",""771235""
""blur"",""98"",""775351""
""blur"",""100"",""783015""
","""event"",""trial"",""time""
""focus"",""98"",""771243""
""focus"",""99"",""777019""
""focus"",""100"",""784562""
","""event"",""trial"",""time""
""fullscreenenter"",""1"",""2511""
","""event"",""trial"",""time""
""fullscreenexit"",""36"",""392139""
","","","6494.0999999940395","[""False""]","0","16","8112","2223","","","","","","","","","","","","","","","","","","",""
"pit-instructions","126","1007719","0.0-2.0-26.0-1.0","battery-v0.2","","""event"",""trial"",""time""
""fullscreenenter"",""1"",""2511""
""fullscreenexit"",""36"",""392139""
""blur"",""97"",""771235""
""focus"",""98"",""771243""
""blur"",""98"",""775351""
""focus"",""99"",""777019""
""blur"",""100"",""783015""
""focus"",""100"",""784562""
","""event"",""trial"",""time""
""blur"",""97"",""771235""
""blur"",""98"",""775351""
""blur"",""100"",""783015""
","""event"",""trial"",""time""
""focus"",""98"",""771243""
""focus"",""99"",""777019""
""focus"",""100"",""784562""
","""event"",""trial"",""time""
""fullscreenenter"",""1"",""2511""
","""event"",""trial"",""time""
""fullscreenexit"",""36"",""392139""
","","[{""page_index"":0,""viewing_time"":1521.5}]","1521.8999999910593","","","","","","","","","","","","","","","","","","","","","","","",""
"pit-instructions","127","1024791","0.0-3.0","battery-v0.2","","""event"",""trial"",""time""
""fullscreenenter"",""1"",""2511""
""fullscreenexit"",""36"",""392139""
""blur"",""97"",""771235""
""focus"",""98"",""771243""
""blur"",""98"",""775351""
""focus"",""99"",""777019""
""blur"",""100"",""783015""
""focus"",""100"",""784562""
","""event"",""trial"",""time""
""blur"",""97"",""771235""
""blur"",""98"",""775351""
""blur"",""100"",""783015""
","""event"",""trial"",""time""
""focus"",""98"",""771243""
""focus"",""99"",""777019""
""focus"",""100"",""784562""
","""event"",""trial"",""time""
""fullscreenenter"",""1"",""2511""
","""event"",""trial"",""time""
""fullscreenexit"",""36"",""392139""
","","[{""page_index"":0,""viewing_time"":5909.899999991059},{""page_index"":1,""viewing_time"":5127.5},{""page_index"":2,""viewing_time"":6031.9000000059605}]","17069.39999999106","","","","","","","","","","","","","","","","","","","","","","","",""
"pit-trial","128","1028333","0.0-4.0","battery-v0.2","","""event"",""trial"",""time""
""fullscreenenter"",""1"",""2511""
""fullscreenexit"",""36"",""392139""
""blur"",""97"",""771235""
""focus"",""98"",""771243""
""blur"",""98"",""775351""
""focus"",""99"",""777019""
""blur"",""100"",""783015""
""focus"",""100"",""784562""
","""event"",""trial"",""time""
""blur"",""97"",""771235""
""blur"",""98"",""775351""
""blur"",""100"",""783015""
","""event"",""trial"",""time""
""focus"",""98"",""771243""
""focus"",""99"",""777019""
""focus"",""100"",""784562""
","""event"",""trial"",""time""
""fullscreenenter"",""1"",""2511""
","""event"",""trial"",""time""
""fullscreenexit"",""36"",""392139""
","","","675.8999999910593","","","16","8112","2223","&#9752;","elianto","#f73b6a7A"," "," ","1","0","[1528]","1","1","","","8112","1","3","3","lose","go","0"
"pit-trial","129","1031779","0.0-5.0","battery-v0.2","","""event"",""trial"",""time""
""fullscreenenter"",""1"",""2511""
""fullscreenexit"",""36"",""392139""
""blur"",""97"",""771235""
""focus"",""98"",""771243""
""blur"",""98"",""775351""
""focus"",""99"",""777019""
""blur"",""100"",""783015""
""focus"",""100"",""784562""
","""event"",""trial"",""time""
""blur"",""97"",""771235""
""blur"",""98"",""775351""
""blur"",""100"",""783015""
","""event"",""trial"",""time""
""focus"",""98"",""771243""
""focus"",""99"",""777019""
""focus"",""100"",""784562""
","""event"",""trial"",""time""
""fullscreenenter"",""1"",""2511""
","""event"",""trial"",""time""
""fullscreenexit"",""36"",""392139""
","","","584.8999999910593","","","16","8112","2223","&#9728;","elianto","#f73b6a7A","-1"," ","0","0","[1443.8999999910593]","1","1","","","8112","2","0","4","lose","no-go","1"
"pit-trial","130","1035577","0.0-6.0","battery-v0.2","","""event"",""trial"",""time""
""fullscreenenter"",""1"",""2511""
""fullscreenexit"",""36"",""392139""
""blur"",""97"",""771235""
""focus"",""98"",""771243""
""blur"",""98"",""775351""
""focus"",""99"",""777019""
""blur"",""100"",""783015""
""focus"",""100"",""784562""
","""event"",""trial"",""time""
""blur"",""97"",""771235""
""blur"",""98"",""775351""
""blur"",""100"",""783015""
","""event"",""trial"",""time""
""focus"",""98"",""771243""
""focus"",""99"",""777019""
""focus"",""100"",""784562""
","""event"",""trial"",""time""
""fullscreenenter"",""1"",""2511""
","""event"",""trial"",""time""
""fullscreenexit"",""36"",""392139""
","","","932.5","","","16","8112","2223","&#9733;","elianto","#3366ff99","-1"," ","0","0","[1782.5]","1","1","","","8112","3","2","2","win","no-go","0"
"pit-trial","131","1039264","0.0-7.0","battery-v0.2","","""event"",""trial"",""time""
""fullscreenenter"",""1"",""2511""
""fullscreenexit"",""36"",""392139""
""blur"",""97"",""771235""
""focus"",""98"",""771243""
""blur"",""98"",""775351""
""focus"",""99"",""777019""
""blur"",""100"",""783015""
""focus"",""100"",""784562""
","""event"",""trial"",""time""
""blur"",""97"",""771235""
""blur"",""98"",""775351""
""blur"",""100"",""783015""
","""event"",""trial"",""time""
""focus"",""98"",""771243""
""focus"",""99"",""777019""
""focus"",""100"",""784562""
","""event"",""trial"",""time""
""fullscreenenter"",""1"",""2511""
","""event"",""trial"",""time""
""fullscreenexit"",""36"",""392139""
","","","816.2999999970198","","","16","8112","2223","&#9730;","elianto","#3366ff99"," "," ","1","+10","[1672.2999999970198]","1","1","","","8112","4","1","1","win","go","0"
"pit-trial","132","1044140","0.0-8.0","battery-v0.2","","""event"",""trial"",""time""
""fullscreenenter"",""1"",""2511""
""fullscreenexit"",""36"",""392139""
""blur"",""97"",""771235""
""focus"",""98"",""771243""
""blur"",""98"",""775351""
""focus"",""99"",""777019""
""blur"",""100"",""783015""
""focus"",""100"",""784562""
","""event"",""trial"",""time""
""blur"",""97"",""771235""
""blur"",""98"",""775351""
""blur"",""100"",""783015""
","""event"",""trial"",""time""
""focus"",""98"",""771243""
""focus"",""99"",""777019""
""focus"",""100"",""784562""
","""event"",""trial"",""time""
""fullscreenenter"",""1"",""2511""
","""event"",""trial"",""time""
""fullscreenexit"",""36"",""392139""
","","","-1","","","16","8112","2223","&#9733;","elianto","#3366ff99","-1","-1","1","+10","[3544.7999999970198]","1","1","","","8112","5","2","2","win","no-go","0"
"pit-trial","133","1048224","0.0-9.0","battery-v0.2","","""event"",""trial"",""time""
""fullscreenenter"",""1"",""2511""
""fullscreenexit"",""36"",""392139""
""blur"",""97"",""771235""
""focus"",""98"",""771243""
""blur"",""98"",""775351""
""focus"",""99"",""777019""
""blur"",""100"",""783015""
""focus"",""100"",""784562""
","""event"",""trial"",""time""
""blur"",""97"",""771235""
""blur"",""98"",""775351""
""blur"",""100"",""783015""
","""event"",""trial"",""time""
""focus"",""98"",""771243""
""focus"",""99"",""777019""
""focus"",""100"",""784562""
","""event"",""trial"",""time""
""fullscreenenter"",""1"",""2511""
","""event"",""trial"",""time""
""fullscreenexit"",""36"",""392139""
","","","1226.2000000029802","","","16","8112","2223","&#9730;","elianto","#3366ff99"," "," ","1","+10","[2078]","1","1","","","8112","6","1","1","win","go","0"
"pit-trial","134","1053094","0.0-10.0","battery-v0.2","","""event"",""trial"",""time""
""fullscreenenter"",""1"",""2511""
""fullscreenexit"",""36"",""392139""
""blur"",""97"",""771235""
""focus"",""98"",""771243""
""blur"",""98"",""775351""
""focus"",""99"",""777019""
""blur"",""100"",""783015""
""focus"",""100"",""784562""
","""event"",""trial"",""time""
""blur"",""97"",""771235""
""blur"",""98"",""775351""
""blur"",""100"",""783015""
","""event"",""trial"",""time""
""focus"",""98"",""771243""
""focus"",""99"",""777019""
""focus"",""100"",""784562""
","""event"",""trial"",""time""
""fullscreenenter"",""1"",""2511""
","""event"",""trial"",""time""
""fullscreenexit"",""36"",""392139""
","","","-1","","","16","8112","2223","&#9752;","elianto","#f73b6a7A"," ","-1","0","0","[]","0","1","","","8112","7","3","3","lose","go","1"
"pit-trial","135","1057947","0.0-11.0","battery-v0.2","","""event"",""trial"",""time""
""fullscreenenter"",""1"",""2511""
""fullscreenexit"",""36"",""392139""
""blur"",""97"",""771235""
""focus"",""98"",""771243""
""blur"",""98"",""775351""
""focus"",""99"",""777019""
""blur"",""100"",""783015""
""focus"",""100"",""784562""
","""event"",""trial"",""time""
""blur"",""97"",""771235""
""blur"",""98"",""775351""
""blur"",""100"",""783015""
","""event"",""trial"",""time""
""focus"",""98"",""771243""
""focus"",""99"",""777019""
""focus"",""100"",""784562""
","""event"",""trial"",""time""
""fullscreenenter"",""1"",""2511""
","""event"",""trial"",""time""
""fullscreenexit"",""36"",""392139""
","","","-1","","","16","8112","2223","&#9728;","elianto","#f73b6a7A","-1","-1","1","-10","[]","0","1","","","8112","8","0","4","lose","no-go","1"
"pit-trial","136","1061668","0.0-12.0","battery-v0.2","","""event"",""trial"",""time""
""fullscreenenter"",""1"",""2511""
""fullscreenexit"",""36"",""392139""
""blur"",""97"",""771235""
""focus"",""98"",""771243""
""blur"",""98"",""775351""
""focus"",""99"",""777019""
""blur"",""100"",""783015""
""focus"",""100"",""784562""
","""event"",""trial"",""time""
""blur"",""97"",""771235""
""blur"",""98"",""775351""
""blur"",""100"",""783015""
","""event"",""trial"",""time""
""focus"",""98"",""771243""
""focus"",""99"",""777019""
""focus"",""100"",""784562""
","""event"",""trial"",""time""
""fullscreenenter"",""1"",""2511""
","""event"",""trial"",""time""
""fullscreenexit"",""36"",""392139""
","","","868.5","","","16","8112","2223","&#9730;","elianto","#3366ff99"," "," ","1","0","[1719.5999999940395]","1","1","","","8112","9","1","1","win","go","1"
"pit-trial","137","1066522","0.0-13.0","battery-v0.2","","""event"",""trial"",""time""
""fullscreenenter"",""1"",""2511""
""fullscreenexit"",""36"",""392139""
""blur"",""97"",""771235""
""focus"",""98"",""771243""
""blur"",""98"",""775351""
""focus"",""99"",""777019""
""blur"",""100"",""783015""
""focus"",""100"",""784562""
","""event"",""trial"",""time""
""blur"",""97"",""771235""
""blur"",""98"",""775351""
""blur"",""100"",""783015""
","""event"",""trial"",""time""
""focus"",""98"",""771243""
""focus"",""99"",""777019""
""focus"",""100"",""784562""
","""event"",""trial"",""time""
""fullscreenenter"",""1"",""2511""
","""event"",""trial"",""time""
""fullscreenexit"",""36"",""392139""
","","","-1","","","16","8112","2223","&#9728;","elianto","#f73b6a7A","-1","-1","1","0","[]","0","1","","","8112","10","0","4","lose","no-go","0"
"pit-trial","138","1071375","0.0-14.0","battery-v0.2","","""event"",""trial"",""time""
""fullscreenenter"",""1"",""2511""
""fullscreenexit"",""36"",""392139""
""blur"",""97"",""771235""
""focus"",""98"",""771243""
""blur"",""98"",""775351""
""focus"",""99"",""777019""
""blur"",""100"",""783015""
""focus"",""100"",""784562""
","""event"",""trial"",""time""
""blur"",""97"",""771235""
""blur"",""98"",""775351""
""blur"",""100"",""783015""
","""event"",""trial"",""time""
""focus"",""98"",""771243""
""focus"",""99"",""777019""
""focus"",""100"",""784562""
","""event"",""trial"",""time""
""fullscreenenter"",""1"",""2511""
","""event"",""trial"",""time""
""fullscreenexit"",""36"",""392139""
","","","-1","","","16","8112","2223","&#9733;","elianto","#3366ff99","-1","-1","1","+10","[3181.9000000059605]","1","1","","","8112","11","2","2","win","no-go","0"
"pit-trial","139","1076228","0.0-15.0","battery-v0.2","","""event"",""trial"",""time""
""fullscreenenter"",""1"",""2511""
""fullscreenexit"",""36"",""392139""
""blur"",""97"",""771235""
""focus"",""98"",""771243""
""blur"",""98"",""775351""
""focus"",""99"",""777019""
""blur"",""100"",""783015""
""focus"",""100"",""784562""
","""event"",""trial"",""time""
""blur"",""97"",""771235""
""blur"",""98"",""775351""
""blur"",""100"",""783015""
","""event"",""trial"",""time""
""focus"",""98"",""771243""
""focus"",""99"",""777019""
""focus"",""100"",""784562""
","""event"",""trial"",""time""
""fullscreenenter"",""1"",""2511""
","""event"",""trial"",""time""
""fullscreenexit"",""36"",""392139""
","","","-1","","","16","8112","2223","&#9752;","elianto","#f73b6a7A"," ","-1","0","0","[]","0","1","","","8112","12","3","3","lose","go","1"
"pit-trial","140","1079610","0.0-16.0","battery-v0.2","","""event"",""trial"",""time""
""fullscreenenter"",""1"",""2511""
""fullscreenexit"",""36"",""392139""
""blur"",""97"",""771235""
""focus"",""98"",""771243""
""blur"",""98"",""775351""
""focus"",""99"",""777019""
""blur"",""100"",""783015""
""focus"",""100"",""784562""
","""event"",""trial"",""time""
""blur"",""97"",""771235""
""blur"",""98"",""775351""
""blur"",""100"",""783015""
","""event"",""trial"",""time""
""focus"",""98"",""771243""
""focus"",""99"",""777019""
""focus"",""100"",""784562""
","""event"",""trial"",""time""
""fullscreenenter"",""1"",""2511""
","""event"",""trial"",""time""
""fullscreenexit"",""36"",""392139""
","","","530.4000000059605","","","16","8112","2223","&#9752;","elianto","#f73b6a7A"," "," ","1","-10","[1381.2000000029802]","1","1","","","8112","13","3","3","lose","go","1"
"pit-trial","141","1084463","0.0-17.0","battery-v0.2","","""event"",""trial"",""time""
""fullscreenenter"",""1"",""2511""
""fullscreenexit"",""36"",""392139""
""blur"",""97"",""771235""
""focus"",""98"",""771243""
""blur"",""98"",""775351""
""focus"",""99"",""777019""
""blur"",""100"",""783015""
""focus"",""100"",""784562""
","""event"",""trial"",""time""
""blur"",""97"",""771235""
""blur"",""98"",""775351""
""blur"",""100"",""783015""
","""event"",""trial"",""time""
""focus"",""98"",""771243""
""focus"",""99"",""777019""
""focus"",""100"",""784562""
","""event"",""trial"",""time""
""fullscreenenter"",""1"",""2511""
","""event"",""trial"",""time""
""fullscreenexit"",""36"",""392139""
","","","-1","","","16","8112","2223","&#9728;","elianto","#f73b6a7A","-1","-1","1","0","[]","0","1","","","8112","14","0","4","lose","no-go","0"
"pit-trial","142","1087987","0.0-18.0","battery-v0.2","","""event"",""trial"",""time""
""fullscreenenter"",""1"",""2511""
""fullscreenexit"",""36"",""392139""
""blur"",""97"",""771235""
""focus"",""98"",""771243""
""blur"",""98"",""775351""
""focus"",""99"",""777019""
""blur"",""100"",""783015""
""focus"",""100"",""784562""
","""event"",""trial"",""time""
""blur"",""97"",""771235""
""blur"",""98"",""775351""
""blur"",""100"",""783015""
","""event"",""trial"",""time""
""focus"",""98"",""771243""
""focus"",""99"",""777019""
""focus"",""100"",""784562""
","""event"",""trial"",""time""
""fullscreenenter"",""1"",""2511""
","""event"",""trial"",""time""
""fullscreenexit"",""36"",""392139""
","","","670.8000000119209","","","16","8112","2223","&#9730;","elianto","#3366ff99"," "," ","1","0","[1522.6000000089407]","1","1","","","8112","15","1","1","win","go","1"
"pit-trial","143","1091995","0.0-19.0","battery-v0.2","","""event"",""trial"",""time""
""fullscreenenter"",""1"",""2511""
""fullscreenexit"",""36"",""392139""
""blur"",""97"",""771235""
""focus"",""98"",""771243""
""blur"",""98"",""775351""
""focus"",""99"",""777019""
""blur"",""100"",""783015""
""focus"",""100"",""784562""
","""event"",""trial"",""time""
""blur"",""97"",""771235""
""blur"",""98"",""775351""
""blur"",""100"",""783015""
","""event"",""trial"",""time""
""focus"",""98"",""771243""
""focus"",""99"",""777019""
""focus"",""100"",""784562""
","""event"",""trial"",""time""
""fullscreenenter"",""1"",""2511""
","""event"",""trial"",""time""
""fullscreenexit"",""36"",""392139""
","","","1154.699999988079","","","16","8112","2223","&#9733;","elianto","#3366ff99","-1"," ","0","0","[2005.5]","1","1","","","8112","16","2","2","win","no-go","0"
"pit-trial","144","1096848","0.0-20.0","battery-v0.2","","""event"",""trial"",""time""
""fullscreenenter"",""1"",""2511""
""fullscreenexit"",""36"",""392139""
""blur"",""97"",""771235""
""focus"",""98"",""771243""
""blur"",""98"",""775351""
""focus"",""99"",""777019""
""blur"",""100"",""783015""
""focus"",""100"",""784562""
","""event"",""trial"",""time""
""blur"",""97"",""771235""
""blur"",""98"",""775351""
""blur"",""100"",""783015""
","""event"",""trial"",""time""
""focus"",""98"",""771243""
""focus"",""99"",""777019""
""focus"",""100"",""784562""
","""event"",""trial"",""time""
""fullscreenenter"",""1"",""2511""
","""event"",""trial"",""time""
""fullscreenexit"",""36"",""392139""
","","","-1","","","16","8112","2223","&#9733;","elianto","#3366ff99","-1","-1","1","+10","[3285.2000000029802]","1","1","","","8112","17","2","2","win","no-go","0"
"pit-trial","145","1101701","0.0-21.0","battery-v0.2","","""event"",""trial"",""time""
""fullscreenenter"",""1"",""2511""
""fullscreenexit"",""36"",""392139""
""blur"",""97"",""771235""
""focus"",""98"",""771243""
""blur"",""98"",""775351""
""focus"",""99"",""777019""
""blur"",""100"",""783015""
""focus"",""100"",""784562""
","""event"",""trial"",""time""
""blur"",""97"",""771235""
""blur"",""98"",""775351""
""blur"",""100"",""783015""
","""event"",""trial"",""time""
""focus"",""98"",""771243""
""focus"",""99"",""777019""
""focus"",""100"",""784562""
","""event"",""trial"",""time""
""fullscreenenter"",""1"",""2511""
","""event"",""trial"",""time""
""fullscreenexit"",""36"",""392139""
","","","-1","","","16","8112","2223","&#9728;","elianto","#f73b6a7A","-1","-1","1","0","[]","0","1","","","8112","18","0","4","lose","no-go","0"
"pit-trial","146","1106554","0.0-22.0","battery-v0.2","","""event"",""trial"",""time""
""fullscreenenter"",""1"",""2511""
""fullscreenexit"",""36"",""392139""
""blur"",""97"",""771235""
""focus"",""98"",""771243""
""blur"",""98"",""775351""
""focus"",""99"",""777019""
""blur"",""100"",""783015""
""focus"",""100"",""784562""
","""event"",""trial"",""time""
""blur"",""97"",""771235""
""blur"",""98"",""775351""
""blur"",""100"",""783015""
","""event"",""trial"",""time""
""focus"",""98"",""771243""
""focus"",""99"",""777019""
""focus"",""100"",""784562""
","""event"",""trial"",""time""
""fullscreenenter"",""1"",""2511""
","""event"",""trial"",""time""
""fullscreenexit"",""36"",""392139""
","","","-1","","","16","8112","2223","&#9752;","elianto","#f73b6a7A"," ","-1","0","-10","[]","0","1","","","8112","19","3","3","lose","go","0"
"pit-trial","147","1110156","0.0-23.0","battery-v0.2","","""event"",""trial"",""time""
""fullscreenenter"",""1"",""2511""
""fullscreenexit"",""36"",""392139""
""blur"",""97"",""771235""
""focus"",""98"",""771243""
""blur"",""98"",""775351""
""focus"",""99"",""777019""
""blur"",""100"",""783015""
""focus"",""100"",""784562""
","""event"",""trial"",""time""
""blur"",""97"",""771235""
""blur"",""98"",""775351""
""blur"",""100"",""783015""
","""event"",""trial"",""time""
""focus"",""98"",""771243""
""focus"",""99"",""777019""
""focus"",""100"",""784562""
","""event"",""trial"",""time""
""fullscreenenter"",""1"",""2511""
","""event"",""trial"",""time""
""fullscreenexit"",""36"",""392139""
","","","748.5","","","16","8112","2223","&#9730;","elianto","#3366ff99"," "," ","1","+10","[1598.9000000059605]","1","1","","","8112","20","1","1","win","go","0"
"pit-instructions","148","1122832","0.0-24.0","battery-v0.2","","""event"",""trial"",""time""
""fullscreenenter"",""1"",""2511""
""fullscreenexit"",""36"",""392139""
""blur"",""97"",""771235""
""focus"",""98"",""771243""
""blur"",""98"",""775351""
""focus"",""99"",""777019""
""blur"",""100"",""783015""
""focus"",""100"",""784562""
""blur"",""149"",""1126055""
","""event"",""trial"",""time""
""blur"",""97"",""771235""
""blur"",""98"",""775351""
""blur"",""100"",""783015""
""blur"",""149"",""1126055""
","""event"",""trial"",""time""
""focus"",""98"",""771243""
""focus"",""99"",""777019""
""focus"",""100"",""784562""
","""event"",""trial"",""time""
""fullscreenenter"",""1"",""2511""
","""event"",""trial"",""time""
""fullscreenexit"",""36"",""392139""
","","[{""page_index"":0,""viewing_time"":5713.5999999940395},{""page_index"":1,""viewing_time"":6960.4000000059605}]","12674.29999999702","","","","","","","","","","","","","","","","","","","","","","","",""
"pit-trial","149","1127699","0.0-25.0","battery-v0.2","","""event"",""trial"",""time""
""fullscreenenter"",""1"",""2511""
""fullscreenexit"",""36"",""392139""
""blur"",""97"",""771235""
""focus"",""98"",""771243""
""blur"",""98"",""775351""
""focus"",""99"",""777019""
""blur"",""100"",""783015""
""focus"",""100"",""784562""
""blur"",""149"",""1126055""
""focus"",""150"",""1128530""
","""event"",""trial"",""time""
""blur"",""97"",""771235""
""blur"",""98"",""775351""
""blur"",""100"",""783015""
""blur"",""149"",""1126055""
","""event"",""trial"",""time""
""focus"",""98"",""771243""
""focus"",""99"",""777019""
""focus"",""100"",""784562""
""focus"",""150"",""1128530""
","""event"",""trial"",""time""
""fullscreenenter"",""1"",""2511""
","""event"",""trial"",""time""
""fullscreenexit"",""36"",""392139""
","","","-1","","","16","8112","2223","b","elianto","#f73b6a7A","-1","-1","1","0","[]","0","2","","","8112","21","3","4","lose","no-go","0"
"pit-trial","150","1131659","0.0-26.0","battery-v0.2","","""event"",""trial"",""time""
""fullscreenenter"",""1"",""2511""
""fullscreenexit"",""36"",""392139""
""blur"",""97"",""771235""
""focus"",""98"",""771243""
""blur"",""98"",""775351""
""focus"",""99"",""777019""
""blur"",""100"",""783015""
""focus"",""100"",""784562""
""blur"",""149"",""1126055""
""focus"",""150"",""1128530""
","""event"",""trial"",""time""
""blur"",""97"",""771235""
""blur"",""98"",""775351""
""blur"",""100"",""783015""
""blur"",""149"",""1126055""
","""event"",""trial"",""time""
""focus"",""98"",""771243""
""focus"",""99"",""777019""
""focus"",""100"",""784562""
""focus"",""150"",""1128530""
","""event"",""trial"",""time""
""fullscreenenter"",""1"",""2511""
","""event"",""trial"",""time""
""fullscreenexit"",""36"",""392139""
","","","1108.0999999940395","","","16","8112","2223","f","elianto","#3366ff99","-1"," ","0","+10","[1958.2000000029802]","1","2","","","8112","22","1","2","win","no-go","1"
"pit-trial","151","1135226","0.0-27.0","battery-v0.2","","""event"",""trial"",""time""
""fullscreenenter"",""1"",""2511""
""fullscreenexit"",""36"",""392139""
""blur"",""97"",""771235""
""focus"",""98"",""771243""
""blur"",""98"",""775351""
""focus"",""99"",""777019""
""blur"",""100"",""783015""
""focus"",""100"",""784562""
""blur"",""149"",""1126055""
""focus"",""150"",""1128530""
","""event"",""trial"",""time""
""blur"",""97"",""771235""
""blur"",""98"",""775351""
""blur"",""100"",""783015""
""blur"",""149"",""1126055""
","""event"",""trial"",""time""
""focus"",""98"",""771243""
""focus"",""99"",""777019""
""focus"",""100"",""784562""
""focus"",""150"",""1128530""
","""event"",""trial"",""time""
""fullscreenenter"",""1"",""2511""
","""event"",""trial"",""time""
""fullscreenexit"",""36"",""392139""
","","","712.5","","","16","8112","2223","t","elianto","#f73b6a7A"," "," ","1","0","[1564.699999988079]","1","2","","","8112","23","2","3","lose","go","0"
"pit-trial","152","1140090","0.0-28.0","battery-v0.2","","""event"",""trial"",""time""
""fullscreenenter"",""1"",""2511""
""fullscreenexit"",""36"",""392139""
""blur"",""97"",""771235""
""focus"",""98"",""771243""
""blur"",""98"",""775351""
""focus"",""99"",""777019""
""blur"",""100"",""783015""
""focus"",""100"",""784562""
""blur"",""149"",""1126055""
""focus"",""150"",""1128530""
","""event"",""trial"",""time""
""blur"",""97"",""771235""
""blur"",""98"",""775351""
""blur"",""100"",""783015""
""blur"",""149"",""1126055""
","""event"",""trial"",""time""
""focus"",""98"",""771243""
""focus"",""99"",""777019""
""focus"",""100"",""784562""
""focus"",""150"",""1128530""
","""event"",""trial"",""time""
""fullscreenenter"",""1"",""2511""
","""event"",""trial"",""time""
""fullscreenexit"",""36"",""392139""
","","","-1","","","16","8112","2223","n","elianto","#f73b6a7A"," ","-1","0","-10","[]","0","2","","","8112","24","0","3","lose","go","0"
"pit-trial","153","1144945","0.0-29.0","battery-v0.2","","""event"",""trial"",""time""
""fullscreenenter"",""1"",""2511""
""fullscreenexit"",""36"",""392139""
""blur"",""97"",""771235""
""focus"",""98"",""771243""
""blur"",""98"",""775351""
""focus"",""99"",""777019""
""blur"",""100"",""783015""
""focus"",""100"",""784562""
""blur"",""149"",""1126055""
""focus"",""150"",""1128530""
","""event"",""trial"",""time""
""blur"",""97"",""771235""
""blur"",""98"",""775351""
""blur"",""100"",""783015""
""blur"",""149"",""1126055""
","""event"",""trial"",""time""
""focus"",""98"",""771243""
""focus"",""99"",""777019""
""focus"",""100"",""784562""
""focus"",""150"",""1128530""
","""event"",""trial"",""time""
""fullscreenenter"",""1"",""2511""
","""event"",""trial"",""time""
""fullscreenexit"",""36"",""392139""
","","","-1","","","16","8112","2223","n","elianto","#f73b6a7A"," ","-1","0","-10","[]","0","2","","","8112","25","0","3","lose","go","0"
"pit-trial","154","1148645","0.0-30.0","battery-v0.2","","""event"",""trial"",""time""
""fullscreenenter"",""1"",""2511""
""fullscreenexit"",""36"",""392139""
""blur"",""97"",""771235""
""focus"",""98"",""771243""
""blur"",""98"",""775351""
""focus"",""99"",""777019""
""blur"",""100"",""783015""
""focus"",""100"",""784562""
""blur"",""149"",""1126055""
""focus"",""150"",""1128530""
","""event"",""trial"",""time""
""blur"",""97"",""771235""
""blur"",""98"",""775351""
""blur"",""100"",""783015""
""blur"",""149"",""1126055""
","""event"",""trial"",""time""
""focus"",""98"",""771243""
""focus"",""99"",""777019""
""focus"",""100"",""784562""
""focus"",""150"",""1128530""
","""event"",""trial"",""time""
""fullscreenenter"",""1"",""2511""
","""event"",""trial"",""time""
""fullscreenexit"",""36"",""392139""
","","","844.8999999910593","","","16","8112","2223","f","elianto","#3366ff99","-1"," ","0","0","[1694.9000000059605]","1","2","","","8112","26","1","2","win","no-go","0"
"pit-trial","155","1153510","0.0-31.0","battery-v0.2","","""event"",""trial"",""time""
""fullscreenenter"",""1"",""2511""
""fullscreenexit"",""36"",""392139""
""blur"",""97"",""771235""
""focus"",""98"",""771243""
""blur"",""98"",""775351""
""focus"",""99"",""777019""
""blur"",""100"",""783015""
""focus"",""100"",""784562""
""blur"",""149"",""1126055""
""focus"",""150"",""1128530""
","""event"",""trial"",""time""
""blur"",""97"",""771235""
""blur"",""98"",""775351""
""blur"",""100"",""783015""
""blur"",""149"",""1126055""
","""event"",""trial"",""time""
""focus"",""98"",""771243""
""focus"",""99"",""777019""
""focus"",""100"",""784562""
""focus"",""150"",""1128530""
","""event"",""trial"",""time""
""fullscreenenter"",""1"",""2511""
","""event"",""trial"",""time""
""fullscreenexit"",""36"",""392139""
","","","-1","","","16","8112","2223","b","elianto","#f73b6a7A","-1","-1","1","0","[]","0","2","","","8112","27","3","4","lose","no-go","0"
"pit-trial","156","1158364","0.0-32.0","battery-v0.2","","""event"",""trial"",""time""
""fullscreenenter"",""1"",""2511""
""fullscreenexit"",""36"",""392139""
""blur"",""97"",""771235""
""focus"",""98"",""771243""
""blur"",""98"",""775351""
""focus"",""99"",""777019""
""blur"",""100"",""783015""
""focus"",""100"",""784562""
""blur"",""149"",""1126055""
""focus"",""150"",""1128530""
","""event"",""trial"",""time""
""blur"",""97"",""771235""
""blur"",""98"",""775351""
""blur"",""100"",""783015""
""blur"",""149"",""1126055""
","""event"",""trial"",""time""
""focus"",""98"",""771243""
""focus"",""99"",""777019""
""focus"",""100"",""784562""
""focus"",""150"",""1128530""
","""event"",""trial"",""time""
""fullscreenenter"",""1"",""2511""
","""event"",""trial"",""time""
""fullscreenexit"",""36"",""392139""
","","","-1","","","16","8112","2223","t","elianto","#f73b6a7A"," ","-1","0","-10","[]","0","2","","","8112","28","2","3","lose","go","0"
"pit-trial","157","1163216","0.0-33.0","battery-v0.2","","""event"",""trial"",""time""
""fullscreenenter"",""1"",""2511""
""fullscreenexit"",""36"",""392139""
""blur"",""97"",""771235""
""focus"",""98"",""771243""
""blur"",""98"",""775351""
""focus"",""99"",""777019""
""blur"",""100"",""783015""
""focus"",""100"",""784562""
""blur"",""149"",""1126055""
""focus"",""150"",""1128530""
","""event"",""trial"",""time""
""blur"",""97"",""771235""
""blur"",""98"",""775351""
""blur"",""100"",""783015""
""blur"",""149"",""1126055""
","""event"",""trial"",""time""
""focus"",""98"",""771243""
""focus"",""99"",""777019""
""focus"",""100"",""784562""
""focus"",""150"",""1128530""
","""event"",""trial"",""time""
""fullscreenenter"",""1"",""2511""
","""event"",""trial"",""time""
""fullscreenexit"",""36"",""392139""
","","","-1","","","16","8112","2223","b","elianto","#f73b6a7A","-1","-1","1","0","[]","0","2","","","8112","29","3","4","lose","no-go","0"
"pit-trial","158","1167051","0.0-34.0","battery-v0.2","","""event"",""trial"",""time""
""fullscreenenter"",""1"",""2511""
""fullscreenexit"",""36"",""392139""
""blur"",""97"",""771235""
""focus"",""98"",""771243""
""blur"",""98"",""775351""
""focus"",""99"",""777019""
""blur"",""100"",""783015""
""focus"",""100"",""784562""
""blur"",""149"",""1126055""
""focus"",""150"",""1128530""
","""event"",""trial"",""time""
""blur"",""97"",""771235""
""blur"",""98"",""775351""
""blur"",""100"",""783015""
""blur"",""149"",""1126055""
","""event"",""trial"",""time""
""focus"",""98"",""771243""
""focus"",""99"",""777019""
""focus"",""100"",""784562""
""focus"",""150"",""1128530""
","""event"",""trial"",""time""
""fullscreenenter"",""1"",""2511""
","""event"",""trial"",""time""
""fullscreenexit"",""36"",""392139""
","","","982","","","16","8112","2223","f","elianto","#3366ff99","-1"," ","0","0","[1832.2999999970198]","1","2","","","8112","30","1","2","win","no-go","0"
"pit-trial","159","1171903","0.0-35.0","battery-v0.2","","""event"",""trial"",""time""
""fullscreenenter"",""1"",""2511""
""fullscreenexit"",""36"",""392139""
""blur"",""97"",""771235""
""focus"",""98"",""771243""
""blur"",""98"",""775351""
""focus"",""99"",""777019""
""blur"",""100"",""783015""
""focus"",""100"",""784562""
""blur"",""149"",""1126055""
""focus"",""150"",""1128530""
","""event"",""trial"",""time""
""blur"",""97"",""771235""
""blur"",""98"",""775351""
""blur"",""100"",""783015""
""blur"",""149"",""1126055""
","""event"",""trial"",""time""
""focus"",""98"",""771243""
""focus"",""99"",""777019""
""focus"",""100"",""784562""
""focus"",""150"",""1128530""
","""event"",""trial"",""time""
""fullscreenenter"",""1"",""2511""
","""event"",""trial"",""time""
""fullscreenexit"",""36"",""392139""
