"trial_type","trial_index","time_elapsed","internal_node_id","task_version","subject_id","interactions","blur_events","focus_events","fullscreenenter_events","fullscreenexit_events","success","view_history","rt","responses","num_errors","age","subject","participantId","rune","rune_set","hex","correct","choice","accuracy","outcome","keys","total_keys","block","practice","value","sub","trial","stimulus","robot","valence","action","sham"
"pavlovia","0","7","0.0-0.0","battery-v0.2","","""event"",""trial"",""time""
""fullscreenenter"",""1"",""1443""
","
","
","""event"",""trial"",""time""
""fullscreenenter"",""1"",""1443""
","
","","","","","","","","","","","","","","","","","","","","","","","","","","",""
"fullscreen","1","2437","0.0-1.0","battery-v0.2","","""event"",""trial"",""time""
""fullscreenenter"",""1"",""1443""
","
","
","""event"",""trial"",""time""
""fullscreenenter"",""1"",""1443""
","
","true","","","","","","","","","","","","","","","","","","","","","","","","","",""
"pit-instructions","2","5826","0.0-2.0-0.0","battery-v0.2","","""event"",""trial"",""time""
""fullscreenenter"",""1"",""1443""
","
","
","""event"",""trial"",""time""
""fullscreenenter"",""1"",""1443""
","
","","[{""page_index"":0,""viewing_time"":3381.1999999284744}]","3381.899999976158","","","","","","","","","","","","","","","","","","","","","","","",""
"pit-comprehension","3","9356","0.0-2.0-1.0-0.0","battery-v0.2","","""event"",""trial"",""time""
""fullscreenenter"",""1"",""1443""
","
","
","""event"",""trial"",""time""
""fullscreenenter"",""1"",""1443""
","
","","","3527.5","[""shark""]","0","21","8932","3740","","","","","","","","","","","","","","","","","","",""
"pit-instructions","4","11038","0.0-2.0-1.0-1.0","battery-v0.2","","""event"",""trial"",""time""
""fullscreenenter"",""1"",""1443""
","
","
","""event"",""trial"",""time""
""fullscreenenter"",""1"",""1443""
","
","","[{""page_index"":0,""viewing_time"":1670.2999999523163}]","1670.6999999284744","","","","","","","","","","","","","","","","","","","","","","","",""
"pit-comprehension","5","13738","0.0-2.0-2.0-0.0","battery-v0.2","","""event"",""trial"",""time""
""fullscreenenter"",""1"",""1443""
","
","
","""event"",""trial"",""time""
""fullscreenenter"",""1"",""1443""
","
","","","2698.2000000476837","[""tiger""]","0","21","8932","3740","","","","","","","","","","","","","","","","","","",""
"pit-instructions","6","15083","0.0-2.0-2.0-1.0","battery-v0.2","","""event"",""trial"",""time""
""fullscreenenter"",""1"",""1443""
""fullscreenexit"",""7"",""35591""
""blur"",""7"",""36927""
""focus"",""7"",""63467""
""blur"",""7"",""92411""
""focus"",""7"",""94873""
""blur"",""7"",""96031""
""focus"",""7"",""100199""
","""event"",""trial"",""time""
""blur"",""7"",""36927""
""blur"",""7"",""92411""
""blur"",""7"",""96031""
","""event"",""trial"",""time""
""focus"",""7"",""63467""
""focus"",""7"",""94873""
""focus"",""7"",""100199""
","""event"",""trial"",""time""
""fullscreenenter"",""1"",""1443""
","""event"",""trial"",""time""
""fullscreenexit"",""7"",""35591""
","","[{""page_index"":0,""viewing_time"":1342.6999999284744}]","1342.8999999761581","","","","","","","","","","","","","","","","","","","","","","","",""
"pit-instructions","7","160972","0.0-2.0-3.0","battery-v0.2","","""event"",""trial"",""time""
""fullscreenenter"",""1"",""1443""
""fullscreenexit"",""7"",""35591""
""blur"",""7"",""36927""
""focus"",""7"",""63467""
""blur"",""7"",""92411""
""focus"",""7"",""94873""
""blur"",""7"",""96031""
""focus"",""7"",""100199""
","""event"",""trial"",""time""
""blur"",""7"",""36927""
""blur"",""7"",""92411""
""blur"",""7"",""96031""
","""event"",""trial"",""time""
""focus"",""7"",""63467""
""focus"",""7"",""94873""
""focus"",""7"",""100199""
","""event"",""trial"",""time""
""fullscreenenter"",""1"",""1443""
","""event"",""trial"",""time""
""fullscreenexit"",""7"",""35591""
","","[{""page_index"":0,""viewing_time"":49536},{""page_index"":1,""viewing_time"":9622},{""page_index"":2,""viewing_time"":7034.200000047684},{""page_index"":3,""viewing_time"":5206},{""page_index"":4,""viewing_time"":17005.899999976158},{""page_index"":5,""viewing_time"":5249.100000023842},{""page_index"":6,""viewing_time"":6994.700000047684},{""page_index"":7,""viewing_time"":6533.699999928474},{""page_index"":8,""viewing_time"":6064.5},{""page_index"":9,""viewing_time"":7766.800000071526},{""page_index"":10,""viewing_time"":7607.799999952316},{""page_index"":11,""viewing_time"":5009.100000023842},{""page_index"":12,""viewing_time"":6417.699999928474},{""page_index"":13,""viewing_time"":5838.900000095367}]","145886.90000009537","","","","","","","","","","","","","","","","","","","","","","","",""
"pit-trial","8","164305","0.0-2.0-4.0-0.0","battery-v0.2","","""event"",""trial"",""time""
""fullscreenenter"",""1"",""1443""
""fullscreenexit"",""7"",""35591""
""blur"",""7"",""36927""
""focus"",""7"",""63467""
""blur"",""7"",""92411""
""focus"",""7"",""94873""
""blur"",""7"",""96031""
""focus"",""7"",""100199""
","""event"",""trial"",""time""
""blur"",""7"",""36927""
""blur"",""7"",""92411""
""blur"",""7"",""96031""
","""event"",""trial"",""time""
""focus"",""7"",""63467""
""focus"",""7"",""94873""
""focus"",""7"",""100199""
","""event"",""trial"",""time""
""fullscreenenter"",""1"",""1443""
","""event"",""trial"",""time""
""fullscreenexit"",""7"",""35591""
","","","467.1999999284744","","","21","8932","3740","&#9784;","elianto","#FFFFF080"," "," ","1","&#10004","[1318.3000000715256]","1","0","0","","","","","","","",""
"pit-trial","9","167672","0.0-2.0-4.1-0.1","battery-v0.2","","""event"",""trial"",""time""
""fullscreenenter"",""1"",""1443""
""fullscreenexit"",""7"",""35591""
""blur"",""7"",""36927""
""focus"",""7"",""63467""
""blur"",""7"",""92411""
""focus"",""7"",""94873""
""blur"",""7"",""96031""
""focus"",""7"",""100199""
","""event"",""trial"",""time""
""blur"",""7"",""36927""
""blur"",""7"",""92411""
""blur"",""7"",""96031""
","""event"",""trial"",""time""
""focus"",""7"",""63467""
""focus"",""7"",""94873""
""focus"",""7"",""100199""
","""event"",""trial"",""time""
""fullscreenenter"",""1"",""1443""
","""event"",""trial"",""time""
""fullscreenexit"",""7"",""35591""
","","","507.7999999523163","","","21","8932","3740","&#9784;","elianto","#FFFFF080"," "," ","1","&#10004","[1361.2999999523163]","1","0","0","","","","","","","",""
"pit-trial","10","171146","0.0-2.0-4.2-0.2","battery-v0.2","","""event"",""trial"",""time""
""fullscreenenter"",""1"",""1443""
""fullscreenexit"",""7"",""35591""
""blur"",""7"",""36927""
""focus"",""7"",""63467""
""blur"",""7"",""92411""
""focus"",""7"",""94873""
""blur"",""7"",""96031""
""focus"",""7"",""100199""
","""event"",""trial"",""time""
""blur"",""7"",""36927""
""blur"",""7"",""92411""
""blur"",""7"",""96031""
","""event"",""trial"",""time""
""focus"",""7"",""63467""
""focus"",""7"",""94873""
""focus"",""7"",""100199""
","""event"",""trial"",""time""
""fullscreenenter"",""1"",""1443""
","""event"",""trial"",""time""
""fullscreenexit"",""7"",""35591""
","","","599.3999999761581","","","21","8932","3740","&#9784;","elianto","#FFFFF080"," "," ","1","&#10004","[1455.1999999284744]","1","0","0","","","","","","","",""
"pit-trial","11","174651","0.0-2.0-4.3-0.3","battery-v0.2","","""event"",""trial"",""time""
""fullscreenenter"",""1"",""1443""
""fullscreenexit"",""7"",""35591""
""blur"",""7"",""36927""
""focus"",""7"",""63467""
""blur"",""7"",""92411""
""focus"",""7"",""94873""
""blur"",""7"",""96031""
""focus"",""7"",""100199""
","""event"",""trial"",""time""
""blur"",""7"",""36927""
""blur"",""7"",""92411""
""blur"",""7"",""96031""
","""event"",""trial"",""time""
""focus"",""7"",""63467""
""focus"",""7"",""94873""
""focus"",""7"",""100199""
","""event"",""trial"",""time""
""fullscreenenter"",""1"",""1443""
","""event"",""trial"",""time""
""fullscreenexit"",""7"",""35591""
","","","639.7000000476837","","","21","8932","3740","&#9784;","elianto","#FFFFF080"," "," ","1","&#10004","[1492.5]","1","0","0","","","","","","","",""
"pit-trial","12","177955","0.0-2.0-4.4-0.4","battery-v0.2","","""event"",""trial"",""time""
""fullscreenenter"",""1"",""1443""
""fullscreenexit"",""7"",""35591""
""blur"",""7"",""36927""
""focus"",""7"",""63467""
""blur"",""7"",""92411""
""focus"",""7"",""94873""
""blur"",""7"",""96031""
""focus"",""7"",""100199""
","""event"",""trial"",""time""
""blur"",""7"",""36927""
""blur"",""7"",""92411""
""blur"",""7"",""96031""
","""event"",""trial"",""time""
""focus"",""7"",""63467""
""focus"",""7"",""94873""
""focus"",""7"",""100199""
","""event"",""trial"",""time""
""fullscreenenter"",""1"",""1443""
","""event"",""trial"",""time""
""fullscreenexit"",""7"",""35591""
","","","449.5","","","21","8932","3740","&#9784;","elianto","#FFFFF080"," "," ","1","&#10004","[1300.5]","1","0","0","","","","","","","",""
"pit-instructions","13","199346","0.0-2.0-5.0","battery-v0.2","","""event"",""trial"",""time""
""fullscreenenter"",""1"",""1443""
""fullscreenexit"",""7"",""35591""
""blur"",""7"",""36927""
""focus"",""7"",""63467""
""blur"",""7"",""92411""
""focus"",""7"",""94873""
""blur"",""7"",""96031""
""focus"",""7"",""100199""
","""event"",""trial"",""time""
""blur"",""7"",""36927""
""blur"",""7"",""92411""
""blur"",""7"",""96031""
","""event"",""trial"",""time""
""focus"",""7"",""63467""
""focus"",""7"",""94873""
""focus"",""7"",""100199""
","""event"",""trial"",""time""
""fullscreenenter"",""1"",""1443""
","""event"",""trial"",""time""
""fullscreenexit"",""7"",""35591""
","","[{""page_index"":0,""viewing_time"":4724.800000071526},{""page_index"":1,""viewing_time"":5844.899999976158},{""page_index"":2,""viewing_time"":5531.5},{""page_index"":3,""viewing_time"":5286.199999928474}]","21388.200000047684","","","","","","","","","","","","","","","","","","","","","","","",""
"pit-trial","14","204225","0.0-2.0-6.0-0.0","battery-v0.2","","""event"",""trial"",""time""
""fullscreenenter"",""1"",""1443""
""fullscreenexit"",""7"",""35591""
""blur"",""7"",""36927""
""focus"",""7"",""63467""
""blur"",""7"",""92411""
""focus"",""7"",""94873""
""blur"",""7"",""96031""
""focus"",""7"",""100199""
","""event"",""trial"",""time""
""blur"",""7"",""36927""
""blur"",""7"",""92411""
""blur"",""7"",""96031""
","""event"",""trial"",""time""
""focus"",""7"",""63467""
""focus"",""7"",""94873""
""focus"",""7"",""100199""
","""event"",""trial"",""time""
""fullscreenenter"",""1"",""1443""
","""event"",""trial"",""time""
""fullscreenexit"",""7"",""35591""
","","","-1","","","21","8932","3740","&#9854;","elianto","#FFFFF080","-1","-1","1","&#10004","[]","0","0","1","","","","","","","",""
"pit-trial","15","209086","0.0-2.0-6.1-0.1","battery-v0.2","","""event"",""trial"",""time""
""fullscreenenter"",""1"",""1443""
""fullscreenexit"",""7"",""35591""
""blur"",""7"",""36927""
""focus"",""7"",""63467""
""blur"",""7"",""92411""
""focus"",""7"",""94873""
""blur"",""7"",""96031""
""focus"",""7"",""100199""
","""event"",""trial"",""time""
""blur"",""7"",""36927""
""blur"",""7"",""92411""
""blur"",""7"",""96031""
","""event"",""trial"",""time""
""focus"",""7"",""63467""
""focus"",""7"",""94873""
""focus"",""7"",""100199""
","""event"",""trial"",""time""
""fullscreenenter"",""1"",""1443""
","""event"",""trial"",""time""
""fullscreenexit"",""7"",""35591""
","","","-1","","","21","8932","3740","&#9854;","elianto","#FFFFF080","-1","-1","1","&#10004","[]","0","0","1","","","","","","","",""
"pit-trial","16","213960","0.0-2.0-6.2-0.2","battery-v0.2","","""event"",""trial"",""time""
""fullscreenenter"",""1"",""1443""
""fullscreenexit"",""7"",""35591""
""blur"",""7"",""36927""
""focus"",""7"",""63467""
""blur"",""7"",""92411""
""focus"",""7"",""94873""
""blur"",""7"",""96031""
""focus"",""7"",""100199""
","""event"",""trial"",""time""
""blur"",""7"",""36927""
""blur"",""7"",""92411""
""blur"",""7"",""96031""
","""event"",""trial"",""time""
""focus"",""7"",""63467""
""focus"",""7"",""94873""
""focus"",""7"",""100199""
","""event"",""trial"",""time""
""fullscreenenter"",""1"",""1443""
","""event"",""trial"",""time""
""fullscreenexit"",""7"",""35591""
","","","-1","","","21","8932","3740","&#9854;","elianto","#FFFFF080","-1","-1","1","&#10004","[]","0","0","1","","","","","","","",""
"pit-trial","17","218828","0.0-2.0-6.3-0.3","battery-v0.2","","""event"",""trial"",""time""
""fullscreenenter"",""1"",""1443""
""fullscreenexit"",""7"",""35591""
""blur"",""7"",""36927""
""focus"",""7"",""63467""
""blur"",""7"",""92411""
""focus"",""7"",""94873""
""blur"",""7"",""96031""
""focus"",""7"",""100199""
","""event"",""trial"",""time""
""blur"",""7"",""36927""
""blur"",""7"",""92411""
""blur"",""7"",""96031""
","""event"",""trial"",""time""
""focus"",""7"",""63467""
""focus"",""7"",""94873""
""focus"",""7"",""100199""
","""event"",""trial"",""time""
""fullscreenenter"",""1"",""1443""
","""event"",""trial"",""time""
""fullscreenexit"",""7"",""35591""
","","","-1","","","21","8932","3740","&#9854;","elianto","#FFFFF080","-1","-1","1","&#10004","[]","0","0","1","","","","","","","",""
"pit-trial","18","223691","0.0-2.0-6.4-0.4","battery-v0.2","","""event"",""trial"",""time""
""fullscreenenter"",""1"",""1443""
""fullscreenexit"",""7"",""35591""
""blur"",""7"",""36927""
""focus"",""7"",""63467""
""blur"",""7"",""92411""
""focus"",""7"",""94873""
""blur"",""7"",""96031""
""focus"",""7"",""100199""
","""event"",""trial"",""time""
""blur"",""7"",""36927""
""blur"",""7"",""92411""
""blur"",""7"",""96031""
","""event"",""trial"",""time""
""focus"",""7"",""63467""
""focus"",""7"",""94873""
""focus"",""7"",""100199""
","""event"",""trial"",""time""
""fullscreenenter"",""1"",""1443""
","""event"",""trial"",""time""
""fullscreenexit"",""7"",""35591""
","","","-1","","","21","8932","3740","&#9854;","elianto","#FFFFF080","-1","-1","1","&#10004","[]","0","0","1","","","","","","","",""
"pit-instructions","19","332641","0.0-2.0-7.0","battery-v0.2","","""event"",""trial"",""time""
""fullscreenenter"",""1"",""1443""
""fullscreenexit"",""7"",""35591""
""blur"",""7"",""36927""
""focus"",""7"",""63467""
""blur"",""7"",""92411""
""focus"",""7"",""94873""
""blur"",""7"",""96031""
""focus"",""7"",""100199""
","""event"",""trial"",""time""
""blur"",""7"",""36927""
""blur"",""7"",""92411""
""blur"",""7"",""96031""
","""event"",""trial"",""time""
""focus"",""7"",""63467""
""focus"",""7"",""94873""
""focus"",""7"",""100199""
","""event"",""trial"",""time""
""fullscreenenter"",""1"",""1443""
","""event"",""trial"",""time""
""fullscreenexit"",""7"",""35591""
","","[{""page_index"":0,""viewing_time"":5555},{""page_index"":1,""viewing_time"":6257},{""page_index"":2,""viewing_time"":5360.5},{""page_index"":3,""viewing_time"":5178.300000071526},{""page_index"":4,""viewing_time"":5095},{""page_index"":5,""viewing_time"":5047.699999928474},{""page_index"":6,""viewing_time"":4311.399999976158},{""page_index"":7,""viewing_time"":7399.400000095367},{""page_index"":8,""viewing_time"":8779.699999928474},{""page_index"":9,""viewing_time"":5836.300000071526},{""page_index"":10,""viewing_time"":6362.799999952316},{""page_index"":11,""viewing_time"":4020.399999976158},{""page_index"":12,""viewing_time"":6220.399999976158},{""page_index"":13,""viewing_time"":6228.100000023842},{""page_index"":14,""viewing_time"":6042.100000023842},{""page_index"":15,""viewing_time"":6020.399999976158},{""page_index"":16,""viewing_time"":9050.100000023842},{""page_index"":17,""viewing_time"":6182.200000047684}]","108947.5","","","","","","","","","","","","","","","","","","","","","","","",""
"pit-trial","20","336249","0.0-2.0-8.0-0.0","battery-v0.2","","""event"",""trial"",""time""
""fullscreenenter"",""1"",""1443""
""fullscreenexit"",""7"",""35591""
""blur"",""7"",""36927""
""focus"",""7"",""63467""
""blur"",""7"",""92411""
""focus"",""7"",""94873""
""blur"",""7"",""96031""
""focus"",""7"",""100199""
","""event"",""trial"",""time""
""blur"",""7"",""36927""
""blur"",""7"",""92411""
""blur"",""7"",""96031""
","""event"",""trial"",""time""
""focus"",""7"",""63467""
""focus"",""7"",""94873""
""focus"",""7"",""100199""
","""event"",""trial"",""time""
""fullscreenenter"",""1"",""1443""
","""event"",""trial"",""time""
""fullscreenexit"",""7"",""35591""
","","","751","","","21","8932","3740","&#9776;","elianto","#3366ff99"," "," ","1","+10","[1603.6000000238419]","1","0","1","","","","","","","",""
"pit-trial","21","339523","0.0-2.0-8.0-1.0","battery-v0.2","","""event"",""trial"",""time""
""fullscreenenter"",""1"",""1443""
""fullscreenexit"",""7"",""35591""
""blur"",""7"",""36927""
""focus"",""7"",""63467""
""blur"",""7"",""92411""
""focus"",""7"",""94873""
""blur"",""7"",""96031""
""focus"",""7"",""100199""
","""event"",""trial"",""time""
""blur"",""7"",""36927""
""blur"",""7"",""92411""
""blur"",""7"",""96031""
","""event"",""trial"",""time""
""focus"",""7"",""63467""
""focus"",""7"",""94873""
""focus"",""7"",""100199""
","""event"",""trial"",""time""
""fullscreenenter"",""1"",""1443""
","""event"",""trial"",""time""
""fullscreenexit"",""7"",""35591""
","","","403.6999999284744","","","21","8932","3740","&#9776;","elianto","#3366ff99"," "," ","1","+10","[1263.0999999046326]","1","0","1","","","","","","","",""
"pit-trial","22","342796","0.0-2.0-8.0-2.0","battery-v0.2","","""event"",""trial"",""time""
""fullscreenenter"",""1"",""1443""
""fullscreenexit"",""7"",""35591""
""blur"",""7"",""36927""
""focus"",""7"",""63467""
""blur"",""7"",""92411""
""focus"",""7"",""94873""
""blur"",""7"",""96031""
""focus"",""7"",""100199""
","""event"",""trial"",""time""
""blur"",""7"",""36927""
""blur"",""7"",""92411""
""blur"",""7"",""96031""
","""event"",""trial"",""time""
""focus"",""7"",""63467""
""focus"",""7"",""94873""
""focus"",""7"",""100199""
","""event"",""trial"",""time""
""fullscreenenter"",""1"",""1443""
","""event"",""trial"",""time""
""fullscreenexit"",""7"",""35591""
","","","405.2000000476837","","","21","8932","3740","&#9776;","elianto","#3366ff99"," "," ","1","+10","[1259.1000000238419]","1","0","1","","","","","","","",""
"pit-trial","23","346025","0.0-2.0-8.0-3.0","battery-v0.2","","""event"",""trial"",""time""
""fullscreenenter"",""1"",""1443""
""fullscreenexit"",""7"",""35591""
""blur"",""7"",""36927""
""focus"",""7"",""63467""
""blur"",""7"",""92411""
""focus"",""7"",""94873""
""blur"",""7"",""96031""
""focus"",""7"",""100199""
","""event"",""trial"",""time""
""blur"",""7"",""36927""
""blur"",""7"",""92411""
""blur"",""7"",""96031""
","""event"",""trial"",""time""
""focus"",""7"",""63467""
""focus"",""7"",""94873""
""focus"",""7"",""100199""
","""event"",""trial"",""time""
""fullscreenenter"",""1"",""1443""
","""event"",""trial"",""time""
""fullscreenexit"",""7"",""35591""
","","","363.1999999284744","","","21","8932","3740","&#9776;","elianto","#3366ff99"," "," ","1","0","[1216.8999999761581]","1","0","1","","","","","","","",""
"pit-trial","24","349281","0.0-2.0-8.0-4.0","battery-v0.2","","""event"",""trial"",""time""
""fullscreenenter"",""1"",""1443""
""fullscreenexit"",""7"",""35591""
""blur"",""7"",""36927""
""focus"",""7"",""63467""
""blur"",""7"",""92411""
""focus"",""7"",""94873""
""blur"",""7"",""96031""
""focus"",""7"",""100199""
","""event"",""trial"",""time""
""blur"",""7"",""36927""
""blur"",""7"",""92411""
""blur"",""7"",""96031""
","""event"",""trial"",""time""
""focus"",""7"",""63467""
""focus"",""7"",""94873""
""focus"",""7"",""100199""
","""event"",""trial"",""time""
""fullscreenenter"",""1"",""1443""
","""event"",""trial"",""time""
""fullscreenexit"",""7"",""35591""
","","","393.5","","","21","8932","3740","&#9776;","elianto","#3366ff99"," "," ","1","+10","[1250.7999999523163]","1","0","1","","","","","","","",""
"pit-trial","25","352535","0.0-2.0-8.1-0.1","battery-v0.2","","""event"",""trial"",""time""
""fullscreenenter"",""1"",""1443""
""fullscreenexit"",""7"",""35591""
""blur"",""7"",""36927""
""focus"",""7"",""63467""
""blur"",""7"",""92411""
""focus"",""7"",""94873""
""blur"",""7"",""96031""
""focus"",""7"",""100199""
","""event"",""trial"",""time""
""blur"",""7"",""36927""
""blur"",""7"",""92411""
""blur"",""7"",""96031""
","""event"",""trial"",""time""
""focus"",""7"",""63467""
""focus"",""7"",""94873""
""focus"",""7"",""100199""
","""event"",""trial"",""time""
""fullscreenenter"",""1"",""1443""
","""event"",""trial"",""time""
""fullscreenexit"",""7"",""35591""
","","","391.8000000715256","","","21","8932","3740","&#9776;","elianto","#3366ff99"," "," ","1","+10","[1244.1000000238419]","1","0","1","","","","","","","",""
"pit-trial","26","355545","0.0-2.0-8.1-1.1","battery-v0.2","","""event"",""trial"",""time""
""fullscreenenter"",""1"",""1443""
""fullscreenexit"",""7"",""35591""
""blur"",""7"",""36927""
""focus"",""7"",""63467""
""blur"",""7"",""92411""
""focus"",""7"",""94873""
""blur"",""7"",""96031""
""focus"",""7"",""100199""
","""event"",""trial"",""time""
""blur"",""7"",""36927""
""blur"",""7"",""92411""
""blur"",""7"",""96031""
","""event"",""trial"",""time""
""focus"",""7"",""63467""
""focus"",""7"",""94873""
""focus"",""7"",""100199""
","""event"",""trial"",""time""
""fullscreenenter"",""1"",""1443""
","""event"",""trial"",""time""
""fullscreenexit"",""7"",""35591""
","","","143.90000009536743","","","21","8932","3740","&#9776;","elianto","#3366ff99"," "," ","1","+10","[993.8999999761581]","1","0","1","","","","","","","",""
"pit-trial","27","358768","0.0-2.0-8.1-2.1","battery-v0.2","","""event"",""trial"",""time""
""fullscreenenter"",""1"",""1443""
""fullscreenexit"",""7"",""35591""
""blur"",""7"",""36927""
""focus"",""7"",""63467""
""blur"",""7"",""92411""
""focus"",""7"",""94873""
""blur"",""7"",""96031""
""focus"",""7"",""100199""
","""event"",""trial"",""time""
""blur"",""7"",""36927""
""blur"",""7"",""92411""
""blur"",""7"",""96031""
","""event"",""trial"",""time""
""focus"",""7"",""63467""
""focus"",""7"",""94873""
""focus"",""7"",""100199""
","""event"",""trial"",""time""
""fullscreenenter"",""1"",""1443""
","""event"",""trial"",""time""
""fullscreenexit"",""7"",""35591""
","","","358.5","","","21","8932","3740","&#9776;","elianto","#3366ff99"," "," ","1","+10","[1210.6999999284744]","1","0","1","","","","","","","",""
"pit-trial","28","361835","0.0-2.0-8.1-3.1","battery-v0.2","","""event"",""trial"",""time""
""fullscreenenter"",""1"",""1443""
""fullscreenexit"",""7"",""35591""
""blur"",""7"",""36927""
""focus"",""7"",""63467""
""blur"",""7"",""92411""
""focus"",""7"",""94873""
""blur"",""7"",""96031""
""focus"",""7"",""100199""
","""event"",""trial"",""time""
""blur"",""7"",""36927""
""blur"",""7"",""92411""
""blur"",""7"",""96031""
","""event"",""trial"",""time""
""focus"",""7"",""63467""
""focus"",""7"",""94873""
""focus"",""7"",""100199""
","""event"",""trial"",""time""
""fullscreenenter"",""1"",""1443""
","""event"",""trial"",""time""
""fullscreenexit"",""7"",""35591""
","","","211","","","21","8932","3740","&#9776;","elianto","#3366ff99"," "," ","1","0","[1064.6999999284744]","1","0","1","","","","","","","",""
"pit-trial","29","364889","0.0-2.0-8.1-4.1","battery-v0.2","","""event"",""trial"",""time""
""fullscreenenter"",""1"",""1443""
""fullscreenexit"",""7"",""35591""
""blur"",""7"",""36927""
""focus"",""7"",""63467""
""blur"",""7"",""92411""
""focus"",""7"",""94873""
""blur"",""7"",""96031""
""focus"",""7"",""100199""
","""event"",""trial"",""time""
""blur"",""7"",""36927""
""blur"",""7"",""92411""
""blur"",""7"",""96031""
","""event"",""trial"",""time""
""focus"",""7"",""63467""
""focus"",""7"",""94873""
""focus"",""7"",""100199""
","""event"",""trial"",""time""
""fullscreenenter"",""1"",""1443""
","""event"",""trial"",""time""
""fullscreenexit"",""7"",""35591""
","","","196.89999997615814","","","21","8932","3740","&#9776;","elianto","#3366ff99"," "," ","1","+10","[1052.1000000238419]","1","0","1","","","","","","","",""
"pit-trial","30","367902","0.0-2.0-8.2-0.2","battery-v0.2","","""event"",""trial"",""time""
""fullscreenenter"",""1"",""1443""
""fullscreenexit"",""7"",""35591""
""blur"",""7"",""36927""
""focus"",""7"",""63467""
""blur"",""7"",""92411""
""focus"",""7"",""94873""
""blur"",""7"",""96031""
""focus"",""7"",""100199""
","""event"",""trial"",""time""
""blur"",""7"",""36927""
""blur"",""7"",""92411""
""blur"",""7"",""96031""
","""event"",""trial"",""time""
""focus"",""7"",""63467""
""focus"",""7"",""94873""
""focus"",""7"",""100199""
","""event"",""trial"",""time""
""fullscreenenter"",""1"",""1443""
","""event"",""trial"",""time""
""fullscreenexit"",""7"",""35591""
","","","159.60000002384186","","","21","8932","3740","&#9776;","elianto","#3366ff99"," "," ","1","+10","[1010.5]","1","0","1","","","","","","","",""
"pit-trial","31","371086","0.0-2.0-8.2-1.2","battery-v0.2","","""event"",""trial"",""time""
""fullscreenenter"",""1"",""1443""
""fullscreenexit"",""7"",""35591""
""blur"",""7"",""36927""
""focus"",""7"",""63467""
""blur"",""7"",""92411""
""focus"",""7"",""94873""
""blur"",""7"",""96031""
""focus"",""7"",""100199""
","""event"",""trial"",""time""
""blur"",""7"",""36927""
""blur"",""7"",""92411""
""blur"",""7"",""96031""
","""event"",""trial"",""time""
""focus"",""7"",""63467""
""focus"",""7"",""94873""
""focus"",""7"",""100199""
","""event"",""trial"",""time""
""fullscreenenter"",""1"",""1443""
","""event"",""trial"",""time""
""fullscreenexit"",""7"",""35591""
","","","331","","","21","8932","3740","&#9776;","elianto","#3366ff99"," "," ","1","+10","[1181]","1","0","1","","","","","","","",""
"pit-trial","32","374033","0.0-2.0-8.2-2.2","battery-v0.2","","""event"",""trial"",""time""
""fullscreenenter"",""1"",""1443""
""fullscreenexit"",""7"",""35591""
""blur"",""7"",""36927""
""focus"",""7"",""63467""
""blur"",""7"",""92411""
""focus"",""7"",""94873""
""blur"",""7"",""96031""
""focus"",""7"",""100199""
","""event"",""trial"",""time""
""blur"",""7"",""36927""
""blur"",""7"",""92411""
""blur"",""7"",""96031""
","""event"",""trial"",""time""
""focus"",""7"",""63467""
""focus"",""7"",""94873""
""focus"",""7"",""100199""
","""event"",""trial"",""time""
""fullscreenenter"",""1"",""1443""
","""event"",""trial"",""time""
""fullscreenexit"",""7"",""35591""
","","","92.80000007152557","","","21","8932","3740","&#9776;","elianto","#3366ff99"," "," ","1","+10","[944.1000000238419]","1","0","1","","","","","","","",""
"pit-trial","33","376986","0.0-2.0-8.2-3.2","battery-v0.2","","""event"",""trial"",""time""
""fullscreenenter"",""1"",""1443""
""fullscreenexit"",""7"",""35591""
""blur"",""7"",""36927""
""focus"",""7"",""63467""
""blur"",""7"",""92411""
""focus"",""7"",""94873""
""blur"",""7"",""96031""
""focus"",""7"",""100199""
","""event"",""trial"",""time""
""blur"",""7"",""36927""
""blur"",""7"",""92411""
""blur"",""7"",""96031""
","""event"",""trial"",""time""
""focus"",""7"",""63467""
""focus"",""7"",""94873""
""focus"",""7"",""100199""
","""event"",""trial"",""time""
""fullscreenenter"",""1"",""1443""
","""event"",""trial"",""time""
""fullscreenexit"",""7"",""35591""
","","","99.80000007152557","","","21","8932","3740","&#9776;","elianto","#3366ff99"," "," ","1","0","[950.8000000715256]","1","0","1","","","","","","","",""
"pit-trial","34","380021","0.0-2.0-8.2-4.2","battery-v0.2","","""event"",""trial"",""time""
""fullscreenenter"",""1"",""1443""
""fullscreenexit"",""7"",""35591""
""blur"",""7"",""36927""
""focus"",""7"",""63467""
""blur"",""7"",""92411""
""focus"",""7"",""94873""
""blur"",""7"",""96031""
""focus"",""7"",""100199""
","""event"",""trial"",""time""
""blur"",""7"",""36927""
""blur"",""7"",""92411""
""blur"",""7"",""96031""
","""event"",""trial"",""time""
""focus"",""7"",""63467""
""focus"",""7"",""94873""
""focus"",""7"",""100199""
","""event"",""trial"",""time""
""fullscreenenter"",""1"",""1443""
","""event"",""trial"",""time""
""fullscreenexit"",""7"",""35591""
","","","182.19999992847443","","","21","8932","3740","&#9776;","elianto","#3366ff99"," "," ","1","+10","[1032.7999999523163]","1","0","1","","","","","","","",""
"call-function","35","380023","0.0-2.0-9.0","battery-v0.2","","""event"",""trial"",""time""
""fullscreenenter"",""1"",""1443""
""fullscreenexit"",""7"",""35591""
""blur"",""7"",""36927""
""focus"",""7"",""63467""
""blur"",""7"",""92411""
""focus"",""7"",""94873""
""blur"",""7"",""96031""
""focus"",""7"",""100199""
","""event"",""trial"",""time""
""blur"",""7"",""36927""
""blur"",""7"",""92411""
""blur"",""7"",""96031""
","""event"",""trial"",""time""
""focus"",""7"",""63467""
""focus"",""7"",""94873""
""focus"",""7"",""100199""
","""event"",""trial"",""time""
""fullscreenenter"",""1"",""1443""
","""event"",""trial"",""time""
""fullscreenexit"",""7"",""35591""
","","","","","","","","","","","","","","","","","","","","","","","","","","",""
"pit-instructions","36","426588","0.0-2.0-10.0","battery-v0.2","","""event"",""trial"",""time""
""fullscreenenter"",""1"",""1443""
""fullscreenexit"",""7"",""35591""
""blur"",""7"",""36927""
""focus"",""7"",""63467""
""blur"",""7"",""92411""
""focus"",""7"",""94873""
""blur"",""7"",""96031""
""focus"",""7"",""100199""
","""event"",""trial"",""time""
""blur"",""7"",""36927""
""blur"",""7"",""92411""
""blur"",""7"",""96031""
","""event"",""trial"",""time""
""focus"",""7"",""63467""
""focus"",""7"",""94873""
""focus"",""7"",""100199""
","""event"",""trial"",""time""
""fullscreenenter"",""1"",""1443""
","""event"",""trial"",""time""
""fullscreenexit"",""7"",""35591""
","","[{""page_index"":0,""viewing_time"":7327.700000047684},{""page_index"":1,""viewing_time"":9094.599999904633},{""page_index"":2,""viewing_time"":11909.200000047684},{""page_index"":3,""viewing_time"":10236.200000047684},{""page_index"":4,""viewing_time"":7996.699999928474}]","46565.10000002384","","","","","","","","","","","","","","","","","","","","","","","",""
"pit-trial","37","431445","0.0-2.0-11.0-0.0","battery-v0.2","","""event"",""trial"",""time""
""fullscreenenter"",""1"",""1443""
""fullscreenexit"",""7"",""35591""
""blur"",""7"",""36927""
""focus"",""7"",""63467""
""blur"",""7"",""92411""
""focus"",""7"",""94873""
""blur"",""7"",""96031""
""focus"",""7"",""100199""
","""event"",""trial"",""time""
""blur"",""7"",""36927""
""blur"",""7"",""92411""
""blur"",""7"",""96031""
","""event"",""trial"",""time""
""focus"",""7"",""63467""
""focus"",""7"",""94873""
""focus"",""7"",""100199""
","""event"",""trial"",""time""
""fullscreenenter"",""1"",""1443""
","""event"",""trial"",""time""
""fullscreenexit"",""7"",""35591""
","","","-1","","","21","8932","3740","&#9761;","elianto","#3366ff99","-1","-1","1","+10","[]","0","0","2","","","","","","","",""
"pit-trial","38","436308","0.0-2.0-11.0-1.0","battery-v0.2","","""event"",""trial"",""time""
""fullscreenenter"",""1"",""1443""
""fullscreenexit"",""7"",""35591""
""blur"",""7"",""36927""
""focus"",""7"",""63467""
""blur"",""7"",""92411""
""focus"",""7"",""94873""
""blur"",""7"",""96031""
""focus"",""7"",""100199""
","""event"",""trial"",""time""
""blur"",""7"",""36927""
""blur"",""7"",""92411""
""blur"",""7"",""96031""
","""event"",""trial"",""time""
""focus"",""7"",""63467""
""focus"",""7"",""94873""
""focus"",""7"",""100199""
","""event"",""trial"",""time""
""fullscreenenter"",""1"",""1443""
","""event"",""trial"",""time""
""fullscreenexit"",""7"",""35591""
","","","-1","","","21","8932","3740","&#9761;","elianto","#3366ff99","-1","-1","1","+10","[]","0","0","2","","","","","","","",""
"pit-trial","39","441175","0.0-2.0-11.0-2.0","battery-v0.2","","""event"",""trial"",""time""
""fullscreenenter"",""1"",""1443""
""fullscreenexit"",""7"",""35591""
""blur"",""7"",""36927""
""focus"",""7"",""63467""
""blur"",""7"",""92411""
""focus"",""7"",""94873""
""blur"",""7"",""96031""
""focus"",""7"",""100199""
","""event"",""trial"",""time""
""blur"",""7"",""36927""
""blur"",""7"",""92411""
""blur"",""7"",""96031""
","""event"",""trial"",""time""
""focus"",""7"",""63467""
""focus"",""7"",""94873""
""focus"",""7"",""100199""
","""event"",""trial"",""time""
""fullscreenenter"",""1"",""1443""
","""event"",""trial"",""time""
""fullscreenexit"",""7"",""35591""
","","","-1","","","21","8932","3740","&#9761;","elianto","#3366ff99","-1","-1","1","+10","[]","0","0","2","","","","","","","",""
"pit-trial","40","446042","0.0-2.0-11.0-3.0","battery-v0.2","","""event"",""trial"",""time""
""fullscreenenter"",""1"",""1443""
""fullscreenexit"",""7"",""35591""
""blur"",""7"",""36927""
""focus"",""7"",""63467""
""blur"",""7"",""92411""
""focus"",""7"",""94873""
""blur"",""7"",""96031""
""focus"",""7"",""100199""
","""event"",""trial"",""time""
""blur"",""7"",""36927""
""blur"",""7"",""92411""
""blur"",""7"",""96031""
","""event"",""trial"",""time""
""focus"",""7"",""63467""
""focus"",""7"",""94873""
""focus"",""7"",""100199""
","""event"",""trial"",""time""
""fullscreenenter"",""1"",""1443""
","""event"",""trial"",""time""
""fullscreenexit"",""7"",""35591""
","","","-1","","","21","8932","3740","&#9761;","elianto","#3366ff99","-1","-1","1","0","[]","0","0","2","","","","","","","",""
"pit-trial","41","450913","0.0-2.0-11.0-4.0","battery-v0.2","","""event"",""trial"",""time""
""fullscreenenter"",""1"",""1443""
""fullscreenexit"",""7"",""35591""
""blur"",""7"",""36927""
""focus"",""7"",""63467""
""blur"",""7"",""92411""
""focus"",""7"",""94873""
""blur"",""7"",""96031""
""focus"",""7"",""100199""
","""event"",""trial"",""time""
""blur"",""7"",""36927""
""blur"",""7"",""92411""
""blur"",""7"",""96031""
","""event"",""trial"",""time""
""focus"",""7"",""63467""
""focus"",""7"",""94873""
""focus"",""7"",""100199""
","""event"",""trial"",""time""
""fullscreenenter"",""1"",""1443""
","""event"",""trial"",""time""
""fullscreenexit"",""7"",""35591""
","","","-1","","","21","8932","3740","&#9761;","elianto","#3366ff99","-1","-1","1","+10","[]","0","0","2","","","","","","","",""
"pit-trial","42","455774","0.0-2.0-11.1-0.1","battery-v0.2","","""event"",""trial"",""time""
""fullscreenenter"",""1"",""1443""
""fullscreenexit"",""7"",""35591""
""blur"",""7"",""36927""
""focus"",""7"",""63467""
""blur"",""7"",""92411""
""focus"",""7"",""94873""
""blur"",""7"",""96031""
""focus"",""7"",""100199""
","""event"",""trial"",""time""
""blur"",""7"",""36927""
""blur"",""7"",""92411""
""blur"",""7"",""96031""
","""event"",""trial"",""time""
""focus"",""7"",""63467""
""focus"",""7"",""94873""
""focus"",""7"",""100199""
","""event"",""trial"",""time""
""fullscreenenter"",""1"",""1443""
","""event"",""trial"",""time""
""fullscreenexit"",""7"",""35591""
","","","-1","","","21","8932","3740","&#9761;","elianto","#3366ff99","-1","-1","1","+10","[]","0","0","2","","","","","","","",""
"pit-trial","43","460627","0.0-2.0-11.1-1.1","battery-v0.2","","""event"",""trial"",""time""
""fullscreenenter"",""1"",""1443""
""fullscreenexit"",""7"",""35591""
""blur"",""7"",""36927""
""focus"",""7"",""63467""
""blur"",""7"",""92411""
""focus"",""7"",""94873""
""blur"",""7"",""96031""
""focus"",""7"",""100199""
","""event"",""trial"",""time""
""blur"",""7"",""36927""
""blur"",""7"",""92411""
""blur"",""7"",""96031""
","""event"",""trial"",""time""
""focus"",""7"",""63467""
""focus"",""7"",""94873""
""focus"",""7"",""100199""
","""event"",""trial"",""time""
""fullscreenenter"",""1"",""1443""
","""event"",""trial"",""time""
""fullscreenexit"",""7"",""35591""
","","","-1","","","21","8932","3740","&#9761;","elianto","#3366ff99","-1","-1","1","+10","[]","0","0","2","","","","","","","",""
"pit-trial","44","465481","0.0-2.0-11.1-2.1","battery-v0.2","","""event"",""trial"",""time""
""fullscreenenter"",""1"",""1443""
""fullscreenexit"",""7"",""35591""
""blur"",""7"",""36927""
""focus"",""7"",""63467""
""blur"",""7"",""92411""
""focus"",""7"",""94873""
""blur"",""7"",""96031""
""focus"",""7"",""100199""
","""event"",""trial"",""time""
""blur"",""7"",""36927""
""blur"",""7"",""92411""
""blur"",""7"",""96031""
","""event"",""trial"",""time""
""focus"",""7"",""63467""
""focus"",""7"",""94873""
""focus"",""7"",""100199""
","""event"",""trial"",""time""
""fullscreenenter"",""1"",""1443""
","""event"",""trial"",""time""
""fullscreenexit"",""7"",""35591""
","","","-1","","","21","8932","3740","&#9761;","elianto","#3366ff99","-1","-1","1","+10","[]","0","0","2","","","","","","","",""
"pit-trial","45","470334","0.0-2.0-11.1-3.1","battery-v0.2","","""event"",""trial"",""time""
""fullscreenenter"",""1"",""1443""
""fullscreenexit"",""7"",""35591""
""blur"",""7"",""36927""
""focus"",""7"",""63467""
""blur"",""7"",""92411""
""focus"",""7"",""94873""
""blur"",""7"",""96031""
""focus"",""7"",""100199""
","""event"",""trial"",""time""
""blur"",""7"",""36927""
""blur"",""7"",""92411""
""blur"",""7"",""96031""
","""event"",""trial"",""time""
""focus"",""7"",""63467""
""focus"",""7"",""94873""
""focus"",""7"",""100199""
","""event"",""trial"",""time""
""fullscreenenter"",""1"",""1443""
","""event"",""trial"",""time""
""fullscreenexit"",""7"",""35591""
","","","-1","","","21","8932","3740","&#9761;","elianto","#3366ff99","-1","-1","1","0","[]","0","0","2","","","","","","","",""
"pit-trial","46","475188","0.0-2.0-11.1-4.1","battery-v0.2","","""event"",""trial"",""time""
""fullscreenenter"",""1"",""1443""
""fullscreenexit"",""7"",""35591""
""blur"",""7"",""36927""
""focus"",""7"",""63467""
""blur"",""7"",""92411""
""focus"",""7"",""94873""
""blur"",""7"",""96031""
""focus"",""7"",""100199""
","""event"",""trial"",""time""
""blur"",""7"",""36927""
""blur"",""7"",""92411""
""blur"",""7"",""96031""
","""event"",""trial"",""time""
""focus"",""7"",""63467""
""focus"",""7"",""94873""
""focus"",""7"",""100199""
","""event"",""trial"",""time""
""fullscreenenter"",""1"",""1443""
","""event"",""trial"",""time""
""fullscreenexit"",""7"",""35591""
","","","-1","","","21","8932","3740","&#9761;","elianto","#3366ff99","-1","-1","1","+10","[]","0","0","2","","","","","","","",""
"pit-trial","47","480041","0.0-2.0-11.2-0.2","battery-v0.2","","""event"",""trial"",""time""
""fullscreenenter"",""1"",""1443""
""fullscreenexit"",""7"",""35591""
""blur"",""7"",""36927""
""focus"",""7"",""63467""
""blur"",""7"",""92411""
""focus"",""7"",""94873""
""blur"",""7"",""96031""
""focus"",""7"",""100199""
","""event"",""trial"",""time""
""blur"",""7"",""36927""
""blur"",""7"",""92411""
""blur"",""7"",""96031""
","""event"",""trial"",""time""
""focus"",""7"",""63467""
""focus"",""7"",""94873""
""focus"",""7"",""100199""
","""event"",""trial"",""time""
""fullscreenenter"",""1"",""1443""
","""event"",""trial"",""time""
""fullscreenexit"",""7"",""35591""
","","","-1","","","21","8932","3740","&#9761;","elianto","#3366ff99","-1","-1","1","+10","[]","0","0","2","","","","","","","",""
"pit-trial","48","484895","0.0-2.0-11.2-1.2","battery-v0.2","","""event"",""trial"",""time""
""fullscreenenter"",""1"",""1443""
""fullscreenexit"",""7"",""35591""
""blur"",""7"",""36927""
""focus"",""7"",""63467""
""blur"",""7"",""92411""
""focus"",""7"",""94873""
""blur"",""7"",""96031""
""focus"",""7"",""100199""
","""event"",""trial"",""time""
""blur"",""7"",""36927""
""blur"",""7"",""92411""
""blur"",""7"",""96031""
","""event"",""trial"",""time""
""focus"",""7"",""63467""
""focus"",""7"",""94873""
""focus"",""7"",""100199""
","""event"",""trial"",""time""
""fullscreenenter"",""1"",""1443""
","""event"",""trial"",""time""
""fullscreenexit"",""7"",""35591""
","","","-1","","","21","8932","3740","&#9761;","elianto","#3366ff99","-1","-1","1","+10","[]","0","0","2","","","","","","","",""
"pit-trial","49","489749","0.0-2.0-11.2-2.2","battery-v0.2","","""event"",""trial"",""time""
""fullscreenenter"",""1"",""1443""
""fullscreenexit"",""7"",""35591""
""blur"",""7"",""36927""
""focus"",""7"",""63467""
""blur"",""7"",""92411""
""focus"",""7"",""94873""
""blur"",""7"",""96031""
""focus"",""7"",""100199""
","""event"",""trial"",""time""
""blur"",""7"",""36927""
""blur"",""7"",""92411""
""blur"",""7"",""96031""
","""event"",""trial"",""time""
""focus"",""7"",""63467""
""focus"",""7"",""94873""
""focus"",""7"",""100199""
","""event"",""trial"",""time""
""fullscreenenter"",""1"",""1443""
","""event"",""trial"",""time""
""fullscreenexit"",""7"",""35591""
","","","-1","","","21","8932","3740","&#9761;","elianto","#3366ff99","-1","-1","1","+10","[]","0","0","2","","","","","","","",""
"pit-trial","50","494602","0.0-2.0-11.2-3.2","battery-v0.2","","""event"",""trial"",""time""
""fullscreenenter"",""1"",""1443""
""fullscreenexit"",""7"",""35591""
""blur"",""7"",""36927""
""focus"",""7"",""63467""
""blur"",""7"",""92411""
""focus"",""7"",""94873""
""blur"",""7"",""96031""
""focus"",""7"",""100199""
","""event"",""trial"",""time""
""blur"",""7"",""36927""
""blur"",""7"",""92411""
""blur"",""7"",""96031""
","""event"",""trial"",""time""
""focus"",""7"",""63467""
""focus"",""7"",""94873""
""focus"",""7"",""100199""
","""event"",""trial"",""time""
""fullscreenenter"",""1"",""1443""
","""event"",""trial"",""time""
""fullscreenexit"",""7"",""35591""
","","","-1","","","21","8932","3740","&#9761;","elianto","#3366ff99","-1","-1","1","0","[]","0","0","2","","","","","","","",""
"pit-trial","51","499455","0.0-2.0-11.2-4.2","battery-v0.2","","""event"",""trial"",""time""
""fullscreenenter"",""1"",""1443""
""fullscreenexit"",""7"",""35591""
""blur"",""7"",""36927""
""focus"",""7"",""63467""
""blur"",""7"",""92411""
""focus"",""7"",""94873""
""blur"",""7"",""96031""
""focus"",""7"",""100199""
","""event"",""trial"",""time""
""blur"",""7"",""36927""
""blur"",""7"",""92411""
""blur"",""7"",""96031""
","""event"",""trial"",""time""
""focus"",""7"",""63467""
""focus"",""7"",""94873""
""focus"",""7"",""100199""
","""event"",""trial"",""time""
""fullscreenenter"",""1"",""1443""
","""event"",""trial"",""time""
""fullscreenexit"",""7"",""35591""
","","","-1","","","21","8932","3740","&#9761;","elianto","#3366ff99","-1","-1","1","+10","[]","0","0","2","","","","","","","",""
"pit-trial","52","504310","0.0-2.0-11.3-0.3","battery-v0.2","","""event"",""trial"",""time""
""fullscreenenter"",""1"",""1443""
""fullscreenexit"",""7"",""35591""
""blur"",""7"",""36927""
""focus"",""7"",""63467""
""blur"",""7"",""92411""
""focus"",""7"",""94873""
""blur"",""7"",""96031""
""focus"",""7"",""100199""
","""event"",""trial"",""time""
""blur"",""7"",""36927""
""blur"",""7"",""92411""
""blur"",""7"",""96031""
","""event"",""trial"",""time""
""focus"",""7"",""63467""
""focus"",""7"",""94873""
""focus"",""7"",""100199""
","""event"",""trial"",""time""
""fullscreenenter"",""1"",""1443""
","""event"",""trial"",""time""
""fullscreenexit"",""7"",""35591""
","","","-1","","","21","8932","3740","&#9761;","elianto","#3366ff99","-1","-1","1","+10","[]","0","0","2","","","","","","","",""
"pit-trial","53","509163","0.0-2.0-11.3-1.3","battery-v0.2","","""event"",""trial"",""time""
""fullscreenenter"",""1"",""1443""
""fullscreenexit"",""7"",""35591""
""blur"",""7"",""36927""
""focus"",""7"",""63467""
""blur"",""7"",""92411""
""focus"",""7"",""94873""
""blur"",""7"",""96031""
""focus"",""7"",""100199""
","""event"",""trial"",""time""
""blur"",""7"",""36927""
""blur"",""7"",""92411""
""blur"",""7"",""96031""
","""event"",""trial"",""time""
""focus"",""7"",""63467""
""focus"",""7"",""94873""
""focus"",""7"",""100199""
","""event"",""trial"",""time""
""fullscreenenter"",""1"",""1443""
","""event"",""trial"",""time""
""fullscreenexit"",""7"",""35591""
","","","-1","","","21","8932","3740","&#9761;","elianto","#3366ff99","-1","-1","1","+10","[]","0","0","2","","","","","","","",""
"pit-trial","54","514017","0.0-2.0-11.3-2.3","battery-v0.2","","""event"",""trial"",""time""
""fullscreenenter"",""1"",""1443""
""fullscreenexit"",""7"",""35591""
""blur"",""7"",""36927""
""focus"",""7"",""63467""
""blur"",""7"",""92411""
""focus"",""7"",""94873""
""blur"",""7"",""96031""
""focus"",""7"",""100199""
","""event"",""trial"",""time""
""blur"",""7"",""36927""
""blur"",""7"",""92411""
""blur"",""7"",""96031""
","""event"",""trial"",""time""
""focus"",""7"",""63467""
""focus"",""7"",""94873""
""focus"",""7"",""100199""
","""event"",""trial"",""time""
""fullscreenenter"",""1"",""1443""
","""event"",""trial"",""time""
""fullscreenexit"",""7"",""35591""
","","","-1","","","21","8932","3740","&#9761;","elianto","#3366ff99","-1","-1","1","+10","[]","0","0","2","","","","","","","",""
"pit-trial","55","518870","0.0-2.0-11.3-3.3","battery-v0.2","","""event"",""trial"",""time""
""fullscreenenter"",""1"",""1443""
""fullscreenexit"",""7"",""35591""
""blur"",""7"",""36927""
""focus"",""7"",""63467""
""blur"",""7"",""92411""
""focus"",""7"",""94873""
""blur"",""7"",""96031""
""focus"",""7"",""100199""
","""event"",""trial"",""time""
""blur"",""7"",""36927""
""blur"",""7"",""92411""
""blur"",""7"",""96031""
","""event"",""trial"",""time""
""focus"",""7"",""63467""
""focus"",""7"",""94873""
""focus"",""7"",""100199""
","""event"",""trial"",""time""
""fullscreenenter"",""1"",""1443""
","""event"",""trial"",""time""
""fullscreenexit"",""7"",""35591""
","","","-1","","","21","8932","3740","&#9761;","elianto","#3366ff99","-1","-1","1","0","[]","0","0","2","","","","","","","",""
"pit-trial","56","523728","0.0-2.0-11.3-4.3","battery-v0.2","","""event"",""trial"",""time""
""fullscreenenter"",""1"",""1443""
""fullscreenexit"",""7"",""35591""
""blur"",""7"",""36927""
""focus"",""7"",""63467""
""blur"",""7"",""92411""
""focus"",""7"",""94873""
""blur"",""7"",""96031""
""focus"",""7"",""100199""
","""event"",""trial"",""time""
""blur"",""7"",""36927""
""blur"",""7"",""92411""
""blur"",""7"",""96031""
","""event"",""trial"",""time""
""focus"",""7"",""63467""
""focus"",""7"",""94873""
""focus"",""7"",""100199""
","""event"",""trial"",""time""
""fullscreenenter"",""1"",""1443""
","""event"",""trial"",""time""
""fullscreenexit"",""7"",""35591""
","","","-1","","","21","8932","3740","&#9761;","elianto","#3366ff99","-1","-1","1","+10","[]","0","0","2","","","","","","","",""
"call-function","57","523728","0.0-2.0-12.0","battery-v0.2","","""event"",""trial"",""time""
""fullscreenenter"",""1"",""1443""
""fullscreenexit"",""7"",""35591""
""blur"",""7"",""36927""
""focus"",""7"",""63467""
""blur"",""7"",""92411""
""focus"",""7"",""94873""
""blur"",""7"",""96031""
""focus"",""7"",""100199""
","""event"",""trial"",""time""
""blur"",""7"",""36927""
""blur"",""7"",""92411""
""blur"",""7"",""96031""
","""event"",""trial"",""time""
""focus"",""7"",""63467""
""focus"",""7"",""94873""
""focus"",""7"",""100199""
","""event"",""trial"",""time""
""fullscreenenter"",""1"",""1443""
","""event"",""trial"",""time""
""fullscreenexit"",""7"",""35591""
","","","","","","","","","","","","","","","","","","","","","","","","","","",""
"pit-instructions","58","560242","0.0-2.0-13.0","battery-v0.2","","""event"",""trial"",""time""
""fullscreenenter"",""1"",""1443""
""fullscreenexit"",""7"",""35591""
""blur"",""7"",""36927""
""focus"",""7"",""63467""
""blur"",""7"",""92411""
""focus"",""7"",""94873""
""blur"",""7"",""96031""
""focus"",""7"",""100199""
","""event"",""trial"",""time""
""blur"",""7"",""36927""
""blur"",""7"",""92411""
""blur"",""7"",""96031""
","""event"",""trial"",""time""
""focus"",""7"",""63467""
""focus"",""7"",""94873""
""focus"",""7"",""100199""
","""event"",""trial"",""time""
""fullscreenenter"",""1"",""1443""
","""event"",""trial"",""time""
""fullscreenexit"",""7"",""35591""
","","[{""page_index"":0,""viewing_time"":4774.600000023842},{""page_index"":1,""viewing_time"":9444.399999976158},{""page_index"":2,""viewing_time"":7876.100000023842},{""page_index"":3,""viewing_time"":10147.299999952316},{""page_index"":4,""viewing_time"":4270.5}]","36513.300000071526","","","","","","","","","","","","","","","","","","","","","","","",""
"pit-trial","59","563840","0.0-2.0-14.0-0.0","battery-v0.2","","""event"",""trial"",""time""
""fullscreenenter"",""1"",""1443""
""fullscreenexit"",""7"",""35591""
""blur"",""7"",""36927""
""focus"",""7"",""63467""
""blur"",""7"",""92411""
""focus"",""7"",""94873""
""blur"",""7"",""96031""
""focus"",""7"",""100199""
","""event"",""trial"",""time""
""blur"",""7"",""36927""
""blur"",""7"",""92411""
""blur"",""7"",""96031""
","""event"",""trial"",""time""
""focus"",""7"",""63467""
""focus"",""7"",""94873""
""focus"",""7"",""100199""
","""event"",""trial"",""time""
""fullscreenenter"",""1"",""1443""
","""event"",""trial"",""time""
""fullscreenexit"",""7"",""35591""
","","","738.2999999523163","","","21","8932","3740","&#9826;","elianto","#f73b6a7A","-1"," ","0","-10","[1594]","1","0","3","","","","","","","",""
"pit-trial","60","566775","0.0-2.0-14.0-1.0","battery-v0.2","","""event"",""trial"",""time""
""fullscreenenter"",""1"",""1443""
""fullscreenexit"",""7"",""35591""
""blur"",""7"",""36927""
""focus"",""7"",""63467""
""blur"",""7"",""92411""
""focus"",""7"",""94873""
""blur"",""7"",""96031""
""focus"",""7"",""100199""
","""event"",""trial"",""time""
""blur"",""7"",""36927""
""blur"",""7"",""92411""
""blur"",""7"",""96031""
","""event"",""trial"",""time""
""focus"",""7"",""63467""
""focus"",""7"",""94873""
""focus"",""7"",""100199""
","""event"",""trial"",""time""
""fullscreenenter"",""1"",""1443""
","""event"",""trial"",""time""
""fullscreenexit"",""7"",""35591""
","","","63.90000009536743","","","21","8932","3740","&#9826;","elianto","#f73b6a7A","-1"," ","0","-10","[918.8000000715256]","1","0","3","","","","","","","",""
"pit-trial","61","571648","0.0-2.0-14.0-2.0","battery-v0.2","","""event"",""trial"",""time""
""fullscreenenter"",""1"",""1443""
""fullscreenexit"",""7"",""35591""
""blur"",""7"",""36927""
""focus"",""7"",""63467""
""blur"",""7"",""92411""
""focus"",""7"",""94873""
""blur"",""7"",""96031""
""focus"",""7"",""100199""
","""event"",""trial"",""time""
""blur"",""7"",""36927""
""blur"",""7"",""92411""
""blur"",""7"",""96031""
","""event"",""trial"",""time""
""focus"",""7"",""63467""
""focus"",""7"",""94873""
""focus"",""7"",""100199""
","""event"",""trial"",""time""
""fullscreenenter"",""1"",""1443""
","""event"",""trial"",""time""
""fullscreenexit"",""7"",""35591""
","","","-1","","","21","8932","3740","&#9826;","elianto","#f73b6a7A","-1","-1","1","0","[]","0","0","3","","","","","","","",""
"pit-trial","62","576509","0.0-2.0-14.0-3.0","battery-v0.2","","""event"",""trial"",""time""
""fullscreenenter"",""1"",""1443""
""fullscreenexit"",""7"",""35591""
""blur"",""7"",""36927""
""focus"",""7"",""63467""
""blur"",""7"",""92411""
""focus"",""7"",""94873""
""blur"",""7"",""96031""
""focus"",""7"",""100199""
","""event"",""trial"",""time""
""blur"",""7"",""36927""
""blur"",""7"",""92411""
""blur"",""7"",""96031""
","""event"",""trial"",""time""
""focus"",""7"",""63467""
""focus"",""7"",""94873""
""focus"",""7"",""100199""
","""event"",""trial"",""time""
""fullscreenenter"",""1"",""1443""
","""event"",""trial"",""time""
""fullscreenexit"",""7"",""35591""
","","","-1","","","21","8932","3740","&#9826;","elianto","#f73b6a7A","-1","-1","1","-10","[]","0","0","3","","","","","","","",""
"pit-trial","63","581369","0.0-2.0-14.0-4.0","battery-v0.2","","""event"",""trial"",""time""
""fullscreenenter"",""1"",""1443""
""fullscreenexit"",""7"",""35591""
""blur"",""7"",""36927""
""focus"",""7"",""63467""
""blur"",""7"",""92411""
""focus"",""7"",""94873""
""blur"",""7"",""96031""
""focus"",""7"",""100199""
","""event"",""trial"",""time""
""blur"",""7"",""36927""
""blur"",""7"",""92411""
""blur"",""7"",""96031""
","""event"",""trial"",""time""
""focus"",""7"",""63467""
""focus"",""7"",""94873""
""focus"",""7"",""100199""
","""event"",""trial"",""time""
""fullscreenenter"",""1"",""1443""
","""event"",""trial"",""time""
""fullscreenexit"",""7"",""35591""
","","","-1","","","21","8932","3740","&#9826;","elianto","#f73b6a7A","-1","-1","1","0","[]","0","0","3","","","","","","","",""
"pit-trial","64","586245","0.0-2.0-14.1-0.1","battery-v0.2","","""event"",""trial"",""time""
""fullscreenenter"",""1"",""1443""
""fullscreenexit"",""7"",""35591""
""blur"",""7"",""36927""
""focus"",""7"",""63467""
""blur"",""7"",""92411""
""focus"",""7"",""94873""
""blur"",""7"",""96031""
""focus"",""7"",""100199""
","""event"",""trial"",""time""
""blur"",""7"",""36927""
""blur"",""7"",""92411""
""blur"",""7"",""96031""
","""event"",""trial"",""time""
""focus"",""7"",""63467""
""focus"",""7"",""94873""
""focus"",""7"",""100199""
","""event"",""trial"",""time""
""fullscreenenter"",""1"",""1443""
","""event"",""trial"",""time""
""fullscreenexit"",""7"",""35591""
","","","-1","","","21","8932","3740","&#9826;","elianto","#f73b6a7A","-1","-1","1","0","[]","0","0","3","","","","","","","",""
"pit-trial","65","591103","0.0-2.0-14.1-1.1","battery-v0.2","","""event"",""trial"",""time""
""fullscreenenter"",""1"",""1443""
""fullscreenexit"",""7"",""35591""
""blur"",""7"",""36927""
""focus"",""7"",""63467""
""blur"",""7"",""92411""
""focus"",""7"",""94873""
""blur"",""7"",""96031""
""focus"",""7"",""100199""
","""event"",""trial"",""time""
""blur"",""7"",""36927""
""blur"",""7"",""92411""
""blur"",""7"",""96031""
","""event"",""trial"",""time""
""focus"",""7"",""63467""
""focus"",""7"",""94873""
""focus"",""7"",""100199""
","""event"",""trial"",""time""
""fullscreenenter"",""1"",""1443""
","""event"",""trial"",""time""
""fullscreenexit"",""7"",""35591""
","","","-1","","","21","8932","3740","&#9826;","elianto","#f73b6a7A","-1","-1","1","0","[]","0","0","3","","","","","","","",""
"pit-trial","66","595957","0.0-2.0-14.1-2.1","battery-v0.2","","""event"",""trial"",""time""
""fullscreenenter"",""1"",""1443""
""fullscreenexit"",""7"",""35591""
""blur"",""7"",""36927""
""focus"",""7"",""63467""
""blur"",""7"",""92411""
""focus"",""7"",""94873""
""blur"",""7"",""96031""
""focus"",""7"",""100199""
","""event"",""trial"",""time""
""blur"",""7"",""36927""
""blur"",""7"",""92411""
""blur"",""7"",""96031""
","""event"",""trial"",""time""
""focus"",""7"",""63467""
""focus"",""7"",""94873""
""focus"",""7"",""100199""
","""event"",""trial"",""time""
""fullscreenenter"",""1"",""1443""
","""event"",""trial"",""time""
""fullscreenexit"",""7"",""35591""
","","","-1","","","21","8932","3740","&#9826;","elianto","#f73b6a7A","-1","-1","1","0","[]","0","0","3","","","","","","","",""
"pit-trial","67","600810","0.0-2.0-14.1-3.1","battery-v0.2","","""event"",""trial"",""time""
""fullscreenenter"",""1"",""1443""
""fullscreenexit"",""7"",""35591""
""blur"",""7"",""36927""
""focus"",""7"",""63467""
""blur"",""7"",""92411""
""focus"",""7"",""94873""
""blur"",""7"",""96031""
""focus"",""7"",""100199""
","""event"",""trial"",""time""
""blur"",""7"",""36927""
""blur"",""7"",""92411""
""blur"",""7"",""96031""
","""event"",""trial"",""time""
""focus"",""7"",""63467""
""focus"",""7"",""94873""
""focus"",""7"",""100199""
","""event"",""trial"",""time""
""fullscreenenter"",""1"",""1443""
","""event"",""trial"",""time""
""fullscreenexit"",""7"",""35591""
","","","-1","","","21","8932","3740","&#9826;","elianto","#f73b6a7A","-1","-1","1","-10","[]","0","0","3","","","","","","","",""
"pit-trial","68","605663","0.0-2.0-14.1-4.1","battery-v0.2","","""event"",""trial"",""time""
""fullscreenenter"",""1"",""1443""
""fullscreenexit"",""7"",""35591""
""blur"",""7"",""36927""
""focus"",""7"",""63467""
""blur"",""7"",""92411""
""focus"",""7"",""94873""
""blur"",""7"",""96031""
""focus"",""7"",""100199""
","""event"",""trial"",""time""
""blur"",""7"",""36927""
""blur"",""7"",""92411""
""blur"",""7"",""96031""
","""event"",""trial"",""time""
""focus"",""7"",""63467""
""focus"",""7"",""94873""
""focus"",""7"",""100199""
","""event"",""trial"",""time""
""fullscreenenter"",""1"",""1443""
","""event"",""trial"",""time""
""fullscreenexit"",""7"",""35591""
","","","-1","","","21","8932","3740","&#9826;","elianto","#f73b6a7A","-1","-1","1","0","[]","0","0","3","","","","","","","",""
"pit-trial","69","610517","0.0-2.0-14.2-0.2","battery-v0.2","","""event"",""trial"",""time""
""fullscreenenter"",""1"",""1443""
""fullscreenexit"",""7"",""35591""
""blur"",""7"",""36927""
""focus"",""7"",""63467""
""blur"",""7"",""92411""
""focus"",""7"",""94873""
""blur"",""7"",""96031""
""focus"",""7"",""100199""
","""event"",""trial"",""time""
""blur"",""7"",""36927""
""blur"",""7"",""92411""
""blur"",""7"",""96031""
","""event"",""trial"",""time""
""focus"",""7"",""63467""
""focus"",""7"",""94873""
""focus"",""7"",""100199""
","""event"",""trial"",""time""
""fullscreenenter"",""1"",""1443""
","""event"",""trial"",""time""
""fullscreenexit"",""7"",""35591""
","","","-1","","","21","8932","3740","&#9826;","elianto","#f73b6a7A","-1","-1","1","0","[]","0","0","3","","","","","","","",""
"pit-trial","70","615371","0.0-2.0-14.2-1.2","battery-v0.2","","""event"",""trial"",""time""
""fullscreenenter"",""1"",""1443""
""fullscreenexit"",""7"",""35591""
""blur"",""7"",""36927""
""focus"",""7"",""63467""
""blur"",""7"",""92411""
""focus"",""7"",""94873""
""blur"",""7"",""96031""
""focus"",""7"",""100199""
","""event"",""trial"",""time""
""blur"",""7"",""36927""
""blur"",""7"",""92411""
""blur"",""7"",""96031""
","""event"",""trial"",""time""
""focus"",""7"",""63467""
""focus"",""7"",""94873""
""focus"",""7"",""100199""
","""event"",""trial"",""time""
""fullscreenenter"",""1"",""1443""
","""event"",""trial"",""time""
""fullscreenexit"",""7"",""35591""
","","","-1","","","21","8932","3740","&#9826;","elianto","#f73b6a7A","-1","-1","1","0","[]","0","0","3","","","","","","","",""
"pit-trial","71","620225","0.0-2.0-14.2-2.2","battery-v0.2","","""event"",""trial"",""time""
""fullscreenenter"",""1"",""1443""
""fullscreenexit"",""7"",""35591""
""blur"",""7"",""36927""
""focus"",""7"",""63467""
""blur"",""7"",""92411""
""focus"",""7"",""94873""
""blur"",""7"",""96031""
""focus"",""7"",""100199""
","""event"",""trial"",""time""
""blur"",""7"",""36927""
""blur"",""7"",""92411""
""blur"",""7"",""96031""
","""event"",""trial"",""time""
""focus"",""7"",""63467""
""focus"",""7"",""94873""
""focus"",""7"",""100199""
","""event"",""trial"",""time""
""fullscreenenter"",""1"",""1443""
","""event"",""trial"",""time""
""fullscreenexit"",""7"",""35591""
","","","-1","","","21","8932","3740","&#9826;","elianto","#f73b6a7A","-1","-1","1","0","[]","0","0","3","","","","","","","",""
"pit-trial","72","625078","0.0-2.0-14.2-3.2","battery-v0.2","","""event"",""trial"",""time""
""fullscreenenter"",""1"",""1443""
""fullscreenexit"",""7"",""35591""
""blur"",""7"",""36927""
""focus"",""7"",""63467""
""blur"",""7"",""92411""
""focus"",""7"",""94873""
""blur"",""7"",""96031""
""focus"",""7"",""100199""
","""event"",""trial"",""time""
""blur"",""7"",""36927""
""blur"",""7"",""92411""
""blur"",""7"",""96031""
","""event"",""trial"",""time""
""focus"",""7"",""63467""
""focus"",""7"",""94873""
""focus"",""7"",""100199""
","""event"",""trial"",""time""
""fullscreenenter"",""1"",""1443""
","""event"",""trial"",""time""
""fullscreenexit"",""7"",""35591""
","","","-1","","","21","8932","3740","&#9826;","elianto","#f73b6a7A","-1","-1","1","-10","[]","0","0","3","","","","","","","",""
"pit-trial","73","629932","0.0-2.0-14.2-4.2","battery-v0.2","","""event"",""trial"",""time""
""fullscreenenter"",""1"",""1443""
""fullscreenexit"",""7"",""35591""
""blur"",""7"",""36927""
""focus"",""7"",""63467""
""blur"",""7"",""92411""
""focus"",""7"",""94873""
""blur"",""7"",""96031""
""focus"",""7"",""100199""
","""event"",""trial"",""time""
""blur"",""7"",""36927""
""blur"",""7"",""92411""
""blur"",""7"",""96031""
","""event"",""trial"",""time""
""focus"",""7"",""63467""
""focus"",""7"",""94873""
""focus"",""7"",""100199""
","""event"",""trial"",""time""
""fullscreenenter"",""1"",""1443""
","""event"",""trial"",""time""
""fullscreenexit"",""7"",""35591""
","","","-1","","","21","8932","3740","&#9826;","elianto","#f73b6a7A","-1","-1","1","0","[]","0","0","3","","","","","","","",""
"pit-trial","74","634787","0.0-2.0-14.3-0.3","battery-v0.2","","""event"",""trial"",""time""
""fullscreenenter"",""1"",""1443""
""fullscreenexit"",""7"",""35591""
""blur"",""7"",""36927""
""focus"",""7"",""63467""
""blur"",""7"",""92411""
""focus"",""7"",""94873""
""blur"",""7"",""96031""
""focus"",""7"",""100199""
","""event"",""trial"",""time""
""blur"",""7"",""36927""
""blur"",""7"",""92411""
""blur"",""7"",""96031""
","""event"",""trial"",""time""
""focus"",""7"",""63467""
""focus"",""7"",""94873""
""focus"",""7"",""100199""
","""event"",""trial"",""time""
""fullscreenenter"",""1"",""1443""
","""event"",""trial"",""time""
""fullscreenexit"",""7"",""35591""
","","","-1","","","21","8932","3740","&#9826;","elianto","#f73b6a7A","-1","-1","1","0","[]","0","0","3","","","","","","","",""
"pit-trial","75","639641","0.0-2.0-14.3-1.3","battery-v0.2","","""event"",""trial"",""time""
""fullscreenenter"",""1"",""1443""
""fullscreenexit"",""7"",""35591""
""blur"",""7"",""36927""
""focus"",""7"",""63467""
""blur"",""7"",""92411""
""focus"",""7"",""94873""
""blur"",""7"",""96031""
""focus"",""7"",""100199""
","""event"",""trial"",""time""
""blur"",""7"",""36927""
""blur"",""7"",""92411""
""blur"",""7"",""96031""
","""event"",""trial"",""time""
""focus"",""7"",""63467""
""focus"",""7"",""94873""
""focus"",""7"",""100199""
","""event"",""trial"",""time""
""fullscreenenter"",""1"",""1443""
","""event"",""trial"",""time""
""fullscreenexit"",""7"",""35591""
","","","-1","","","21","8932","3740","&#9826;","elianto","#f73b6a7A","-1","-1","1","0","[]","0","0","3","","","","","","","",""
"pit-trial","76","644494","0.0-2.0-14.3-2.3","battery-v0.2","","""event"",""trial"",""time""
""fullscreenenter"",""1"",""1443""
""fullscreenexit"",""7"",""35591""
""blur"",""7"",""36927""
""focus"",""7"",""63467""
""blur"",""7"",""92411""
""focus"",""7"",""94873""
""blur"",""7"",""96031""
""focus"",""7"",""100199""
","""event"",""trial"",""time""
""blur"",""7"",""36927""
""blur"",""7"",""92411""
""blur"",""7"",""96031""
","""event"",""trial"",""time""
""focus"",""7"",""63467""
""focus"",""7"",""94873""
""focus"",""7"",""100199""
","""event"",""trial"",""time""
""fullscreenenter"",""1"",""1443""
","""event"",""trial"",""time""
""fullscreenexit"",""7"",""35591""
","","","-1","","","21","8932","3740","&#9826;","elianto","#f73b6a7A","-1","-1","1","0","[]","0","0","3","","","","","","","",""
"pit-trial","77","649347","0.0-2.0-14.3-3.3","battery-v0.2","","""event"",""trial"",""time""
""fullscreenenter"",""1"",""1443""
""fullscreenexit"",""7"",""35591""
""blur"",""7"",""36927""
""focus"",""7"",""63467""
""blur"",""7"",""92411""
""focus"",""7"",""94873""
""blur"",""7"",""96031""
""focus"",""7"",""100199""
","""event"",""trial"",""time""
""blur"",""7"",""36927""
""blur"",""7"",""92411""
""blur"",""7"",""96031""
","""event"",""trial"",""time""
""focus"",""7"",""63467""
""focus"",""7"",""94873""
""focus"",""7"",""100199""
","""event"",""trial"",""time""
""fullscreenenter"",""1"",""1443""
","""event"",""trial"",""time""
""fullscreenexit"",""7"",""35591""
","","","-1","","","21","8932","3740","&#9826;","elianto","#f73b6a7A","-1","-1","1","-10","[]","0","0","3","","","","","","","",""
"pit-trial","78","654201","0.0-2.0-14.3-4.3","battery-v0.2","","""event"",""trial"",""time""
""fullscreenenter"",""1"",""1443""
""fullscreenexit"",""7"",""35591""
""blur"",""7"",""36927""
""focus"",""7"",""63467""
""blur"",""7"",""92411""
""focus"",""7"",""94873""
""blur"",""7"",""96031""
""focus"",""7"",""100199""
","""event"",""trial"",""time""
""blur"",""7"",""36927""
""blur"",""7"",""92411""
""blur"",""7"",""96031""
","""event"",""trial"",""time""
""focus"",""7"",""63467""
""focus"",""7"",""94873""
""focus"",""7"",""100199""
","""event"",""trial"",""time""
""fullscreenenter"",""1"",""1443""
","""event"",""trial"",""time""
""fullscreenexit"",""7"",""35591""
","","","-1","","","21","8932","3740","&#9826;","elianto","#f73b6a7A","-1","-1","1","0","[]","0","0","3","","","","","","","",""
"call-function","79","654203","0.0-2.0-15.0","battery-v0.2","","""event"",""trial"",""time""
""fullscreenenter"",""1"",""1443""
""fullscreenexit"",""7"",""35591""
""blur"",""7"",""36927""
""focus"",""7"",""63467""
""blur"",""7"",""92411""
""focus"",""7"",""94873""
""blur"",""7"",""96031""
""focus"",""7"",""100199""
","""event"",""trial"",""time""
""blur"",""7"",""36927""
""blur"",""7"",""92411""
""blur"",""7"",""96031""
","""event"",""trial"",""time""
""focus"",""7"",""63467""
""focus"",""7"",""94873""
""focus"",""7"",""100199""
","""event"",""trial"",""time""
""fullscreenenter"",""1"",""1443""
","""event"",""trial"",""time""
""fullscreenexit"",""7"",""35591""
","","","","","","","","","","","","","","","","","","","","","","","","","","",""
"pit-instructions","80","682716","0.0-2.0-16.0","battery-v0.2","","""event"",""trial"",""time""
""fullscreenenter"",""1"",""1443""
""fullscreenexit"",""7"",""35591""
""blur"",""7"",""36927""
""focus"",""7"",""63467""
""blur"",""7"",""92411""
""focus"",""7"",""94873""
""blur"",""7"",""96031""
""focus"",""7"",""100199""
","""event"",""trial"",""time""
""blur"",""7"",""36927""
""blur"",""7"",""92411""
""blur"",""7"",""96031""
","""event"",""trial"",""time""
""focus"",""7"",""63467""
""focus"",""7"",""94873""
""focus"",""7"",""100199""
","""event"",""trial"",""time""
""fullscreenenter"",""1"",""1443""
","""event"",""trial"",""time""
""fullscreenexit"",""7"",""35591""
","","[{""page_index"":0,""viewing_time"":7876.100000023842},{""page_index"":1,""viewing_time"":9291.700000047684},{""page_index"":2,""viewing_time"":7226.600000023842},{""page_index"":3,""viewing_time"":4118}]","28512.800000071526","","","","","","","","","","","","","","","","","","","","","","","",""
"pit-trial","81","687588","0.0-2.0-17.0-0.0","battery-v0.2","","""event"",""trial"",""time""
""fullscreenenter"",""1"",""1443""
""fullscreenexit"",""7"",""35591""
""blur"",""7"",""36927""
""focus"",""7"",""63467""
""blur"",""7"",""92411""
""focus"",""7"",""94873""
""blur"",""7"",""96031""
""focus"",""7"",""100199""
","""event"",""trial"",""time""
""blur"",""7"",""36927""
""blur"",""7"",""92411""
""blur"",""7"",""96031""
","""event"",""trial"",""time""
""focus"",""7"",""63467""
""focus"",""7"",""94873""
""focus"",""7"",""100199""
","""event"",""trial"",""time""
""fullscreenenter"",""1"",""1443""
","""event"",""trial"",""time""
""fullscreenexit"",""7"",""35591""
","","","-1","","","21","8932","3740","&#9789;","elianto","#f73b6a7A"," ","-1","0","-10","[2954]","1","0","4","","","","","","","",""
"pit-trial","82","690797","0.0-2.0-17.0-1.0","battery-v0.2","","""event"",""trial"",""time""
""fullscreenenter"",""1"",""1443""
""fullscreenexit"",""7"",""35591""
""blur"",""7"",""36927""
""focus"",""7"",""63467""
""blur"",""7"",""92411""
""focus"",""7"",""94873""
""blur"",""7"",""96031""
""focus"",""7"",""100199""
","""event"",""trial"",""time""
""blur"",""7"",""36927""
""blur"",""7"",""92411""
""blur"",""7"",""96031""
","""event"",""trial"",""time""
""focus"",""7"",""63467""
""focus"",""7"",""94873""
""focus"",""7"",""100199""
","""event"",""trial"",""time""
""fullscreenenter"",""1"",""1443""
","""event"",""trial"",""time""
""fullscreenexit"",""7"",""35591""
","","","351.89999997615814","","","21","8932","3740","&#9789;","elianto","#f73b6a7A"," "," ","1","0","[1205.5999999046326]","1","0","4","","","","","","","",""
"pit-trial","83","694039","0.0-2.0-17.0-2.0","battery-v0.2","","""event"",""trial"",""time""
""fullscreenenter"",""1"",""1443""
""fullscreenexit"",""7"",""35591""
""blur"",""7"",""36927""
""focus"",""7"",""63467""
""blur"",""7"",""92411""
""focus"",""7"",""94873""
""blur"",""7"",""96031""
""focus"",""7"",""100199""
","""event"",""trial"",""time""
""blur"",""7"",""36927""
""blur"",""7"",""92411""
""blur"",""7"",""96031""
","""event"",""trial"",""time""
""focus"",""7"",""63467""
""focus"",""7"",""94873""
""focus"",""7"",""100199""
","""event"",""trial"",""time""
""fullscreenenter"",""1"",""1443""
","""event"",""trial"",""time""
""fullscreenexit"",""7"",""35591""
","","","375","","","21","8932","3740","&#9789;","elianto","#f73b6a7A"," "," ","1","0","[1227.7999999523163]","1","0","4","","","","","","","",""
"pit-trial","84","697031","0.0-2.0-17.0-3.0","battery-v0.2","","""event"",""trial"",""time""
""fullscreenenter"",""1"",""1443""
""fullscreenexit"",""7"",""35591""
""blur"",""7"",""36927""
""focus"",""7"",""63467""
""blur"",""7"",""92411""
""focus"",""7"",""94873""
""blur"",""7"",""96031""
""focus"",""7"",""100199""
","""event"",""trial"",""time""
""blur"",""7"",""36927""
""blur"",""7"",""92411""
""blur"",""7"",""96031""
","""event"",""trial"",""time""
""focus"",""7"",""63467""
""focus"",""7"",""94873""
""focus"",""7"",""100199""
","""event"",""trial"",""time""
""fullscreenenter"",""1"",""1443""
","""event"",""trial"",""time""
""fullscreenexit"",""7"",""35591""
","","","129.29999995231628","","","21","8932","3740","&#9789;","elianto","#f73b6a7A"," "," ","1","-10","[984.3999999761581]","1","0","4","","","","","","","",""
"pit-trial","85","700314","0.0-2.0-17.0-4.0","battery-v0.2","","""event"",""trial"",""time""
""fullscreenenter"",""1"",""1443""
""fullscreenexit"",""7"",""35591""
""blur"",""7"",""36927""
""focus"",""7"",""63467""
""blur"",""7"",""92411""
""focus"",""7"",""94873""
""blur"",""7"",""96031""
""focus"",""7"",""100199""
","""event"",""trial"",""time""
""blur"",""7"",""36927""
""blur"",""7"",""92411""
""blur"",""7"",""96031""
","""event"",""trial"",""time""
""focus"",""7"",""63467""
""focus"",""7"",""94873""
""focus"",""7"",""100199""
","""event"",""trial"",""time""
""fullscreenenter"",""1"",""1443""
","""event"",""trial"",""time""
""fullscreenexit"",""7"",""35591""
","","","416","","","21","8932","3740","&#9789;","elianto","#f73b6a7A"," "," ","1","0","[1269.2999999523163]","1","0","4","","","","","","","",""
"pit-trial","86","703675","0.0-2.0-17.1-0.1","battery-v0.2","","""event"",""trial"",""time""
""fullscreenenter"",""1"",""1443""
""fullscreenexit"",""7"",""35591""
""blur"",""7"",""36927""
""focus"",""7"",""63467""
""blur"",""7"",""92411""
""focus"",""7"",""94873""
""blur"",""7"",""96031""
""focus"",""7"",""100199""
","""event"",""trial"",""time""
""blur"",""7"",""36927""
""blur"",""7"",""92411""
""blur"",""7"",""96031""
","""event"",""trial"",""time""
""focus"",""7"",""63467""
""focus"",""7"",""94873""
""focus"",""7"",""100199""
","""event"",""trial"",""time""
""fullscreenenter"",""1"",""1443""
","""event"",""trial"",""time""
""fullscreenexit"",""7"",""35591""
","","","505.2000000476837","","","21","8932","3740","&#9789;","elianto","#f73b6a7A"," "," ","1","0","[1358.5]","1","0","4","","","","","","","",""
"pit-trial","87","706838","0.0-2.0-17.1-1.1","battery-v0.2","","""event"",""trial"",""time""
""fullscreenenter"",""1"",""1443""
""fullscreenexit"",""7"",""35591""
""blur"",""7"",""36927""
""focus"",""7"",""63467""
""blur"",""7"",""92411""
""focus"",""7"",""94873""
""blur"",""7"",""96031""
""focus"",""7"",""100199""
","""event"",""trial"",""time""
""blur"",""7"",""36927""
""blur"",""7"",""92411""
""blur"",""7"",""96031""
","""event"",""trial"",""time""
""focus"",""7"",""63467""
""focus"",""7"",""94873""
""focus"",""7"",""100199""
","""event"",""trial"",""time""
""fullscreenenter"",""1"",""1443""
","""event"",""trial"",""time""
""fullscreenexit"",""7"",""35591""
","","","294.10000002384186","","","21","8932","3740","&#9789;","elianto","#f73b6a7A"," "," ","1","0","[1150.2999999523163]","1","0","4","","","","","","","",""
"pit-trial","88","710177","0.0-2.0-17.1-2.1","battery-v0.2","","""event"",""trial"",""time""
""fullscreenenter"",""1"",""1443""
""fullscreenexit"",""7"",""35591""
""blur"",""7"",""36927""
""focus"",""7"",""63467""
""blur"",""7"",""92411""
""focus"",""7"",""94873""
""blur"",""7"",""96031""
""focus"",""7"",""100199""
","""event"",""trial"",""time""
""blur"",""7"",""36927""
""blur"",""7"",""92411""
""blur"",""7"",""96031""
","""event"",""trial"",""time""
""focus"",""7"",""63467""
""focus"",""7"",""94873""
""focus"",""7"",""100199""
","""event"",""trial"",""time""
""fullscreenenter"",""1"",""1443""
","""event"",""trial"",""time""
""fullscreenexit"",""7"",""35591""
","","","478.5","","","21","8932","3740","&#9789;","elianto","#f73b6a7A"," "," ","1","0","[1330.7000000476837]","1","0","4","","","","","","","",""
"pit-trial","89","713245","0.0-2.0-17.1-3.1","battery-v0.2","","""event"",""trial"",""time""
""fullscreenenter"",""1"",""1443""
""fullscreenexit"",""7"",""35591""
""blur"",""7"",""36927""
""focus"",""7"",""63467""
""blur"",""7"",""92411""
""focus"",""7"",""94873""
""blur"",""7"",""96031""
""focus"",""7"",""100199""
","""event"",""trial"",""time""
""blur"",""7"",""36927""
""blur"",""7"",""92411""
""blur"",""7"",""96031""
","""event"",""trial"",""time""
""focus"",""7"",""63467""
""focus"",""7"",""94873""
""focus"",""7"",""100199""
","""event"",""trial"",""time""
""fullscreenenter"",""1"",""1443""
","""event"",""trial"",""time""
""fullscreenexit"",""7"",""35591""
","","","203.89999997615814","","","21","8932","3740","&#9789;","elianto","#f73b6a7A"," "," ","1","-10","[1057.7999999523163]","1","0","4","","","","","","","",""
"pit-trial","90","716422","0.0-2.0-17.1-4.1","battery-v0.2","","""event"",""trial"",""time""
""fullscreenenter"",""1"",""1443""
""fullscreenexit"",""7"",""35591""
""blur"",""7"",""36927""
""focus"",""7"",""63467""
""blur"",""7"",""92411""
""focus"",""7"",""94873""
""blur"",""7"",""96031""
""focus"",""7"",""100199""
","""event"",""trial"",""time""
""blur"",""7"",""36927""
""blur"",""7"",""92411""
""blur"",""7"",""96031""
","""event"",""trial"",""time""
""focus"",""7"",""63467""
""focus"",""7"",""94873""
""focus"",""7"",""100199""
","""event"",""trial"",""time""
""fullscreenenter"",""1"",""1443""
","""event"",""trial"",""time""
""fullscreenexit"",""7"",""35591""
","","","323.5","","","21","8932","3740","&#9789;","elianto","#f73b6a7A"," "," ","1","0","[1174.5]","1","0","4","","","","","","","",""
"pit-trial","91","719472","0.0-2.0-17.2-0.2","battery-v0.2","","""event"",""trial"",""time""
""fullscreenenter"",""1"",""1443""
""fullscreenexit"",""7"",""35591""
""blur"",""7"",""36927""
""focus"",""7"",""63467""
""blur"",""7"",""92411""
""focus"",""7"",""94873""
""blur"",""7"",""96031""
""focus"",""7"",""100199""
","""event"",""trial"",""time""
""blur"",""7"",""36927""
""blur"",""7"",""92411""
""blur"",""7"",""96031""
","""event"",""trial"",""time""
""focus"",""7"",""63467""
""focus"",""7"",""94873""
""focus"",""7"",""100199""
","""event"",""trial"",""time""
""fullscreenenter"",""1"",""1443""
","""event"",""trial"",""time""
""fullscreenexit"",""7"",""35591""
","","","195.60000002384186","","","21","8932","3740","&#9789;","elianto","#f73b6a7A"," "," ","1","0","[1046.4000000953674]","1","0","4","","","","","","","",""
"pit-trial","92","722664","0.0-2.0-17.2-1.2","battery-v0.2","","""event"",""trial"",""time""
""fullscreenenter"",""1"",""1443""
""fullscreenexit"",""7"",""35591""
""blur"",""7"",""36927""
""focus"",""7"",""63467""
""blur"",""7"",""92411""
""focus"",""7"",""94873""
""blur"",""7"",""96031""
""focus"",""7"",""100199""
","""event"",""trial"",""time""
""blur"",""7"",""36927""
""blur"",""7"",""92411""
""blur"",""7"",""96031""
","""event"",""trial"",""time""
""focus"",""7"",""63467""
""focus"",""7"",""94873""
""focus"",""7"",""100199""
","""event"",""trial"",""time""
""fullscreenenter"",""1"",""1443""
","""event"",""trial"",""time""
""fullscreenexit"",""7"",""35591""
","","","338.1999999284744","","","21","8932","3740","&#9789;","elianto","#f73b6a7A"," "," ","1","0","[1188.2999999523163]","1","0","4","","","","","","","",""
"pit-trial","93","725832","0.0-2.0-17.2-2.2","battery-v0.2","","""event"",""trial"",""time""
""fullscreenenter"",""1"",""1443""
""fullscreenexit"",""7"",""35591""
""blur"",""7"",""36927""
""focus"",""7"",""63467""
""blur"",""7"",""92411""
""focus"",""7"",""94873""
""blur"",""7"",""96031""
""focus"",""7"",""100199""
","""event"",""trial"",""time""
""blur"",""7"",""36927""
""blur"",""7"",""92411""
""blur"",""7"",""96031""
","""event"",""trial"",""time""
""focus"",""7"",""63467""
""focus"",""7"",""94873""
""focus"",""7"",""100199""
","""event"",""trial"",""time""
""fullscreenenter"",""1"",""1443""
","""event"",""trial"",""time""
""fullscreenexit"",""7"",""35591""
","","","315.10000002384186","","","21","8932","3740","&#9789;","elianto","#f73b6a7A"," "," ","1","0","[1165.5]","1","0","4","","","","","","","",""
"pit-trial","94","728868","0.0-2.0-17.2-3.2","battery-v0.2","","""event"",""trial"",""time""
""fullscreenenter"",""1"",""1443""
""fullscreenexit"",""7"",""35591""
""blur"",""7"",""36927""
""focus"",""7"",""63467""
""blur"",""7"",""92411""
""focus"",""7"",""94873""
""blur"",""7"",""96031""
""focus"",""7"",""100199""
","""event"",""trial"",""time""
""blur"",""7"",""36927""
""blur"",""7"",""92411""
""blur"",""7"",""96031""
","""event"",""trial"",""time""
""focus"",""7"",""63467""
""focus"",""7"",""94873""
""focus"",""7"",""100199""
","""event"",""trial"",""time""
""fullscreenenter"",""1"",""1443""
","""event"",""trial"",""time""
""fullscreenexit"",""7"",""35591""
","","","182.80000007152557","","","21","8932","3740","&#9789;","elianto","#f73b6a7A"," "," ","1","-10","[1033]","1","0","4","","","","","","","",""
"pit-trial","95","732120","0.0-2.0-17.2-4.2","battery-v0.2","","""event"",""trial"",""time""
""fullscreenenter"",""1"",""1443""
""fullscreenexit"",""7"",""35591""
""blur"",""7"",""36927""
""focus"",""7"",""63467""
""blur"",""7"",""92411""
""focus"",""7"",""94873""
""blur"",""7"",""96031""
""focus"",""7"",""100199""
","""event"",""trial"",""time""
""blur"",""7"",""36927""
""blur"",""7"",""92411""
""blur"",""7"",""96031""
","""event"",""trial"",""time""
""focus"",""7"",""63467""
""focus"",""7"",""94873""
""focus"",""7"",""100199""
","""event"",""trial"",""time""
""fullscreenenter"",""1"",""1443""
","""event"",""trial"",""time""
""fullscreenexit"",""7"",""35591""
","","","400","","","21","8932","3740","&#9789;","elianto","#f73b6a7A"," "," ","1","0","[1250.5]","1","0","4","","","","","","","",""
"pit-trial","96","735493","0.0-2.0-17.3-0.3","battery-v0.2","","""event"",""trial"",""time""
""fullscreenenter"",""1"",""1443""
""fullscreenexit"",""7"",""35591""
""blur"",""7"",""36927""
""focus"",""7"",""63467""
""blur"",""7"",""92411""
""focus"",""7"",""94873""
""blur"",""7"",""96031""
""focus"",""7"",""100199""
","""event"",""trial"",""time""
""blur"",""7"",""36927""
""blur"",""7"",""92411""
""blur"",""7"",""96031""
","""event"",""trial"",""time""
""focus"",""7"",""63467""
""focus"",""7"",""94873""
""focus"",""7"",""100199""
","""event"",""trial"",""time""
""fullscreenenter"",""1"",""1443""
","""event"",""trial"",""time""
""fullscreenexit"",""7"",""35591""
","","","520","","","21","8932","3740","&#9789;","elianto","#f73b6a7A"," "," ","1","0","[1370.1000000238419]","1","0","4","","","","","","","",""
"pit-trial","97","738719","0.0-2.0-17.3-1.3","battery-v0.2","","""event"",""trial"",""time""
""fullscreenenter"",""1"",""1443""
""fullscreenexit"",""7"",""35591""
""blur"",""7"",""36927""
""focus"",""7"",""63467""
""blur"",""7"",""92411""
""focus"",""7"",""94873""
""blur"",""7"",""96031""
""focus"",""7"",""100199""
","""event"",""trial"",""time""
""blur"",""7"",""36927""
""blur"",""7"",""92411""
""blur"",""7"",""96031""
","""event"",""trial"",""time""
""focus"",""7"",""63467""
""focus"",""7"",""94873""
""focus"",""7"",""100199""
","""event"",""trial"",""time""
""fullscreenenter"",""1"",""1443""
","""event"",""trial"",""time""
""fullscreenexit"",""7"",""35591""
","","","372.3000000715256","","","21","8932","3740","&#9789;","elianto","#f73b6a7A"," "," ","1","0","[1223.4000000953674]","1","0","4","","","","","","","",""
"pit-trial","98","741979","0.0-2.0-17.3-2.3","battery-v0.2","","""event"",""trial"",""time""
""fullscreenenter"",""1"",""1443""
""fullscreenexit"",""7"",""35591""
""blur"",""7"",""36927""
""focus"",""7"",""63467""
""blur"",""7"",""92411""
""focus"",""7"",""94873""
""blur"",""7"",""96031""
""focus"",""7"",""100199""
","""event"",""trial"",""time""
""blur"",""7"",""36927""
""blur"",""7"",""92411""
""blur"",""7"",""96031""
","""event"",""trial"",""time""
""focus"",""7"",""63467""
""focus"",""7"",""94873""
""focus"",""7"",""100199""
","""event"",""trial"",""time""
""fullscreenenter"",""1"",""1443""
","""event"",""trial"",""time""
""fullscreenexit"",""7"",""35591""
","","","406.60000002384186","","","21","8932","3740","&#9789;","elianto","#f73b6a7A"," "," ","1","0","[1257.1000000238419]","1","0","4","","","","","","","",""
"pit-trial","99","745221","0.0-2.0-17.3-3.3","battery-v0.2","","""event"",""trial"",""time""
""fullscreenenter"",""1"",""1443""
""fullscreenexit"",""7"",""35591""
""blur"",""7"",""36927""
""focus"",""7"",""63467""
""blur"",""7"",""92411""
""focus"",""7"",""94873""
""blur"",""7"",""96031""
""focus"",""7"",""100199""
","""event"",""trial"",""time""
""blur"",""7"",""36927""
""blur"",""7"",""92411""
""blur"",""7"",""96031""
","""event"",""trial"",""time""
""focus"",""7"",""63467""
""focus"",""7"",""94873""
""focus"",""7"",""100199""
","""event"",""trial"",""time""
""fullscreenenter"",""1"",""1443""
","""event"",""trial"",""time""
""fullscreenexit"",""7"",""35591""
","","","388.60000002384186","","","21","8932","3740","&#9789;","elianto","#f73b6a7A"," "," ","1","-10","[1239.3999999761581]","1","0","4","","","","","","","",""
"pit-trial","100","748477","0.0-2.0-17.3-4.3","battery-v0.2","","""event"",""trial"",""time""
""fullscreenenter"",""1"",""1443""
""fullscreenexit"",""7"",""35591""
""blur"",""7"",""36927""
""focus"",""7"",""63467""
""blur"",""7"",""92411""
""focus"",""7"",""94873""
""blur"",""7"",""96031""
""focus"",""7"",""100199""
","""event"",""trial"",""time""
""blur"",""7"",""36927""
""blur"",""7"",""92411""
""blur"",""7"",""96031""
","""event"",""trial"",""time""
""focus"",""7"",""63467""
""focus"",""7"",""94873""
""focus"",""7"",""100199""
","""event"",""trial"",""time""
""fullscreenenter"",""1"",""1443""
","""event"",""trial"",""time""
""fullscreenexit"",""7"",""35591""
","","","402.8000000715256","","","21","8932","3740","&#9789;","elianto","#f73b6a7A"," "," ","1","0","[1253.6000000238419]","1","0","4","","","","","","","",""
"call-function","101","748479","0.0-2.0-18.0","battery-v0.2","","""event"",""trial"",""time""
""fullscreenenter"",""1"",""1443""
""fullscreenexit"",""7"",""35591""
""blur"",""7"",""36927""
""focus"",""7"",""63467""
""blur"",""7"",""92411""
""focus"",""7"",""94873""
""blur"",""7"",""96031""
""focus"",""7"",""100199""
","""event"",""trial"",""time""
""blur"",""7"",""36927""
""blur"",""7"",""92411""
""blur"",""7"",""96031""
","""event"",""trial"",""time""
""focus"",""7"",""63467""
""focus"",""7"",""94873""
""focus"",""7"",""100199""
","""event"",""trial"",""time""
""fullscreenenter"",""1"",""1443""
","""event"",""trial"",""time""
""fullscreenexit"",""7"",""35591""
","","","","","","","","","","","","","","","","","","","","","","","","","","",""
"pit-instructions","102","799855","0.0-2.0-19.0","battery-v0.2","","""event"",""trial"",""time""
""fullscreenenter"",""1"",""1443""
""fullscreenexit"",""7"",""35591""
""blur"",""7"",""36927""
""focus"",""7"",""63467""
""blur"",""7"",""92411""
""focus"",""7"",""94873""
""blur"",""7"",""96031""
""focus"",""7"",""100199""
","""event"",""trial"",""time""
""blur"",""7"",""36927""
""blur"",""7"",""92411""
""blur"",""7"",""96031""
","""event"",""trial"",""time""
""focus"",""7"",""63467""
""focus"",""7"",""94873""
""focus"",""7"",""100199""
","""event"",""trial"",""time""
""fullscreenenter"",""1"",""1443""
","""event"",""trial"",""time""
""fullscreenexit"",""7"",""35591""
","","[{""page_index"":0,""viewing_time"":6452.400000095367},{""page_index"":1,""viewing_time"":5427.599999904633},{""page_index"":2,""viewing_time"":8205.700000047684},{""page_index"":3,""viewing_time"":5283.399999976158},{""page_index"":4,""viewing_time"":6492.399999976158},{""page_index"":5,""viewing_time"":8077.200000047684},{""page_index"":6,""viewing_time"":4170.899999976158},{""page_index"":7,""viewing_time"":4113.800000071526},{""page_index"":8,""viewing_time"":3152}]","51375.800000071526","","","","","","","","","","","","","","","","","","","","","","","",""
"pit-comprehension","103","804062","0.0-2.0-20.0-0.0","battery-v0.2","","""event"",""trial"",""time""
""fullscreenenter"",""1"",""1443""
""fullscreenexit"",""7"",""35591""
""blur"",""7"",""36927""
""focus"",""7"",""63467""
""blur"",""7"",""92411""
""focus"",""7"",""94873""
""blur"",""7"",""96031""
""focus"",""7"",""100199""
","""event"",""trial"",""time""
""blur"",""7"",""36927""
""blur"",""7"",""92411""
""blur"",""7"",""96031""
","""event"",""trial"",""time""
""focus"",""7"",""63467""
""focus"",""7"",""94873""
""focus"",""7"",""100199""
","""event"",""trial"",""time""
""fullscreenenter"",""1"",""1443""
","""event"",""trial"",""time""
""fullscreenexit"",""7"",""35591""
","","","4203","[""SPACE""]","0","21","8932","3740","","","","","","","","","","","","","","","","","","",""
"pit-instructions","104","806601","0.0-2.0-20.0-1.0","battery-v0.2","","""event"",""trial"",""time""
""fullscreenenter"",""1"",""1443""
""fullscreenexit"",""7"",""35591""
""blur"",""7"",""36927""
""focus"",""7"",""63467""
""blur"",""7"",""92411""
""focus"",""7"",""94873""
""blur"",""7"",""96031""
""focus"",""7"",""100199""
","""event"",""trial"",""time""
""blur"",""7"",""36927""
""blur"",""7"",""92411""
""blur"",""7"",""96031""
","""event"",""trial"",""time""
""focus"",""7"",""63467""
""focus"",""7"",""94873""
""focus"",""7"",""100199""
","""event"",""trial"",""time""
""fullscreenenter"",""1"",""1443""
","""event"",""trial"",""time""
""fullscreenexit"",""7"",""35591""
","","[{""page_index"":0,""viewing_time"":2503.399999976158}]","2503.7999999523163","","","","","","","","","","","","","","","","","","","","","","","",""
"pit-comprehension","105","813363","0.0-2.0-21.0-0.0","battery-v0.2","","""event"",""trial"",""time""
""fullscreenenter"",""1"",""1443""
""fullscreenexit"",""7"",""35591""
""blur"",""7"",""36927""
""focus"",""7"",""63467""
""blur"",""7"",""92411""
""focus"",""7"",""94873""
""blur"",""7"",""96031""
""focus"",""7"",""100199""
","""event"",""trial"",""time""
""blur"",""7"",""36927""
""blur"",""7"",""92411""
""blur"",""7"",""96031""
","""event"",""trial"",""time""
""focus"",""7"",""63467""
""focus"",""7"",""94873""
""focus"",""7"",""100199""
","""event"",""trial"",""time""
""fullscreenenter"",""1"",""1443""
","""event"",""trial"",""time""
""fullscreenexit"",""7"",""35591""
","","","6759.799999952316","[""10""]","0","21","8932","3740","","","","","","","","","","","","","","","","","","",""
"pit-instructions","106","815029","0.0-2.0-21.0-1.0","battery-v0.2","","""event"",""trial"",""time""
""fullscreenenter"",""1"",""1443""
""fullscreenexit"",""7"",""35591""
""blur"",""7"",""36927""
""focus"",""7"",""63467""
""blur"",""7"",""92411""
""focus"",""7"",""94873""
""blur"",""7"",""96031""
""focus"",""7"",""100199""
","""event"",""trial"",""time""
""blur"",""7"",""36927""
""blur"",""7"",""92411""
""blur"",""7"",""96031""
","""event"",""trial"",""time""
""focus"",""7"",""63467""
""focus"",""7"",""94873""
""focus"",""7"",""100199""
","""event"",""trial"",""time""
""fullscreenenter"",""1"",""1443""
","""event"",""trial"",""time""
""fullscreenexit"",""7"",""35591""
","","[{""page_index"":0,""viewing_time"":1636.6000000238419}]","1636.8999999761581","","","","","","","","","","","","","","","","","","","","","","","",""
"pit-comprehension","107","821494","0.0-2.0-22.0-0.0","battery-v0.2","","""event"",""trial"",""time""
""fullscreenenter"",""1"",""1443""
""fullscreenexit"",""7"",""35591""
""blur"",""7"",""36927""
""focus"",""7"",""63467""
""blur"",""7"",""92411""
""focus"",""7"",""94873""
""blur"",""7"",""96031""
""focus"",""7"",""100199""
","""event"",""trial"",""time""
""blur"",""7"",""36927""
""blur"",""7"",""92411""
""blur"",""7"",""96031""
","""event"",""trial"",""time""
""focus"",""7"",""63467""
""focus"",""7"",""94873""
""focus"",""7"",""100199""
","""event"",""trial"",""time""
""fullscreenenter"",""1"",""1443""
","""event"",""trial"",""time""
""fullscreenexit"",""7"",""35591""
","","","6461.899999976158","[""0""]","0","21","8932","3740","","","","","","","","","","","","","","","","","","",""
"pit-instructions","108","822656","0.0-2.0-22.0-1.0","battery-v0.2","","""event"",""trial"",""time""
""fullscreenenter"",""1"",""1443""
""fullscreenexit"",""7"",""35591""
""blur"",""7"",""36927""
""focus"",""7"",""63467""
""blur"",""7"",""92411""
""focus"",""7"",""94873""
""blur"",""7"",""96031""
""focus"",""7"",""100199""
","""event"",""trial"",""time""
""blur"",""7"",""36927""
""blur"",""7"",""92411""
""blur"",""7"",""96031""
","""event"",""trial"",""time""
""focus"",""7"",""63467""
""focus"",""7"",""94873""
""focus"",""7"",""100199""
","""event"",""trial"",""time""
""fullscreenenter"",""1"",""1443""
","""event"",""trial"",""time""
""fullscreenexit"",""7"",""35591""
","","[{""page_index"":0,""viewing_time"":1129}]","1129.2000000476837","","","","","","","","","","","","","","","","","","","","","","","",""
"pit-comprehension","109","831756","0.0-2.0-23.0-0.0","battery-v0.2","","""event"",""trial"",""time""
""fullscreenenter"",""1"",""1443""
""fullscreenexit"",""7"",""35591""
""blur"",""7"",""36927""
""focus"",""7"",""63467""
""blur"",""7"",""92411""
""focus"",""7"",""94873""
""blur"",""7"",""96031""
""focus"",""7"",""100199""
","""event"",""trial"",""time""
""blur"",""7"",""36927""
""blur"",""7"",""92411""
""blur"",""7"",""96031""
","""event"",""trial"",""time""
""focus"",""7"",""63467""
""focus"",""7"",""94873""
""focus"",""7"",""100199""
","""event"",""trial"",""time""
""fullscreenenter"",""1"",""1443""
","""event"",""trial"",""time""
""fullscreenexit"",""7"",""35591""
","","","9098.100000023842","[""True""]","0","21","8932","3740","","","","","","","","","","","","","","","","","","",""
"pit-instructions","110","833830","0.0-2.0-23.0-1.0","battery-v0.2","","""event"",""trial"",""time""
""fullscreenenter"",""1"",""1443""
""fullscreenexit"",""7"",""35591""
""blur"",""7"",""36927""
""focus"",""7"",""63467""
""blur"",""7"",""92411""
""focus"",""7"",""94873""
""blur"",""7"",""96031""
""focus"",""7"",""100199""
","""event"",""trial"",""time""
""blur"",""7"",""36927""
""blur"",""7"",""92411""
""blur"",""7"",""96031""
","""event"",""trial"",""time""
""focus"",""7"",""63467""
""focus"",""7"",""94873""
""focus"",""7"",""100199""
","""event"",""trial"",""time""
""fullscreenenter"",""1"",""1443""
","""event"",""trial"",""time""
""fullscreenexit"",""7"",""35591""
","","[{""page_index"":0,""viewing_time"":2040.5}]","2040.6999999284744","","","","","","","","","","","","","","","","","","","","","","","",""
"pit-comprehension","111","841081","0.0-2.0-24.0-0.0","battery-v0.2","","""event"",""trial"",""time""
""fullscreenenter"",""1"",""1443""
""fullscreenexit"",""7"",""35591""
""blur"",""7"",""36927""
""focus"",""7"",""63467""
""blur"",""7"",""92411""
""focus"",""7"",""94873""
""blur"",""7"",""96031""
""focus"",""7"",""100199""
","""event"",""trial"",""time""
""blur"",""7"",""36927""
""blur"",""7"",""92411""
""blur"",""7"",""96031""
","""event"",""trial"",""time""
""focus"",""7"",""63467""
""focus"",""7"",""94873""
""focus"",""7"",""100199""
","""event"",""trial"",""time""
""fullscreenenter"",""1"",""1443""
","""event"",""trial"",""time""
""fullscreenexit"",""7"",""35591""
","","","7248.100000023842","[""True""]","0","21","8932","3740","","","","","","","","","","","","","","","","","","",""
"pit-instructions","112","842594","0.0-2.0-24.0-1.0","battery-v0.2","","""event"",""trial"",""time""
""fullscreenenter"",""1"",""1443""
""fullscreenexit"",""7"",""35591""
""blur"",""7"",""36927""
""focus"",""7"",""63467""
""blur"",""7"",""92411""
""focus"",""7"",""94873""
""blur"",""7"",""96031""
""focus"",""7"",""100199""
","""event"",""trial"",""time""
""blur"",""7"",""36927""
""blur"",""7"",""92411""
""blur"",""7"",""96031""
","""event"",""trial"",""time""
""focus"",""7"",""63467""
""focus"",""7"",""94873""
""focus"",""7"",""100199""
","""event"",""trial"",""time""
""fullscreenenter"",""1"",""1443""
","""event"",""trial"",""time""
""fullscreenexit"",""7"",""35591""
","","[{""page_index"":0,""viewing_time"":1477.6000000238419}]","1477.8999999761581","","","","","","","","","","","","","","","","","","","","","","","",""
"pit-comprehension","113","849012","0.0-2.0-25.0-0.0","battery-v0.2","","""event"",""trial"",""time""
""fullscreenenter"",""1"",""1443""
""fullscreenexit"",""7"",""35591""
""blur"",""7"",""36927""
""focus"",""7"",""63467""
""blur"",""7"",""92411""
""focus"",""7"",""94873""
""blur"",""7"",""96031""
""focus"",""7"",""100199""
","""event"",""trial"",""time""
""blur"",""7"",""36927""
""blur"",""7"",""92411""
""blur"",""7"",""96031""
","""event"",""trial"",""time""
""focus"",""7"",""63467""
""focus"",""7"",""94873""
""focus"",""7"",""100199""
","""event"",""trial"",""time""
""fullscreenenter"",""1"",""1443""
","""event"",""trial"",""time""
""fullscreenexit"",""7"",""35591""
","","","6416.399999976158","[""True""]","0","21","8932","3740","","","","","","","","","","","","","","","","","","",""
"pit-instructions","114","850502","0.0-2.0-25.0-1.0","battery-v0.2","","""event"",""trial"",""time""
""fullscreenenter"",""1"",""1443""
""fullscreenexit"",""7"",""35591""
""blur"",""7"",""36927""
""focus"",""7"",""63467""
""blur"",""7"",""92411""
""focus"",""7"",""94873""
""blur"",""7"",""96031""
""focus"",""7"",""100199""
","""event"",""trial"",""time""
""blur"",""7"",""36927""
""blur"",""7"",""92411""
""blur"",""7"",""96031""
","""event"",""trial"",""time""
""focus"",""7"",""63467""
""focus"",""7"",""94873""
""focus"",""7"",""100199""
","""event"",""trial"",""time""
""fullscreenenter"",""1"",""1443""
","""event"",""trial"",""time""
""fullscreenexit"",""7"",""35591""
","","[{""page_index"":0,""viewing_time"":1452.7000000476837}]","1453","","","","","","","","","","","","","","","","","","","","","","","",""
"pit-comprehension","115","855213","0.0-2.0-26.0-0.0","battery-v0.2","","""event"",""trial"",""time""
""fullscreenenter"",""1"",""1443""
""fullscreenexit"",""7"",""35591""
""blur"",""7"",""36927""
""focus"",""7"",""63467""
""blur"",""7"",""92411""
""focus"",""7"",""94873""
""blur"",""7"",""96031""
""focus"",""7"",""100199""
","""event"",""trial"",""time""
""blur"",""7"",""36927""
""blur"",""7"",""92411""
""blur"",""7"",""96031""
","""event"",""trial"",""time""
""focus"",""7"",""63467""
""focus"",""7"",""94873""
""focus"",""7"",""100199""
","""event"",""trial"",""time""
""fullscreenenter"",""1"",""1443""
","""event"",""trial"",""time""
""fullscreenexit"",""7"",""35591""
","","","4708.200000047684","[""False""]","0","21","8932","3740","","","","","","","","","","","","","","","","","","",""
"pit-instructions","116","856782","0.0-2.0-26.0-1.0","battery-v0.2","","""event"",""trial"",""time""
""fullscreenenter"",""1"",""1443""
""fullscreenexit"",""7"",""35591""
""blur"",""7"",""36927""
""focus"",""7"",""63467""
""blur"",""7"",""92411""
""focus"",""7"",""94873""
""blur"",""7"",""96031""
""focus"",""7"",""100199""
","""event"",""trial"",""time""
""blur"",""7"",""36927""
""blur"",""7"",""92411""
""blur"",""7"",""96031""
","""event"",""trial"",""time""
""focus"",""7"",""63467""
""focus"",""7"",""94873""
""focus"",""7"",""100199""
","""event"",""trial"",""time""
""fullscreenenter"",""1"",""1443""
","""event"",""trial"",""time""
""fullscreenexit"",""7"",""35591""
","","[{""page_index"":0,""viewing_time"":1535.8999999761581}]","1536.5","","","","","","","","","","","","","","","","","","","","","","","",""
"pit-instructions","117","875821","0.0-3.0","battery-v0.2","","""event"",""trial"",""time""
""fullscreenenter"",""1"",""1443""
""fullscreenexit"",""7"",""35591""
""blur"",""7"",""36927""
""focus"",""7"",""63467""
""blur"",""7"",""92411""
""focus"",""7"",""94873""
""blur"",""7"",""96031""
""focus"",""7"",""100199""
","""event"",""trial"",""time""
""blur"",""7"",""36927""
""blur"",""7"",""92411""
""blur"",""7"",""96031""
","""event"",""trial"",""time""
""focus"",""7"",""63467""
""focus"",""7"",""94873""
""focus"",""7"",""100199""
","""event"",""trial"",""time""
""fullscreenenter"",""1"",""1443""
","""event"",""trial"",""time""
""fullscreenexit"",""7"",""35591""
","","[{""page_index"":0,""viewing_time"":7056.799999952316},{""page_index"":1,""viewing_time"":5120.200000047684},{""page_index"":2,""viewing_time"":6860.899999976158}]","19038.099999904633","","","","","","","","","","","","","","","","","","","","","","","",""
"pit-trial","118","879323","0.0-4.0","battery-v0.2","","""event"",""trial"",""time""
""fullscreenenter"",""1"",""1443""
""fullscreenexit"",""7"",""35591""
""blur"",""7"",""36927""
""focus"",""7"",""63467""
""blur"",""7"",""92411""
""focus"",""7"",""94873""
""blur"",""7"",""96031""
""focus"",""7"",""100199""
","""event"",""trial"",""time""
""blur"",""7"",""36927""
""blur"",""7"",""92411""
""blur"",""7"",""96031""
","""event"",""trial"",""time""
""focus"",""7"",""63467""
""focus"",""7"",""94873""
""focus"",""7"",""100199""
","""event"",""trial"",""time""
""fullscreenenter"",""1"",""1443""
","""event"",""trial"",""time""
""fullscreenexit"",""7"",""35591""
","","","640.7999999523163","","","21","8932","3740","&#9728;","elianto","#f73b6a7A","-1"," ","0","-10","[1498.2999999523163]","1","1","","","8932","1","0","4","lose","no-go","0"
"pit-trial","119","882730","0.0-5.0","battery-v0.2","","""event"",""trial"",""time""
""fullscreenenter"",""1"",""1443""
""fullscreenexit"",""7"",""35591""
""blur"",""7"",""36927""
""focus"",""7"",""63467""
""blur"",""7"",""92411""
""focus"",""7"",""94873""
""blur"",""7"",""96031""
""focus"",""7"",""100199""
","""event"",""trial"",""time""
""blur"",""7"",""36927""
""blur"",""7"",""92411""
""blur"",""7"",""96031""
","""event"",""trial"",""time""
""focus"",""7"",""63467""
""focus"",""7"",""94873""
""focus"",""7"",""100199""
","""event"",""trial"",""time""
""fullscreenenter"",""1"",""1443""
","""event"",""trial"",""time""
""fullscreenexit"",""7"",""35591""
