"trial_type","trial_index","time_elapsed","internal_node_id","task_version","subject_id","interactions","blur_events","focus_events","fullscreenenter_events","fullscreenexit_events","success","view_history","rt","responses","num_errors","age","subject","participantId","rune","rune_set","hex","correct","choice","accuracy","outcome","keys","total_keys","block","practice","value","sub","trial","stimulus","robot","valence","action","sham"
"pavlovia","0","18","0.0-0.0","battery-v0.2","","""event"",""trial"",""time""
""fullscreenenter"",""1"",""1607""
","
","
","""event"",""trial"",""time""
""fullscreenenter"",""1"",""1607""
","
","","","","","","","","","","","","","","","","","","","","","","","","","","",""
"fullscreen","1","2553","0.0-1.0","battery-v0.2","","""event"",""trial"",""time""
""fullscreenenter"",""1"",""1607""
","
","
","""event"",""trial"",""time""
""fullscreenenter"",""1"",""1607""
","
","true","","","","","","","","","","","","","","","","","","","","","","","","","",""
"pit-instructions","2","13190","0.0-2.0-0.0","battery-v0.2","","""event"",""trial"",""time""
""fullscreenenter"",""1"",""1607""
","
","
","""event"",""trial"",""time""
""fullscreenenter"",""1"",""1607""
","
","","[{""page_index"":0,""viewing_time"":10631.29999999702}]","10632.20000000298","","","","","","","","","","","","","","","","","","","","","","","",""
"pit-comprehension","3","17800","0.0-2.0-1.0-0.0","battery-v0.2","","""event"",""trial"",""time""
""fullscreenenter"",""1"",""1607""
","
","
","""event"",""trial"",""time""
""fullscreenenter"",""1"",""1607""
","
","","","4605.0999999940395","[""shark""]","0","18","8143","4163","","","","","","","","","","","","","","","","","","",""
"pit-instructions","4","20928","0.0-2.0-1.0-1.0","battery-v0.2","","""event"",""trial"",""time""
""fullscreenenter"",""1"",""1607""
","
","
","""event"",""trial"",""time""
""fullscreenenter"",""1"",""1607""
","
","","[{""page_index"":0,""viewing_time"":3116}]","3116.2999999970198","","","","","","","","","","","","","","","","","","","","","","","",""
"pit-comprehension","5","24965","0.0-2.0-2.0-0.0","battery-v0.2","","""event"",""trial"",""time""
""fullscreenenter"",""1"",""1607""
","
","
","""event"",""trial"",""time""
""fullscreenenter"",""1"",""1607""
","
","","","4032.5","[""tiger""]","0","18","8143","4163","","","","","","","","","","","","","","","","","","",""
"pit-instructions","6","34027","0.0-2.0-2.0-1.0","battery-v0.2","","""event"",""trial"",""time""
""fullscreenenter"",""1"",""1607""
","
","
","""event"",""trial"",""time""
""fullscreenenter"",""1"",""1607""
","
","","[{""page_index"":0,""viewing_time"":9057.39999999106}]","9057.70000000298","","","","","","","","","","","","","","","","","","","","","","","",""
"pit-instructions","7","138342","0.0-2.0-3.0","battery-v0.2","","""event"",""trial"",""time""
""fullscreenenter"",""1"",""1607""
","
","
","""event"",""trial"",""time""
""fullscreenenter"",""1"",""1607""
","
","","[{""page_index"":0,""viewing_time"":8420.09999999404},{""page_index"":1,""viewing_time"":6354.100000008941},{""page_index"":2,""viewing_time"":6801.20000000298},{""page_index"":3,""viewing_time"":7834.79999999702},{""page_index"":4,""viewing_time"":5231.70000000298},{""page_index"":5,""viewing_time"":5896.399999991059},{""page_index"":6,""viewing_time"":5430.70000000298},{""page_index"":7,""viewing_time"":6079.4000000059605},{""page_index"":8,""viewing_time"":8754.59999999404},{""page_index"":9,""viewing_time"":17049.5},{""page_index"":10,""viewing_time"":7726},{""page_index"":11,""viewing_time"":6894.29999999702},{""page_index"":12,""viewing_time"":6637.9000000059605},{""page_index"":13,""viewing_time"":5201.79999999702}]","104312.90000000596","","","","","","","","","","","","","","","","","","","","","","","",""
"pit-trial","8","141843","0.0-2.0-4.0-0.0","battery-v0.2","","""event"",""trial"",""time""
""fullscreenenter"",""1"",""1607""
","
","
","""event"",""trial"",""time""
""fullscreenenter"",""1"",""1607""
","
","","","633.7000000029802","","","18","8143","4163","&#9784;","elianto","#FFFFF080"," "," ","1","&#10004","[1491.2999999970198]","1","0","0","","","","","","","",""
"pit-trial","9","145301","0.0-2.0-4.1-0.1","battery-v0.2","","""event"",""trial"",""time""
""fullscreenenter"",""1"",""1607""
","
","
","""event"",""trial"",""time""
""fullscreenenter"",""1"",""1607""
","
","","","593","","","18","8143","4163","&#9784;","elianto","#FFFFF080"," "," ","1","&#10004","[1448.1000000089407]","1","0","0","","","","","","","",""
"pit-trial","10","148619","0.0-2.0-4.2-0.2","battery-v0.2","","""event"",""trial"",""time""
""fullscreenenter"",""1"",""1607""
","
","
","""event"",""trial"",""time""
""fullscreenenter"",""1"",""1607""
","
","","","455.90000000596046","","","18","8143","4163","&#9784;","elianto","#FFFFF080"," "," ","1","&#10004","[1308.1000000089407]","1","0","0","","","","","","","",""
"pit-trial","11","152167","0.0-2.0-4.3-0.3","battery-v0.2","","""event"",""trial"",""time""
""fullscreenenter"",""1"",""1607""
","
","
","""event"",""trial"",""time""
""fullscreenenter"",""1"",""1607""
","
","","","685.8000000119209","","","18","8143","4163","&#9784;","elianto","#FFFFF080"," "," ","1","&#10004","[1539.2000000029802]","1","0","0","","","","","","","",""
"pit-trial","12","155723","0.0-2.0-4.4-0.4","battery-v0.2","","""event"",""trial"",""time""
""fullscreenenter"",""1"",""1607""
","
","
","""event"",""trial"",""time""
""fullscreenenter"",""1"",""1607""
","
","","","698.5999999940395","","","18","8143","4163","&#9784;","elianto","#FFFFF080"," "," ","1","&#10004","[1550.300000011921]","1","0","0","","","","","","","",""
"pit-instructions","13","177949","0.0-2.0-5.0","battery-v0.2","","""event"",""trial"",""time""
""fullscreenenter"",""1"",""1607""
","
","
","""event"",""trial"",""time""
""fullscreenenter"",""1"",""1607""
","
","","[{""page_index"":0,""viewing_time"":5508.70000000298},{""page_index"":1,""viewing_time"":5406.9000000059605},{""page_index"":2,""viewing_time"":6145.0999999940395},{""page_index"":3,""viewing_time"":5162.29999999702}]","22223.30000001192","","","","","","","","","","","","","","","","","","","","","","","",""
"pit-trial","14","182810","0.0-2.0-6.0-0.0","battery-v0.2","","""event"",""trial"",""time""
""fullscreenenter"",""1"",""1607""
","
","
","""event"",""trial"",""time""
""fullscreenenter"",""1"",""1607""
","
","","","-1","","","18","8143","4163","&#9854;","elianto","#FFFFF080","-1","-1","1","&#10004","[]","0","0","1","","","","","","","",""
"pit-trial","15","187674","0.0-2.0-6.1-0.1","battery-v0.2","","""event"",""trial"",""time""
""fullscreenenter"",""1"",""1607""
","
","
","""event"",""trial"",""time""
""fullscreenenter"",""1"",""1607""
","
","","","-1","","","18","8143","4163","&#9854;","elianto","#FFFFF080","-1","-1","1","&#10004","[]","0","0","1","","","","","","","",""
"pit-trial","16","192542","0.0-2.0-6.2-0.2","battery-v0.2","","""event"",""trial"",""time""
""fullscreenenter"",""1"",""1607""
","
","
","""event"",""trial"",""time""
""fullscreenenter"",""1"",""1607""
","
","","","-1","","","18","8143","4163","&#9854;","elianto","#FFFFF080","-1","-1","1","&#10004","[]","0","0","1","","","","","","","",""
"pit-trial","17","197415","0.0-2.0-6.3-0.3","battery-v0.2","","""event"",""trial"",""time""
""fullscreenenter"",""1"",""1607""
","
","
","""event"",""trial"",""time""
""fullscreenenter"",""1"",""1607""
","
","","","-1","","","18","8143","4163","&#9854;","elianto","#FFFFF080","-1","-1","1","&#10004","[]","0","0","1","","","","","","","",""
"pit-trial","18","202281","0.0-2.0-6.4-0.4","battery-v0.2","","""event"",""trial"",""time""
""fullscreenenter"",""1"",""1607""
","
","
","""event"",""trial"",""time""
""fullscreenenter"",""1"",""1607""
","
","","","-1","","","18","8143","4163","&#9854;","elianto","#FFFFF080","-1","-1","1","&#10004","[]","0","0","1","","","","","","","",""
"pit-instructions","19","321049","0.0-2.0-7.0","battery-v0.2","","""event"",""trial"",""time""
""fullscreenenter"",""1"",""1607""
","
","
","""event"",""trial"",""time""
""fullscreenenter"",""1"",""1607""
","
","","[{""page_index"":0,""viewing_time"":5680.70000000298},{""page_index"":1,""viewing_time"":8807.59999999404},{""page_index"":2,""viewing_time"":6225.29999999702},{""page_index"":3,""viewing_time"":5664.5},{""page_index"":4,""viewing_time"":5573.5},{""page_index"":5,""viewing_time"":5768.20000000298},{""page_index"":6,""viewing_time"":5026.4000000059605},{""page_index"":7,""viewing_time"":7887.399999991059},{""page_index"":8,""viewing_time"":7732},{""page_index"":9,""viewing_time"":7228.29999999702},{""page_index"":10,""viewing_time"":6416.100000008941},{""page_index"":11,""viewing_time"":5411.0999999940395},{""page_index"":12,""viewing_time"":7480.20000000298},{""page_index"":13,""viewing_time"":7198.0999999940395},{""page_index"":14,""viewing_time"":6629.70000000298},{""page_index"":15,""viewing_time"":7578.5},{""page_index"":16,""viewing_time"":6309.5},{""page_index"":17,""viewing_time"":6149}]","118766.5","","","","","","","","","","","","","","","","","","","","","","","",""
"pit-trial","20","325139","0.0-2.0-8.0-0.0","battery-v0.2","","""event"",""trial"",""time""
""fullscreenenter"",""1"",""1607""
","
","
","""event"",""trial"",""time""
""fullscreenenter"",""1"",""1607""
","
","","","1225.2999999970198","","","18","8143","4163","&#9776;","elianto","#3366ff99"," "," ","1","+10","[2076.5999999940395]","1","0","1","","","","","","","",""
"pit-trial","21","328544","0.0-2.0-8.0-1.0","battery-v0.2","","""event"",""trial"",""time""
""fullscreenenter"",""1"",""1607""
","
","
","""event"",""trial"",""time""
""fullscreenenter"",""1"",""1607""
","
","","","542.6999999880791","","","18","8143","4163","&#9776;","elianto","#3366ff99"," "," ","1","+10","[1400]","1","0","1","","","","","","","",""
"pit-trial","22","331900","0.0-2.0-8.0-2.0","battery-v0.2","","""event"",""trial"",""time""
""fullscreenenter"",""1"",""1607""
","
","
","""event"",""trial"",""time""
""fullscreenenter"",""1"",""1607""
","
","","","493.20000000298023","","","18","8143","4163","&#9776;","elianto","#3366ff99"," "," ","1","+10","[1346.3999999910593]","1","0","1","","","","","","","",""
"pit-trial","23","335312","0.0-2.0-8.0-3.0","battery-v0.2","","""event"",""trial"",""time""
""fullscreenenter"",""1"",""1607""
","
","
","""event"",""trial"",""time""
""fullscreenenter"",""1"",""1607""
","
","","","543","","","18","8143","4163","&#9776;","elianto","#3366ff99"," "," ","1","0","[1405]","1","0","1","","","","","","","",""
"pit-trial","24","338788","0.0-2.0-8.0-4.0","battery-v0.2","","""event"",""trial"",""time""
""fullscreenenter"",""1"",""1607""
","
","
","""event"",""trial"",""time""
""fullscreenenter"",""1"",""1607""
","
","","","614","","","18","8143","4163","&#9776;","elianto","#3366ff99"," "," ","1","+10","[1465.2000000029802]","1","0","1","","","","","","","",""
"pit-trial","25","342193","0.0-2.0-8.1-0.1","battery-v0.2","","""event"",""trial"",""time""
""fullscreenenter"",""1"",""1607""
","
","
","""event"",""trial"",""time""
""fullscreenenter"",""1"",""1607""
","
","","","542.2000000029802","","","18","8143","4163","&#9776;","elianto","#3366ff99"," "," ","1","+10","[1398.5]","1","0","1","","","","","","","",""
"pit-trial","26","345771","0.0-2.0-8.1-1.1","battery-v0.2","","""event"",""trial"",""time""
""fullscreenenter"",""1"",""1607""
","
","
","""event"",""trial"",""time""
""fullscreenenter"",""1"",""1607""
","
","","","717","","","18","8143","4163","&#9776;","elianto","#3366ff99"," "," ","1","+10","[1568.7999999970198]","1","0","1","","","","","","","",""
"pit-trial","27","349095","0.0-2.0-8.1-2.1","battery-v0.2","","""event"",""trial"",""time""
""fullscreenenter"",""1"",""1607""
","
","
","""event"",""trial"",""time""
""fullscreenenter"",""1"",""1607""
","
","","","459.90000000596046","","","18","8143","4163","&#9776;","elianto","#3366ff99"," "," ","1","+10","[1316]","1","0","1","","","","","","","",""
"pit-trial","28","352599","0.0-2.0-8.1-3.1","battery-v0.2","","""event"",""trial"",""time""
""fullscreenenter"",""1"",""1607""
","
","
","""event"",""trial"",""time""
""fullscreenenter"",""1"",""1607""
","
","","","643.5999999940395","","","18","8143","4163","&#9776;","elianto","#3366ff99"," "," ","1","0","[1494.7000000029802]","1","0","1","","","","","","","",""
"pit-trial","29","356050","0.0-2.0-8.1-4.1","battery-v0.2","","""event"",""trial"",""time""
""fullscreenenter"",""1"",""1607""
","
","
","""event"",""trial"",""time""
""fullscreenenter"",""1"",""1607""
","
","","","587.2000000029802","","","18","8143","4163","&#9776;","elianto","#3366ff99"," "," ","1","+10","[1443.5999999940395]","1","0","1","","","","","","","",""
"pit-trial","30","359447","0.0-2.0-8.2-0.2","battery-v0.2","","""event"",""trial"",""time""
""fullscreenenter"",""1"",""1607""
","
","
","""event"",""trial"",""time""
""fullscreenenter"",""1"",""1607""
","
","","","542.2999999970198","","","18","8143","4163","&#9776;","elianto","#3366ff99"," "," ","1","+10","[1393.0999999940395]","1","0","1","","","","","","","",""
"pit-trial","31","362882","0.0-2.0-8.2-1.2","battery-v0.2","","""event"",""trial"",""time""
""fullscreenenter"",""1"",""1607""
","
","
","""event"",""trial"",""time""
""fullscreenenter"",""1"",""1607""
","
","","","571.7000000029802","","","18","8143","4163","&#9776;","elianto","#3366ff99"," "," ","1","+10","[1427.5]","1","0","1","","","","","","","",""
"pit-trial","32","366370","0.0-2.0-8.2-2.2","battery-v0.2","","""event"",""trial"",""time""
""fullscreenenter"",""1"",""1607""
","
","
","""event"",""trial"",""time""
""fullscreenenter"",""1"",""1607""
","
","","","620.7999999970198","","","18","8143","4163","&#9776;","elianto","#3366ff99"," "," ","1","+10","[1475.7000000029802]","1","0","1","","","","","","","",""
"pit-trial","33","369778","0.0-2.0-8.2-3.2","battery-v0.2","","""event"",""trial"",""time""
""fullscreenenter"",""1"",""1607""
","
","
","""event"",""trial"",""time""
""fullscreenenter"",""1"",""1607""
","
","","","549.8000000119209","","","18","8143","4163","&#9776;","elianto","#3366ff99"," "," ","1","0","[1400.3999999910593]","1","0","1","","","","","","","",""
"pit-trial","34","373143","0.0-2.0-8.2-4.2","battery-v0.2","","""event"",""trial"",""time""
""fullscreenenter"",""1"",""1607""
","
","
","""event"",""trial"",""time""
""fullscreenenter"",""1"",""1607""
","
","","","504.6000000089407","","","18","8143","4163","&#9776;","elianto","#3366ff99"," "," ","1","+10","[1356.1000000089407]","1","0","1","","","","","","","",""
"call-function","35","373145","0.0-2.0-9.0","battery-v0.2","","""event"",""trial"",""time""
""fullscreenenter"",""1"",""1607""
","
","
","""event"",""trial"",""time""
""fullscreenenter"",""1"",""1607""
","
","","","","","","","","","","","","","","","","","","","","","","","","","","",""
"pit-instructions","36","418738","0.0-2.0-10.0","battery-v0.2","","""event"",""trial"",""time""
""fullscreenenter"",""1"",""1607""
","
","
","""event"",""trial"",""time""
""fullscreenenter"",""1"",""1607""
","
","","[{""page_index"":0,""viewing_time"":5984.4000000059605},{""page_index"":1,""viewing_time"":7493.0999999940395},{""page_index"":2,""viewing_time"":13900.59999999404},{""page_index"":3,""viewing_time"":10132.20000000298},{""page_index"":4,""viewing_time"":8081.70000000298}]","45592.70000000298","","","","","","","","","","","","","","","","","","","","","","","",""
"pit-trial","37","422117","0.0-2.0-11.0-0.0","battery-v0.2","","""event"",""trial"",""time""
""fullscreenenter"",""1"",""1607""
","
","
","""event"",""trial"",""time""
""fullscreenenter"",""1"",""1607""
","
","","","515.2999999970198","","","18","8143","4163","&#9761;","elianto","#3366ff99","-1"," ","0","0","[1371.7000000029802]","1","0","2","","","","","","","",""
"pit-trial","38","425525","0.0-2.0-11.0-1.0","battery-v0.2","","""event"",""trial"",""time""
""fullscreenenter"",""1"",""1607""
","
","
","""event"",""trial"",""time""
""fullscreenenter"",""1"",""1607""
","
","","","545.4000000059605","","","18","8143","4163","&#9761;","elianto","#3366ff99","-1"," ","0","0","[1402.9000000059605]","1","0","2","","","","","","","",""
"pit-trial","39","428914","0.0-2.0-11.0-2.0","battery-v0.2","","""event"",""trial"",""time""
""fullscreenenter"",""1"",""1607""
","
","
","""event"",""trial"",""time""
""fullscreenenter"",""1"",""1607""
","
","","","530.2999999970198","","","18","8143","4163","&#9761;","elianto","#3366ff99","-1"," ","0","0","[1381]","1","0","2","","","","","","","",""
"pit-trial","40","433782","0.0-2.0-11.0-3.0","battery-v0.2","","""event"",""trial"",""time""
""fullscreenenter"",""1"",""1607""
","
","
","""event"",""trial"",""time""
""fullscreenenter"",""1"",""1607""
","
","","","-1","","","18","8143","4163","&#9761;","elianto","#3366ff99","-1","-1","1","0","[]","0","0","2","","","","","","","",""
"pit-trial","41","437200","0.0-2.0-11.0-4.0","battery-v0.2","","""event"",""trial"",""time""
""fullscreenenter"",""1"",""1607""
","
","
","""event"",""trial"",""time""
""fullscreenenter"",""1"",""1607""
","
","","","555.4000000059605","","","18","8143","4163","&#9761;","elianto","#3366ff99","-1"," ","0","0","[1408.7000000029802]","1","0","2","","","","","","","",""
"pit-trial","42","440302","0.0-2.0-11.1-0.1","battery-v0.2","","""event"",""trial"",""time""
""fullscreenenter"",""1"",""1607""
","
","
","""event"",""trial"",""time""
""fullscreenenter"",""1"",""1607""
","
","","","234.90000000596046","","","18","8143","4163","&#9761;","elianto","#3366ff99","-1"," ","0","0","[1089.8999999910593]","1","0","2","","","","","","","",""
"pit-trial","43","443674","0.0-2.0-11.1-1.1","battery-v0.2","","""event"",""trial"",""time""
""fullscreenenter"",""1"",""1607""
","
","
","""event"",""trial"",""time""
""fullscreenenter"",""1"",""1607""
","
","","","504.20000000298023","","","18","8143","4163","&#9761;","elianto","#3366ff99","-1"," ","0","0","[1357.2999999970198]","1","0","2","","","","","","","",""
"pit-trial","44","446945","0.0-2.0-11.1-2.1","battery-v0.2","","""event"",""trial"",""time""
""fullscreenenter"",""1"",""1607""
","
","
","""event"",""trial"",""time""
""fullscreenenter"",""1"",""1607""
","
","","","407.6000000089407","","","18","8143","4163","&#9761;","elianto","#3366ff99","-1"," ","0","0","[1257.800000011921]","1","0","2","","","","","","","",""
"pit-trial","45","450289","0.0-2.0-11.1-3.1","battery-v0.2","","""event"",""trial"",""time""
""fullscreenenter"",""1"",""1607""
","
","
","""event"",""trial"",""time""
""fullscreenenter"",""1"",""1607""
","
","","","470.09999999403954","","","18","8143","4163","&#9761;","elianto","#3366ff99","-1"," ","0","+10","[369.6000000089407,1330.4000000059605]","2","0","2","","","","","","","",""
"pit-trial","46","453462","0.0-2.0-11.1-4.1","battery-v0.2","","""event"",""trial"",""time""
""fullscreenenter"",""1"",""1607""
","
","
","""event"",""trial"",""time""
""fullscreenenter"",""1"",""1607""
","
","","","312.59999999403954","","","18","8143","4163","&#9761;","elianto","#3366ff99","-1"," ","0","0","[1164.6000000089407]","1","0","2","","","","","","","",""
"pit-trial","47","458326","0.0-2.0-11.2-0.2","battery-v0.2","","""event"",""trial"",""time""
""fullscreenenter"",""1"",""1607""
","
","
","""event"",""trial"",""time""
""fullscreenenter"",""1"",""1607""
","
","","","-1","","","18","8143","4163","&#9761;","elianto","#3366ff99","-1","-1","1","+10","[]","0","0","2","","","","","","","",""
"pit-trial","48","463190","0.0-2.0-11.2-1.2","battery-v0.2","","""event"",""trial"",""time""
""fullscreenenter"",""1"",""1607""
","
","
","""event"",""trial"",""time""
""fullscreenenter"",""1"",""1607""
","
","","","-1","","","18","8143","4163","&#9761;","elianto","#3366ff99","-1","-1","1","+10","[]","0","0","2","","","","","","","",""
"pit-trial","49","468054","0.0-2.0-11.2-2.2","battery-v0.2","","""event"",""trial"",""time""
""fullscreenenter"",""1"",""1607""
","
","
","""event"",""trial"",""time""
""fullscreenenter"",""1"",""1607""
","
","","","-1","","","18","8143","4163","&#9761;","elianto","#3366ff99","-1","-1","1","+10","[]","0","0","2","","","","","","","",""
"pit-trial","50","472918","0.0-2.0-11.2-3.2","battery-v0.2","","""event"",""trial"",""time""
""fullscreenenter"",""1"",""1607""
","
","
","""event"",""trial"",""time""
""fullscreenenter"",""1"",""1607""
","
","","","-1","","","18","8143","4163","&#9761;","elianto","#3366ff99","-1","-1","1","0","[]","0","0","2","","","","","","","",""
"pit-trial","51","477782","0.0-2.0-11.2-4.2","battery-v0.2","","""event"",""trial"",""time""
""fullscreenenter"",""1"",""1607""
","
","
","""event"",""trial"",""time""
""fullscreenenter"",""1"",""1607""
","
","","","-1","","","18","8143","4163","&#9761;","elianto","#3366ff99","-1","-1","1","+10","[]","0","0","2","","","","","","","",""
"pit-trial","52","482645","0.0-2.0-11.3-0.3","battery-v0.2","","""event"",""trial"",""time""
""fullscreenenter"",""1"",""1607""
","
","
","""event"",""trial"",""time""
""fullscreenenter"",""1"",""1607""
","
","","","-1","","","18","8143","4163","&#9761;","elianto","#3366ff99","-1","-1","1","+10","[]","0","0","2","","","","","","","",""
"pit-trial","53","487509","0.0-2.0-11.3-1.3","battery-v0.2","","""event"",""trial"",""time""
""fullscreenenter"",""1"",""1607""
","
","
","""event"",""trial"",""time""
""fullscreenenter"",""1"",""1607""
","
","","","-1","","","18","8143","4163","&#9761;","elianto","#3366ff99","-1","-1","1","+10","[]","0","0","2","","","","","","","",""
"pit-trial","54","492373","0.0-2.0-11.3-2.3","battery-v0.2","","""event"",""trial"",""time""
""fullscreenenter"",""1"",""1607""
","
","
","""event"",""trial"",""time""
""fullscreenenter"",""1"",""1607""
","
","","","-1","","","18","8143","4163","&#9761;","elianto","#3366ff99","-1","-1","1","+10","[]","0","0","2","","","","","","","",""
"pit-trial","55","497237","0.0-2.0-11.3-3.3","battery-v0.2","","""event"",""trial"",""time""
""fullscreenenter"",""1"",""1607""
","
","
","""event"",""trial"",""time""
""fullscreenenter"",""1"",""1607""
","
","","","-1","","","18","8143","4163","&#9761;","elianto","#3366ff99","-1","-1","1","0","[]","0","0","2","","","","","","","",""
"pit-trial","56","502101","0.0-2.0-11.3-4.3","battery-v0.2","","""event"",""trial"",""time""
""fullscreenenter"",""1"",""1607""
","
","
","""event"",""trial"",""time""
""fullscreenenter"",""1"",""1607""
","
","","","-1","","","18","8143","4163","&#9761;","elianto","#3366ff99","-1","-1","1","+10","[]","0","0","2","","","","","","","",""
"call-function","57","502103","0.0-2.0-12.0","battery-v0.2","","""event"",""trial"",""time""
""fullscreenenter"",""1"",""1607""
","
","
","""event"",""trial"",""time""
""fullscreenenter"",""1"",""1607""
","
","","","","","","","","","","","","","","","","","","","","","","","","","","",""
"pit-instructions","58","539844","0.0-2.0-13.0","battery-v0.2","","""event"",""trial"",""time""
""fullscreenenter"",""1"",""1607""
","
","
","""event"",""trial"",""time""
""fullscreenenter"",""1"",""1607""
","
","","[{""page_index"":0,""viewing_time"":7717},{""page_index"":1,""viewing_time"":7609.9000000059605},{""page_index"":2,""viewing_time"":5261.79999999702},{""page_index"":3,""viewing_time"":11568.09999999404},{""page_index"":4,""viewing_time"":5583.29999999702}]","37740.5","","","","","","","","","","","","","","","","","","","","","","","",""
"pit-trial","59","543655","0.0-2.0-14.0-0.0","battery-v0.2","","""event"",""trial"",""time""
""fullscreenenter"",""1"",""1607""
","
","
","""event"",""trial"",""time""
""fullscreenenter"",""1"",""1607""
","
","","","945.2999999970198","","","18","8143","4163","&#9826;","elianto","#f73b6a7A","-1"," ","0","-10","[1802.699999988079]","1","0","3","","","","","","","",""
"pit-trial","60","547031","0.0-2.0-14.0-1.0","battery-v0.2","","""event"",""trial"",""time""
""fullscreenenter"",""1"",""1607""
","
","
","""event"",""trial"",""time""
""fullscreenenter"",""1"",""1607""
","
","","","516.7999999970198","","","18","8143","4163","&#9826;","elianto","#f73b6a7A","-1"," ","0","-10","[1368.3999999910593]","1","0","3","","","","","","","",""
"pit-trial","61","551899","0.0-2.0-14.0-2.0","battery-v0.2","","""event"",""trial"",""time""
""fullscreenenter"",""1"",""1607""
","
","
","""event"",""trial"",""time""
""fullscreenenter"",""1"",""1607""
","
","","","-1","","","18","8143","4163","&#9826;","elianto","#f73b6a7A","-1","-1","1","0","[]","0","0","3","","","","","","","",""
"pit-trial","62","556764","0.0-2.0-14.0-3.0","battery-v0.2","","""event"",""trial"",""time""
""fullscreenenter"",""1"",""1607""
","
","
","""event"",""trial"",""time""
""fullscreenenter"",""1"",""1607""
","
","","","-1","","","18","8143","4163","&#9826;","elianto","#f73b6a7A","-1","-1","1","-10","[]","0","0","3","","","","","","","",""
"pit-trial","63","561628","0.0-2.0-14.0-4.0","battery-v0.2","","""event"",""trial"",""time""
""fullscreenenter"",""1"",""1607""
","
","
","""event"",""trial"",""time""
""fullscreenenter"",""1"",""1607""
","
","","","-1","","","18","8143","4163","&#9826;","elianto","#f73b6a7A","-1","-1","1","0","[]","0","0","3","","","","","","","",""
"pit-trial","64","566492","0.0-2.0-14.1-0.1","battery-v0.2","","""event"",""trial"",""time""
""fullscreenenter"",""1"",""1607""
","
","
","""event"",""trial"",""time""
""fullscreenenter"",""1"",""1607""
","
","","","-1","","","18","8143","4163","&#9826;","elianto","#f73b6a7A","-1","-1","1","0","[]","0","0","3","","","","","","","",""
"pit-trial","65","571357","0.0-2.0-14.1-1.1","battery-v0.2","","""event"",""trial"",""time""
""fullscreenenter"",""1"",""1607""
","
","
","""event"",""trial"",""time""
""fullscreenenter"",""1"",""1607""
","
","","","-1","","","18","8143","4163","&#9826;","elianto","#f73b6a7A","-1","-1","1","0","[]","0","0","3","","","","","","","",""
"pit-trial","66","576221","0.0-2.0-14.1-2.1","battery-v0.2","","""event"",""trial"",""time""
""fullscreenenter"",""1"",""1607""
","
","
","""event"",""trial"",""time""
""fullscreenenter"",""1"",""1607""
","
","","","-1","","","18","8143","4163","&#9826;","elianto","#f73b6a7A","-1","-1","1","0","[]","0","0","3","","","","","","","",""
"pit-trial","67","581085","0.0-2.0-14.1-3.1","battery-v0.2","","""event"",""trial"",""time""
""fullscreenenter"",""1"",""1607""
","
","
","""event"",""trial"",""time""
""fullscreenenter"",""1"",""1607""
","
","","","-1","","","18","8143","4163","&#9826;","elianto","#f73b6a7A","-1","-1","1","-10","[]","0","0","3","","","","","","","",""
"pit-trial","68","585949","0.0-2.0-14.1-4.1","battery-v0.2","","""event"",""trial"",""time""
""fullscreenenter"",""1"",""1607""
","
","
","""event"",""trial"",""time""
""fullscreenenter"",""1"",""1607""
","
","","","-1","","","18","8143","4163","&#9826;","elianto","#f73b6a7A","-1","-1","1","0","[]","0","0","3","","","","","","","",""
"pit-trial","69","590814","0.0-2.0-14.2-0.2","battery-v0.2","","""event"",""trial"",""time""
""fullscreenenter"",""1"",""1607""
","
","
","""event"",""trial"",""time""
""fullscreenenter"",""1"",""1607""
","
","","","-1","","","18","8143","4163","&#9826;","elianto","#f73b6a7A","-1","-1","1","0","[]","0","0","3","","","","","","","",""
"pit-trial","70","595682","0.0-2.0-14.2-1.2","battery-v0.2","","""event"",""trial"",""time""
""fullscreenenter"",""1"",""1607""
","
","
","""event"",""trial"",""time""
""fullscreenenter"",""1"",""1607""
","
","","","-1","","","18","8143","4163","&#9826;","elianto","#f73b6a7A","-1","-1","1","0","[]","0","0","3","","","","","","","",""
"pit-trial","71","600546","0.0-2.0-14.2-2.2","battery-v0.2","","""event"",""trial"",""time""
""fullscreenenter"",""1"",""1607""
","
","
","""event"",""trial"",""time""
""fullscreenenter"",""1"",""1607""
","
","","","-1","","","18","8143","4163","&#9826;","elianto","#f73b6a7A","-1","-1","1","0","[]","0","0","3","","","","","","","",""
"pit-trial","72","605410","0.0-2.0-14.2-3.2","battery-v0.2","","""event"",""trial"",""time""
""fullscreenenter"",""1"",""1607""
","
","
","""event"",""trial"",""time""
""fullscreenenter"",""1"",""1607""
","
","","","-1","","","18","8143","4163","&#9826;","elianto","#f73b6a7A","-1","-1","1","-10","[]","0","0","3","","","","","","","",""
"pit-trial","73","610274","0.0-2.0-14.2-4.2","battery-v0.2","","""event"",""trial"",""time""
""fullscreenenter"",""1"",""1607""
","
","
","""event"",""trial"",""time""
""fullscreenenter"",""1"",""1607""
","
","","","-1","","","18","8143","4163","&#9826;","elianto","#f73b6a7A","-1","-1","1","0","[]","0","0","3","","","","","","","",""
"pit-trial","74","615137","0.0-2.0-14.3-0.3","battery-v0.2","","""event"",""trial"",""time""
""fullscreenenter"",""1"",""1607""
","
","
","""event"",""trial"",""time""
""fullscreenenter"",""1"",""1607""
","
","","","-1","","","18","8143","4163","&#9826;","elianto","#f73b6a7A","-1","-1","1","0","[]","0","0","3","","","","","","","",""
"pit-trial","75","620001","0.0-2.0-14.3-1.3","battery-v0.2","","""event"",""trial"",""time""
""fullscreenenter"",""1"",""1607""
","
","
","""event"",""trial"",""time""
""fullscreenenter"",""1"",""1607""
","
","","","-1","","","18","8143","4163","&#9826;","elianto","#f73b6a7A","-1","-1","1","0","[]","0","0","3","","","","","","","",""
"pit-trial","76","624865","0.0-2.0-14.3-2.3","battery-v0.2","","""event"",""trial"",""time""
""fullscreenenter"",""1"",""1607""
","
","
","""event"",""trial"",""time""
""fullscreenenter"",""1"",""1607""
","
","","","-1","","","18","8143","4163","&#9826;","elianto","#f73b6a7A","-1","-1","1","0","[]","0","0","3","","","","","","","",""
"pit-trial","77","629733","0.0-2.0-14.3-3.3","battery-v0.2","","""event"",""trial"",""time""
""fullscreenenter"",""1"",""1607""
","
","
","""event"",""trial"",""time""
""fullscreenenter"",""1"",""1607""
","
","","","-1","","","18","8143","4163","&#9826;","elianto","#f73b6a7A","-1","-1","1","-10","[]","0","0","3","","","","","","","",""
"pit-trial","78","634604","0.0-2.0-14.3-4.3","battery-v0.2","","""event"",""trial"",""time""
""fullscreenenter"",""1"",""1607""
","
","
","""event"",""trial"",""time""
""fullscreenenter"",""1"",""1607""
","
","","","-1","","","18","8143","4163","&#9826;","elianto","#f73b6a7A","-1","-1","1","0","[]","0","0","3","","","","","","","",""
"call-function","79","634606","0.0-2.0-15.0","battery-v0.2","","""event"",""trial"",""time""
""fullscreenenter"",""1"",""1607""
","
","
","""event"",""trial"",""time""
""fullscreenenter"",""1"",""1607""
","
","","","","","","","","","","","","","","","","","","","","","","","","","","",""
"pit-instructions","80","662013","0.0-2.0-16.0","battery-v0.2","","""event"",""trial"",""time""
""fullscreenenter"",""1"",""1607""
","
","
","""event"",""trial"",""time""
""fullscreenenter"",""1"",""1607""
","
","","[{""page_index"":0,""viewing_time"":7631.20000000298},{""page_index"":1,""viewing_time"":8075.399999991059},{""page_index"":2,""viewing_time"":6297.79999999702},{""page_index"":3,""viewing_time"":5401}]","27406.5","","","","","","","","","","","","","","","","","","","","","","","",""
"pit-trial","81","665467","0.0-2.0-17.0-0.0","battery-v0.2","","""event"",""trial"",""time""
""fullscreenenter"",""1"",""1607""
","
","
","""event"",""trial"",""time""
""fullscreenenter"",""1"",""1607""
","
","","","586.3999999910593","","","18","8143","4163","&#9789;","elianto","#f73b6a7A"," "," ","1","0","[1438.199999988079,2870.8999999910593]","2","0","4","","","","","","","",""
"pit-trial","82","668873","0.0-2.0-17.0-1.0","battery-v0.2","","""event"",""trial"",""time""
""fullscreenenter"",""1"",""1607""
","
","
","""event"",""trial"",""time""
""fullscreenenter"",""1"",""1607""
","
","","","545.9000000059605","","","18","8143","4163","&#9789;","elianto","#f73b6a7A"," "," ","1","0","[1396.5]","1","0","4","","","","","","","",""
"pit-trial","83","672305","0.0-2.0-17.0-2.0","battery-v0.2","","""event"",""trial"",""time""
""fullscreenenter"",""1"",""1607""
","
","
","""event"",""trial"",""time""
""fullscreenenter"",""1"",""1607""
","
","","","565.0999999940395","","","18","8143","4163","&#9789;","elianto","#f73b6a7A"," "," ","1","0","[580.5,1422.3999999910593]","2","0","4","","","","","","","",""
"pit-trial","84","677168","0.0-2.0-17.0-3.0","battery-v0.2","","""event"",""trial"",""time""
""fullscreenenter"",""1"",""1607""
","
","
","""event"",""trial"",""time""
""fullscreenenter"",""1"",""1607""
","
","","","-1","","","18","8143","4163","&#9789;","elianto","#f73b6a7A"," ","-1","0","0","[]","0","0","4","","","","","","","",""
"pit-trial","85","682032","0.0-2.0-17.0-4.0","battery-v0.2","","""event"",""trial"",""time""
""fullscreenenter"",""1"",""1607""
","
","
","""event"",""trial"",""time""
""fullscreenenter"",""1"",""1607""
","
","","","-1","","","18","8143","4163","&#9789;","elianto","#f73b6a7A"," ","-1","0","-10","[]","0","0","4","","","","","","","",""
"pit-trial","86","686896","0.0-2.0-17.1-0.1","battery-v0.2","","""event"",""trial"",""time""
""fullscreenenter"",""1"",""1607""
","
","
","""event"",""trial"",""time""
""fullscreenenter"",""1"",""1607""
","
","","","-1","","","18","8143","4163","&#9789;","elianto","#f73b6a7A"," ","-1","0","-10","[]","0","0","4","","","","","","","",""
"pit-trial","87","691761","0.0-2.0-17.1-1.1","battery-v0.2","","""event"",""trial"",""time""
""fullscreenenter"",""1"",""1607""
","
","
","""event"",""trial"",""time""
""fullscreenenter"",""1"",""1607""
","
","","","-1","","","18","8143","4163","&#9789;","elianto","#f73b6a7A"," ","-1","0","-10","[]","0","0","4","","","","","","","",""
"pit-trial","88","696625","0.0-2.0-17.1-2.1","battery-v0.2","","""event"",""trial"",""time""
""fullscreenenter"",""1"",""1607""
","
","
","""event"",""trial"",""time""
""fullscreenenter"",""1"",""1607""
","
","","","-1","","","18","8143","4163","&#9789;","elianto","#f73b6a7A"," ","-1","0","-10","[]","0","0","4","","","","","","","",""
"pit-trial","89","701489","0.0-2.0-17.1-3.1","battery-v0.2","","""event"",""trial"",""time""
""fullscreenenter"",""1"",""1607""
","
","
","""event"",""trial"",""time""
""fullscreenenter"",""1"",""1607""
","
","","","-1","","","18","8143","4163","&#9789;","elianto","#f73b6a7A"," ","-1","0","0","[]","0","0","4","","","","","","","",""
"pit-trial","90","706353","0.0-2.0-17.1-4.1","battery-v0.2","","""event"",""trial"",""time""
""fullscreenenter"",""1"",""1607""
","
","
","""event"",""trial"",""time""
""fullscreenenter"",""1"",""1607""
","
","","","-1","","","18","8143","4163","&#9789;","elianto","#f73b6a7A"," ","-1","0","-10","[]","0","0","4","","","","","","","",""
"pit-trial","91","711217","0.0-2.0-17.2-0.2","battery-v0.2","","""event"",""trial"",""time""
""fullscreenenter"",""1"",""1607""
","
","
","""event"",""trial"",""time""
""fullscreenenter"",""1"",""1607""
","
","","","-1","","","18","8143","4163","&#9789;","elianto","#f73b6a7A"," ","-1","0","-10","[]","0","0","4","","","","","","","",""
"pit-trial","92","716081","0.0-2.0-17.2-1.2","battery-v0.2","","""event"",""trial"",""time""
""fullscreenenter"",""1"",""1607""
","
","
","""event"",""trial"",""time""
""fullscreenenter"",""1"",""1607""
","
","","","-1","","","18","8143","4163","&#9789;","elianto","#f73b6a7A"," ","-1","0","-10","[]","0","0","4","","","","","","","",""
"pit-trial","93","720945","0.0-2.0-17.2-2.2","battery-v0.2","","""event"",""trial"",""time""
""fullscreenenter"",""1"",""1607""
","
","
","""event"",""trial"",""time""
""fullscreenenter"",""1"",""1607""
","
","","","-1","","","18","8143","4163","&#9789;","elianto","#f73b6a7A"," ","-1","0","-10","[]","0","0","4","","","","","","","",""
"pit-trial","94","725809","0.0-2.0-17.2-3.2","battery-v0.2","","""event"",""trial"",""time""
""fullscreenenter"",""1"",""1607""
","
","
","""event"",""trial"",""time""
""fullscreenenter"",""1"",""1607""
","
","","","-1","","","18","8143","4163","&#9789;","elianto","#f73b6a7A"," ","-1","0","0","[]","0","0","4","","","","","","","",""
"pit-trial","95","730672","0.0-2.0-17.2-4.2","battery-v0.2","","""event"",""trial"",""time""
""fullscreenenter"",""1"",""1607""
","
","
","""event"",""trial"",""time""
""fullscreenenter"",""1"",""1607""
","
","","","-1","","","18","8143","4163","&#9789;","elianto","#f73b6a7A"," ","-1","0","-10","[]","0","0","4","","","","","","","",""
"pit-trial","96","735536","0.0-2.0-17.3-0.3","battery-v0.2","","""event"",""trial"",""time""
""fullscreenenter"",""1"",""1607""
","
","
","""event"",""trial"",""time""
""fullscreenenter"",""1"",""1607""
","
","","","-1","","","18","8143","4163","&#9789;","elianto","#f73b6a7A"," ","-1","0","-10","[]","0","0","4","","","","","","","",""
"pit-trial","97","740399","0.0-2.0-17.3-1.3","battery-v0.2","","""event"",""trial"",""time""
""fullscreenenter"",""1"",""1607""
","
","
","""event"",""trial"",""time""
""fullscreenenter"",""1"",""1607""
","
","","","-1","","","18","8143","4163","&#9789;","elianto","#f73b6a7A"," ","-1","0","-10","[]","0","0","4","","","","","","","",""
"pit-trial","98","745264","0.0-2.0-17.3-2.3","battery-v0.2","","""event"",""trial"",""time""
""fullscreenenter"",""1"",""1607""
","
","
","""event"",""trial"",""time""
""fullscreenenter"",""1"",""1607""
","
","","","-1","","","18","8143","4163","&#9789;","elianto","#f73b6a7A"," ","-1","0","-10","[]","0","0","4","","","","","","","",""
"pit-trial","99","750131","0.0-2.0-17.3-3.3","battery-v0.2","","""event"",""trial"",""time""
""fullscreenenter"",""1"",""1607""
","
","
","""event"",""trial"",""time""
""fullscreenenter"",""1"",""1607""
","
","","","-1","","","18","8143","4163","&#9789;","elianto","#f73b6a7A"," ","-1","0","0","[]","0","0","4","","","","","","","",""
"pit-trial","100","755003","0.0-2.0-17.3-4.3","battery-v0.2","","""event"",""trial"",""time""
""fullscreenenter"",""1"",""1607""
","
","
","""event"",""trial"",""time""
""fullscreenenter"",""1"",""1607""
","
","","","-1","","","18","8143","4163","&#9789;","elianto","#f73b6a7A"," ","-1","0","-10","[]","0","0","4","","","","","","","",""
"call-function","101","755005","0.0-2.0-18.0","battery-v0.2","","""event"",""trial"",""time""
""fullscreenenter"",""1"",""1607""
","
","
","""event"",""trial"",""time""
""fullscreenenter"",""1"",""1607""
","
","","","","","","","","","","","","","","","","","","","","","","","","","","",""
"pit-instructions","102","823506","0.0-2.0-19.0","battery-v0.2","","""event"",""trial"",""time""
""fullscreenenter"",""1"",""1607""
","
","
","""event"",""trial"",""time""
""fullscreenenter"",""1"",""1607""
","
","","[{""page_index"":0,""viewing_time"":6254},{""page_index"":1,""viewing_time"":5806.899999991059},{""page_index"":2,""viewing_time"":14215.800000011921},{""page_index"":3,""viewing_time"":7948.5},{""page_index"":4,""viewing_time"":8416.59999999404},{""page_index"":5,""viewing_time"":8376.09999999404},{""page_index"":6,""viewing_time"":7396.5},{""page_index"":7,""viewing_time"":5659.600000008941},{""page_index"":8,""viewing_time"":4426.899999991059}]","68501.39999999106","","","","","","","","","","","","","","","","","","","","","","","",""
"pit-comprehension","103","828355","0.0-2.0-20.0-0.0","battery-v0.2","","""event"",""trial"",""time""
""fullscreenenter"",""1"",""1607""
","
","
","""event"",""trial"",""time""
""fullscreenenter"",""1"",""1607""
","
","","","4845.199999988079","[""SPACE""]","0","18","8143","4163","","","","","","","","","","","","","","","","","","",""
"pit-instructions","104","832826","0.0-2.0-20.0-1.0","battery-v0.2","","""event"",""trial"",""time""
""fullscreenenter"",""1"",""1607""
","
","
","""event"",""trial"",""time""
""fullscreenenter"",""1"",""1607""
","
","","[{""page_index"":0,""viewing_time"":4431.20000000298}]","4431.70000000298","","","","","","","","","","","","","","","","","","","","","","","",""
"pit-comprehension","105","838414","0.0-2.0-21.0-0.0","battery-v0.2","","""event"",""trial"",""time""
""fullscreenenter"",""1"",""1607""
","
","
","""event"",""trial"",""time""
""fullscreenenter"",""1"",""1607""
","
","","","5583.70000000298","[""10""]","0","18","8143","4163","","","","","","","","","","","","","","","","","","",""
"pit-instructions","106","840934","0.0-2.0-21.0-1.0","battery-v0.2","","""event"",""trial"",""time""
""fullscreenenter"",""1"",""1607""
","
","
","""event"",""trial"",""time""
""fullscreenenter"",""1"",""1607""
","
","","[{""page_index"":0,""viewing_time"":2477.699999988079}]","2478.0999999940395","","","","","","","","","","","","","","","","","","","","","","","",""
"pit-comprehension","107","847549","0.0-2.0-22.0-0.0","battery-v0.2","","""event"",""trial"",""time""
""fullscreenenter"",""1"",""1607""
","
","
","""event"",""trial"",""time""
""fullscreenenter"",""1"",""1607""
","
","","","6610.5","[""0""]","0","18","8143","4163","","","","","","","","","","","","","","","","","","",""
"pit-instructions","108","849128","0.0-2.0-22.0-1.0","battery-v0.2","","""event"",""trial"",""time""
""fullscreenenter"",""1"",""1607""
","
","
","""event"",""trial"",""time""
""fullscreenenter"",""1"",""1607""
","
","","[{""page_index"":0,""viewing_time"":1540.2000000029802}]","1540.5999999940395","","","","","","","","","","","","","","","","","","","","","","","",""
"pit-comprehension","109","859784","0.0-2.0-23.0-0.0","battery-v0.2","","""event"",""trial"",""time""
""fullscreenenter"",""1"",""1607""
","
","
","""event"",""trial"",""time""
""fullscreenenter"",""1"",""1607""
","
","","","10651.59999999404","[""True""]","0","18","8143","4163","","","","","","","","","","","","","","","","","","",""
"pit-instructions","110","861651","0.0-2.0-23.0-1.0","battery-v0.2","","""event"",""trial"",""time""
""fullscreenenter"",""1"",""1607""
","
","
","""event"",""trial"",""time""
""fullscreenenter"",""1"",""1607""
","
","","[{""page_index"":0,""viewing_time"":1824.800000011921}]","1825.2000000029802","","","","","","","","","","","","","","","","","","","","","","","",""
"pit-comprehension","111","871268","0.0-2.0-24.0-0.0","battery-v0.2","","""event"",""trial"",""time""
""fullscreenenter"",""1"",""1607""
","
","
","""event"",""trial"",""time""
""fullscreenenter"",""1"",""1607""
","
","","","9612.59999999404","[""True""]","0","18","8143","4163","","","","","","","","","","","","","","","","","","",""
"pit-instructions","112","872962","0.0-2.0-24.0-1.0","battery-v0.2","","""event"",""trial"",""time""
""fullscreenenter"",""1"",""1607""
","
","
","""event"",""trial"",""time""
""fullscreenenter"",""1"",""1607""
","
","","[{""page_index"":0,""viewing_time"":1654.2999999970198}]","1654.5999999940395","","","","","","","","","","","","","","","","","","","","","","","",""
"pit-comprehension","113","880592","0.0-2.0-25.0-0.0","battery-v0.2","","""event"",""trial"",""time""
""fullscreenenter"",""1"",""1607""
","
","
","""event"",""trial"",""time""
""fullscreenenter"",""1"",""1607""
","
","","","7626.70000000298","[""True""]","0","18","8143","4163","","","","","","","","","","","","","","","","","","",""
"pit-instructions","114","882278","0.0-2.0-25.0-1.0","battery-v0.2","","""event"",""trial"",""time""
""fullscreenenter"",""1"",""1607""
","
","
","""event"",""trial"",""time""
""fullscreenenter"",""1"",""1607""
","
","","[{""page_index"":0,""viewing_time"":1644.5}]","1645.0999999940395","","","","","","","","","","","","","","","","","","","","","","","",""
"pit-comprehension","115","891195","0.0-2.0-26.0-0.0","battery-v0.2","","""event"",""trial"",""time""
""fullscreenenter"",""1"",""1607""
","
","
","""event"",""trial"",""time""
""fullscreenenter"",""1"",""1607""
","
","","","8912.70000000298","[""False""]","0","18","8143","4163","","","","","","","","","","","","","","","","","","",""
"pit-instructions","116","892842","0.0-2.0-26.0-1.0","battery-v0.2","","""event"",""trial"",""time""
""fullscreenenter"",""1"",""1607""
","
","
","""event"",""trial"",""time""
""fullscreenenter"",""1"",""1607""
","
","","[{""page_index"":0,""viewing_time"":1606.5999999940395}]","1607","","","","","","","","","","","","","","","","","","","","","","","",""
"pit-instructions","117","911547","0.0-3.0","battery-v0.2","","""event"",""trial"",""time""
""fullscreenenter"",""1"",""1607""
","
","
","""event"",""trial"",""time""
""fullscreenenter"",""1"",""1607""
","
","","[{""page_index"":0,""viewing_time"":4495.29999999702},{""page_index"":1,""viewing_time"":6764.0999999940395},{""page_index"":2,""viewing_time"":7443.600000008941}]","18703.39999999106","","","","","","","","","","","","","","","","","","","","","","","",""
"pit-trial","118","915012","0.0-4.0","battery-v0.2","","""event"",""trial"",""time""
""fullscreenenter"",""1"",""1607""
","
","
","""event"",""trial"",""time""
""fullscreenenter"",""1"",""1607""
","
","","","601.6000000089407","","","18","8143","4163","&#9733;","elianto","#3366ff99","-1"," ","0","0","[1454.7000000029802]","1","1","","","8143","1","2","2","win","no-go","0"
"pit-trial","119","918899","0.0-5.0","battery-v0.2","","""event"",""trial"",""time""
""fullscreenenter"",""1"",""1607""
","
","
","""event"",""trial"",""time""
""fullscreenenter"",""1"",""1607""
","
","","","1029.5999999940395","","","18","8143","4163","&#9752;","elianto","#f73b6a7A"," "," ","1","0","[1883.7999999970198]","1","1","","","8143","2","3","3","lose","go","0"
"pit-trial","120","922420","0.0-6.0","battery-v0.2","","""event"",""trial"",""time""
""fullscreenenter"",""1"",""1607""
","
","
","""event"",""trial"",""time""
""fullscreenenter"",""1"",""1607""
","
","","","661.1000000089407","","","18","8143","4163","&#9728;","elianto","#f73b6a7A","-1"," ","0","0","[1517.0999999940395]","1","1","","","8143","3","0","4","lose","no-go","1"
"pit-trial","121","926371","0.0-7.0","battery-v0.2","","""event"",""trial"",""time""
""fullscreenenter"",""1"",""1607""
","
","
","""event"",""trial"",""time""
""fullscreenenter"",""1"",""1607""
","
","","","1094","","","18","8143","4163","&#9730;","elianto","#3366ff99"," "," ","1","+10","[1947.699999988079]","1","1","","","8143","4","1","1","win","go","0"
"pit-trial","122","929966","0.0-8.0","battery-v0.2","","""event"",""trial"",""time""
""fullscreenenter"",""1"",""1607""
","
","
","""event"",""trial"",""time""
""fullscreenenter"",""1"",""1607""
","
","","","730.5","","","18","8143","4163","&#9733;","elianto","#3366ff99","-1"," ","0","+10","[1583.699999988079]","1","1","","","8143","5","2","2","win","no-go","1"
"pit-trial","123","934392","0.0-9.0","battery-v0.2","","""event"",""trial"",""time""
""fullscreenenter"",""1"",""1607""
","
","
","""event"",""trial"",""time""
""fullscreenenter"",""1"",""1607""
","
","","","1555.4000000059605","","","18","8143","4163","&#9728;","elianto","#f73b6a7A","-1"," ","0","-10","[2410.7999999970198]","1","1","","","8143","6","0","4","lose","no-go","0"
"pit-trial","124","937904","0.0-10.0","battery-v0.2","","""event"",""trial"",""time""
""fullscreenenter"",""1"",""1607""
","
","
","""event"",""trial"",""time""
""fullscreenenter"",""1"",""1607""
","
","","","651.4000000059605","","","18","8143","4163","&#9730;","elianto","#3366ff99"," "," ","1","+10","[1501.5]","1","1","","","8143","7","1","1","win","go","0"
"pit-trial","125","942772","0.0-11.0","battery-v0.2","","""event"",""trial"",""time""
""fullscreenenter"",""1"",""1607""
","
","
","""event"",""trial"",""time""
""fullscreenenter"",""1"",""1607""
","
","","","-1","","","18","8143","4163","&#9752;","elianto","#f73b6a7A"," ","-1","0","-10","[]","0","1","","","8143","8","3","3","lose","go","0"
"pit-trial","126","947011","0.0-12.0","battery-v0.2","","""event"",""trial"",""time""
""fullscreenenter"",""1"",""1607""
","
","
","""event"",""trial"",""time""
""fullscreenenter"",""1"",""1607""
","
","","","1378.7000000029802","","","18","8143","4163","&#9752;","elianto","#f73b6a7A"," "," ","1","-10","[2230.5999999940395]","1","1","","","8143","9","3","3","lose","go","1"
"pit-trial","127","950515","0.0-13.0","battery-v0.2","","""event"",""trial"",""time""
""fullscreenenter"",""1"",""1607""
","
","
","""event"",""trial"",""time""
""fullscreenenter"",""1"",""1607""
","
","","","642.5","","","18","8143","4163","&#9730;","elianto","#3366ff99"," "," ","1","+10","[1499.1000000089407]","1","1","","","8143","10","1","1","win","go","0"
"pit-trial","128","954030","0.0-14.0","battery-v0.2","","""event"",""trial"",""time""
""fullscreenenter"",""1"",""1607""
","
","
","""event"",""trial"",""time""
""fullscreenenter"",""1"",""1607""
","
","","","648.2999999970198","","","18","8143","4163","&#9733;","elianto","#3366ff99","-1"," ","0","0","[1505.5]","1","1","","","8143","11","2","2","win","no-go","0"
"pit-trial","129","958894","0.0-15.0","battery-v0.2","","""event"",""trial"",""time""
""fullscreenenter"",""1"",""1607""
","
","
","""event"",""trial"",""time""
""fullscreenenter"",""1"",""1607""
","
","","","-1","","","18","8143","4163","&#9728;","elianto","#f73b6a7A","-1","-1","1","-10","[]","0","1","","","8143","12","0","4","lose","no-go","1"
"pit-trial","130","962477","0.0-16.0","battery-v0.2","","""event"",""trial"",""time""
""fullscreenenter"",""1"",""1607""
","
","
","""event"",""trial"",""time""
""fullscreenenter"",""1"",""1607""
","
","","","722","","","18","8143","4163","&#9733;","elianto","#3366ff99","-1"," ","0","0","[1572.4000000059605]","1","1","","","8143","13","2","2","win","no-go","0"
"pit-trial","131","966227","0.0-17.0","battery-v0.2","","""event"",""trial"",""time""
""fullscreenenter"",""1"",""1607""
","
","
","""event"",""trial"",""time""
""fullscreenenter"",""1"",""1607""
","
","","","888","","","18","8143","4163","&#9752;","elianto","#f73b6a7A"," "," ","1","-10","[1744]","1","1","","","8143","14","3","3","lose","go","1"
"pit-trial","132","970355","0.0-18.0","battery-v0.2","","""event"",""trial"",""time""
""fullscreenenter"",""1"",""1607""
","
","
","""event"",""trial"",""time""
""fullscreenenter"",""1"",""1607""
","
","","","1267.7999999970198","","","18","8143","4163","&#9728;","elianto","#f73b6a7A","-1"," ","0","-10","[2118.1000000089407]","1","1","","","8143","15","0","4","lose","no-go","0"
"pit-trial","133","974110","0.0-19.0","battery-v0.2","","""event"",""trial"",""time""
""fullscreenenter"",""1"",""1607""
","
","
","""event"",""trial"",""time""
""fullscreenenter"",""1"",""1607""
","
","","","897.3999999910593","","","18","8143","4163","&#9730;","elianto","#3366ff99"," "," ","1","+10","[1748.5]","1","1","","","8143","16","1","1","win","go","0"
"pit-trial","134","978973","0.0-20.0","battery-v0.2","","""event"",""trial"",""time""
""fullscreenenter"",""1"",""1607""
","
","
","""event"",""trial"",""time""
""fullscreenenter"",""1"",""1607""
","
","","","-1","","","18","8143","4163","&#9728;","elianto","#f73b6a7A","-1","-1","1","0","[]","0","1","","","8143","17","0","4","lose","no-go","0"
"pit-trial","135","982605","0.0-21.0","battery-v0.2","","""event"",""trial"",""time""
""fullscreenenter"",""1"",""1607""
","
","
","""event"",""trial"",""time""
""fullscreenenter"",""1"",""1607""
","
","","","769.7000000029802","","","18","8143","4163","&#9733;","elianto","#3366ff99","-1"," ","0","+10","[1620.1000000089407]","1","1","","","8143","18","2","2","win","no-go","1"
"pit-trial","136","987469","0.0-22.0","battery-v0.2","","""event"",""trial"",""time""
""fullscreenenter"",""1"",""1607""
","
","
","""event"",""trial"",""time""
""fullscreenenter"",""1"",""1607""
","
","","","-1","","","18","8143","4163","&#9752;","elianto","#f73b6a7A"," ","-1","0","-10","[]","0","1","","","8143","19","3","3","lose","go","0"
"pit-trial","137","990909","0.0-23.0","battery-v0.2","","""event"",""trial"",""time""
""fullscreenenter"",""1"",""1607""
","
","
","""event"",""trial"",""time""
""fullscreenenter"",""1"",""1607""
","
","","","578","","","18","8143","4163","&#9730;","elianto","#3366ff99"," "," ","1","0","[1430.7000000029802]","1","1","","","8143","20","1","1","win","go","1"
"pit-instructions","138","1003589","0.0-24.0","battery-v0.2","","""event"",""trial"",""time""
""fullscreenenter"",""1"",""1607""
","
","
","""event"",""trial"",""time""
""fullscreenenter"",""1"",""1607""
","
","","[{""page_index"":0,""viewing_time"":5901.399999991059},{""page_index"":1,""viewing_time"":6776.5}]","12678.39999999106","","","","","","","","","","","","","","","","","","","","","","","",""
"pit-trial","139","1007226","0.0-25.0","battery-v0.2","","""event"",""trial"",""time""
""fullscreenenter"",""1"",""1607""
","
","
","""event"",""trial"",""time""
""fullscreenenter"",""1"",""1607""
","
","","","767.5","","","18","8143","4163","g","elianto","#f73b6a7A"," "," ","1","0","[1626.5]","1","2","","","8143","21","3","3","lose","go","0"
"pit-trial","140","1010678","0.0-26.0","battery-v0.2","","""event"",""trial"",""time""
""fullscreenenter"",""1"",""1607""
","
","
","""event"",""trial"",""time""
""fullscreenenter"",""1"",""1607""
","
","","","583.2000000029802","","","18","8143","4163","l","elianto","#3366ff99"," "," ","1","+10","[1440.7000000029802]","1","2","","","8143","22","1","1","win","go","0"
"pit-trial","141","1014566","0.0-27.0","battery-v0.2","","""event"",""trial"",""time""
""fullscreenenter"",""1"",""1607""
","
","
","""event"",""trial"",""time""
""fullscreenenter"",""1"",""1607""
","
","","","1019.5","","","18","8143","4163","a","elianto","#f73b6a7A","-1"," ","0","-10","[1879.5]","1","2","","","8143","23","2","4","lose","no-go","0"
"pit-trial","142","1019434","0.0-28.0","battery-v0.2","","""event"",""trial"",""time""
""fullscreenenter"",""1"",""1607""
","
","
","""event"",""trial"",""time""
""fullscreenenter"",""1"",""1607""
","
","","","-1","","","18","8143","4163","u","elianto","#f73b6a7A","-1","-1","1","-10","[]","0","2","","","8143","24","0","4","lose","no-go","1"
"pit-trial","143","1024300","0.0-29.0","battery-v0.2","","""event"",""trial"",""time""
""fullscreenenter"",""1"",""1607""
","
","
","""event"",""trial"",""time""
""fullscreenenter"",""1"",""1607""
","
","","","-1","","","18","8143","4163","a","elianto","#f73b6a7A","-1","-1","1","-10","[]","0","2","","","8143","25","2","4","lose","no-go","1"
"pit-trial","144","1028900","0.0-30.0","battery-v0.2","","""event"",""trial"",""time""
""fullscreenenter"",""1"",""1607""
","
","
","""event"",""trial"",""time""
""fullscreenenter"",""1"",""1607""
","
","","","1737.2999999970198","","","18","8143","4163","u","elianto","#f73b6a7A","-1"," ","0","0","[2591.1000000089407]","1","2","","","8143","26","0","4","lose","no-go","1"
"pit-trial","145","1033762","0.0-31.0","battery-v0.2","","""event"",""trial"",""time""
""fullscreenenter"",""1"",""1607""
","
","
","""event"",""trial"",""time""
""fullscreenenter"",""1"",""1607""
","
","","","-1","","","18","8143","4163","g","elianto","#f73b6a7A"," ","-1","0","-10","[3568.8999999910593]","1","2","","","8143","27","3","3","lose","go","0"
"pit-trial","146","1037270","0.0-32.0","battery-v0.2","","""event"",""trial"",""time""
""fullscreenenter"",""1"",""1607""
","
","
","""event"",""trial"",""time""
""fullscreenenter"",""1"",""1607""
","
","","","639.4000000059605","","","18","8143","4163","l","elianto","#3366ff99"," "," ","1","0","[1494]","1","2","","","8143","28","1","1","win","go","1"
"pit-trial","147","1041302","0.0-33.0","battery-v0.2","","""event"",""trial"",""time""
""fullscreenenter"",""1"",""1607""
","
","
","""event"",""trial"",""time""
""fullscreenenter"",""1"",""1607""
","
","","","1169","","","18","8143","4163","g","elianto","#f73b6a7A"," "," ","1","0","[2021.8999999910593]","1","2","","","8143","29","3","3","lose","go","0"
"pit-trial","148","1045291","0.0-34.0","battery-v0.2","","""event"",""trial"",""time""
""fullscreenenter"",""1"",""1607""
","
","
","""event"",""trial"",""time""
""fullscreenenter"",""1"",""1607""
","
","","","1131.5","","","18","8143","4163","a","elianto","#f73b6a7A","-1"," ","0","0","[1983.199999988079]","1","2","","","8143","30","2","4","lose","no-go","1"
"pit-trial","149","1050155","0.0-35.0","battery-v0.2","","""event"",""trial"",""time""
""fullscreenenter"",""1"",""1607""
","
","
","""event"",""trial"",""time""
""fullscreenenter"",""1"",""1607""
","
","","","-1","","","18","8143","4163","u","elianto","#f73b6a7A","-1","-1","1","0","[]","0","2","","","8143","31","0","4","lose","no-go","0"
"pit-trial","150","1053755","0.0-36.0","battery-v0.2","","""event"",""trial"",""time""
""fullscreenenter"",""1"",""1607""
","
","
","""event"",""trial"",""time""
""fullscreenenter"",""1"",""1607""
","
","","","741.0999999940395","","","18","8143","4163","l","elianto","#3366ff99"," "," ","1","+10","[1591.3999999910593]","1","2","","","8143","32","1","1","win","go","0"
"pit-trial","151","1057314","0.0-37.0","battery-v0.2","","""event"",""trial"",""time""
""fullscreenenter"",""1"",""1607""
","
","
","""event"",""trial"",""time""
""fullscreenenter"",""1"",""1607""
","
","","","701","","","18","8143","4163","a","elianto","#f73b6a7A","-1"," ","0","-10","[1553]","1","2","","","8143","33","2","4","lose","no-go","0"
"pit-trial","152","1060778","0.0-38.0","battery-v0.2","","""event"",""trial"",""time""
""fullscreenenter"",""1"",""1607""
","
","
","""event"",""trial"",""time""
""fullscreenenter"",""1"",""1607""
","
","","","600.7999999970198","","","18","8143","4163","g","elianto","#f73b6a7A"," "," ","1","-10","[1456.199999988079]","1","2","","","8143","34","3","3","lose","go","1"
"pit-trial","153","1065642","0.0-39.0","battery-v0.2","","""event"",""trial"",""time""
""fullscreenenter"",""1"",""1607""
","
","
","""event"",""trial"",""time""
""fullscreenenter"",""1"",""1607""
","
","","","-1","","","18","8143","4163","u","elianto","#f73b6a7A","-1","-1","1","0","[]","0","2","","","8143","35","0","4","lose","no-go","0"
"pit-trial","154","1068996","0.0-40.0","battery-v0.2","","""event"",""trial"",""time""
""fullscreenenter"",""1"",""1607""
","
","
","""event"",""trial"",""time""
""fullscreenenter"",""1"",""1607""
","
","","","491","","","18","8143","4163","l","elianto","#3366ff99"," "," ","1","+10","[1343.5999999940395]","1","2","","","8143","36","1","1","win","go","0"
"pit-trial","155","1072389","0.0-41.0","battery-v0.2","","""event"",""trial"",""time""
""fullscreenenter"",""1"",""1607""
","
","
","""event"",""trial"",""time""
""fullscreenenter"",""1"",""1607""
","
","","","531.8999999910593","","","18","8143","4163","a","elianto","#f73b6a7A","-1"," ","0","-10","[1384.2999999970198]","1","2","","","8143","37","2","4","lose","no-go","0"
"pit-trial","156","1077258","0.0-42.0","battery-v0.2","","""event"",""trial"",""time""
""fullscreenenter"",""1"",""1607""
","
","
","""event"",""trial"",""time""
""fullscreenenter"",""1"",""1607""
","
","","","-1","","","18","8143","4163","g","elianto","#f73b6a7A"," ","-1","0","-10","[]","0","2","","","8143","38","3","3","lose","go","0"
"pit-trial","157","1082124","0.0-43.0","battery-v0.2","","""event"",""trial"",""time""
""fullscreenenter"",""1"",""1607""
","
","
","""event"",""trial"",""time""
""fullscreenenter"",""1"",""1607""
","
","","","-1","","","18","8143","4163","u","elianto","#f73b6a7A","-1","-1","1","0","[]","0","2","","","8143","39","0","4","lose","no-go","0"
"pit-trial","158","1085514","0.0-44.0","battery-v0.2","","""event"",""trial"",""time""
""fullscreenenter"",""1"",""1607""
","
","
","""event"",""trial"",""time""
""fullscreenenter"",""1"",""1607""
","
","","","524.2999999970198","","","18","8143","4163","l","elianto","#3366ff99"," "," ","1","+10","[1383.8999999910593]","1","2","","","8143","40","1","1","win","go","0"
"pit-trial","159","1089013","0.0-45.0","battery-v0.2","","""event"",""trial"",""time""
""fullscreenenter"",""1"",""1607""
","
","
","""event"",""trial"",""time""
""fullscreenenter"",""1"",""1607""
","
","","","632.7000000029802","","","18","8143","4163","l","elianto","#3366ff99"," "," ","1","+10","[1485.2000000029802]","1","2","","","8143","41","1","1","win","go","0"
"pit-trial","160","1093882","0.0-46.0","battery-v0.2","","""event"",""trial"",""time""
""fullscreenenter"",""1"",""1607""
","
","
","""event"",""trial"",""time""
""fullscreenenter"",""1"",""1607""
","
","","","-1","","","18","8143","4163","u","elianto","#f73b6a7A","-1","-1","1","0","[]","0","2","","","8143","42","0","4","lose","no-go","0"
"pit-trial","161","1098746","0.0-47.0","battery-v0.2","","""event"",""trial"",""time""
""fullscreenenter"",""1"",""1607""
","
","
","""event"",""trial"",""time""
""fullscreenenter"",""1"",""1607""
","
","","","-1","","","18","8143","4163","g","elianto","#f73b6a7A"," ","-1","0","-10","[]","0","2","","","8143","43","3","3","lose","go","0"
"pit-trial","162","1103610","0.0-48.0","battery-v0.2","","""event"",""trial"",""time""
""fullscreenenter"",""1"",""1607""
","
","
","""event"",""trial"",""time""
""fullscreenenter"",""1"",""1607""
","
","","","-1","","","18","8143","4163","a","elianto","#f73b6a7A","-1","-1","1","0","[]","0","2","","","8143","44","2","4","lose","no-go","0"
"pit-trial","163","1108474","0.0-49.0","battery-v0.2","","""event"",""trial"",""time""
""fullscreenenter"",""1"",""1607""
","
","
","""event"",""trial"",""time""
""fullscreenenter"",""1"",""1607""
","
","","","-1","","","18","8143","4163","u","elianto","#f73b6a7A","-1","-1","1","-10","[]","0","2","","","8143","45","0","4","lose","no-go","1"
"pit-trial","164","1113338","0.0-50.0","battery-v0.2","","""event"",""trial"",""time""
""fullscreenenter"",""1"",""1607""
","
","
","""event"",""trial"",""time""
""fullscreenenter"",""1"",""1607""
","
","","","-1","","","18","8143","4163","g","elianto","#f73b6a7A"," ","-1","0","0","[]","0","2","","","8143","46","3","3","lose","go","1"
"pit-trial","165","1118201","0.0-51.0","battery-v0.2","","""event"",""trial"",""time""
""fullscreenenter"",""1"",""1607""
","
","
","""event"",""trial"",""time""
""fullscreenenter"",""1"",""1607""
","
","","","-1","","","18","8143","4163","a","elianto","#f73b6a7A","-1","-1","1","0","[]","0","2","","","8143","47","2","4","lose","no-go","0"
"pit-trial","166","1121723","0.0-52.0","battery-v0.2","","""event"",""trial"",""time""
""fullscreenenter"",""1"",""1607""
","
","
","""event"",""trial"",""time""
""fullscreenenter"",""1"",""1607""
","
","","","659.9000000059605","","","18","8143","4163","p","elianto","#3366ff99","-1"," ","0","+10","[1510.4000000059605]","1","2","","","8143","48","4","2","win","no-go","1"
"pit-trial","167","1125097","0.0-53.0","battery-v0.2","","""event"",""trial"",""time""
""fullscreenenter"",""1"",""1607""
","
","
","""event"",""trial"",""time""
""fullscreenenter"",""1"",""1607""
","
","","","505.40000000596046","","","18","8143","4163","l","elianto","#3366ff99"," "," ","1","+10","[1365]","1","2","","","8143","49","1","1","win","go","0"
"pit-trial","168","1129962","0.0-54.0","battery-v0.2","","""event"",""trial"",""time""
""fullscreenenter"",""1"",""1607""
","
","
","""event"",""trial"",""time""
""fullscreenenter"",""1"",""1607""
","
","","","-1","","","18","8143","4163","u","elianto","#f73b6a7A","-1","-1","1","0","[]","0","2","","","8143","50","0","4","lose","no-go","0"
"pit-trial","169","1133561","0.0-55.0","battery-v0.2","","""event"",""trial"",""time""
""fullscreenenter"",""1"",""1607""
","
","
","""event"",""trial"",""time""
""fullscreenenter"",""1"",""1607""
","
","","","737.7000000029802","","","18","8143","4163","p","elianto","#3366ff99","-1"," ","0","0","[1594.7000000029802]","1","2","","","8143","51","4","2","win","no-go","0"
"pit-trial","170","1138425","0.0-56.0","battery-v0.2","","""event"",""trial"",""time""
""fullscreenenter"",""1"",""1607""
","
","
","""event"",""trial"",""time""
""fullscreenenter"",""1"",""1607""
","
","","","-1","","","18","8143","4163","g","elianto","#f73b6a7A"," ","-1","0","-10","[]","0","2","","","8143","52","3","3","lose","go","0"
"pit-trial","171","1143289","0.0-57.0","battery-v0.2","","""event"",""trial"",""time""
""fullscreenenter"",""1"",""1607""
","
","
","""event"",""trial"",""time""
""fullscreenenter"",""1"",""1607""
","
","","","-1","","","18","8143","4163","u","elianto","#f73b6a7A","-1","-1","1","0","[]","0","2","","","8143","53","0","4","lose","no-go","0"
"pit-trial","172","1147108","0.0-58.0","battery-v0.2","","""event"",""trial"",""time""
""fullscreenenter"",""1"",""1607""
","
","
","""event"",""trial"",""time""
""fullscreenenter"",""1"",""1607""
","
","","","952.2000000029802","","","18","8143","4163","l","elianto","#3366ff99"," "," ","1","0","[1807.7999999970198]","1","2","","","8143","54","1","1","win","go","1"
"pit-trial","173","1151977","0.0-59.0","battery-v0.2","","""event"",""trial"",""time""
""fullscreenenter"",""1"",""1607""
","
","
","""event"",""trial"",""time""
""fullscreenenter"",""1"",""1607""
","
","","","-1","","","18","8143","4163","a","elianto","#f73b6a7A","-1","-1","1","0","[]","0","2","","","8143","55","2","4","lose","no-go","0"
"pit-trial","174","1155512","0.0-60.0","battery-v0.2","","""event"",""trial"",""time""
""fullscreenenter"",""1"",""1607""
","
","
","""event"",""trial"",""time""
""fullscreenenter"",""1"",""1607""
","
","","","668.2000000029802","","","18","8143","4163","p","elianto","#3366ff99","-1"," ","0","0","[1524.300000011921]","1","2","","","8143","56","4","2","win","no-go","0"
"pit-trial","175","1160377","0.0-61.0","battery-v0.2","","""event"",""trial"",""time""
""fullscreenenter"",""1"",""1607""
","
","
","""event"",""trial"",""time""
""fullscreenenter"",""1"",""1607""
","
","","","-1","","","18","8143","4163","u","elianto","#f73b6a7A","-1","-1","1","0","[]","0","2","","","8143","57","0","4","lose","no-go","0"
"pit-trial","176","1163779","0.0-62.0","battery-v0.2","","""event"",""trial"",""time""
""fullscreenenter"",""1"",""1607""
","
","
","""event"",""trial"",""time""
""fullscreenenter"",""1"",""1607""
","
","","","530.9000000059605","","","18","8143","4163","p","elianto","#3366ff99","-1"," ","0","0","[1387.2000000029802]","1","2","","","8143","58","4","2","win","no-go","0"
"pit-trial","177","1167208","0.0-63.0","battery-v0.2","","""event"",""trial"",""time""
""fullscreenenter"",""1"",""1607""
","
","
","""event"",""trial"",""time""
""fullscreenenter"",""1"",""1607""
","
","","","562.2999999970198","","","18","8143","4163","l","elianto","#3366ff99"," "," ","1","+10","[1417.7999999970198]","1","2","","","8143","59","1","1","win","go","0"
"pit-trial","178","1172072","0.0-64.0","battery-v0.2","","""event"",""trial"",""time""
""fullscreenenter"",""1"",""1607""
","
","
","""event"",""trial"",""time""
""fullscreenenter"",""1"",""1607""
","
","","","-1","","","18","8143","4163","g","elianto","#f73b6a7A"," ","-1","0","0","[]","0","2","","","8143","60","3","3","lose","go","1"
"pit-trial","179","1176936","0.0-65.0","battery-v0.2","","""event"",""trial"",""time""
""fullscreenenter"",""1"",""1607""
","
","
","""event"",""trial"",""time""
""fullscreenenter"",""1"",""1607""
","
","","","-1","","","18","8143","4163","a","elianto","#f73b6a7A","-1","-1","1","0","[]","0","2","","","8143","61","2","4","lose","no-go","0"
"pit-trial","180","1180335","0.0-66.0","battery-v0.2","","""event"",""trial"",""time""
""fullscreenenter"",""1"",""1607""
","
","
","""event"",""trial"",""time""
""fullscreenenter"",""1"",""1607""
","
","","","539.6000000089407","","","18","8143","4163","l","elianto","#3366ff99"," "," ","1","+10","[1394.300000011921]","1","2","","","8143","62","1","1","win","go","0"
"pit-trial","181","1183859","0.0-67.0","battery-v0.2","","""event"",""trial"",""time""
""fullscreenenter"",""1"",""1607""
","
","
","""event"",""trial"",""time""
""fullscreenenter"",""1"",""1607""
","
","","","659.9000000059605","","","18","8143","4163","p","elianto","#3366ff99","-1"," ","0","0","[1511.3999999910593]","1","2","","","8143","63","4","2","win","no-go","0"
"pit-trial","182","1188728","0.0-68.0","battery-v0.2","","""event"",""trial"",""time""
""fullscreenenter"",""1"",""1607""
","
","
","""event"",""trial"",""time""
""fullscreenenter"",""1"",""1607""
","
","","","-1","","","18","8143","4163","g","elianto","#f73b6a7A"," ","-1","0","-10","[]","0","2","","","8143","64","3","3","lose","go","0"
"pit-trial","183","1192291","0.0-69.0","battery-v0.2","","""event"",""trial"",""time""
""fullscreenenter"",""1"",""1607""
","
","
","""event"",""trial"",""time""
""fullscreenenter"",""1"",""1607""
","
","","","699.4000000059605","","","18","8143","4163","p","elianto","#3366ff99","-1"," ","0","0","[1551.7999999970198]","1","2","","","8143","65","4","2","win","no-go","0"
"pit-trial","184","1196131","0.0-70.0","battery-v0.2","","""event"",""trial"",""time""
""fullscreenenter"",""1"",""1607""
","
","
","""event"",""trial"",""time""
""fullscreenenter"",""1"",""1607""
","
","","","967.5","","","18","8143","4163","l","elianto","#3366ff99"," "," ","1","+10","[1824.5]","1","2","","","8143","66","1","1","win","go","0"
"pit-trial","185","1201002","0.0-71.0","battery-v0.2","","""event"",""trial"",""time""
""fullscreenenter"",""1"",""1607""
","
","
","""event"",""trial"",""time""
""fullscreenenter"",""1"",""1607""
","
","","","-1","","","18","8143","4163","g","elianto","#f73b6a7A"," ","-1","0","0","[]","0","2","","","8143","67","3","3","lose","go","1"
"pit-trial","186","1205863","0.0-72.0","battery-v0.2","","""event"",""trial"",""time""
""fullscreenenter"",""1"",""1607""
","
","
","""event"",""trial"",""time""
""fullscreenenter"",""1"",""1607""
","
","","","-1","","","18","8143","4163","a","elianto","#f73b6a7A","-1","-1","1","0","[]","0","2","","","8143","68","2","4","lose","no-go","0"
"pit-trial","187","1209249","0.0-73.0","battery-v0.2","","""event"",""trial"",""time""
""fullscreenenter"",""1"",""1607""
","
","
","""event"",""trial"",""time""
""fullscreenenter"",""1"",""1607""
","
","","","524.6000000089407","","","18","8143","4163","l","elianto","#3366ff99"," "," ","1","+10","[1375.6000000089407]","1","2","","","8143","69","1","1","win","go","0"
"pit-trial","188","1212647","0.0-74.0","battery-v0.2","","""event"",""trial"",""time""
""fullscreenenter"",""1"",""1607""
","
","
","""event"",""trial"",""time""
""fullscreenenter"",""1"",""1607""
","
","","","525.6000000089407","","","18","8143","4163","s","elianto","#3366ff99"," "," ","1","+10","[1388]","1","2","","","8143","70","5","1","win","go","0"
"pit-trial","189","1217511","0.0-75.0","battery-v0.2","","""event"",""trial"",""time""
""fullscreenenter"",""1"",""1607""
","
","
","""event"",""trial"",""time""
""fullscreenenter"",""1"",""1607""
","
","","","-1","","","18","8143","4163","g","elianto","#f73b6a7A"," ","-1","0","-10","[]","0","2","","","8143","71","3","3","lose","go","0"
"pit-trial","190","1220962","0.0-76.0","battery-v0.2","","""event"",""trial"",""time""
""fullscreenenter"",""1"",""1607""
","
","
","""event"",""trial"",""time""
""fullscreenenter"",""1"",""1607""
","
","","","585.0999999940395","","","18","8143","4163","p","elianto","#3366ff99","-1"," ","0","0","[1437.7999999970198]","1","2","","","8143","72","4","2","win","no-go","0"
"pit-trial","191","1224535","0.0-77.0","battery-v0.2","","""event"",""trial"",""time""
""fullscreenenter"",""1"",""1607""
","
","
","""event"",""trial"",""time""
""fullscreenenter"",""1"",""1607""
","
","","","712.0999999940395","","","18","8143","4163","p","elianto","#3366ff99","-1"," ","0","0","[1564.7000000029802]","1","2","","","8143","73","4","2","win","no-go","0"
"pit-trial","192","1228034","0.0-78.0","battery-v0.2","","""event"",""trial"",""time""
""fullscreenenter"",""1"",""1607""
","
","
","""event"",""trial"",""time""
""fullscreenenter"",""1"",""1607""
","
","","","629.7999999970198","","","18","8143","4163","s","elianto","#3366ff99"," "," ","1","+10","[1484.7000000029802]","1","2","","","8143","74","5","1","win","go","0"
"pit-trial","193","1232903","0.0-79.0","battery-v0.2","","""event"",""trial"",""time""
""fullscreenenter"",""1"",""1607""
","
","
","""event"",""trial"",""time""
""fullscreenenter"",""1"",""1607""
","
","","","-1","","","18","8143","4163","g","elianto","#f73b6a7A"," ","-1","0","-10","[]","0","2","","","8143","75","3","3","lose","go","0"
"pit-trial","194","1236343","0.0-80.0","battery-v0.2","","""event"",""trial"",""time""
""fullscreenenter"",""1"",""1607""
","
","
","""event"",""trial"",""time""
""fullscreenenter"",""1"",""1607""
","
","","","577.2999999970198","","","18","8143","4163","l","elianto","#3366ff99"," "," ","1","+10","[1429.7999999970198]","1","2","","","8143","76","1","1","win","go","0"
"pit-trial","195","1239703","0.0-81.0","battery-v0.2","","""event"",""trial"",""time""
""fullscreenenter"",""1"",""1607""
","
","
","""event"",""trial"",""time""
""fullscreenenter"",""1"",""1607""
","
","","","498.79999999701977","","","18","8143","4163","p","elianto","#3366ff99","-1"," ","0","0","[1351.0999999940395]","1","2","","","8143","77","4","2","win","no-go","0"
"pit-trial","196","1244567","0.0-82.0","battery-v0.2","","""event"",""trial"",""time""
""fullscreenenter"",""1"",""1607""
","
","
","""event"",""trial"",""time""
""fullscreenenter"",""1"",""1607""
","
","","","-1","","","18","8143","4163","g","elianto","#f73b6a7A"," ","-1","0","-10","[]","0","2","","","8143","78","3","3","lose","go","0"
"pit-trial","197","1249431","0.0-83.0","battery-v0.2","","""event"",""trial"",""time""
""fullscreenenter"",""1"",""1607""
","
","
","""event"",""trial"",""time""
""fullscreenenter"",""1"",""1607""
","
","","","-1","","","18","8143","4163","w","elianto","#f73b6a7A","-1","-1","1","0","[]","0","2","","","8143","79","6","4","lose","no-go","0"
"pit-trial","198","1253063","0.0-84.0","battery-v0.2","","""event"",""trial"",""time""
""fullscreenenter"",""1"",""1607""
","
","
","""event"",""trial"",""time""
""fullscreenenter"",""1"",""1607""
","
","","","769.1000000089407","","","18","8143","4163","s","elianto","#3366ff99"," "," ","1","+10","[1620.2000000029802]","1","2","","","8143","80","5","1","win","go","0"
"pit-trial","199","1256785","0.0-85.0","battery-v0.2","","""event"",""trial"",""time""
""fullscreenenter"",""1"",""1607""
","
","
","""event"",""trial"",""time""
""fullscreenenter"",""1"",""1607""
","
","","","856.8999999910593","","","18","8143","4163","p","elianto","#3366ff99","-1"," ","0","0","[1708.3999999910593]","1","2","","","8143","81","4","2","win","no-go","0"
"pit-trial","200","1261655","0.0-86.0","battery-v0.2","","""event"",""trial"",""time""
""fullscreenenter"",""1"",""1607""
","
","
","""event"",""trial"",""time""
""fullscreenenter"",""1"",""1607""
","
","","","-1","","","18","8143","4163","e","elianto","#f73b6a7A"," ","-1","0","-10","[]","0","2","","","8143","82","7","3","lose","go","0"
"pit-trial","201","1265153","0.0-87.0","battery-v0.2","","""event"",""trial"",""time""
""fullscreenenter"",""1"",""1607""
","
","
","""event"",""trial"",""time""
""fullscreenenter"",""1"",""1607""
","
","","","634.1000000089407","","","18","8143","4163","s","elianto","#3366ff99"," "," ","1","+10","[1489.6000000089407]","1","2","","","8143","83","5","1","win","go","0"
"pit-trial","202","1270093","0.0-88.0","battery-v0.2","","""event"",""trial"",""time""
""fullscreenenter"",""1"",""1607""
","
","
","""event"",""trial"",""time""
""fullscreenenter"",""1"",""1607""
","
","","","-1","","","18","8143","4163","w","elianto","#f73b6a7A","-1","-1","1","0","[3958.0999999940395]","1","2","","","8143","84","6","4","lose","no-go","0"
"pit-trial","203","1273475","0.0-89.0","battery-v0.2","","""event"",""trial"",""time""
""fullscreenenter"",""1"",""1607""
","
","
","""event"",""trial"",""time""
""fullscreenenter"",""1"",""1607""
","
","","","515.9000000059605","","","18","8143","4163","s","elianto","#3366ff99"," "," ","1","+10","[1373.2000000029802]","1","2","","","8143","85","5","1","win","go","0"
"pit-trial","204","1278343","0.0-90.0","battery-v0.2","","""event"",""trial"",""time""
""fullscreenenter"",""1"",""1607""
","
","
","""event"",""trial"",""time""
""fullscreenenter"",""1"",""1607""
","
","","","-1","","","18","8143","4163","w","elianto","#f73b6a7A","-1","-1","1","0","[]","0","2","","","8143","86","6","4","lose","no-go","0"
"pit-trial","205","1283213","0.0-91.0","battery-v0.2","","""event"",""trial"",""time""
""fullscreenenter"",""1"",""1607""
","
","
","""event"",""trial"",""time""
""fullscreenenter"",""1"",""1607""
","
","","","-1","","","18","8143","4163","e","elianto","#f73b6a7A"," ","-1","0","0","[]","0","2","","","8143","87","7","3","lose","go","1"
"pit-trial","206","1286765","0.0-92.0","battery-v0.2","","""event"",""trial"",""time""
""fullscreenenter"",""1"",""1607""
","
","
","""event"",""trial"",""time""
""fullscreenenter"",""1"",""1607""
","
","","","687.2999999970198","","","18","8143","4163","p","elianto","#3366ff99","-1"," ","0","0","[1540.9000000059605]","1","2","","","8143","88","4","2","win","no-go","0"
"pit-trial","207","1290295","0.0-93.0","battery-v0.2","","""event"",""trial"",""time""
""fullscreenenter"",""1"",""1607""
","
","
","""event"",""trial"",""time""
""fullscreenenter"",""1"",""1607""
","
","","","663.1000000089407","","","18","8143","4163","p","elianto","#3366ff99","-1"," ","0","0","[1516.2999999970198]","1","2","","","8143","89","4","2","win","no-go","0"
"pit-trial","208","1293719","0.0-94.0","battery-v0.2","","""event"",""trial"",""time""
""fullscreenenter"",""1"",""1607""
","
","
","""event"",""trial"",""time""
""fullscreenenter"",""1"",""1607""
","
","","","553.9000000059605","","","18","8143","4163","s","elianto","#3366ff99"," "," ","1","+10","[1409.1000000089407]","1","2","","","8143","90","5","1","win","go","0"
"pit-trial","209","1298590","0.0-95.0","battery-v0.2","","""event"",""trial"",""time""
""fullscreenenter"",""1"",""1607""
","
","
","""event"",""trial"",""time""
""fullscreenenter"",""1"",""1607""
","
","","","-1","","","18","8143","4163","e","elianto","#f73b6a7A"," ","-1","0","-10","[]","0","2","","","8143","91","7","3","lose","go","0"
"pit-trial","210","1303460","0.0-96.0","battery-v0.2","","""event"",""trial"",""time""
""fullscreenenter"",""1"",""1607""
","
","
","""event"",""trial"",""time""
""fullscreenenter"",""1"",""1607""
","
","","","-1","","","18","8143","4163","w","elianto","#f73b6a7A","-1","-1","1","-10","[]","0","2","","","8143","92","6","4","lose","no-go","1"
"pit-trial","211","1306908","0.0-97.0","battery-v0.2","","""event"",""trial"",""time""
""fullscreenenter"",""1"",""1607""
","
","
","""event"",""trial"",""time""
""fullscreenenter"",""1"",""1607""
","
","","","585.6000000089407","","","18","8143","4163","d","elianto","#3366ff99","-1"," ","0","0","[1440]","1","2","","","8143","93","8","2","win","no-go","0"
"pit-trial","212","1311772","0.0-98.0","battery-v0.2","","""event"",""trial"",""time""
""fullscreenenter"",""1"",""1607""
","
","
","""event"",""trial"",""time""
""fullscreenenter"",""1"",""1607""
","
","","","-1","","","18","8143","4163","e","elianto","#f73b6a7A"," ","-1","0","0","[]","0","2","","","8143","94","7","3","lose","go","1"
"pit-trial","213","1315244","0.0-99.0","battery-v0.2","","""event"",""trial"",""time""
""fullscreenenter"",""1"",""1607""
","
","
","""event"",""trial"",""time""
""fullscreenenter"",""1"",""1607""
","
","","","608","","","18","8143","4163","s","elianto","#3366ff99"," "," ","1","+10","[1464.5]","1","2","","","8143","95","5","1","win","go","0"
"pit-trial","214","1320107","0.0-100.0","battery-v0.2","","""event"",""trial"",""time""
""fullscreenenter"",""1"",""1607""
","
","
","""event"",""trial"",""time""
""fullscreenenter"",""1"",""1607""
","
","","","-1","","","18","8143","4163","w","elianto","#f73b6a7A","-1","-1","1","0","[]","0","2","","","8143","96","6","4","lose","no-go","0"
"pit-trial","215","1324972","0.0-101.0","battery-v0.2","","""event"",""trial"",""time""
""fullscreenenter"",""1"",""1607""
","
","
","""event"",""trial"",""time""
""fullscreenenter"",""1"",""1607""
","
","","","-1","","","18","8143","4163","e","elianto","#f73b6a7A"," ","-1","0","-10","[2998.7000000029802]","1","2","","","8143","97","7","3","lose","go","0"
"pit-trial","216","1329836","0.0-102.0","battery-v0.2","","""event"",""trial"",""time""
""fullscreenenter"",""1"",""1607""
","
","
","""event"",""trial"",""time""
""fullscreenenter"",""1"",""1607""
","
","","","-1","","","18","8143","4163","w","elianto","#f73b6a7A","-1","-1","1","0","[]","0","2","","","8143","98","6","4","lose","no-go","0"
"pit-trial","217","1333252","0.0-103.0","battery-v0.2","","""event"",""trial"",""time""
""fullscreenenter"",""1"",""1607""
","
","
","""event"",""trial"",""time""
""fullscreenenter"",""1"",""1607""
","
","","","551.9000000059605","","","18","8143","4163","d","elianto","#3366ff99","-1"," ","0","0","[1403.5999999940395]","1","2","","","8143","99","8","2","win","no-go","0"
"pit-trial","218","1336598","0.0-104.0","battery-v0.2","","""event"",""trial"",""time""
""fullscreenenter"",""1"",""1607""
","
","
","""event"",""trial"",""time""
""fullscreenenter"",""1"",""1607""
","
","","","484.20000000298023","","","18","8143","4163","s","elianto","#3366ff99"," "," ","1","+10","[1337.1000000089407]","1","2","","","8143","100","5","1","win","go","0"
"pit-trial","219","1341468","0.0-105.0","battery-v0.2","","""event"",""trial"",""time""
""fullscreenenter"",""1"",""1607""
","
","
","""event"",""trial"",""time""
""fullscreenenter"",""1"",""1607""
","
","","","-1","","","18","8143","4163","w","elianto","#f73b6a7A","-1","-1","1","0","[]","0","2","","","8143","101","6","4","lose","no-go","0"
"pit-trial","220","1344939","0.0-106.0","battery-v0.2","","""event"",""trial"",""time""
""fullscreenenter"",""1"",""1607""
","
","
","""event"",""trial"",""time""
""fullscreenenter"",""1"",""1607""
","
","","","607.7000000029802","","","18","8143","4163","j","elianto","#3366ff99","-1"," ","0","0","[1461.6000000089407]","1","2","","","8143","102","9","2","win","no-go","0"
"pit-trial","221","1348379","0.0-107.0","battery-v0.2","","""event"",""trial"",""time""
""fullscreenenter"",""1"",""1607""
","
","
","""event"",""trial"",""time""
""fullscreenenter"",""1"",""1607""
","
","","","578","","","18","8143","4163","d","elianto","#3366ff99","-1"," ","0","0","[1430.800000011921]","1","2","","","8143","103","8","2","win","no-go","0"
"pit-trial","222","1351771","0.0-108.0","battery-v0.2","","""event"",""trial"",""time""
""fullscreenenter"",""1"",""1607""
","
","
","""event"",""trial"",""time""
""fullscreenenter"",""1"",""1607""
","
","","","528.4000000059605","","","18","8143","4163","s","elianto","#3366ff99"," "," ","1","0","[1381.300000011921]","1","2","","","8143","104","5","1","win","go","1"
"pit-trial","223","1356635","0.0-109.0","battery-v0.2","","""event"",""trial"",""time""
""fullscreenenter"",""1"",""1607""
","
","
","""event"",""trial"",""time""
""fullscreenenter"",""1"",""1607""
","
","","","-1","","","18","8143","4163","s","elianto","#3366ff99"," ","-1","0","0","[]","0","2","","","8143","105","5","1","win","go","0"
"pit-trial","224","1361499","0.0-110.0","battery-v0.2","","""event"",""trial"",""time""
""fullscreenenter"",""1"",""1607""
","
","
","""event"",""trial"",""time""
""fullscreenenter"",""1"",""1607""
","
","","","-1","","","18","8143","4163","w","elianto","#f73b6a7A","-1","-1","1","0","[]","0","2","","","8143","106","6","4","lose","no-go","0"
"pit-trial","225","1364834","0.0-111.0","battery-v0.2","","""event"",""trial"",""time""
""fullscreenenter"",""1"",""1607""
","
","
","""event"",""trial"",""time""
""fullscreenenter"",""1"",""1607""
","
","","","477.90000000596046","","","18","8143","4163","d","elianto","#3366ff99","-1"," ","0","0","[1329.1000000089407]","1","2","","","8143","107","8","2","win","no-go","0"
"pit-trial","226","1368154","0.0-112.0","battery-v0.2","","""event"",""trial"",""time""
""fullscreenenter"",""1"",""1607""
","
","
","""event"",""trial"",""time""
""fullscreenenter"",""1"",""1607""
","
","","","461.20000000298023","","","18","8143","4163","j","elianto","#3366ff99","-1"," ","0","0","[1316.2999999970198]","1","2","","","8143","108","9","2","win","no-go","0"
"pit-trial","227","1373019","0.0-113.0","battery-v0.2","","""event"",""trial"",""time""
""fullscreenenter"",""1"",""1607""
","
","
","""event"",""trial"",""time""
""fullscreenenter"",""1"",""1607""
","
","","","-1","","","18","8143","4163","j","elianto","#3366ff99","-1","-1","1","+10","[]","0","2","","","8143","109","9","2","win","no-go","0"
"pit-trial","228","1376747","0.0-114.0","battery-v0.2","","""event"",""trial"",""time""
""fullscreenenter"",""1"",""1607""
","
","
","""event"",""trial"",""time""
""fullscreenenter"",""1"",""1607""
","
","","","870.6999999880791","","","18","8143","4163","d","elianto","#3366ff99","-1"," ","0","+10","[1722.3999999910593]","1","2","","","8143","110","8","2","win","no-go","1"
"pit-trial","229","1381611","0.0-115.0","battery-v0.2","","""event"",""trial"",""time""
""fullscreenenter"",""1"",""1607""
","
","
","""event"",""trial"",""time""
""fullscreenenter"",""1"",""1607""
","
","","","-1","","","18","8143","4163","s","elianto","#3366ff99"," ","-1","0","0","[]","0","2","","","8143","111","5","1","win","go","0"
"pit-trial","230","1386475","0.0-116.0","battery-v0.2","","""event"",""trial"",""time""
""fullscreenenter"",""1"",""1607""
","
","
","""event"",""trial"",""time""
""fullscreenenter"",""1"",""1607""
","
","","","-1","","","18","8143","4163","w","elianto","#f73b6a7A","-1","-1","1","0","[]","0","2","","","8143","112","6","4","lose","no-go","0"
"pit-trial","231","1389803","0.0-117.0","battery-v0.2","","""event"",""trial"",""time""
""fullscreenenter"",""1"",""1607""
","
","
","""event"",""trial"",""time""
""fullscreenenter"",""1"",""1607""
","
","","","466.29999999701977","","","18","8143","4163","s","elianto","#3366ff99"," "," ","1","0","[1317.7000000029802]","1","2","","","8143","113","5","1","win","go","1"
"pit-trial","232","1394667","0.0-118.0","battery-v0.2","","""event"",""trial"",""time""
""fullscreenenter"",""1"",""1607""
","
","
","""event"",""trial"",""time""
""fullscreenenter"",""1"",""1607""
","
","","","-1","","","18","8143","4163","e","elianto","#f73b6a7A"," ","-1","0","-10","[]","0","2","","","8143","114","7","3","lose","go","0"
"pit-trial","233","1398117","0.0-119.0","battery-v0.2","","""event"",""trial"",""time""
""fullscreenenter"",""1"",""1607""
","
","
","""event"",""trial"",""time""
""fullscreenenter"",""1"",""1607""
","
","","","588.2000000029802","","","18","8143","4163","j","elianto","#3366ff99","-1"," ","0","0","[1441.5]","1","2","","","8143","115","9","2","win","no-go","0"
"pit-trial","234","1401865","0.0-120.0","battery-v0.2","","""event"",""trial"",""time""
""fullscreenenter"",""1"",""1607""
","
","
","""event"",""trial"",""time""
""fullscreenenter"",""1"",""1607""
","
","","","875.1000000089407","","","18","8143","4163","d","elianto","#3366ff99","-1"," ","0","+10","[1736.7999999970198]","1","2","","","8143","116","8","2","win","no-go","1"
"pit-trial","235","1406730","0.0-121.0","battery-v0.2","","""event"",""trial"",""time""
""fullscreenenter"",""1"",""1607""
","
","
","""event"",""trial"",""time""
""fullscreenenter"",""1"",""1607""
","
","","","-1","","","18","8143","4163","j","elianto","#3366ff99","-1","-1","1","+10","[]","0","2","","","8143","117","9","2","win","no-go","0"
"pit-trial","236","1410154","0.0-122.0","battery-v0.2","","""event"",""trial"",""time""
""fullscreenenter"",""1"",""1607""
","
","
","""event"",""trial"",""time""
""fullscreenenter"",""1"",""1607""
","
","","","562.2000000029802","","","18","8143","4163","s","elianto","#3366ff99"," "," ","1","+10","[1412.2000000029802]","1","2","","","8143","118","5","1","win","go","0"
"pit-trial","237","1413924","0.0-123.0","battery-v0.2","","""event"",""trial"",""time""
""fullscreenenter"",""1"",""1607""
","
","
","""event"",""trial"",""time""
""fullscreenenter"",""1"",""1607""
","
","","","908.6000000089407","","","18","8143","4163","d","elianto","#3366ff99","-1"," ","0","0","[1760.5999999940395]","1","2","","","8143","119","8","2","win","no-go","0"
"pit-trial","238","1418794","0.0-124.0","battery-v0.2","","""event"",""trial"",""time""
""fullscreenenter"",""1"",""1607""
","
","
","""event"",""trial"",""time""
""fullscreenenter"",""1"",""1607""
","
","","","-1","","","18","8143","4163","w","elianto","#f73b6a7A","-1","-1","1","0","[]","0","2","","","8143","120","6","4","lose","no-go","0"
"pit-trial","239","1422250","0.0-125.0","battery-v0.2","","""event"",""trial"",""time""
""fullscreenenter"",""1"",""1607""
","
","
","""event"",""trial"",""time""
""fullscreenenter"",""1"",""1607""
","
","","","597.3000000119209","","","18","8143","4163","s","elianto","#3366ff99"," "," ","1","0","[1449.1000000089407]","1","2","","","8143","121","5","1","win","go","1"
"pit-trial","240","1426053","0.0-126.0","battery-v0.2","","""event"",""trial"",""time""
""fullscreenenter"",""1"",""1607""
","
","
","""event"",""trial"",""time""
""fullscreenenter"",""1"",""1607""
","
","","","937.2999999970198","","","18","8143","4163","j","elianto","#3366ff99","-1"," ","0","0","[1789.2999999970198]","1","2","","","8143","122","9","2","win","no-go","0"
"pit-trial","241","1430922","0.0-127.0","battery-v0.2","","""event"",""trial"",""time""
""fullscreenenter"",""1"",""1607""
","
","
","""event"",""trial"",""time""
""fullscreenenter"",""1"",""1607""
","
","","","-1","","","18","8143","4163","e","elianto","#f73b6a7A"," ","-1","0","-10","[]","0","2","","","8143","123","7","3","lose","go","0"
"pit-trial","242","1434988","0.0-128.0","battery-v0.2","","""event"",""trial"",""time""
""fullscreenenter"",""1"",""1607""
","
","
","""event"",""trial"",""time""
""fullscreenenter"",""1"",""1607""
","
","","","1198","","","18","8143","4163","d","elianto","#3366ff99","-1"," ","0","+10","[2053.5]","1","2","","","8143","124","8","2","win","no-go","1"
"pit-trial","243","1439860","0.0-129.0","battery-v0.2","","""event"",""trial"",""time""
""fullscreenenter"",""1"",""1607""
","
","
","""event"",""trial"",""time""
""fullscreenenter"",""1"",""1607""
","
","","","-1","","","18","8143","4163","e","elianto","#f73b6a7A"," ","-1","0","-10","[]","0","2","","","8143","125","7","3","lose","go","0"
"pit-trial","244","1443807","0.0-130.0","battery-v0.2","","""event"",""trial"",""time""
""fullscreenenter"",""1"",""1607""
","
","
","""event"",""trial"",""time""
""fullscreenenter"",""1"",""1607""
","
","","","1092.4000000059605","","","18","8143","4163","d","elianto","#3366ff99","-1"," ","0","0","[1943.7999999970198]","1","2","","","8143","126","8","2","win","no-go","0"
"pit-trial","245","1448676","0.0-131.0","battery-v0.2","","""event"",""trial"",""time""
""fullscreenenter"",""1"",""1607""
","
","
","""event"",""trial"",""time""
""fullscreenenter"",""1"",""1607""
","
","","","-1","","","18","8143","4163","j","elianto","#3366ff99","-1","-1","1","+10","[]","0","2","","","8143","127","9","2","win","no-go","0"
"pit-trial","246","1453545","0.0-132.0","battery-v0.2","","""event"",""trial"",""time""
""fullscreenenter"",""1"",""1607""
","
","
","""event"",""trial"",""time""
""fullscreenenter"",""1"",""1607""
","
","","","-1","","","18","8143","4163","w","elianto","#f73b6a7A","-1","-1","1","0","[]","0","2","","","8143","128","6","4","lose","no-go","0"
"pit-trial","247","1458410","0.0-133.0","battery-v0.2","","""event"",""trial"",""time""
""fullscreenenter"",""1"",""1607""
","
","
","""event"",""trial"",""time""
""fullscreenenter"",""1"",""1607""
","
","","","-1","","","18","8143","4163","w","elianto","#f73b6a7A","-1","-1","1","0","[]","0","2","","","8143","129","6","4","lose","no-go","0"
"pit-trial","248","1462026","0.0-134.0","battery-v0.2","","""event"",""trial"",""time""
""fullscreenenter"",""1"",""1607""
","
","
","""event"",""trial"",""time""
""fullscreenenter"",""1"",""1607""
","
","","","757.1000000089407","","","18","8143","4163","d","elianto","#3366ff99","-1"," ","0","+10","[1608.3999999910593]","1","2","","","8143","130","8","2","win","no-go","1"
"pit-trial","249","1466889","0.0-135.0","battery-v0.2","","""event"",""trial"",""time""
""fullscreenenter"",""1"",""1607""
","
","
","""event"",""trial"",""time""
""fullscreenenter"",""1"",""1607""
","
","","","-1","","","18","8143","4163","j","elianto","#3366ff99","-1","-1","1","+10","[]","0","2","","","8143","131","9","2","win","no-go","0"
"pit-trial","250","1471753","0.0-136.0","battery-v0.2","","""event"",""trial"",""time""
""fullscreenenter"",""1"",""1607""
","
","
","""event"",""trial"",""time""
""fullscreenenter"",""1"",""1607""
","
","","","-1","","","18","8143","4163","e","elianto","#f73b6a7A"," ","-1","0","0","[]","0","2","","","8143","132","7","3","lose","go","1"
"pit-trial","251","1475752","0.0-137.0","battery-v0.2","","""event"",""trial"",""time""
""fullscreenenter"",""1"",""1607""
","
","
","""event"",""trial"",""time""
""fullscreenenter"",""1"",""1607""
","
","","","1134.5","","","18","8143","4163","j","elianto","#3366ff99","-1"," ","0","+10","[1988.7999999970198]","1","2","","","8143","133","9","2","win","no-go","1"
"pit-trial","252","1480617","0.0-138.0","battery-v0.2","","""event"",""trial"",""time""
""fullscreenenter"",""1"",""1607""
","
","
","""event"",""trial"",""time""
""fullscreenenter"",""1"",""1607""
","
","","","-1","","","18","8143","4163","e","elianto","#f73b6a7A"," ","-1","0","-10","[]","0","2","","","8143","134","7","3","lose","go","0"
"pit-trial","253","1485481","0.0-139.0","battery-v0.2","","""event"",""trial"",""time""
""fullscreenenter"",""1"",""1607""
","
","
","""event"",""trial"",""time""
""fullscreenenter"",""1"",""1607""
","
","","","-1","","","18","8143","4163","w","elianto","#f73b6a7A","-1","-1","1","0","[]","0","2","","","8143","135","6","4","lose","no-go","0"
"pit-trial","254","1488975","0.0-140.0","battery-v0.2","","""event"",""trial"",""time""
""fullscreenenter"",""1"",""1607""
","
","
","""event"",""trial"",""time""
""fullscreenenter"",""1"",""1607""
","
","","","636.5","","","18","8143","4163","d","elianto","#3366ff99","-1"," ","0","0","[1490.1000000089407]","1","2","","","8143","136","8","2","win","no-go","0"
"pit-trial","255","1493025","0.0-141.0","battery-v0.2","","""event"",""trial"",""time""
""fullscreenenter"",""1"",""1607""
","
","
","""event"",""trial"",""time""
""fullscreenenter"",""1"",""1607""
","
","","","1189.800000011921","","","18","8143","4163","d","elianto","#3366ff99","-1"," ","0","+10","[2042.5]","1","2","","","8143","137","8","2","win","no-go","1"
"pit-trial","256","1497891","0.0-142.0","battery-v0.2","","""event"",""trial"",""time""
""fullscreenenter"",""1"",""1607""
","
","
","""event"",""trial"",""time""
""fullscreenenter"",""1"",""1607""
","
","","","-1","","","18","8143","4163","w","elianto","#f73b6a7A","-1","-1","1","-10","[]","0","2","","","8143","138","6","4","lose","no-go","1"
"pit-trial","257","1502761","0.0-143.0","battery-v0.2","","""event"",""trial"",""time""
""fullscreenenter"",""1"",""1607""
","
","
","""event"",""trial"",""time""
""fullscreenenter"",""1"",""1607""
","
","","","-1","","","18","8143","4163","e","elianto","#f73b6a7A"," ","-1","0","-10","[]","0","2","","","8143","139","7","3","lose","go","0"
"pit-trial","258","1506249","0.0-144.0","battery-v0.2","","""event"",""trial"",""time""
""fullscreenenter"",""1"",""1607""
""blur"",""259"",""2124812""
""focus"",""259"",""2153510""
","""event"",""trial"",""time""
""blur"",""259"",""2124812""
","""event"",""trial"",""time""
""focus"",""259"",""2153510""
","""event"",""trial"",""time""
""fullscreenenter"",""1"",""1607""
","
","","","626.5999999940395","","","18","8143","4163","j","elianto","#3366ff99","-1"," ","0","0","[1476.8999999910593]","1","2","","","8143","140","9","2","win","no-go","0"
"pit-instructions","259","2164532","0.0-145.0","battery-v0.2","","""event"",""trial"",""time""
""fullscreenenter"",""1"",""1607""
""blur"",""259"",""2124812""
""focus"",""259"",""2153510""
","""event"",""trial"",""time""
""blur"",""259"",""2124812""
","""event"",""trial"",""time""
""focus"",""259"",""2153510""
","""event"",""trial"",""time""
""fullscreenenter"",""1"",""1607""
","
","","[{""page_index"":0,""viewing_time"":649367.099999994},{""page_index"":1,""viewing_time"":8861}]","658228.299999997","","","","","","","","","","","","","","","","","","","","","","","",""
"pit-trial","260","2169395","0.0-146.0","battery-v0.2","","""event"",""trial"",""time""
""fullscreenenter"",""1"",""1607""
""blur"",""259"",""2124812""
""focus"",""259"",""2153510""
","""event"",""trial"",""time""
""blur"",""259"",""2124812""
","""event"",""trial"",""time""
""focus"",""259"",""2153510""
","""event"",""trial"",""time""
""fullscreenenter"",""1"",""1607""
","
","","","-1","","","18","8143","4163","y","elianto","#f73b6a7A"," ","-1","0","0","[]","0","3","","","8143","141","2","3","lose","go","1"
"pit-trial","261","2173062","0.0-147.0","battery-v0.2","","""event"",""trial"",""time""
""fullscreenenter"",""1"",""1607""
""blur"",""259"",""2124812""
""focus"",""259"",""2153510""
","""event"",""trial"",""time""
""blur"",""259"",""2124812""
","""event"",""trial"",""time""
""focus"",""259"",""2153510""
","""event"",""trial"",""time""
""fullscreenenter"",""1"",""1607""
","
","","","797","","","18","8143","4163","r","elianto","#3366ff99","-1"," ","0","0","[1654.5]","1","3","","","8143","142","1","2","win","no-go","0"
"pit-trial","262","2177925","0.0-148.0","battery-v0.2","","""event"",""trial"",""time""
""fullscreenenter"",""1"",""1607""
""blur"",""259"",""2124812""
""focus"",""259"",""2153510""
","""event"",""trial"",""time""
""blur"",""259"",""2124812""
","""event"",""trial"",""time""
""focus"",""259"",""2153510""
","""event"",""trial"",""time""
""fullscreenenter"",""1"",""1607""
","
","","","-1","","","18","8143","4163","m","elianto","#f73b6a7A"," ","-1","0","-10","[]","0","3","","","8143","143","0","3","lose","go","0"
"pit-trial","263","2182789","0.0-149.0","battery-v0.2","","""event"",""trial"",""time""
""fullscreenenter"",""1"",""1607""
""blur"",""259"",""2124812""
""focus"",""259"",""2153510""
","""event"",""trial"",""time""
""blur"",""259"",""2124812""
","""event"",""trial"",""time""
""focus"",""259"",""2153510""
","""event"",""trial"",""time""
""fullscreenenter"",""1"",""1607""
","
","","","-1","","","18","8143","4163","h","elianto","#f73b6a7A","-1","-1","1","0","[]","0","3","","","8143","144","3","4","lose","no-go","0"
"pit-trial","264","2187655","0.0-150.0","battery-v0.2","","""event"",""trial"",""time""
""fullscreenenter"",""1"",""1607""
""blur"",""259"",""2124812""
""focus"",""259"",""2153510""
","""event"",""trial"",""time""
""blur"",""259"",""2124812""
","""event"",""trial"",""time""
""focus"",""259"",""2153510""
","""event"",""trial"",""time""
""fullscreenenter"",""1"",""1607""
","
","","","-1","","","18","8143","4163","m","elianto","#f73b6a7A"," ","-1","0","-10","[]","0","3","","","8143","145","0","3","lose","go","0"
"pit-trial","265","2192524","0.0-151.0","battery-v0.2","","""event"",""trial"",""time""
""fullscreenenter"",""1"",""1607""
""blur"",""259"",""2124812""
