"trial_type","trial_index","time_elapsed","internal_node_id","task_version","subject_id","interactions","blur_events","focus_events","fullscreenenter_events","fullscreenexit_events","success","view_history","rt","responses","num_errors","age","subject","participantId","rune","rune_set","hex","correct","choice","accuracy","outcome","keys","total_keys","block","practice","value","sub","trial","stimulus","robot","valence","action","sham"
"pavlovia","0","7","0.0-0.0","battery-v0.2","","""event"",""trial"",""time""
""fullscreenenter"",""1"",""4542""
","
","
","""event"",""trial"",""time""
""fullscreenenter"",""1"",""4542""
","
","","","","","","","","","","","","","","","","","","","","","","","","","","",""
"fullscreen","1","5534","0.0-1.0","battery-v0.2","","""event"",""trial"",""time""
""fullscreenenter"",""1"",""4542""
","
","
","""event"",""trial"",""time""
""fullscreenenter"",""1"",""4542""
","
","true","","","","","","","","","","","","","","","","","","","","","","","","","",""
"pit-instructions","2","12690","0.0-2.0-0.0","battery-v0.2","","""event"",""trial"",""time""
""fullscreenenter"",""1"",""4542""
","
","
","""event"",""trial"",""time""
""fullscreenenter"",""1"",""4542""
","
","","[{""page_index"":0,""viewing_time"":7154.799999952316}]","7155","","","","","","","","","","","","","","","","","","","","","","","",""
"pit-comprehension","3","19236","0.0-2.0-1.0-0.0","battery-v0.2","","""event"",""trial"",""time""
""fullscreenenter"",""1"",""4542""
","
","
","""event"",""trial"",""time""
""fullscreenenter"",""1"",""4542""
","
","","","6544.100000143051","[""shark""]","0","10","11477","5302","","","","","","","","","","","","","","","","","","",""
"pit-instructions","4","20422","0.0-2.0-1.0-1.0","battery-v0.2","","""event"",""trial"",""time""
""fullscreenenter"",""1"",""4542""
","
","
","""event"",""trial"",""time""
""fullscreenenter"",""1"",""4542""
","
","","[{""page_index"":0,""viewing_time"":1178.5}]","1178.7999999523163","","","","","","","","","","","","","","","","","","","","","","","",""
"pit-comprehension","5","24031","0.0-2.0-2.0-0.0","battery-v0.2","","""event"",""trial"",""time""
""fullscreenenter"",""1"",""4542""
","
","
","""event"",""trial"",""time""
""fullscreenenter"",""1"",""4542""
","
","","","3607.199999809265","[""tiger""]","0","10","11477","5302","","","","","","","","","","","","","","","","","","",""
"pit-instructions","6","25541","0.0-2.0-2.0-1.0","battery-v0.2","","""event"",""trial"",""time""
""fullscreenenter"",""1"",""4542""
","
","
","""event"",""trial"",""time""
""fullscreenenter"",""1"",""4542""
","
","","[{""page_index"":0,""viewing_time"":1507.2999999523163}]","1507.5999999046326","","","","","","","","","","","","","","","","","","","","","","","",""
"pit-instructions","7","137969","0.0-2.0-3.0","battery-v0.2","","""event"",""trial"",""time""
""fullscreenenter"",""1"",""4542""
","
","
","""event"",""trial"",""time""
""fullscreenenter"",""1"",""4542""
","
","","[{""page_index"":0,""viewing_time"":11370.700000047684},{""page_index"":1,""viewing_time"":6732.799999952316},{""page_index"":2,""viewing_time"":6132.200000047684},{""page_index"":3,""viewing_time"":5632.700000047684},{""page_index"":4,""viewing_time"":5887.399999856949},{""page_index"":5,""viewing_time"":6617.200000047684},{""page_index"":6,""viewing_time"":8943.700000047684},{""page_index"":7,""viewing_time"":9888.599999904633},{""page_index"":8,""viewing_time"":6836.400000095367},{""page_index"":9,""viewing_time"":11929},{""page_index"":10,""viewing_time"":8160},{""page_index"":11,""viewing_time"":10130.400000095367},{""page_index"":12,""viewing_time"":7227.5},{""page_index"":13,""viewing_time"":6937.299999952316}]","112426.29999995232","","","","","","","","","","","","","","","","","","","","","","","",""
"pit-trial","8","142844","0.0-2.0-4.0-0.0","battery-v0.2","","""event"",""trial"",""time""
""fullscreenenter"",""1"",""4542""
","
","
","""event"",""trial"",""time""
""fullscreenenter"",""1"",""4542""
","
","","","-1","","","10","11477","5302","&#9784;","elianto","#FFFFF080"," ","-1","0","&#10060","[3015.4000000953674]","1","0","0","","","","","","","",""
"pit-trial","9","147702","0.0-2.0-4.1-0.1","battery-v0.2","","""event"",""trial"",""time""
""fullscreenenter"",""1"",""4542""
","
","
","""event"",""trial"",""time""
""fullscreenenter"",""1"",""4542""
","
","","","-1","","","10","11477","5302","&#9784;","elianto","#FFFFF080"," ","-1","0","&#10060","[]","0","0","0","","","","","","","",""
"pit-trial","10","151047","0.0-2.0-4.2-0.2","battery-v0.2","","""event"",""trial"",""time""
""fullscreenenter"",""1"",""4542""
","
","
","""event"",""trial"",""time""
""fullscreenenter"",""1"",""4542""
","
","","","480.09999990463257","","","10","11477","5302","&#9784;","elianto","#FFFFF080"," "," ","1","&#10004","[1330.5]","1","0","0","","","","","","","",""
"pit-trial","11","154168","0.0-2.0-4.3-0.3","battery-v0.2","","""event"",""trial"",""time""
""fullscreenenter"",""1"",""4542""
","
","
","""event"",""trial"",""time""
""fullscreenenter"",""1"",""4542""
","
","","","252.70000004768372","","","10","11477","5302","&#9784;","elianto","#FFFFF080"," "," ","1","&#10004","[1105]","1","0","0","","","","","","","",""
"pit-trial","12","157182","0.0-2.0-4.4-0.4","battery-v0.2","","""event"",""trial"",""time""
""fullscreenenter"",""1"",""4542""
","
","
","""event"",""trial"",""time""
""fullscreenenter"",""1"",""4542""
","
","","","154.80000019073486","","","10","11477","5302","&#9784;","elianto","#FFFFF080"," "," ","1","&#10004","[1004.8999998569489]","1","0","0","","","","","","","",""
"pit-instructions","13","183867","0.0-2.0-5.0","battery-v0.2","","""event"",""trial"",""time""
""fullscreenenter"",""1"",""4542""
","
","
","""event"",""trial"",""time""
""fullscreenenter"",""1"",""4542""
","
","","[{""page_index"":0,""viewing_time"":6176.199999809265},{""page_index"":1,""viewing_time"":6564},{""page_index"":2,""viewing_time"":6328},{""page_index"":3,""viewing_time"":7614.400000095367}]","26682.799999952316","","","","","","","","","","","","","","","","","","","","","","","",""
"pit-trial","14","188741","0.0-2.0-6.0-0.0","battery-v0.2","","""event"",""trial"",""time""
""fullscreenenter"",""1"",""4542""
","
","
","""event"",""trial"",""time""
""fullscreenenter"",""1"",""4542""
","
","","","-1","","","10","11477","5302","&#9854;","elianto","#FFFFF080","-1","-1","1","&#10004","[]","0","0","1","","","","","","","",""
"pit-trial","15","193618","0.0-2.0-6.1-0.1","battery-v0.2","","""event"",""trial"",""time""
""fullscreenenter"",""1"",""4542""
","
","
","""event"",""trial"",""time""
""fullscreenenter"",""1"",""4542""
","
","","","-1","","","10","11477","5302","&#9854;","elianto","#FFFFF080","-1","-1","1","&#10004","[]","0","0","1","","","","","","","",""
"pit-trial","16","198486","0.0-2.0-6.2-0.2","battery-v0.2","","""event"",""trial"",""time""
""fullscreenenter"",""1"",""4542""
","
","
","""event"",""trial"",""time""
""fullscreenenter"",""1"",""4542""
","
","","","-1","","","10","11477","5302","&#9854;","elianto","#FFFFF080","-1","-1","1","&#10004","[]","0","0","1","","","","","","","",""
"pit-trial","17","203357","0.0-2.0-6.3-0.3","battery-v0.2","","""event"",""trial"",""time""
""fullscreenenter"",""1"",""4542""
","
","
","""event"",""trial"",""time""
""fullscreenenter"",""1"",""4542""
","
","","","-1","","","10","11477","5302","&#9854;","elianto","#FFFFF080","-1","-1","1","&#10004","[]","0","0","1","","","","","","","",""
"pit-trial","18","208230","0.0-2.0-6.4-0.4","battery-v0.2","","""event"",""trial"",""time""
""fullscreenenter"",""1"",""4542""
","
","
","""event"",""trial"",""time""
""fullscreenenter"",""1"",""4542""
","
","","","-1","","","10","11477","5302","&#9854;","elianto","#FFFFF080","-1","-1","1","&#10004","[]","0","0","1","","","","","","","",""
"pit-instructions","19","341697","0.0-2.0-7.0","battery-v0.2","","""event"",""trial"",""time""
""fullscreenenter"",""1"",""4542""
","
","
","""event"",""trial"",""time""
""fullscreenenter"",""1"",""4542""
","
","","[{""page_index"":0,""viewing_time"":5826.300000190735},{""page_index"":1,""viewing_time"":9397.099999904633},{""page_index"":2,""viewing_time"":6805.299999952316},{""page_index"":3,""viewing_time"":8906.100000143051},{""page_index"":4,""viewing_time"":8585.899999856949},{""page_index"":5,""viewing_time"":5877},{""page_index"":6,""viewing_time"":4912.200000047684},{""page_index"":7,""viewing_time"":9322.900000095367},{""page_index"":8,""viewing_time"":6192.199999809265},{""page_index"":9,""viewing_time"":6778.900000095367},{""page_index"":10,""viewing_time"":7459.700000047684},{""page_index"":11,""viewing_time"":5518.200000047684},{""page_index"":12,""viewing_time"":7794.299999952316},{""page_index"":13,""viewing_time"":7707.5},{""page_index"":14,""viewing_time"":7258.200000047684},{""page_index"":15,""viewing_time"":7152},{""page_index"":16,""viewing_time"":8386.099999904633},{""page_index"":17,""viewing_time"":9585.900000095367}]","133466.10000014305","","","","","","","","","","","","","","","","","","","","","","","",""
"pit-trial","20","344897","0.0-2.0-8.0-0.0","battery-v0.2","","""event"",""trial"",""time""
""fullscreenenter"",""1"",""4542""
","
","
","""event"",""trial"",""time""
""fullscreenenter"",""1"",""4542""
","
","","","334","","","10","11477","5302","&#9776;","elianto","#3366ff99"," "," ","1","+10","[1186.0999999046326]","1","0","1","","","","","","","",""
"pit-trial","21","348107","0.0-2.0-8.0-1.0","battery-v0.2","","""event"",""trial"",""time""
""fullscreenenter"",""1"",""4542""
","
","
","""event"",""trial"",""time""
""fullscreenenter"",""1"",""4542""
","
","","","348.5","","","10","11477","5302","&#9776;","elianto","#3366ff99"," "," ","1","+10","[1198.3999998569489]","1","0","1","","","","","","","",""
"pit-trial","22","351292","0.0-2.0-8.0-2.0","battery-v0.2","","""event"",""trial"",""time""
""fullscreenenter"",""1"",""4542""
","
","
","""event"",""trial"",""time""
""fullscreenenter"",""1"",""4542""
","
","","","319.40000009536743","","","10","11477","5302","&#9776;","elianto","#3366ff99"," "," ","1","+10","[1171.7999999523163]","1","0","1","","","","","","","",""
"pit-trial","23","354389","0.0-2.0-8.0-3.0","battery-v0.2","","""event"",""trial"",""time""
""fullscreenenter"",""1"",""4542""
","
","
","""event"",""trial"",""time""
""fullscreenenter"",""1"",""4542""
","
","","","239.09999990463257","","","10","11477","5302","&#9776;","elianto","#3366ff99"," "," ","1","0","[1090.1000001430511]","1","0","1","","","","","","","",""
"pit-trial","24","357542","0.0-2.0-8.0-4.0","battery-v0.2","","""event"",""trial"",""time""
""fullscreenenter"",""1"",""4542""
","
","
","""event"",""trial"",""time""
""fullscreenenter"",""1"",""4542""
","
","","","287.5","","","10","11477","5302","&#9776;","elianto","#3366ff99"," "," ","1","+10","[1137.7999999523163]","1","0","1","","","","","","","",""
"pit-trial","25","360700","0.0-2.0-8.1-0.1","battery-v0.2","","""event"",""trial"",""time""
""fullscreenenter"",""1"",""4542""
","
","
","""event"",""trial"",""time""
""fullscreenenter"",""1"",""4542""
","
","","","303.39999985694885","","","10","11477","5302","&#9776;","elianto","#3366ff99"," "," ","1","+10","[1154]","1","0","1","","","","","","","",""
"pit-trial","26","363662","0.0-2.0-8.1-1.1","battery-v0.2","","""event"",""trial"",""time""
""fullscreenenter"",""1"",""4542""
","
","
","""event"",""trial"",""time""
""fullscreenenter"",""1"",""4542""
","
","","","108.5","","","10","11477","5302","&#9776;","elianto","#3366ff99"," "," ","1","+10","[959.5999999046326]","1","0","1","","","","","","","",""
"pit-trial","27","366551","0.0-2.0-8.1-2.1","battery-v0.2","","""event"",""trial"",""time""
""fullscreenenter"",""1"",""4542""
","
","
","""event"",""trial"",""time""
""fullscreenenter"",""1"",""4542""
","
","","","36.299999952316284","","","10","11477","5302","&#9776;","elianto","#3366ff99"," "," ","1","+10","[886.7999999523163]","1","0","1","","","","","","","",""
"pit-trial","28","369793","0.0-2.0-8.1-3.1","battery-v0.2","","""event"",""trial"",""time""
""fullscreenenter"",""1"",""4542""
","
","
","""event"",""trial"",""time""
""fullscreenenter"",""1"",""4542""
","
","","","375.59999990463257","","","10","11477","5302","&#9776;","elianto","#3366ff99"," "," ","1","0","[449,1225.7000000476837,1890.5,2171.300000190735]","4","0","1","","","","","","","",""
"pit-trial","29","372899","0.0-2.0-8.1-4.1","battery-v0.2","","""event"",""trial"",""time""
""fullscreenenter"",""1"",""4542""
","
","
","""event"",""trial"",""time""
""fullscreenenter"",""1"",""4542""
","
","","","251.20000004768372","","","10","11477","5302","&#9776;","elianto","#3366ff99"," "," ","1","+10","[1103.6000001430511]","1","0","1","","","","","","","",""
"pit-trial","30","376028","0.0-2.0-8.2-0.2","battery-v0.2","","""event"",""trial"",""time""
""fullscreenenter"",""1"",""4542""
","
","
","""event"",""trial"",""time""
""fullscreenenter"",""1"",""4542""
","
","","","275.59999990463257","","","10","11477","5302","&#9776;","elianto","#3366ff99"," "," ","1","+10","[1126.2999999523163]","1","0","1","","","","","","","",""
"pit-trial","31","379112","0.0-2.0-8.2-1.2","battery-v0.2","","""event"",""trial"",""time""
""fullscreenenter"",""1"",""4542""
","
","
","""event"",""trial"",""time""
""fullscreenenter"",""1"",""4542""
","
","","","231.80000019073486","","","10","11477","5302","&#9776;","elianto","#3366ff99"," "," ","1","+10","[1082.8000001907349]","1","0","1","","","","","","","",""
"pit-trial","32","382273","0.0-2.0-8.2-2.2","battery-v0.2","","""event"",""trial"",""time""
""fullscreenenter"",""1"",""4542""
","
","
","""event"",""trial"",""time""
""fullscreenenter"",""1"",""4542""
","
","","","306.7000000476837","","","10","11477","5302","&#9776;","elianto","#3366ff99"," "," ","1","+10","[1158.4000000953674]","1","0","1","","","","","","","",""
"pit-trial","33","385238","0.0-2.0-8.2-3.2","battery-v0.2","","""event"",""trial"",""time""
""fullscreenenter"",""1"",""4542""
","
","
","""event"",""trial"",""time""
""fullscreenenter"",""1"",""4542""
","
","","","113.39999985694885","","","10","11477","5302","&#9776;","elianto","#3366ff99"," "," ","1","0","[963.5,1563.2000000476837]","2","0","1","","","","","","","",""
"pit-trial","34","388331","0.0-2.0-8.2-4.2","battery-v0.2","","""event"",""trial"",""time""
""fullscreenenter"",""1"",""4542""
","
","
","""event"",""trial"",""time""
""fullscreenenter"",""1"",""4542""
","
","","","239","","","10","11477","5302","&#9776;","elianto","#3366ff99"," "," ","1","+10","[1090.7000000476837]","1","0","1","","","","","","","",""
"call-function","35","388331","0.0-2.0-9.0","battery-v0.2","","""event"",""trial"",""time""
""fullscreenenter"",""1"",""4542""
","
","
","""event"",""trial"",""time""
""fullscreenenter"",""1"",""4542""
","
","","","","","","","","","","","","","","","","","","","","","","","","","","",""
"pit-instructions","36","438670","0.0-2.0-10.0","battery-v0.2","","""event"",""trial"",""time""
""fullscreenenter"",""1"",""4542""
","
","
","""event"",""trial"",""time""
""fullscreenenter"",""1"",""4542""
","
","","[{""page_index"":0,""viewing_time"":6355.900000095367},{""page_index"":1,""viewing_time"":8201.199999809265},{""page_index"":2,""viewing_time"":12251.100000143051},{""page_index"":3,""viewing_time"":12866.700000047684},{""page_index"":4,""viewing_time"":10662.399999856949}]","50337.700000047684","","","","","","","","","","","","","","","","","","","","","","","",""
"pit-trial","37","441836","0.0-2.0-11.0-0.0","battery-v0.2","","""event"",""trial"",""time""
""fullscreenenter"",""1"",""4542""
","
","
","""event"",""trial"",""time""
""fullscreenenter"",""1"",""4542""
","
","","","309.10000014305115","","","10","11477","5302","&#9761;","elianto","#3366ff99","-1"," ","0","0","[1160.9000000953674]","1","0","2","","","","","","","",""
"pit-trial","38","444939","0.0-2.0-11.0-1.0","battery-v0.2","","""event"",""trial"",""time""
""fullscreenenter"",""1"",""4542""
","
","
","""event"",""trial"",""time""
""fullscreenenter"",""1"",""4542""
","
","","","237.10000014305115","","","10","11477","5302","&#9761;","elianto","#3366ff99","-1"," ","0","0","[1087.7999999523163]","1","0","2","","","","","","","",""
"pit-trial","39","449803","0.0-2.0-11.0-2.0","battery-v0.2","","""event"",""trial"",""time""
""fullscreenenter"",""1"",""4542""
","
","
","""event"",""trial"",""time""
""fullscreenenter"",""1"",""4542""
","
","","","-1","","","10","11477","5302","&#9761;","elianto","#3366ff99","-1","-1","1","+10","[]","0","0","2","","","","","","","",""
"pit-trial","40","454671","0.0-2.0-11.0-3.0","battery-v0.2","","""event"",""trial"",""time""
""fullscreenenter"",""1"",""4542""
","
","
","""event"",""trial"",""time""
""fullscreenenter"",""1"",""4542""
","
","","","-1","","","10","11477","5302","&#9761;","elianto","#3366ff99","-1","-1","1","0","[]","0","0","2","","","","","","","",""
"pit-trial","41","459025","0.0-2.0-11.0-4.0","battery-v0.2","","""event"",""trial"",""time""
""fullscreenenter"",""1"",""4542""
","
","
","""event"",""trial"",""time""
""fullscreenenter"",""1"",""4542""
","
","","","1499.6000001430511","","","10","11477","5302","&#9761;","elianto","#3366ff99","-1"," ","0","0","[2350.5]","1","0","2","","","","","","","",""
"pit-trial","42","463895","0.0-2.0-11.1-0.1","battery-v0.2","","""event"",""trial"",""time""
""fullscreenenter"",""1"",""4542""
","
","
","""event"",""trial"",""time""
""fullscreenenter"",""1"",""4542""
","
","","","-1","","","10","11477","5302","&#9761;","elianto","#3366ff99","-1","-1","1","+10","[]","0","0","2","","","","","","","",""
"pit-trial","43","468747","0.0-2.0-11.1-1.1","battery-v0.2","","""event"",""trial"",""time""
""fullscreenenter"",""1"",""4542""
","
","
","""event"",""trial"",""time""
""fullscreenenter"",""1"",""4542""
","
","","","-1","","","10","11477","5302","&#9761;","elianto","#3366ff99","-1","-1","1","+10","[]","0","0","2","","","","","","","",""
"pit-trial","44","473599","0.0-2.0-11.1-2.1","battery-v0.2","","""event"",""trial"",""time""
""fullscreenenter"",""1"",""4542""
","
","
","""event"",""trial"",""time""
""fullscreenenter"",""1"",""4542""
","
","","","-1","","","10","11477","5302","&#9761;","elianto","#3366ff99","-1","-1","1","+10","[]","0","0","2","","","","","","","",""
"pit-trial","45","478452","0.0-2.0-11.1-3.1","battery-v0.2","","""event"",""trial"",""time""
""fullscreenenter"",""1"",""4542""
","
","
","""event"",""trial"",""time""
""fullscreenenter"",""1"",""4542""
","
","","","-1","","","10","11477","5302","&#9761;","elianto","#3366ff99","-1","-1","1","0","[]","0","0","2","","","","","","","",""
"pit-trial","46","483304","0.0-2.0-11.1-4.1","battery-v0.2","","""event"",""trial"",""time""
""fullscreenenter"",""1"",""4542""
","
","
","""event"",""trial"",""time""
""fullscreenenter"",""1"",""4542""
","
","","","-1","","","10","11477","5302","&#9761;","elianto","#3366ff99","-1","-1","1","+10","[]","0","0","2","","","","","","","",""
"pit-trial","47","488159","0.0-2.0-11.2-0.2","battery-v0.2","","""event"",""trial"",""time""
""fullscreenenter"",""1"",""4542""
","
","
","""event"",""trial"",""time""
""fullscreenenter"",""1"",""4542""
","
","","","-1","","","10","11477","5302","&#9761;","elianto","#3366ff99","-1","-1","1","+10","[]","0","0","2","","","","","","","",""
"pit-trial","48","493012","0.0-2.0-11.2-1.2","battery-v0.2","","""event"",""trial"",""time""
""fullscreenenter"",""1"",""4542""
","
","
","""event"",""trial"",""time""
""fullscreenenter"",""1"",""4542""
","
","","","-1","","","10","11477","5302","&#9761;","elianto","#3366ff99","-1","-1","1","+10","[]","0","0","2","","","","","","","",""
"pit-trial","49","497866","0.0-2.0-11.2-2.2","battery-v0.2","","""event"",""trial"",""time""
""fullscreenenter"",""1"",""4542""
","
","
","""event"",""trial"",""time""
""fullscreenenter"",""1"",""4542""
","
","","","-1","","","10","11477","5302","&#9761;","elianto","#3366ff99","-1","-1","1","+10","[]","0","0","2","","","","","","","",""
"pit-trial","50","502719","0.0-2.0-11.2-3.2","battery-v0.2","","""event"",""trial"",""time""
""fullscreenenter"",""1"",""4542""
","
","
","""event"",""trial"",""time""
""fullscreenenter"",""1"",""4542""
","
","","","-1","","","10","11477","5302","&#9761;","elianto","#3366ff99","-1","-1","1","0","[]","0","0","2","","","","","","","",""
"pit-trial","51","507571","0.0-2.0-11.2-4.2","battery-v0.2","","""event"",""trial"",""time""
""fullscreenenter"",""1"",""4542""
","
","
","""event"",""trial"",""time""
""fullscreenenter"",""1"",""4542""
","
","","","-1","","","10","11477","5302","&#9761;","elianto","#3366ff99","-1","-1","1","+10","[]","0","0","2","","","","","","","",""
"pit-trial","52","512425","0.0-2.0-11.3-0.3","battery-v0.2","","""event"",""trial"",""time""
""fullscreenenter"",""1"",""4542""
","
","
","""event"",""trial"",""time""
""fullscreenenter"",""1"",""4542""
","
","","","-1","","","10","11477","5302","&#9761;","elianto","#3366ff99","-1","-1","1","+10","[]","0","0","2","","","","","","","",""
"pit-trial","53","517277","0.0-2.0-11.3-1.3","battery-v0.2","","""event"",""trial"",""time""
""fullscreenenter"",""1"",""4542""
","
","
","""event"",""trial"",""time""
""fullscreenenter"",""1"",""4542""
","
","","","-1","","","10","11477","5302","&#9761;","elianto","#3366ff99","-1","-1","1","+10","[]","0","0","2","","","","","","","",""
"pit-trial","54","522131","0.0-2.0-11.3-2.3","battery-v0.2","","""event"",""trial"",""time""
""fullscreenenter"",""1"",""4542""
","
","
","""event"",""trial"",""time""
""fullscreenenter"",""1"",""4542""
","
","","","-1","","","10","11477","5302","&#9761;","elianto","#3366ff99","-1","-1","1","+10","[]","0","0","2","","","","","","","",""
"pit-trial","55","526984","0.0-2.0-11.3-3.3","battery-v0.2","","""event"",""trial"",""time""
""fullscreenenter"",""1"",""4542""
","
","
","""event"",""trial"",""time""
""fullscreenenter"",""1"",""4542""
","
","","","-1","","","10","11477","5302","&#9761;","elianto","#3366ff99","-1","-1","1","0","[]","0","0","2","","","","","","","",""
"pit-trial","56","531836","0.0-2.0-11.3-4.3","battery-v0.2","","""event"",""trial"",""time""
""fullscreenenter"",""1"",""4542""
","
","
","""event"",""trial"",""time""
""fullscreenenter"",""1"",""4542""
","
","","","-1","","","10","11477","5302","&#9761;","elianto","#3366ff99","-1","-1","1","+10","[]","0","0","2","","","","","","","",""
"call-function","57","531837","0.0-2.0-12.0","battery-v0.2","","""event"",""trial"",""time""
""fullscreenenter"",""1"",""4542""
","
","
","""event"",""trial"",""time""
""fullscreenenter"",""1"",""4542""
","
","","","","","","","","","","","","","","","","","","","","","","","","","","",""
"pit-instructions","58","570008","0.0-2.0-13.0","battery-v0.2","","""event"",""trial"",""time""
""fullscreenenter"",""1"",""4542""
","
","
","""event"",""trial"",""time""
""fullscreenenter"",""1"",""4542""
","
","","[{""page_index"":0,""viewing_time"":7654.900000095367},{""page_index"":1,""viewing_time"":7876.299999952316},{""page_index"":2,""viewing_time"":3346.7999999523163},{""page_index"":3,""viewing_time"":13143.200000047684},{""page_index"":4,""viewing_time"":6148.799999952316}]","38170.299999952316","","","","","","","","","","","","","","","","","","","","","","","",""
"pit-trial","59","574876","0.0-2.0-14.0-0.0","battery-v0.2","","""event"",""trial"",""time""
""fullscreenenter"",""1"",""4542""
","
","
","""event"",""trial"",""time""
""fullscreenenter"",""1"",""4542""
","
","","","-1","","","10","11477","5302","&#9826;","elianto","#f73b6a7A","-1","-1","1","0","[]","0","0","3","","","","","","","",""
"pit-trial","60","579749","0.0-2.0-14.0-1.0","battery-v0.2","","""event"",""trial"",""time""
""fullscreenenter"",""1"",""4542""
","
","
","""event"",""trial"",""time""
""fullscreenenter"",""1"",""4542""
","
","","","-1","","","10","11477","5302","&#9826;","elianto","#f73b6a7A","-1","-1","1","0","[]","0","0","3","","","","","","","",""
"pit-trial","61","584620","0.0-2.0-14.0-2.0","battery-v0.2","","""event"",""trial"",""time""
""fullscreenenter"",""1"",""4542""
","
","
","""event"",""trial"",""time""
""fullscreenenter"",""1"",""4542""
","
","","","-1","","","10","11477","5302","&#9826;","elianto","#f73b6a7A","-1","-1","1","0","[]","0","0","3","","","","","","","",""
"pit-trial","62","587682","0.0-2.0-14.0-3.0","battery-v0.2","","""event"",""trial"",""time""
""fullscreenenter"",""1"",""4542""
","
","
","""event"",""trial"",""time""
""fullscreenenter"",""1"",""4542""
","
","","","199.29999995231628","","","10","11477","5302","&#9826;","elianto","#f73b6a7A","-1"," ","0","0","[1049.6999998092651]","1","0","3","","","","","","","",""
"pit-trial","63","590670","0.0-2.0-14.0-4.0","battery-v0.2","","""event"",""trial"",""time""
""fullscreenenter"",""1"",""4542""
","
","
","""event"",""trial"",""time""
""fullscreenenter"",""1"",""4542""
","
","","","128.5","","","10","11477","5302","&#9826;","elianto","#f73b6a7A","-1"," ","0","-10","[783.5999999046326,981.0999999046326,1164.2000000476837]","3","0","3","","","","","","","",""
"pit-trial","64","595539","0.0-2.0-14.1-0.1","battery-v0.2","","""event"",""trial"",""time""
""fullscreenenter"",""1"",""4542""
","
","
","""event"",""trial"",""time""
""fullscreenenter"",""1"",""4542""
","
","","","-1","","","10","11477","5302","&#9826;","elianto","#f73b6a7A","-1","-1","1","0","[]","0","0","3","","","","","","","",""
"pit-trial","65","600395","0.0-2.0-14.1-1.1","battery-v0.2","","""event"",""trial"",""time""
""fullscreenenter"",""1"",""4542""
","
","
","""event"",""trial"",""time""
""fullscreenenter"",""1"",""4542""
","
","","","-1","","","10","11477","5302","&#9826;","elianto","#f73b6a7A","-1","-1","1","0","[]","0","0","3","","","","","","","",""
"pit-trial","66","605247","0.0-2.0-14.1-2.1","battery-v0.2","","""event"",""trial"",""time""
""fullscreenenter"",""1"",""4542""
","
","
","""event"",""trial"",""time""
""fullscreenenter"",""1"",""4542""
","
","","","-1","","","10","11477","5302","&#9826;","elianto","#f73b6a7A","-1","-1","1","0","[]","0","0","3","","","","","","","",""
"pit-trial","67","610106","0.0-2.0-14.1-3.1","battery-v0.2","","""event"",""trial"",""time""
""fullscreenenter"",""1"",""4542""
","
","
","""event"",""trial"",""time""
""fullscreenenter"",""1"",""4542""
","
","","","-1","","","10","11477","5302","&#9826;","elianto","#f73b6a7A","-1","-1","1","-10","[]","0","0","3","","","","","","","",""
"pit-trial","68","614960","0.0-2.0-14.1-4.1","battery-v0.2","","""event"",""trial"",""time""
""fullscreenenter"",""1"",""4542""
","
","
","""event"",""trial"",""time""
""fullscreenenter"",""1"",""4542""
","
","","","-1","","","10","11477","5302","&#9826;","elianto","#f73b6a7A","-1","-1","1","0","[]","0","0","3","","","","","","","",""
"pit-trial","69","619812","0.0-2.0-14.2-0.2","battery-v0.2","","""event"",""trial"",""time""
""fullscreenenter"",""1"",""4542""
","
","
","""event"",""trial"",""time""
""fullscreenenter"",""1"",""4542""
","
","","","-1","","","10","11477","5302","&#9826;","elianto","#f73b6a7A","-1","-1","1","0","[]","0","0","3","","","","","","","",""
"pit-trial","70","624664","0.0-2.0-14.2-1.2","battery-v0.2","","""event"",""trial"",""time""
""fullscreenenter"",""1"",""4542""
","
","
","""event"",""trial"",""time""
""fullscreenenter"",""1"",""4542""
","
","","","-1","","","10","11477","5302","&#9826;","elianto","#f73b6a7A","-1","-1","1","0","[]","0","0","3","","","","","","","",""
"pit-trial","71","629517","0.0-2.0-14.2-2.2","battery-v0.2","","""event"",""trial"",""time""
""fullscreenenter"",""1"",""4542""
","
","
","""event"",""trial"",""time""
""fullscreenenter"",""1"",""4542""
","
","","","-1","","","10","11477","5302","&#9826;","elianto","#f73b6a7A","-1","-1","1","0","[]","0","0","3","","","","","","","",""
"pit-trial","72","634370","0.0-2.0-14.2-3.2","battery-v0.2","","""event"",""trial"",""time""
""fullscreenenter"",""1"",""4542""
","
","
","""event"",""trial"",""time""
""fullscreenenter"",""1"",""4542""
","
","","","-1","","","10","11477","5302","&#9826;","elianto","#f73b6a7A","-1","-1","1","-10","[]","0","0","3","","","","","","","",""
"pit-trial","73","639223","0.0-2.0-14.2-4.2","battery-v0.2","","""event"",""trial"",""time""
""fullscreenenter"",""1"",""4542""
","
","
","""event"",""trial"",""time""
""fullscreenenter"",""1"",""4542""
","
","","","-1","","","10","11477","5302","&#9826;","elianto","#f73b6a7A","-1","-1","1","0","[]","0","0","3","","","","","","","",""
"pit-trial","74","644076","0.0-2.0-14.3-0.3","battery-v0.2","","""event"",""trial"",""time""
""fullscreenenter"",""1"",""4542""
","
","
","""event"",""trial"",""time""
""fullscreenenter"",""1"",""4542""
","
","","","-1","","","10","11477","5302","&#9826;","elianto","#f73b6a7A","-1","-1","1","0","[]","0","0","3","","","","","","","",""
"pit-trial","75","648929","0.0-2.0-14.3-1.3","battery-v0.2","","""event"",""trial"",""time""
""fullscreenenter"",""1"",""4542""
","
","
","""event"",""trial"",""time""
""fullscreenenter"",""1"",""4542""
","
","","","-1","","","10","11477","5302","&#9826;","elianto","#f73b6a7A","-1","-1","1","0","[]","0","0","3","","","","","","","",""
"pit-trial","76","653782","0.0-2.0-14.3-2.3","battery-v0.2","","""event"",""trial"",""time""
""fullscreenenter"",""1"",""4542""
","
","
","""event"",""trial"",""time""
""fullscreenenter"",""1"",""4542""
","
","","","-1","","","10","11477","5302","&#9826;","elianto","#f73b6a7A","-1","-1","1","0","[]","0","0","3","","","","","","","",""
"pit-trial","77","658634","0.0-2.0-14.3-3.3","battery-v0.2","","""event"",""trial"",""time""
""fullscreenenter"",""1"",""4542""
","
","
","""event"",""trial"",""time""
""fullscreenenter"",""1"",""4542""
","
","","","-1","","","10","11477","5302","&#9826;","elianto","#f73b6a7A","-1","-1","1","-10","[]","0","0","3","","","","","","","",""
"pit-trial","78","663487","0.0-2.0-14.3-4.3","battery-v0.2","","""event"",""trial"",""time""
""fullscreenenter"",""1"",""4542""
","
","
","""event"",""trial"",""time""
""fullscreenenter"",""1"",""4542""
","
","","","-1","","","10","11477","5302","&#9826;","elianto","#f73b6a7A","-1","-1","1","0","[]","0","0","3","","","","","","","",""
"call-function","79","663488","0.0-2.0-15.0","battery-v0.2","","""event"",""trial"",""time""
""fullscreenenter"",""1"",""4542""
","
","
","""event"",""trial"",""time""
""fullscreenenter"",""1"",""4542""
","
","","","","","","","","","","","","","","","","","","","","","","","","","","",""
"pit-instructions","80","692722","0.0-2.0-16.0","battery-v0.2","","""event"",""trial"",""time""
""fullscreenenter"",""1"",""4542""
","
","
","""event"",""trial"",""time""
""fullscreenenter"",""1"",""4542""
","
","","[{""page_index"":0,""viewing_time"":7979},{""page_index"":1,""viewing_time"":11573.5},{""page_index"":2,""viewing_time"":4251.700000047684},{""page_index"":3,""viewing_time"":5430}]","29234.5","","","","","","","","","","","","","","","","","","","","","","","",""
"pit-trial","81","697595","0.0-2.0-17.0-0.0","battery-v0.2","","""event"",""trial"",""time""
""fullscreenenter"",""1"",""4542""
","
","
","""event"",""trial"",""time""
""fullscreenenter"",""1"",""4542""
","
","","","-1","","","10","11477","5302","&#9789;","elianto","#f73b6a7A"," ","-1","0","-10","[]","0","0","4","","","","","","","",""
"pit-trial","82","700460","0.0-2.0-17.0-1.0","battery-v0.2","","""event"",""trial"",""time""
""fullscreenenter"",""1"",""4542""
","
","
","""event"",""trial"",""time""
""fullscreenenter"",""1"",""4542""
","
","","","6.8999998569488525","","","10","11477","5302","&#9789;","elianto","#f73b6a7A"," "," ","1","0","[858.7000000476837,1038.1000001430511,1214.1000001430511,1382.2000000476837,1544.1000001430511,1724.6000001430511,1891.9000000953674,2065.9000000953674,2254.800000190735,2460,2653.7000000476837]","11","0","4","","","","","","","",""
"pit-trial","83","703383","0.0-2.0-17.0-2.0","battery-v0.2","","""event"",""trial"",""time""
""fullscreenenter"",""1"",""4542""
","
","
","""event"",""trial"",""time""
""fullscreenenter"",""1"",""4542""
","
","","","57.5","","","10","11477","5302","&#9789;","elianto","#f73b6a7A"," "," ","1","0","[14.100000143051147,210.10000014305115,347.10000014305115,519.4000000953674,720.1000001430511,909.3000001907349,1079.8000001907349,1266.9000000953674,1476.7000000476837,1629,1821.9000000953674,2041.9000000953674,2220.9000000953674,2404.300000190735,2762.300000190735]","15","0","4","","","","","","","",""
"pit-trial","84","706454","0.0-2.0-17.0-3.0","battery-v0.2","","""event"",""trial"",""time""
""fullscreenenter"",""1"",""4542""
","
","
","""event"",""trial"",""time""
""fullscreenenter"",""1"",""4542""
","
","","","210.40000009536743","","","10","11477","5302","&#9789;","elianto","#f73b6a7A"," "," ","1","-10","[1060.9000000953674]","1","0","4","","","","","","","",""
"pit-trial","85","709657","0.0-2.0-17.0-4.0","battery-v0.2","","""event"",""trial"",""time""
""fullscreenenter"",""1"",""4542""
","
","
","""event"",""trial"",""time""
""fullscreenenter"",""1"",""4542""
","
","","","342.09999990463257","","","10","11477","5302","&#9789;","elianto","#f73b6a7A"," "," ","1","0","[760.7000000476837,1193]","2","0","4","","","","","","","",""
"pit-trial","86","712792","0.0-2.0-17.1-0.1","battery-v0.2","","""event"",""trial"",""time""
""fullscreenenter"",""1"",""4542""
","
","
","""event"",""trial"",""time""
""fullscreenenter"",""1"",""4542""
","
","","","279","","","10","11477","5302","&#9789;","elianto","#f73b6a7A"," "," ","1","0","[1130.9000000953674]","1","0","4","","","","","","","",""
"pit-trial","87","715657","0.0-2.0-17.1-1.1","battery-v0.2","","""event"",""trial"",""time""
""fullscreenenter"",""1"",""4542""
","
","
","""event"",""trial"",""time""
""fullscreenenter"",""1"",""4542""
","
","","","5.200000047683716","","","10","11477","5302","&#9789;","elianto","#f73b6a7A"," "," ","1","0","[857.7000000476837]","1","0","4","","","","","","","",""
"pit-trial","88","718572","0.0-2.0-17.1-2.1","battery-v0.2","","""event"",""trial"",""time""
""fullscreenenter"",""1"",""4542""
","
","
","""event"",""trial"",""time""
""fullscreenenter"",""1"",""4542""
","
","","","58","","","10","11477","5302","&#9789;","elianto","#f73b6a7A"," "," ","1","0","[910]","1","0","4","","","","","","","",""
"pit-trial","89","721801","0.0-2.0-17.1-3.1","battery-v0.2","","""event"",""trial"",""time""
""fullscreenenter"",""1"",""4542""
","
","
","""event"",""trial"",""time""
""fullscreenenter"",""1"",""4542""
","
","","","373.7000000476837","","","10","11477","5302","&#9789;","elianto","#f73b6a7A"," "," ","1","-10","[831.3999998569489,1226,1439,1643,1822.8999998569489,2041.7999999523163,2193,2392.7999999523163,2637.0999999046326,2963,3148.0999999046326]","11","0","4","","","","","","","",""
"pit-trial","90","724662","0.0-2.0-17.1-4.1","battery-v0.2","","""event"",""trial"",""time""
""fullscreenenter"",""1"",""4542""
","
","
","""event"",""trial"",""time""
""fullscreenenter"",""1"",""4542""
","
","","","7.299999952316284","","","10","11477","5302","&#9789;","elianto","#f73b6a7A"," "," ","1","0","[9.200000047683716,62.700000047683716,295.10000014305115,393.5,486.7000000476837,560.7000000476837,663.8000001907349,858,1024.8000001907349,1175.4000000953674,1374.1000001430511,1538.1000001430511,1685.2000000476837,1865.1000001430511,2032.4000000953674,2139.4000000953674,2332.5,2527.4000000953674,2736.2000000476837]","19","0","4","","","","","","","",""
"pit-trial","91","727619","0.0-2.0-17.2-0.2","battery-v0.2","","""event"",""trial"",""time""
""fullscreenenter"",""1"",""4542""
","
","
","""event"",""trial"",""time""
""fullscreenenter"",""1"",""4542""
","
","","","105.5","","","10","11477","5302","&#9789;","elianto","#f73b6a7A"," "," ","1","0","[66.79999995231628,265.2999999523163,493.2999999523163,746.5999999046326,956.3999998569489,1122.1999998092651,1330.0999999046326,1571.8999998569489,1774,2025.1999998092651,2246.5999999046326,2499.399999856949,2795.0999999046326]","13","0","4","","","","","","","",""
"pit-trial","92","730576","0.0-2.0-17.2-1.2","battery-v0.2","","""event"",""trial"",""time""
""fullscreenenter"",""1"",""4542""
","
","
","""event"",""trial"",""time""
""fullscreenenter"",""1"",""4542""
","
","","","105.70000004768372","","","10","11477","5302","&#9789;","elianto","#f73b6a7A"," "," ","1","0","[105.20000004768372,319.10000014305115,561,739.1000001430511,955.9000000953674,1123.5,1361.7000000476837,1572.7000000476837,1782.7000000476837,2034.6000001430511,2270.4000000953674,2481.5,2698.9000000953674,2956.4000000953674]","14","0","4","","","","","","","",""
"pit-trial","93","733583","0.0-2.0-17.2-2.2","battery-v0.2","","""event"",""trial"",""time""
""fullscreenenter"",""1"",""4542""
","
","
","""event"",""trial"",""time""
""fullscreenenter"",""1"",""4542""
","
","","","155.19999980926514","","","10","11477","5302","&#9789;","elianto","#f73b6a7A"," "," ","1","0","[275.7999999523163,565.7999999523163,805.7999999523163,1005.6999998092651,1235.5,1527.5999999046326,1812.5999999046326,2113.5999999046326,2402.399999856949,2616.699999809265,2857.899999856949]","11","0","4","","","","","","","",""
"pit-trial","94","736539","0.0-2.0-17.2-3.2","battery-v0.2","","""event"",""trial"",""time""
""fullscreenenter"",""1"",""4542""
","
","
","""event"",""trial"",""time""
""fullscreenenter"",""1"",""4542""
","
","","","103.29999995231628","","","10","11477","5302","&#9789;","elianto","#f73b6a7A"," "," ","1","-10","[114.89999985694885,414.09999990463257,666.2999999523163,955.0999999046326,1266,1587.7999999523163,1942.7000000476837,2212.399999856949,2513.5999999046326,2783.899999856949]","10","0","4","","","","","","","",""
"pit-trial","95","739632","0.0-2.0-17.2-4.2","battery-v0.2","","""event"",""trial"",""time""
""fullscreenenter"",""1"",""4542""
","
","
","""event"",""trial"",""time""
""fullscreenenter"",""1"",""4542""
","
","","","240.79999995231628","","","10","11477","5302","&#9789;","elianto","#f73b6a7A"," "," ","1","0","[49.59999990463257,291.7999999523163,535.7000000476837,818.7000000476837,1091.7999999523163,1361.4000000953674,1709.2000000476837,2028.2999999523163,2289.0999999046326,2571.2999999523163,2894.0999999046326]","11","0","4","","","","","","","",""
"pit-trial","96","742977","0.0-2.0-17.3-0.3","battery-v0.2","","""event"",""trial"",""time""
""fullscreenenter"",""1"",""4542""
","
","
","""event"",""trial"",""time""
""fullscreenenter"",""1"",""4542""
","
","","","490.7000000476837","","","10","11477","5302","&#9789;","elianto","#f73b6a7A"," "," ","1","0","[1342.2999999523163,1734,1965.2999999523163,2168.5,2363.0999999046326,2560.5,2788.0999999046326,2920.5,3167.2999999523163]","9","0","4","","","","","","","",""
"pit-trial","97","745877","0.0-2.0-17.3-1.3","battery-v0.2","","""event"",""trial"",""time""
""fullscreenenter"",""1"",""4542""
","
","
","""event"",""trial"",""time""
""fullscreenenter"",""1"",""4542""
","
","","","49.299999952316284","","","10","11477","5302","&#9789;","elianto","#f73b6a7A"," "," ","1","0","[53.799999952316284,263.10000014305115,457.90000009536743,661.9000000953674,899.2999999523163,1165.7000000476837,1389.1000001430511,1645.5,1897.6000001430511,2169.7999999523163,2436.600000143051,2737.600000143051]","12","0","4","","","","","","","",""
"pit-trial","98","748915","0.0-2.0-17.3-2.3","battery-v0.2","","""event"",""trial"",""time""
""fullscreenenter"",""1"",""4542""
","
","
","""event"",""trial"",""time""
""fullscreenenter"",""1"",""4542""
","
","","","184.40000009536743","","","10","11477","5302","&#9789;","elianto","#f73b6a7A"," "," ","1","0","[1035.2000000476837]","1","0","4","","","","","","","",""
"pit-trial","99","752568","0.0-2.0-17.3-3.3","battery-v0.2","","""event"",""trial"",""time""
""fullscreenenter"",""1"",""4542""
","
","
","""event"",""trial"",""time""
""fullscreenenter"",""1"",""4542""
","
","","","801.8999998569489","","","10","11477","5302","&#9789;","elianto","#f73b6a7A"," "," ","1","-10","[1652.2999999523163,1849.4000000953674,2085,2373.7999999523163,2830.7000000476837,3127.4000000953674,3394.600000143051,3616]","8","0","4","","","","","","","",""
"pit-trial","100","755602","0.0-2.0-17.3-4.3","battery-v0.2","","""event"",""trial"",""time""
""fullscreenenter"",""1"",""4542""
","
","
","""event"",""trial"",""time""
""fullscreenenter"",""1"",""4542""
","
","","","180.89999985694885","","","10","11477","5302","&#9789;","elianto","#f73b6a7A"," "," ","1","0","[195.40000009536743,350.40000009536743,610.4000000953674,821.5,1032.2000000476837,1273.9000000953674,1437.7999999523163,1692.4000000953674,1916.7000000476837,2172.9000000953674,2484.4000000953674,2712.2999999523163]","12","0","4","","","","","","","",""
"call-function","101","755603","0.0-2.0-18.0","battery-v0.2","","""event"",""trial"",""time""
""fullscreenenter"",""1"",""4542""
","
","
","""event"",""trial"",""time""
""fullscreenenter"",""1"",""4542""
","
","","","","","","","","","","","","","","","","","","","","","","","","","","",""
"pit-instructions","102","850199","0.0-2.0-19.0","battery-v0.2","","""event"",""trial"",""time""
""fullscreenenter"",""1"",""4542""
","
","
","""event"",""trial"",""time""
""fullscreenenter"",""1"",""4542""
","
","","[{""page_index"":0,""viewing_time"":10396.299999952316},{""page_index"":1,""viewing_time"":8836.600000143051},{""page_index"":2,""viewing_time"":25152.89999985695},{""page_index"":3,""viewing_time"":7268.5},{""page_index"":4,""viewing_time"":8974.299999952316},{""page_index"":5,""viewing_time"":8765.100000143051},{""page_index"":6,""viewing_time"":8206.200000047684},{""page_index"":7,""viewing_time"":12460.899999856949},{""page_index"":8,""viewing_time"":4534.400000095367}]","94595.40000009537","","","","","","","","","","","","","","","","","","","","","","","",""
"pit-comprehension","103","855991","0.0-2.0-20.0-0.0","battery-v0.2","","""event"",""trial"",""time""
""fullscreenenter"",""1"",""4542""
","
","
","""event"",""trial"",""time""
""fullscreenenter"",""1"",""4542""
","
","","","5790.200000047684","[""SPACE""]","0","10","11477","5302","","","","","","","","","","","","","","","","","","",""
"pit-instructions","104","858724","0.0-2.0-20.0-1.0","battery-v0.2","","""event"",""trial"",""time""
""fullscreenenter"",""1"",""4542""
","
","
","""event"",""trial"",""time""
""fullscreenenter"",""1"",""4542""
","
","","[{""page_index"":0,""viewing_time"":2703.7000000476837}]","2703.9000000953674","","","","","","","","","","","","","","","","","","","","","","","",""
"pit-comprehension","105","865978","0.0-2.0-21.0-0.0","battery-v0.2","","""event"",""trial"",""time""
""fullscreenenter"",""1"",""4542""
","
","
","""event"",""trial"",""time""
""fullscreenenter"",""1"",""4542""
","
","","","7252.700000047684","[""10""]","0","10","11477","5302","","","","","","","","","","","","","","","","","","",""
"pit-instructions","106","868332","0.0-2.0-21.0-1.0","battery-v0.2","","""event"",""trial"",""time""
""fullscreenenter"",""1"",""4542""
","
","
","""event"",""trial"",""time""
""fullscreenenter"",""1"",""4542""
","
","","[{""page_index"":0,""viewing_time"":2327.9000000953674}]","2328.100000143051","","","","","","","","","","","","","","","","","","","","","","","",""
"pit-comprehension","107","881105","0.0-2.0-22.0-0.0","battery-v0.2","","""event"",""trial"",""time""
""fullscreenenter"",""1"",""4542""
","
","
","""event"",""trial"",""time""
""fullscreenenter"",""1"",""4542""
","
","","","12771.599999904633","[""0""]","0","10","11477","5302","","","","","","","","","","","","","","","","","","",""
"pit-instructions","108","882308","0.0-2.0-22.0-1.0","battery-v0.2","","""event"",""trial"",""time""
""fullscreenenter"",""1"",""4542""
","
","
","""event"",""trial"",""time""
""fullscreenenter"",""1"",""4542""
","
","","[{""page_index"":0,""viewing_time"":1175.1999998092651}]","1175.3999998569489","","","","","","","","","","","","","","","","","","","","","","","",""
"pit-comprehension","109","893963","0.0-2.0-23.0-0.0","battery-v0.2","","""event"",""trial"",""time""
""fullscreenenter"",""1"",""4542""
","
","
","""event"",""trial"",""time""
""fullscreenenter"",""1"",""4542""
","
","","","11652.199999809265","[""True""]","0","10","11477","5302","","","","","","","","","","","","","","","","","","",""
"pit-instructions","110","896815","0.0-2.0-23.0-1.0","battery-v0.2","","""event"",""trial"",""time""
""fullscreenenter"",""1"",""4542""
","
","
","""event"",""trial"",""time""
""fullscreenenter"",""1"",""4542""
","
","","[{""page_index"":0,""viewing_time"":2823.0999999046326}]","2823.2999999523163","","","","","","","","","","","","","","","","","","","","","","","",""
"pit-comprehension","111","905749","0.0-2.0-24.0-0.0","battery-v0.2","","""event"",""trial"",""time""
""fullscreenenter"",""1"",""4542""
","
","
","""event"",""trial"",""time""
""fullscreenenter"",""1"",""4542""
","
","","","8932.700000047684","[""True""]","0","10","11477","5302","","","","","","","","","","","","","","","","","","",""
"pit-instructions","112","907626","0.0-2.0-24.0-1.0","battery-v0.2","","""event"",""trial"",""time""
""fullscreenenter"",""1"",""4542""
","
","
","""event"",""trial"",""time""
""fullscreenenter"",""1"",""4542""
","
","","[{""page_index"":0,""viewing_time"":1847.2000000476837}]","1847.4000000953674","","","","","","","","","","","","","","","","","","","","","","","",""
"pit-comprehension","113","916446","0.0-2.0-25.0-0.0","battery-v0.2","","""event"",""trial"",""time""
""fullscreenenter"",""1"",""4542""
","
","
","""event"",""trial"",""time""
""fullscreenenter"",""1"",""4542""
","
","","","8817.700000047684","[""True""]","0","10","11477","5302","","","","","","","","","","","","","","","","","","",""
"pit-instructions","114","919314","0.0-2.0-25.0-1.0","battery-v0.2","","""event"",""trial"",""time""
""fullscreenenter"",""1"",""4542""
","
","
","""event"",""trial"",""time""
""fullscreenenter"",""1"",""4542""
","
","","[{""page_index"":0,""viewing_time"":2839.399999856949}]","2839.5999999046326","","","","","","","","","","","","","","","","","","","","","","","",""
"pit-comprehension","115","927909","0.0-2.0-26.0-0.0","battery-v0.2","","""event"",""trial"",""time""
""fullscreenenter"",""1"",""4542""
","
","
","""event"",""trial"",""time""
""fullscreenenter"",""1"",""4542""
","
","","","8592.299999952316","[""False""]","0","10","11477","5302","","","","","","","","","","","","","","","","","","",""
"pit-instructions","116","933081","0.0-2.0-26.0-1.0","battery-v0.2","","""event"",""trial"",""time""
""fullscreenenter"",""1"",""4542""
","
","
","""event"",""trial"",""time""
""fullscreenenter"",""1"",""4542""
","
","","[{""page_index"":0,""viewing_time"":5135.799999952316}]","5136","","","","","","","","","","","","","","","","","","","","","","","",""
"pit-instructions","117","956778","0.0-3.0","battery-v0.2","","""event"",""trial"",""time""
""fullscreenenter"",""1"",""4542""
","
","
","""event"",""trial"",""time""
""fullscreenenter"",""1"",""4542""
","
","","[{""page_index"":0,""viewing_time"":7188.899999856949},{""page_index"":1,""viewing_time"":8135.600000143051},{""page_index"":2,""viewing_time"":8371.299999952316}]","23696","","","","","","","","","","","","","","","","","","","","","","","",""
"pit-trial","118","961653","0.0-4.0","battery-v0.2","","""event"",""trial"",""time""
""fullscreenenter"",""1"",""4542""
","
","
","""event"",""trial"",""time""
""fullscreenenter"",""1"",""4542""
","
","","","-1","","","10","11477","5302","&#9733;","elianto","#3366ff99","-1","-1","1","+10","[2871.5999999046326]","1","1","","","11477","1","2","2","win","no-go","0"
"pit-trial","119","965132","0.0-5.0","battery-v0.2","","""event"",""trial"",""time""
""fullscreenenter"",""1"",""4542""
","
","
","""event"",""trial"",""time""
""fullscreenenter"",""1"",""4542""
","
","","","617.8999998569489","","","10","11477","5302","&#9752;","elianto","#f73b6a7A"," "," ","1","0","[1468]","1","1","","","11477","2","3","3","lose","go","0"
"pit-trial","120","968347","0.0-6.0","battery-v0.2","","""event"",""trial"",""time""
""fullscreenenter"",""1"",""4542""
","
","
","""event"",""trial"",""time""
""fullscreenenter"",""1"",""4542""
","
","","","349.60000014305115","","","10","11477","5302","&#9730;","elianto","#3366ff99"," "," ","1","+10","[1201.5]","1","1","","","11477","3","1","1","win","go","0"
"pit-trial","121","971699","0.0-7.0","battery-v0.2","","""event"",""trial"",""time""
""fullscreenenter"",""1"",""4542""
","
","
","""event"",""trial"",""time""
""fullscreenenter"",""1"",""4542""
","
","","","497","","","10","11477","5302","&#9728;","elianto","#f73b6a7A","-1"," ","0","-10","[1349.2999999523163]","1","1","","","11477","4","0","4","lose","no-go","0"
"pit-trial","122","974842","0.0-8.0","battery-v0.2","","""event"",""trial"",""time""
""fullscreenenter"",""1"",""4542""
","
","
","""event"",""trial"",""time""
""fullscreenenter"",""1"",""4542""
","
","","","287.60000014305115","","","10","11477","5302","&#9730;","elianto","#3366ff99"," "," ","1","+10","[1139.1000001430511]","1","1","","","11477","5","1","1","win","go","0"
"pit-trial","123","977990","0.0-9.0","battery-v0.2","","""event"",""trial"",""time""
""fullscreenenter"",""1"",""4542""
","
","
","""event"",""trial"",""time""
""fullscreenenter"",""1"",""4542""
","
","","","284.40000009536743","","","10","11477","5302","&#9728;","elianto","#f73b6a7A","-1"," ","0","-10","[1134.8000001907349]","1","1","","","11477","6","0","4","lose","no-go","0"
"pit-trial","124","981154","0.0-10.0","battery-v0.2","","""event"",""trial"",""time""
""fullscreenenter"",""1"",""4542""
","
","
","""event"",""trial"",""time""
""fullscreenenter"",""1"",""4542""
","
","","","301.10000014305115","","","10","11477","5302","&#9733;","elianto","#3366ff99","-1"," ","0","+10","[1151.2000000476837]","1","1","","","11477","7","2","2","win","no-go","1"
"pit-trial","125","984281","0.0-11.0","battery-v0.2","","""event"",""trial"",""time""
""fullscreenenter"",""1"",""4542""
","
","
","""event"",""trial"",""time""
""fullscreenenter"",""1"",""4542""
","
","","","273.7999999523163","","","10","11477","5302","&#9752;","elianto","#f73b6a7A"," "," ","1","0","[1124.7000000476837]","1","1","","","11477","8","3","3","lose","go","0"
"pit-trial","126","987649","0.0-12.0","battery-v0.2","","""event"",""trial"",""time""
""fullscreenenter"",""1"",""4542""
","
","
","""event"",""trial"",""time""
""fullscreenenter"",""1"",""4542""
","
","","","505.2000000476837","","","10","11477","5302","&#9733;","elianto","#3366ff99","-1"," ","0","0","[1356.9000000953674]","1","1","","","11477","9","2","2","win","no-go","0"
"pit-trial","127","990948","0.0-13.0","battery-v0.2","","""event"",""trial"",""time""
""fullscreenenter"",""1"",""4542""
","
","
","""event"",""trial"",""time""
""fullscreenenter"",""1"",""4542""
","
","","","444.2999999523163","","","10","11477","5302","&#9730;","elianto","#3366ff99"," "," ","1","+10","[1296.2000000476837]","1","1","","","11477","10","1","1","win","go","0"
"pit-trial","128","994431","0.0-14.0","battery-v0.2","","""event"",""trial"",""time""
""fullscreenenter"",""1"",""4542""
","
","
","""event"",""trial"",""time""
""fullscreenenter"",""1"",""4542""
","
","","","630.1000001430511","","","10","11477","5302","&#9752;","elianto","#f73b6a7A"," "," ","1","0","[1481.1000001430511]","1","1","","","11477","11","3","3","lose","go","0"
"pit-trial","129","999284","0.0-15.0","battery-v0.2","","""event"",""trial"",""time""
""fullscreenenter"",""1"",""4542""
","
","
","""event"",""trial"",""time""
""fullscreenenter"",""1"",""4542""
","
","","","-1","","","10","11477","5302","&#9728;","elianto","#f73b6a7A","-1","-1","1","0","[]","0","1","","","11477","12","0","4","lose","no-go","0"
"pit-trial","130","1002712","0.0-16.0","battery-v0.2","","""event"",""trial"",""time""
""fullscreenenter"",""1"",""4542""
","
","
","""event"",""trial"",""time""
""fullscreenenter"",""1"",""4542""
","
","","","574.2000000476837","","","10","11477","5302","&#9752;","elianto","#f73b6a7A"," "," ","1","0","[1425.5]","1","1","","","11477","13","3","3","lose","go","0"
"pit-trial","131","1005875","0.0-17.0","battery-v0.2","","""event"",""trial"",""time""
""fullscreenenter"",""1"",""4542""
","
","
","""event"",""trial"",""time""
""fullscreenenter"",""1"",""4542""
","
","","","311.5","","","10","11477","5302","&#9733;","elianto","#3366ff99","-1"," ","0","0","[1161.7999999523163]","1","1","","","11477","14","2","2","win","no-go","0"
"pit-trial","132","1008985","0.0-18.0","battery-v0.2","","""event"",""trial"",""time""
""fullscreenenter"",""1"",""4542""
","
","
","""event"",""trial"",""time""
""fullscreenenter"",""1"",""4542""
","
","","","257.89999985694885","","","10","11477","5302","&#9730;","elianto","#3366ff99"," "," ","1","+10","[1108.5]","1","1","","","11477","15","1","1","win","go","0"
"pit-trial","133","1013837","0.0-19.0","battery-v0.2","","""event"",""trial"",""time""
""fullscreenenter"",""1"",""4542""
","
","
","""event"",""trial"",""time""
""fullscreenenter"",""1"",""4542""
","
","","","-1","","","10","11477","5302","&#9728;","elianto","#f73b6a7A","-1","-1","1","0","[]","0","1","","","11477","16","0","4","lose","no-go","0"
"pit-trial","134","1017060","0.0-20.0","battery-v0.2","","""event"",""trial"",""time""
""fullscreenenter"",""1"",""4542""
","
","
","""event"",""trial"",""time""
""fullscreenenter"",""1"",""4542""
","
","","","371.09999990463257","","","10","11477","5302","&#9733;","elianto","#3366ff99","-1"," ","0","0","[1222.2999999523163,2046.2000000476837,2272.2000000476837,2453.7999999523163,2633,2791.2000000476837,2952.2000000476837,3103]","8","1","","","11477","17","2","2","win","no-go","0"
"pit-trial","135","1020425","0.0-21.0","battery-v0.2","","""event"",""trial"",""time""
""fullscreenenter"",""1"",""4542""
","
","
","""event"",""trial"",""time""
""fullscreenenter"",""1"",""4542""
","
","","","512.2999999523163","","","10","11477","5302","&#9730;","elianto","#3366ff99"," "," ","1","0","[59,226,430.2999999523163,627,1362.2999999523163,1871.6999998092651,2062.7999999523163,2237.399999856949,2424.5,2623.2999999523163,2814.5999999046326,3021.5,3222.7999999523163]","13","1","","","11477","18","1","1","win","go","1"
"pit-trial","136","1023528","0.0-22.0","battery-v0.2","","""event"",""trial"",""time""
""fullscreenenter"",""1"",""4542""
","
","
","""event"",""trial"",""time""
""fullscreenenter"",""1"",""4542""
","
","","","251.09999990463257","","","10","11477","5302","&#9752;","elianto","#f73b6a7A"," "," ","1","0","[44.90000009536743,258.90000009536743,1101.5]","3","1","","","11477","19","3","3","lose","go","0"
"pit-trial","137","1028379","0.0-23.0","battery-v0.2","","""event"",""trial"",""time""
""fullscreenenter"",""1"",""4542""
","
","
","""event"",""trial"",""time""
""fullscreenenter"",""1"",""4542""
","
","","","-1","","","10","11477","5302","&#9728;","elianto","#f73b6a7A","-1","-1","1","-10","[]","0","1","","","11477","20","0","4","lose","no-go","1"
"pit-instructions","138","1041824","0.0-24.0","battery-v0.2","","""event"",""trial"",""time""
""fullscreenenter"",""1"",""4542""
","
","
","""event"",""trial"",""time""
""fullscreenenter"",""1"",""4542""
","
","","[{""page_index"":0,""viewing_time"":6030.099999904633},{""page_index"":1,""viewing_time"":7414.200000047684}]","13444.699999809265","","","","","","","","","","","","","","","","","","","","","","","",""
"pit-trial","139","1046690","0.0-25.0","battery-v0.2","","""event"",""trial"",""time""
""fullscreenenter"",""1"",""4542""
","
","
","""event"",""trial"",""time""
""fullscreenenter"",""1"",""4542""
","
","","","-1","","","10","11477","5302","e","elianto","#f73b6a7A"," ","-1","0","-10","[]","0","2","","","11477","21","2","3","lose","go","0"
"pit-trial","140","1051548","0.0-26.0","battery-v0.2","","""event"",""trial"",""time""
""fullscreenenter"",""1"",""4542""
","
","
","""event"",""trial"",""time""
""fullscreenenter"",""1"",""4542""
","
","","","-1","","","10","11477","5302","j","elianto","#f73b6a7A"," ","-1","0","-10","[]","0","2","","","11477","22","0","3","lose","go","0"
"pit-trial","141","1054903","0.0-27.0","battery-v0.2","","""event"",""trial"",""time""
""fullscreenenter"",""1"",""4542""
","
","
","""event"",""trial"",""time""
""fullscreenenter"",""1"",""4542""
","
","","","500.5","","","10","11477","5302","w","elianto","#f73b6a7A","-1"," ","0","-10","[1351.7000000476837,2522.9000000953674,2706.7999999523163,2929.600000143051,3130.100000143051,3320.7000000476837]","6","2","","","11477","23","3","4","lose","no-go","0"
"pit-trial","142","1058186","0.0-28.0","battery-v0.2","","""event"",""trial"",""time""
""fullscreenenter"",""1"",""4542""
","
","
","""event"",""trial"",""time""
""fullscreenenter"",""1"",""4542""
","
","","","421.90000009536743","","","10","11477","5302","d","elianto","#3366ff99","-1"," ","0","0","[191.60000014305115,1272.1000001430511,1744.6000001430511,1946.6000001430511,2142.7999999523163,2338.2000000476837,2554.4000000953674,2770.2000000476837]","8","2","","","11477","24","1","2","win","no-go","0"
"pit-trial","143","1061420","0.0-29.0","battery-v0.2","","""event"",""trial"",""time""
""fullscreenenter"",""1"",""4542""
","
","
","""event"",""trial"",""time""
""fullscreenenter"",""1"",""4542""
","
","","","369.40000009536743","","","10","11477","5302","w","elianto","#f73b6a7A","-1"," ","0","-10","[1221.2000000476837,1536.6000001430511,1736.3000001907349,1940.2000000476837,2147,2338.5,2536.300000190735,2730,2903,3090.9000000953674]","10","2","","","11477","25","3","4","lose","no-go","0"
"pit-trial","144","1064294","0.0-30.0","battery-v0.2","","""event"",""trial"",""time""
""fullscreenenter"",""1"",""4542""
","
","
","""event"",""trial"",""time""
""fullscreenenter"",""1"",""4542""
","
","","","10.799999952316284","","","10","11477","5302","d","elianto","#3366ff99","-1"," ","0","0","[64.29999995231628,262.7999999523163,449.59999990463257,657.4000000953674,862.5,1055.5,1241,1435.9000000953674,1620.4000000953674,1829.0999999046326,2033.9000000953674,2230.5,2424.2999999523163,2604.0999999046326,2785.0999999046326]","15","2","","","11477","26","1","2","win","no-go","0"
"pit-trial","145","1067274","0.0-31.0","battery-v0.2","","""event"",""trial"",""time""
""fullscreenenter"",""1"",""4542""
","
","
","""event"",""trial"",""time""
""fullscreenenter"",""1"",""4542""
","
","","","115","","","10","11477","5302","e","elianto","#f73b6a7A"," "," ","1","0","[80.39999985694885,286.89999985694885,967.2999999523163,1171,1353.5999999046326,1542.7999999523163,1725,1926.7000000476837]","8","2","","","11477","27","2","3","lose","go","0"
"pit-trial","146","1070276","0.0-32.0","battery-v0.2","","""event"",""trial"",""time""
""fullscreenenter"",""1"",""4542""
","
","
","""event"",""trial"",""time""
""fullscreenenter"",""1"",""4542""
","
","","","144","","","10","11477","5302","j","elianto","#f73b6a7A"," "," ","1","-10","[994.7999999523163,1300.0999999046326,1477.5,1654,1860,2050.4000000953674,2304.0999999046326,2504.9000000953674,2730.7000000476837,2921.9000000953674]","10","2","","","11477","28","0","3","lose","go","1"
"pit-trial","147","1073190","0.0-33.0","battery-v0.2","","""event"",""trial"",""time""
""fullscreenenter"",""1"",""4542""
","
","
","""event"",""trial"",""time""
""fullscreenenter"",""1"",""4542""
","
","","","60.799999952316284","","","10","11477","5302","w","elianto","#f73b6a7A","-1"," ","0","-10","[145.89999985694885,392.2999999523163,911.5999999046326,1114.7999999523163,1375.6999998092651,1588.5,1814,2009.5999999046326,2228.0999999046326,2437.899999856949,2665.899999856949,2875.699999809265]","12","2","","","11477","29","3","4","lose","no-go","0"
"pit-trial","148","1078043","0.0-34.0","battery-v0.2","","""event"",""trial"",""time""
""fullscreenenter"",""1"",""4542""
","
","
","""event"",""trial"",""time""
""fullscreenenter"",""1"",""4542""
","
","","","-1","","","10","11477","5302","e","elianto","#f73b6a7A"," ","-1","0","-10","[154]","1","2","","","11477","30","2","3","lose","go","0"
"pit-trial","149","1081522","0.0-35.0","battery-v0.2","","""event"",""trial"",""time""
""fullscreenenter"",""1"",""4542""
","
","
","""event"",""trial"",""time""
""fullscreenenter"",""1"",""4542""
","
","","","626.5","","","10","11477","5302","d","elianto","#3366ff99","-1"," ","0","0","[1477.5999999046326,1683.5999999046326,1910.7000000476837]","3","2","","","11477","31","1","2","win","no-go","0"
"pit-trial","150","1086374","0.0-36.0","battery-v0.2","","""event"",""trial"",""time""
""fullscreenenter"",""1"",""4542""
","
","
","""event"",""trial"",""time""
""fullscreenenter"",""1"",""4542""
","
","","","-1","","","10","11477","5302","j","elianto","#f73b6a7A"," ","-1","0","-10","[]","0","2","","","11477","32","0","3","lose","go","0"
"pit-trial","151","1090043","0.0-37.0","battery-v0.2","","""event"",""trial"",""time""
""fullscreenenter"",""1"",""4542""
","
","
","""event"",""trial"",""time""
""fullscreenenter"",""1"",""4542""
","
","","","816.9000000953674","","","10","11477","5302","j","elianto","#f73b6a7A"," "," ","1","0","[1666.9000000953674]","1","2","","","11477","33","0","3","lose","go","0"
"pit-trial","152","1093273","0.0-38.0","battery-v0.2","","""event"",""trial"",""time""
""fullscreenenter"",""1"",""4542""
","
","
","""event"",""trial"",""time""
""fullscreenenter"",""1"",""4542""
","
","","","377","","","10","11477","5302","w","elianto","#f73b6a7A","-1"," ","0","-10","[1228]","1","2","","","11477","34","3","4","lose","no-go","0"
"pit-trial","153","1096537","0.0-39.0","battery-v0.2","","""event"",""trial"",""time""
""fullscreenenter"",""1"",""4542""
","
","
","""event"",""trial"",""time""
""fullscreenenter"",""1"",""4542""
","
","","","412.10000014305115","","","10","11477","5302","e","elianto","#f73b6a7A"," "," ","1","-10","[1262.5]","1","2","","","11477","35","2","3","lose","go","1"
"pit-trial","154","1099760","0.0-40.0","battery-v0.2","","""event"",""trial"",""time""
""fullscreenenter"",""1"",""4542""
","
","
","""event"",""trial"",""time""
""fullscreenenter"",""1"",""4542""
","
","","","371","","","10","11477","5302","d","elianto","#3366ff99","-1"," ","0","0","[1221.0999999046326]","1","2","","","11477","36","1","2","win","no-go","0"
"pit-trial","155","1104464","0.0-41.0","battery-v0.2","","""event"",""trial"",""time""
""fullscreenenter"",""1"",""4542""
","
","
","""event"",""trial"",""time""
""fullscreenenter"",""1"",""4542""
","
","","","1851.7000000476837","","","10","11477","5302","e","elianto","#f73b6a7A"," "," ","1","-10","[2702.0999999046326,2752.399999856949,3323.399999856949,3623.7000000476837]","4","2","","","11477","37","2","3","lose","go","1"
"pit-trial","156","1109317","0.0-42.0","battery-v0.2","","""event"",""trial"",""time""
""fullscreenenter"",""1"",""4542""
","
","
","""event"",""trial"",""time""
""fullscreenenter"",""1"",""4542""
","
","","","-1","","","10","11477","5302","j","elianto","#f73b6a7A"," ","-1","0","-10","[]","0","2","","","11477","38","0","3","lose","go","0"
"pit-trial","157","1114170","0.0-43.0","battery-v0.2","","""event"",""trial"",""time""
""fullscreenenter"",""1"",""4542""
","
","
","""event"",""trial"",""time""
""fullscreenenter"",""1"",""4542""
","
","","","-1","","","10","11477","5302","d","elianto","#3366ff99","-1","-1","1","+10","[]","0","2","","","11477","39","1","2","win","no-go","0"
"pit-trial","158","1117575","0.0-44.0","battery-v0.2","","""event"",""trial"",""time""
""fullscreenenter"",""1"",""4542""
","
","
","""event"",""trial"",""time""
""fullscreenenter"",""1"",""4542""
","
","","","552.4000000953674","","","10","11477","5302","w","elianto","#f73b6a7A","-1"," ","0","-10","[1403.2000000476837]","1","2","","","11477","40","3","4","lose","no-go","0"
"pit-trial","159","1121086","0.0-45.0","battery-v0.2","","""event"",""trial"",""time""
""fullscreenenter"",""1"",""4542""
","
","
","""event"",""trial"",""time""
""fullscreenenter"",""1"",""4542""
","
","","","659.5999999046326","","","10","11477","5302","d","elianto","#3366ff99","-1"," ","0","0","[1510]","1","2","","","11477","41","1","2","win","no-go","0"
"pit-trial","160","1124468","0.0-46.0","battery-v0.2","","""event"",""trial"",""time""
""fullscreenenter"",""1"",""4542""
","
","
","""event"",""trial"",""time""
""fullscreenenter"",""1"",""4542""
","
","","","529.5999999046326","","","10","11477","5302","j","elianto","#f73b6a7A"," "," ","1","0","[1379.7999999523163]","1","2","","","11477","42","0","3","lose","go","0"
"pit-trial","161","1129321","0.0-47.0","battery-v0.2","","""event"",""trial"",""time""
""fullscreenenter"",""1"",""4542""
","
","
","""event"",""trial"",""time""
""fullscreenenter"",""1"",""4542""
","
","","","-1","","","10","11477","5302","w","elianto","#f73b6a7A","-1","-1","1","0","[]","0","2","","","11477","43","3","4","lose","no-go","0"
"pit-trial","162","1133074","0.0-48.0","battery-v0.2","","""event"",""trial"",""time""
""fullscreenenter"",""1"",""4542""
","
","
","""event"",""trial"",""time""
""fullscreenenter"",""1"",""4542""
","
","","","901","","","10","11477","5302","e","elianto","#f73b6a7A"," "," ","1","-10","[1751.7000000476837]","1","2","","","11477","44","2","3","lose","go","1"
"pit-trial","163","1136652","0.0-49.0","battery-v0.2","","""event"",""trial"",""time""
""fullscreenenter"",""1"",""4542""
","
","
","""event"",""trial"",""time""
""fullscreenenter"",""1"",""4542""
","
","","","725.4000000953674","","","10","11477","5302","j","elianto","#f73b6a7A"," "," ","1","-10","[1576.8999998569489]","1","2","","","11477","45","0","3","lose","go","1"
"pit-trial","164","1140370","0.0-50.0","battery-v0.2","","""event"",""trial"",""time""
""fullscreenenter"",""1"",""4542""
","
","
","""event"",""trial"",""time""
""fullscreenenter"",""1"",""4542""
","
","","","864.2000000476837","","","10","11477","5302","e","elianto","#f73b6a7A"," "," ","1","0","[1715.0999999046326]","1","2","","","11477","46","2","3","lose","go","0"
"pit-trial","165","1145221","0.0-51.0","battery-v0.2","","""event"",""trial"",""time""
""fullscreenenter"",""1"",""4542""
","
","
","""event"",""trial"",""time""
""fullscreenenter"",""1"",""4542""
","
","","","-1","","","10","11477","5302","d","elianto","#3366ff99","-1","-1","1","0","[]","0","2","","","11477","47","1","2","win","no-go","1"
"pit-trial","166","1150074","0.0-52.0","battery-v0.2","","""event"",""trial"",""time""
""fullscreenenter"",""1"",""4542""
","
","
","""event"",""trial"",""time""
""fullscreenenter"",""1"",""4542""
","
","","","-1","","","10","11477","5302","w","elianto","#f73b6a7A","-1","-1","1","-10","[]","0","2","","","11477","48","3","4","lose","no-go","1"
"pit-trial","167","1154861","0.0-53.0","battery-v0.2","","""event"",""trial"",""time""
""fullscreenenter"",""1"",""4542""
","
","
","""event"",""trial"",""time""
""fullscreenenter"",""1"",""4542""
","
","","","1933.9000000953674","","","10","11477","5302","w","elianto","#f73b6a7A","-1"," ","0","-10","[2784.9000000953674]","1","2","","","11477","49","3","4","lose","no-go","0"
"pit-trial","168","1159713","0.0-54.0","battery-v0.2","","""event"",""trial"",""time""
""fullscreenenter"",""1"",""4542""
","
","
","""event"",""trial"",""time""
""fullscreenenter"",""1"",""4542""
","
","","","-1","","","10","11477","5302","d","elianto","#3366ff99","-1","-1","1","0","[]","0","2","","","11477","50","1","2","win","no-go","1"
"pit-trial","169","1164567","0.0-55.0","battery-v0.2","","""event"",""trial"",""time""
""fullscreenenter"",""1"",""4542""
","
","
","""event"",""trial"",""time""
""fullscreenenter"",""1"",""4542""
","
","","","-1","","","10","11477","5302","j","elianto","#f73b6a7A"," ","-1","0","-10","[]","0","2","","","11477","51","0","3","lose","go","0"
"pit-trial","170","1169419","0.0-56.0","battery-v0.2","","""event"",""trial"",""time""
""fullscreenenter"",""1"",""4542""
","
","
","""event"",""trial"",""time""
""fullscreenenter"",""1"",""4542""
","
","","","-1","","","10","11477","5302","e","elianto","#f73b6a7A"," ","-1","0","-10","[]","0","2","","","11477","52","2","3","lose","go","0"
"pit-trial","171","1172644","0.0-57.0","battery-v0.2","","""event"",""trial"",""time""
""fullscreenenter"",""1"",""4542""
","
","
","""event"",""trial"",""time""
""fullscreenenter"",""1"",""4542""
","
","","","372.89999985694885","","","10","11477","5302","j","elianto","#f73b6a7A"," "," ","1","0","[71.40000009536743,290.30000019073486,507.30000019073486,704.3000001907349,1224]","5","2","","","11477","53","0","3","lose","go","0"
"pit-trial","172","1175925","0.0-58.0","battery-v0.2","","""event"",""trial"",""time""
""fullscreenenter"",""1"",""4542""
","
","
","""event"",""trial"",""time""
""fullscreenenter"",""1"",""4542""
","
","","","427.7000000476837","","","10","11477","5302","w","elianto","#f73b6a7A","-1"," ","0","-10","[1278.2000000476837]","1","2","","","11477","54","3","4","lose","no-go","0"
"pit-trial","173","1180778","0.0-59.0","battery-v0.2","","""event"",""trial"",""time""
""fullscreenenter"",""1"",""4542""
","
","
","""event"",""trial"",""time""
""fullscreenenter"",""1"",""4542""
","
","","","-1","","","10","11477","5302","d","elianto","#3366ff99","-1","-1","1","+10","[]","0","2","","","11477","55","1","2","win","no-go","0"
"pit-trial","174","1184178","0.0-60.0","battery-v0.2","","""event"",""trial"",""time""
""fullscreenenter"",""1"",""4542""
","
","
","""event"",""trial"",""time""
""fullscreenenter"",""1"",""4542""
","
","","","547.4000000953674","","","10","11477","5302","e","elianto","#f73b6a7A"," "," ","1","0","[1398.2999999523163]","1","2","","","11477","56","2","3","lose","go","0"
"pit-trial","175","1189031","0.0-61.0","battery-v0.2","","""event"",""trial"",""time""
""fullscreenenter"",""1"",""4542""
","
","
","""event"",""trial"",""time""
""fullscreenenter"",""1"",""4542""
","
","","","-1","","","10","11477","5302","s","elianto","#3366ff99"," ","-1","0","0","[]","0","2","","","11477","57","4","1","win","go","0"
"pit-trial","176","1192660","0.0-62.0","battery-v0.2","","""event"",""trial"",""time""
""fullscreenenter"",""1"",""4542""
","
","
","""event"",""trial"",""time""
""fullscreenenter"",""1"",""4542""
","
","","","776.5","","","10","11477","5302","w","elianto","#f73b6a7A","-1"," ","0","0","[1627.5]","1","2","","","11477","58","3","4","lose","no-go","1"
"pit-trial","177","1197514","0.0-63.0","battery-v0.2","","""event"",""trial"",""time""
""fullscreenenter"",""1"",""4542""
","
","
","""event"",""trial"",""time""
""fullscreenenter"",""1"",""4542""
","
","","","-1","","","10","11477","5302","e","elianto","#f73b6a7A"," ","-1","0","0","[]","0","2","","","11477","59","2","3","lose","go","1"
"pit-trial","178","1201064","0.0-64.0","battery-v0.2","","""event"",""trial"",""time""
""fullscreenenter"",""1"",""4542""
","
","
","""event"",""trial"",""time""
""fullscreenenter"",""1"",""4542""
","
","","","697.2999999523163","","","10","11477","5302","j","elianto","#f73b6a7A"," "," ","1","0","[1547.7999999523163]","1","2","","","11477","60","0","3","lose","go","0"
"pit-trial","179","1204590","0.0-65.0","battery-v0.2","","""event"",""trial"",""time""
""fullscreenenter"",""1"",""4542""
","
","
","""event"",""trial"",""time""
""fullscreenenter"",""1"",""4542""
","
","","","674.7000000476837","","","10","11477","5302","w","elianto","#f73b6a7A","-1"," ","0","-10","[1525.2000000476837]","1","2","","","11477","61","3","4","lose","no-go","0"
"pit-trial","180","1208433","0.0-66.0","battery-v0.2","","""event"",""trial"",""time""
""fullscreenenter"",""1"",""4542""
","
","
","""event"",""trial"",""time""
""fullscreenenter"",""1"",""4542""
","
","","","991","","","10","11477","5302","s","elianto","#3366ff99"," "," ","1","+10","[1841.5999999046326]","1","2","","","11477","62","4","1","win","go","0"
"pit-trial","181","1213287","0.0-67.0","battery-v0.2","","""event"",""trial"",""time""
""fullscreenenter"",""1"",""4542""
","
","
","""event"",""trial"",""time""
""fullscreenenter"",""1"",""4542""
","
","","","-1","","","10","11477","5302","e","elianto","#f73b6a7A"," ","-1","0","-10","[]","0","2","","","11477","63","2","3","lose","go","0"
"pit-trial","182","1218140","0.0-68.0","battery-v0.2","","""event"",""trial"",""time""
""fullscreenenter"",""1"",""4542""
","
","
","""event"",""trial"",""time""
""fullscreenenter"",""1"",""4542""
","
","","","-1","","","10","11477","5302","d","elianto","#3366ff99","-1","-1","1","+10","[]","0","2","","","11477","64","1","2","win","no-go","0"
"pit-trial","183","1221928","0.0-69.0","battery-v0.2","","""event"",""trial"",""time""
""fullscreenenter"",""1"",""4542""
","
","
","""event"",""trial"",""time""
""fullscreenenter"",""1"",""4542""
","
","","","935.5999999046326","","","10","11477","5302","w","elianto","#f73b6a7A","-1"," ","0","-10","[1786.0999999046326]","1","2","","","11477","65","3","4","lose","no-go","0"
"pit-trial","184","1226563","0.0-70.0","battery-v0.2","","""event"",""trial"",""time""
""fullscreenenter"",""1"",""4542""
","
","
","""event"",""trial"",""time""
""fullscreenenter"",""1"",""4542""
","
","","","1778.3999998569489","","","10","11477","5302","p","elianto","#3366ff99","-1"," ","0","+10","[2629.0999999046326]","1","2","","","11477","66","5","2","win","no-go","1"
"pit-trial","185","1230470","0.0-71.0","battery-v0.2","","""event"",""trial"",""time""
""fullscreenenter"",""1"",""4542""
","
","
","""event"",""trial"",""time""
""fullscreenenter"",""1"",""4542""
","
","","","1054.7999999523163","","","10","11477","5302","s","elianto","#3366ff99"," "," ","1","+10","[1905.0999999046326]","1","2","","","11477","67","4","1","win","go","0"
"pit-trial","186","1235322","0.0-72.0","battery-v0.2","","""event"",""trial"",""time""
""fullscreenenter"",""1"",""4542""
","
","
","""event"",""trial"",""time""
""fullscreenenter"",""1"",""4542""
","
","","","-1","","","10","11477","5302","d","elianto","#3366ff99","-1","-1","1","+10","[]","0","2","","","11477","68","1","2","win","no-go","0"
"pit-trial","187","1240175","0.0-73.0","battery-v0.2","","""event"",""trial"",""time""
""fullscreenenter"",""1"",""4542""
","
","
","""event"",""trial"",""time""
""fullscreenenter"",""1"",""4542""
","
","","","-1","","","10","11477","5302","e","elianto","#f73b6a7A"," ","-1","0","-10","[]","0","2","","","11477","69","2","3","lose","go","0"
"pit-trial","188","1244264","0.0-74.0","battery-v0.2","","""event"",""trial"",""time""
""fullscreenenter"",""1"",""4542""
","
","
","""event"",""trial"",""time""
""fullscreenenter"",""1"",""4542""
","
","","","1236.0999999046326","","","10","11477","5302","s","elianto","#3366ff99"," "," ","1","+10","[2086.5999999046326]","1","2","","","11477","70","4","1","win","go","0"
"pit-trial","189","1248647","0.0-75.0","battery-v0.2","","""event"",""trial"",""time""
""fullscreenenter"",""1"",""4542""
","
","
","""event"",""trial"",""time""
""fullscreenenter"",""1"",""4542""
","
","","","1530.5","","","10","11477","5302","p","elianto","#3366ff99","-1"," ","0","0","[2380.7999999523163,3255.7000000476837,3478.600000143051,3731.100000143051]","4","2","","","11477","71","5","2","win","no-go","0"
"pit-trial","190","1252069","0.0-76.0","battery-v0.2","","""event"",""trial"",""time""
""fullscreenenter"",""1"",""4542""
","
","
","""event"",""trial"",""time""
""fullscreenenter"",""1"",""4542""
","
","","","569.3999998569489","","","10","11477","5302","d","elianto","#3366ff99","-1"," ","0","0","[1421.2000000476837]","1","2","","","11477","72","1","2","win","no-go","0"
"pit-trial","191","1255812","0.0-77.0","battery-v0.2","","""event"",""trial"",""time""
""fullscreenenter"",""1"",""4542""
","
","
","""event"",""trial"",""time""
""fullscreenenter"",""1"",""4542""
","
","","","890","","","10","11477","5302","s","elianto","#3366ff99"," "," ","1","+10","[1740.5999999046326]","1","2","","","11477","73","4","1","win","go","0"
"pit-trial","192","1260665","0.0-78.0","battery-v0.2","","""event"",""trial"",""time""
""fullscreenenter"",""1"",""4542""
","
","
","""event"",""trial"",""time""
""fullscreenenter"",""1"",""4542""
","
","","","-1","","","10","11477","5302","w","elianto","#f73b6a7A","-1","-1","1","0","[]","0","2","","","11477","74","3","4","lose","no-go","0"
"pit-trial","193","1265038","0.0-79.0","battery-v0.2","","""event"",""trial"",""time""
""fullscreenenter"",""1"",""4542""
","
","
","""event"",""trial"",""time""
""fullscreenenter"",""1"",""4542""
","
","","","1521.5","","","10","11477","5302","p","elianto","#3366ff99","-1"," ","0","0","[2372]","1","2","","","11477","75","5","2","win","no-go","0"
"pit-trial","194","1269890","0.0-80.0","battery-v0.2","","""event"",""trial"",""time""
""fullscreenenter"",""1"",""4542""
","
","
","""event"",""trial"",""time""
""fullscreenenter"",""1"",""4542""
","
","","","-1","","","10","11477","5302","d","elianto","#3366ff99","-1","-1","1","+10","[]","0","2","","","11477","76","1","2","win","no-go","0"
"pit-trial","195","1274419","0.0-81.0","battery-v0.2","","""event"",""trial"",""time""
""fullscreenenter"",""1"",""4542""
","
","
","""event"",""trial"",""time""
""fullscreenenter"",""1"",""4542""
","
","","","1675.4000000953674","","","10","11477","5302","s","elianto","#3366ff99"," "," ","1","+10","[2526.5]","1","2","","","11477","77","4","1","win","go","0"
"pit-trial","196","1278867","0.0-82.0","battery-v0.2","","""event"",""trial"",""time""
""fullscreenenter"",""1"",""4542""
","
","
","""event"",""trial"",""time""
""fullscreenenter"",""1"",""4542""
","
","","","1596.1000001430511","","","10","11477","5302","w","elianto","#f73b6a7A","-1"," ","0","-10","[2446.600000143051]","1","2","","","11477","78","3","4","lose","no-go","0"
"pit-trial","197","1282931","0.0-83.0","battery-v0.2","","""event"",""trial"",""time""
""fullscreenenter"",""1"",""4542""
","
","
","""event"",""trial"",""time""
""fullscreenenter"",""1"",""4542""
","
","","","1211.2000000476837","","","10","11477","5302","p","elianto","#3366ff99","-1"," ","0","+10","[2061.2999999523163]","1","2","","","11477","79","5","2","win","no-go","1"
"pit-trial","198","1287283","0.0-84.0","battery-v0.2","","""event"",""trial"",""time""
""fullscreenenter"",""1"",""4542""
","
","
","""event"",""trial"",""time""
""fullscreenenter"",""1"",""4542""
","
","","","1500.2999999523163","","","10","11477","5302","s","elianto","#3366ff99"," "," ","1","+10","[2350.7000000476837]","1","2","","","11477","80","4","1","win","go","0"
"pit-trial","199","1291522","0.0-85.0","battery-v0.2","","""event"",""trial"",""time""
""fullscreenenter"",""1"",""4542""
","
","
","""event"",""trial"",""time""
""fullscreenenter"",""1"",""4542""
","
","","","1387.4000000953674","","","10","11477","5302","a","elianto","#f73b6a7A","-1"," ","0","0","[2238.100000143051]","1","2","","","11477","81","7","4","lose","no-go","1"
"pit-trial","200","1296374","0.0-86.0","battery-v0.2","","""event"",""trial"",""time""
""fullscreenenter"",""1"",""4542""
","
","
","""event"",""trial"",""time""
""fullscreenenter"",""1"",""4542""
","
","","","-1","","","10","11477","5302","w","elianto","#f73b6a7A","-1","-1","1","0","[]","0","2","","","11477","82","3","4","lose","no-go","0"
"pit-trial","201","1300715","0.0-87.0","battery-v0.2","","""event"",""trial"",""time""
""fullscreenenter"",""1"",""4542""
","
","
","""event"",""trial"",""time""
""fullscreenenter"",""1"",""4542""
","
","","","1489.0999999046326","","","10","11477","5302","p","elianto","#3366ff99","-1"," ","0","0","[2339.199999809265]","1","2","","","11477","83","5","2","win","no-go","0"
"pit-trial","202","1304731","0.0-88.0","battery-v0.2","","""event"",""trial"",""time""
""fullscreenenter"",""1"",""4542""
","
","
","""event"",""trial"",""time""
""fullscreenenter"",""1"",""4542""
","
","","","1163.5","","","10","11477","5302","s","elianto","#3366ff99"," "," ","1","+10","[2013.8000001907349]","1","2","","","11477","84","4","1","win","go","0"
"pit-trial","203","1309591","0.0-89.0","battery-v0.2","","""event"",""trial"",""time""
""fullscreenenter"",""1"",""4542""
","
","
","""event"",""trial"",""time""
""fullscreenenter"",""1"",""4542""
","
","","","-1","","","10","11477","5302","a","elianto","#f73b6a7A","-1","-1","1","0","[]","0","2","","","11477","85","7","4","lose","no-go","0"
"pit-trial","204","1313433","0.0-90.0","battery-v0.2","","""event"",""trial"",""time""
""fullscreenenter"",""1"",""4542""
","
","
","""event"",""trial"",""time""
""fullscreenenter"",""1"",""4542""
","
","","","989.2999999523163","","","10","11477","5302","s","elianto","#3366ff99"," "," ","1","+10","[1839.7999999523163]","1","2","","","11477","86","4","1","win","go","0"
"pit-trial","205","1316771","0.0-91.0","battery-v0.2","","""event"",""trial"",""time""
""fullscreenenter"",""1"",""4542""
","
","
","""event"",""trial"",""time""
""fullscreenenter"",""1"",""4542""
","
","","","487.09999990463257","","","10","11477","5302","p","elianto","#3366ff99","-1"," ","0","0","[1337.7000000476837]","1","2","","","11477","87","5","2","win","no-go","0"
"pit-trial","206","1321623","0.0-92.0","battery-v0.2","","""event"",""trial"",""time""
""fullscreenenter"",""1"",""4542""
","
","
","""event"",""trial"",""time""
""fullscreenenter"",""1"",""4542""
","
","","","-1","","","10","11477","5302","g","elianto","#f73b6a7A"," ","-1","0","-10","[]","0","2","","","11477","88","6","3","lose","go","0"
"pit-trial","207","1325533","0.0-93.0","battery-v0.2","","""event"",""trial"",""time""
""fullscreenenter"",""1"",""4542""
","
","
","""event"",""trial"",""time""
""fullscreenenter"",""1"",""4542""
","
","","","1056.3000001907349","","","10","11477","5302","s","elianto","#3366ff99"," "," ","1","+10","[1907.8000001907349]","1","2","","","11477","89","4","1","win","go","0"
"pit-trial","208","1329050","0.0-94.0","battery-v0.2","","""event"",""trial"",""time""
""fullscreenenter"",""1"",""4542""
","
","
","""event"",""trial"",""time""
""fullscreenenter"",""1"",""4542""
","
","","","664.2999999523163","","","10","11477","5302","g","elianto","#f73b6a7A"," "," ","1","0","[1515.3999998569489]","1","2","","","11477","90","6","3","lose","go","0"
"pit-trial","209","1332782","0.0-95.0","battery-v0.2","","""event"",""trial"",""time""
""fullscreenenter"",""1"",""4542""
","
","
","""event"",""trial"",""time""
""fullscreenenter"",""1"",""4542""
","
","","","879.0999999046326","","","10","11477","5302","p","elianto","#3366ff99","-1"," ","0","0","[1730.7000000476837]","1","2","","","11477","91","5","2","win","no-go","0"
"pit-trial","210","1337479","0.0-96.0","battery-v0.2","","""event"",""trial"",""time""
""fullscreenenter"",""1"",""4542""
","
","
","""event"",""trial"",""time""
""fullscreenenter"",""1"",""4542""
","
","","","1844.5999999046326","","","10","11477","5302","a","elianto","#f73b6a7A","-1"," ","0","0","[2695.7000000476837]","1","2","","","11477","92","7","4","lose","no-go","1"
"pit-trial","211","1341147","0.0-97.0","battery-v0.2","","""event"",""trial"",""time""
""fullscreenenter"",""1"",""4542""
","
","
","""event"",""trial"",""time""
""fullscreenenter"",""1"",""4542""
","
","","","815.0999999046326","","","10","11477","5302","a","elianto","#f73b6a7A","-1"," ","0","-10","[1665.7999999523163]","1","2","","","11477","93","7","4","lose","no-go","0"
"pit-trial","212","1344954","0.0-98.0","battery-v0.2","","""event"",""trial"",""time""
""fullscreenenter"",""1"",""4542""
","
","
","""event"",""trial"",""time""
""fullscreenenter"",""1"",""4542""
","
","","","955","","","10","11477","5302","g","elianto","#f73b6a7A"," "," ","1","0","[1805.3999998569489]","1","2","","","11477","94","6","3","lose","go","0"
"pit-trial","213","1348845","0.0-99.0","battery-v0.2","","""event"",""trial"",""time""
""fullscreenenter"",""1"",""4542""
","
","
","""event"",""trial"",""time""
""fullscreenenter"",""1"",""4542""
","
","","","1038.0999999046326","","","10","11477","5302","p","elianto","#3366ff99","-1"," ","0","0","[1888.8999998569489]","1","2","","","11477","95","5","2","win","no-go","0"
"pit-trial","214","1352495","0.0-100.0","battery-v0.2","","""event"",""trial"",""time""
""fullscreenenter"",""1"",""4542""
","
","
","""event"",""trial"",""time""
""fullscreenenter"",""1"",""4542""
","
","","","796.5999999046326","","","10","11477","5302","l","elianto","#3366ff99"," "," ","1","+10","[1647.8999998569489]","1","2","","","11477","96","8","1","win","go","0"
"pit-trial","215","1355901","0.0-101.0","battery-v0.2","","""event"",""trial"",""time""
""fullscreenenter"",""1"",""4542""
","
","
","""event"",""trial"",""time""
""fullscreenenter"",""1"",""4542""
","
","","","553.5","","","10","11477","5302","l","elianto","#3366ff99"," "," ","1","+10","[1404]","1","2","","","11477","97","8","1","win","go","0"
"pit-trial","216","1359594","0.0-102.0","battery-v0.2","","""event"",""trial"",""time""
""fullscreenenter"",""1"",""4542""
","
","
","""event"",""trial"",""time""
""fullscreenenter"",""1"",""4542""
","
","","","840.9000000953674","","","10","11477","5302","a","elianto","#f73b6a7A","-1"," ","0","-10","[1691.0999999046326]","1","2","","","11477","98","7","4","lose","no-go","0"
"pit-trial","217","1363271","0.0-103.0","battery-v0.2","","""event"",""trial"",""time""
""fullscreenenter"",""1"",""4542""
","
","
","""event"",""trial"",""time""
""fullscreenenter"",""1"",""4542""
","
","","","824.2999999523163","","","10","11477","5302","g","elianto","#f73b6a7A"," "," ","1","0","[1674.7999999523163]","1","2","","","11477","99","6","3","lose","go","0"
"pit-trial","218","1366840","0.0-104.0","battery-v0.2","","""event"",""trial"",""time""
""fullscreenenter"",""1"",""4542""
","
","
","""event"",""trial"",""time""
""fullscreenenter"",""1"",""4542""
","
","","","716.5","","","10","11477","5302","p","elianto","#3366ff99","-1"," ","0","0","[1568.0999999046326]","1","2","","","11477","100","5","2","win","no-go","0"
"pit-trial","219","1370382","0.0-105.0","battery-v0.2","","""event"",""trial"",""time""
""fullscreenenter"",""1"",""4542""
","
","
","""event"",""trial"",""time""
""fullscreenenter"",""1"",""4542""
","
","","","690.2999999523163","","","10","11477","5302","p","elianto","#3366ff99","-1"," ","0","0","[1540.5999999046326]","1","2","","","11477","101","5","2","win","no-go","0"
"pit-trial","220","1374449","0.0-106.0","battery-v0.2","","""event"",""trial"",""time""
""fullscreenenter"",""1"",""4542""
","
","
","""event"",""trial"",""time""
""fullscreenenter"",""1"",""4542""
","
","","","1214.9000000953674","","","10","11477","5302","u","elianto","#3366ff99"," "," ","1","0","[2065.7000000476837]","1","2","","","11477","102","9","1","win","go","1"
"pit-trial","221","1378056","0.0-107.0","battery-v0.2","","""event"",""trial"",""time""
""fullscreenenter"",""1"",""4542""
","
","
","""event"",""trial"",""time""
""fullscreenenter"",""1"",""4542""
","
","","","755.2999999523163","","","10","11477","5302","l","elianto","#3366ff99"," "," ","1","+10","[1605.6999998092651]","1","2","","","11477","103","8","1","win","go","0"
"pit-trial","222","1382482","0.0-108.0","battery-v0.2","","""event"",""trial"",""time""
""fullscreenenter"",""1"",""4542""
","
","
","""event"",""trial"",""time""
""fullscreenenter"",""1"",""4542""
","
","","","1573.4000000953674","","","10","11477","5302","a","elianto","#f73b6a7A","-1"," ","0","-10","[2423.5]","1","2","","","11477","104","7","4","lose","no-go","0"
"pit-trial","223","1387336","0.0-109.0","battery-v0.2","","""event"",""trial"",""time""
""fullscreenenter"",""1"",""4542""
","
","
","""event"",""trial"",""time""
""fullscreenenter"",""1"",""4542""
","
","","","-1","","","10","11477","5302","u","elianto","#3366ff99"," ","-1","0","0","[]","0","2","","","11477","105","9","1","win","go","0"
"pit-trial","224","1391470","0.0-110.0","battery-v0.2","","""event"",""trial"",""time""
""fullscreenenter"",""1"",""4542""
","
","
","""event"",""trial"",""time""
""fullscreenenter"",""1"",""4542""
","
","","","1282.2000000476837","","","10","11477","5302","s","elianto","#3366ff99"," "," ","1","+10","[2132.5]","1","2","","","11477","106","4","1","win","go","0"
"pit-trial","225","1395159","0.0-111.0","battery-v0.2","","""event"",""trial"",""time""
""fullscreenenter"",""1"",""4542""
","
","
","""event"",""trial"",""time""
""fullscreenenter"",""1"",""4542""
","
","","","837","","","10","11477","5302","l","elianto","#3366ff99"," "," ","1","+10","[1687.2000000476837]","1","2","","","11477","107","8","1","win","go","0"
"pit-trial","226","1399053","0.0-112.0","battery-v0.2","","""event"",""trial"",""time""
""fullscreenenter"",""1"",""4542""
","
","
","""event"",""trial"",""time""
""fullscreenenter"",""1"",""4542""
","
","","","1041.7000000476837","","","10","11477","5302","g","elianto","#f73b6a7A"," "," ","1","0","[1892.2999999523163]","1","2","","","11477","108","6","3","lose","go","0"
"pit-trial","227","1403905","0.0-113.0","battery-v0.2","","""event"",""trial"",""time""
""fullscreenenter"",""1"",""4542""
","
","
","""event"",""trial"",""time""
""fullscreenenter"",""1"",""4542""
","
","","","-1","","","10","11477","5302","u","elianto","#3366ff99"," ","-1","0","0","[]","0","2","","","11477","109","9","1","win","go","0"
"pit-trial","228","1407692","0.0-114.0","battery-v0.2","","""event"",""trial"",""time""
""fullscreenenter"",""1"",""4542""
","
","
","""event"",""trial"",""time""
""fullscreenenter"",""1"",""4542""
","
","","","932.5","","","10","11477","5302","l","elianto","#3366ff99"," "," ","1","+10","[1784.1000001430511]","1","2","","","11477","110","8","1","win","go","0"
"pit-trial","229","1411513","0.0-115.0","battery-v0.2","","""event"",""trial"",""time""
""fullscreenenter"",""1"",""4542""
","
","
","""event"",""trial"",""time""
""fullscreenenter"",""1"",""4542""
","
","","","970","","","10","11477","5302","g","elianto","#f73b6a7A"," "," ","1","0","[1820.2000000476837]","1","2","","","11477","111","6","3","lose","go","0"
"pit-trial","230","1415508","0.0-116.0","battery-v0.2","","""event"",""trial"",""time""
""fullscreenenter"",""1"",""4542""
","
","
","""event"",""trial"",""time""
""fullscreenenter"",""1"",""4542""
","
","","","1141.7999999523163","","","10","11477","5302","p","elianto","#3366ff99","-1"," ","0","0","[1992.7999999523163]","1","2","","","11477","112","5","2","win","no-go","0"
"pit-trial","231","1419633","0.0-117.0","battery-v0.2","","""event"",""trial"",""time""
""fullscreenenter"",""1"",""4542""
","
","
","""event"",""trial"",""time""
""fullscreenenter"",""1"",""4542""
","
","","","1273.2999999523163","","","10","11477","5302","l","elianto","#3366ff99"," "," ","1","+10","[2123.899999856949]","1","2","","","11477","113","8","1","win","go","0"
"pit-trial","232","1423251","0.0-118.0","battery-v0.2","","""event"",""trial"",""time""
""fullscreenenter"",""1"",""4542""
","
","
","""event"",""trial"",""time""
""fullscreenenter"",""1"",""4542""
","
","","","764.8999998569489","","","10","11477","5302","g","elianto","#f73b6a7A"," "," ","1","0","[1616.5]","1","2","","","11477","114","6","3","lose","go","0"
"pit-trial","233","1427815","0.0-119.0","battery-v0.2","","""event"",""trial"",""time""
""fullscreenenter"",""1"",""4542""
","
","
","""event"",""trial"",""time""
""fullscreenenter"",""1"",""4542""
","
","","","1710.7999999523163","","","10","11477","5302","u","elianto","#3366ff99"," "," ","1","+10","[2561.399999856949]","1","2","","","11477","115","9","1","win","go","0"
"pit-trial","234","1431960","0.0-120.0","battery-v0.2","","""event"",""trial"",""time""
""fullscreenenter"",""1"",""4542""
","
","
","""event"",""trial"",""time""
""fullscreenenter"",""1"",""4542""
","
","","","1293.6000001430511","","","10","11477","5302","p","elianto","#3366ff99","-1"," ","0","+10","[2144.4000000953674]","1","2","","","11477","116","5","2","win","no-go","1"
"pit-trial","235","1435921","0.0-121.0","battery-v0.2","","""event"",""trial"",""time""
""fullscreenenter"",""1"",""4542""
","
","
","""event"",""trial"",""time""
""fullscreenenter"",""1"",""4542""
","
","","","1107.9000000953674","","","10","11477","5302","p","elianto","#3366ff99","-1"," ","0","+10","[1958.5]","1","2","","","11477","117","5","2","win","no-go","1"
"pit-trial","236","1440130","0.0-122.0","battery-v0.2","","""event"",""trial"",""time""
""fullscreenenter"",""1"",""4542""
","
","
","""event"",""trial"",""time""
""fullscreenenter"",""1"",""4542""
","
","","","1357.1999998092651","","","10","11477","5302","l","elianto","#3366ff99"," "," ","1","+10","[2207.5]","1","2","","","11477","118","8","1","win","go","0"
"pit-trial","237","1444086","0.0-123.0","battery-v0.2","","""event"",""trial"",""time""
""fullscreenenter"",""1"",""4542""
","
","
","""event"",""trial"",""time""
""fullscreenenter"",""1"",""4542""
","
","","","1104.8999998569489","","","10","11477","5302","u","elianto","#3366ff99"," "," ","1","0","[1955]","1","2","","","11477","119","9","1","win","go","1"
"pit-trial","238","1448272","0.0-124.0","battery-v0.2","","""event"",""trial"",""time""
""fullscreenenter"",""1"",""4542""
","
","
","""event"",""trial"",""time""
""fullscreenenter"",""1"",""4542""
","
","","","1334.5","","","10","11477","5302","g","elianto","#f73b6a7A"," "," ","1","-10","[2185.2000000476837]","1","2","","","11477","120","6","3","lose","go","1"
"pit-trial","239","1452002","0.0-125.0","battery-v0.2","","""event"",""trial"",""time""
""fullscreenenter"",""1"",""4542""
","
","
","""event"",""trial"",""time""
""fullscreenenter"",""1"",""4542""
","
","","","877.2000000476837","","","10","11477","5302","u","elianto","#3366ff99"," "," ","1","0","[1727.8000001907349]","1","2","","","11477","121","9","1","win","go","1"
"pit-trial","240","1455946","0.0-126.0","battery-v0.2","","""event"",""trial"",""time""
""fullscreenenter"",""1"",""4542""
","
","
","""event"",""trial"",""time""
""fullscreenenter"",""1"",""4542""
","
","","","1091.9000000953674","","","10","11477","5302","a","elianto","#f73b6a7A","-1"," ","0","-10","[1942.7000000476837]","1","2","","","11477","122","7","4","lose","no-go","0"
"pit-trial","241","1459925","0.0-127.0","battery-v0.2","","""event"",""trial"",""time""
""fullscreenenter"",""1"",""4542""
","
","
","""event"",""trial"",""time""
""fullscreenenter"",""1"",""4542""
","
","","","1126.5999999046326","","","10","11477","5302","g","elianto","#f73b6a7A"," "," ","1","0","[1977]","1","2","","","11477","123","6","3","lose","go","0"
"pit-trial","242","1463650","0.0-128.0","battery-v0.2","","""event"",""trial"",""time""
""fullscreenenter"",""1"",""4542""
","
","
","""event"",""trial"",""time""
""fullscreenenter"",""1"",""4542""
","
","","","873.4000000953674","","","10","11477","5302","l","elianto","#3366ff99"," "," ","1","+10","[1724.1000001430511]","1","2","","","11477","124","8","1","win","go","0"
"pit-trial","243","1467156","0.0-129.0","battery-v0.2","","""event"",""trial"",""time""
""fullscreenenter"",""1"",""4542""
","
","
","""event"",""trial"",""time""
""fullscreenenter"",""1"",""4542""
","
","","","654.3000001907349","","","10","11477","5302","l","elianto","#3366ff99"," "," ","1","+10","[1504.8000001907349]","1","2","","","11477","125","8","1","win","go","0"
"pit-trial","244","1470987","0.0-130.0","battery-v0.2","","""event"",""trial"",""time""
""fullscreenenter"",""1"",""4542""
","
","
","""event"",""trial"",""time""
""fullscreenenter"",""1"",""4542""
","
","","","979.2000000476837","","","10","11477","5302","g","elianto","#f73b6a7A"," "," ","1","0","[1829.5]","1","2","","","11477","126","6","3","lose","go","0"
"pit-trial","245","1474558","0.0-131.0","battery-v0.2","","""event"",""trial"",""time""
""fullscreenenter"",""1"",""4542""
","
","
","""event"",""trial"",""time""
""fullscreenenter"",""1"",""4542""
","
","","","716.7000000476837","","","10","11477","5302","a","elianto","#f73b6a7A","-1"," ","0","-10","[1567.1000001430511]","1","2","","","11477","127","7","4","lose","no-go","0"
"pit-trial","246","1478855","0.0-132.0","battery-v0.2","","""event"",""trial"",""time""
""fullscreenenter"",""1"",""4542""
","
","
","""event"",""trial"",""time""
""fullscreenenter"",""1"",""4542""
","
","","","1444.2000000476837","","","10","11477","5302","u","elianto","#3366ff99"," "," ","1","+10","[2295.100000143051]","1","2","","","11477","128","9","1","win","go","0"
"pit-trial","247","1483707","0.0-133.0","battery-v0.2","","""event"",""trial"",""time""
""fullscreenenter"",""1"",""4542""
","
","
","""event"",""trial"",""time""
""fullscreenenter"",""1"",""4542""
","
","","","-1","","","10","11477","5302","a","elianto","#f73b6a7A","-1","-1","1","0","[]","0","2","","","11477","129","7","4","lose","no-go","0"
"pit-trial","248","1487444","0.0-134.0","battery-v0.2","","""event"",""trial"",""time""
""fullscreenenter"",""1"",""4542""
","
","
","""event"",""trial"",""time""
""fullscreenenter"",""1"",""4542""
","
","","","884.1000001430511","","","10","11477","5302","l","elianto","#3366ff99"," "," ","1","+10","[1734.7999999523163]","1","2","","","11477","130","8","1","win","go","0"
"pit-trial","249","1491251","0.0-135.0","battery-v0.2","","""event"",""trial"",""time""
""fullscreenenter"",""1"",""4542""
","
","
","""event"",""trial"",""time""
""fullscreenenter"",""1"",""4542""
","
","","","955","","","10","11477","5302","g","elianto","#f73b6a7A"," "," ","1","0","[1805.1000001430511]","1","2","","","11477","131","6","3","lose","go","0"
"pit-trial","250","1495159","0.0-136.0","battery-v0.2","","""event"",""trial"",""time""
""fullscreenenter"",""1"",""4542""
","
","
","""event"",""trial"",""time""
""fullscreenenter"",""1"",""4542""
","
","","","1055.8000001907349","","","10","11477","5302","u","elianto","#3366ff99"," "," ","1","+10","[1905.9000000953674]","1","2","","","11477","132","9","1","win","go","0"
"pit-trial","251","1498743","0.0-137.0","battery-v0.2","","""event"",""trial"",""time""
""fullscreenenter"",""1"",""4542""
","
","
","""event"",""trial"",""time""
""fullscreenenter"",""1"",""4542""
","
","","","732.2000000476837","","","10","11477","5302","l","elianto","#3366ff99"," "," ","1","+10","[1582.5]","1","2","","","11477","133","8","1","win","go","0"
"pit-trial","252","1502313","0.0-138.0","battery-v0.2","","""event"",""trial"",""time""
""fullscreenenter"",""1"",""4542""
","
","
","""event"",""trial"",""time""
""fullscreenenter"",""1"",""4542""
","
","","","719","","","10","11477","5302","g","elianto","#f73b6a7A"," "," ","1","0","[1569.1000001430511]","1","2","","","11477","134","6","3","lose","go","0"
"pit-trial","253","1507166","0.0-139.0","battery-v0.2","","""event"",""trial"",""time""
""fullscreenenter"",""1"",""4542""
","
","
","""event"",""trial"",""time""
""fullscreenenter"",""1"",""4542""
","
","","","-1","","","10","11477","5302","u","elianto","#3366ff99"," ","-1","0","+10","[2877.7000000476837]","1","2","","","11477","135","9","1","win","go","1"
"pit-trial","254","1512018","0.0-140.0","battery-v0.2","","""event"",""trial"",""time""
""fullscreenenter"",""1"",""4542""
","
","
