"trial_type","trial_index","time_elapsed","internal_node_id","task_version","subject_id","interactions","blur_events","focus_events","fullscreenenter_events","fullscreenexit_events","success","view_history","rt","responses","num_errors","age","subject","participantId","rune","rune_set","hex","correct","choice","accuracy","outcome","keys","total_keys","block","practice","value","sub","trial","stimulus","robot","valence","action","sham"
"pavlovia","0","23","0.0-0.0","battery-v0.2","","""event"",""trial"",""time""
""fullscreenenter"",""1"",""2811""
","
","
","""event"",""trial"",""time""
""fullscreenenter"",""1"",""2811""
","
","","","","","","","","","","","","","","","","","","","","","","","","","","",""
"fullscreen","1","3786","0.0-1.0","battery-v0.2","","""event"",""trial"",""time""
""fullscreenenter"",""1"",""2811""
","
","
","""event"",""trial"",""time""
""fullscreenenter"",""1"",""2811""
","
","true","","","","","","","","","","","","","","","","","","","","","","","","","",""
"pit-instructions","2","13115","0.0-2.0-0.0","battery-v0.2","","""event"",""trial"",""time""
""fullscreenenter"",""1"",""2811""
","
","
","""event"",""trial"",""time""
""fullscreenenter"",""1"",""2811""
","
","","[{""page_index"":0,""viewing_time"":9323.800000190735}]","9324.5","","","","","","","","","","","","","","","","","","","","","","","",""
"pit-comprehension","3","16929","0.0-2.0-1.0-0.0","battery-v0.2","","""event"",""trial"",""time""
""fullscreenenter"",""1"",""2811""
","
","
","""event"",""trial"",""time""
""fullscreenenter"",""1"",""2811""
","
","","","3807.9000005722046","[""shark""]","0","25","5134","3042","","","","","","","","","","","","","","","","","","",""
"pit-instructions","4","19288","0.0-2.0-1.0-1.0","battery-v0.2","","""event"",""trial"",""time""
""fullscreenenter"",""1"",""2811""
","
","
","""event"",""trial"",""time""
""fullscreenenter"",""1"",""2811""
","
","","[{""page_index"":0,""viewing_time"":2336.4000005722046}]","2336.800000190735","","","","","","","","","","","","","","","","","","","","","","","",""
"pit-comprehension","5","22636","0.0-2.0-2.0-0.0","battery-v0.2","","""event"",""trial"",""time""
""fullscreenenter"",""1"",""2811""
","
","
","""event"",""trial"",""time""
""fullscreenenter"",""1"",""2811""
","
","","","3339.5999994277954","[""tiger""]","0","25","5134","3042","","","","","","","","","","","","","","","","","","",""
"pit-instructions","6","24030","0.0-2.0-2.0-1.0","battery-v0.2","","""event"",""trial"",""time""
""fullscreenenter"",""1"",""2811""
","
","
","""event"",""trial"",""time""
""fullscreenenter"",""1"",""2811""
","
","","[{""page_index"":0,""viewing_time"":1385.6999998092651}]","1386.1999998092651","","","","","","","","","","","","","","","","","","","","","","","",""
"pit-instructions","7","129349","0.0-2.0-3.0","battery-v0.2","","""event"",""trial"",""time""
""fullscreenenter"",""1"",""2811""
","
","
","""event"",""trial"",""time""
""fullscreenenter"",""1"",""2811""
","
","","[{""page_index"":0,""viewing_time"":10536.800000190735},{""page_index"":1,""viewing_time"":8082},{""page_index"":2,""viewing_time"":6960.39999961853},{""page_index"":3,""viewing_time"":5884.199999809265},{""page_index"":4,""viewing_time"":6968.400000572205},{""page_index"":5,""viewing_time"":6819.199999809265},{""page_index"":6,""viewing_time"":7234.800000190735},{""page_index"":7,""viewing_time"":8145.099999427795},{""page_index"":8,""viewing_time"":8439.199999809265},{""page_index"":9,""viewing_time"":7694.800000190735},{""page_index"":10,""viewing_time"":7494.60000038147},{""page_index"":11,""viewing_time"":8147.599999427795},{""page_index"":12,""viewing_time"":6574.60000038147},{""page_index"":13,""viewing_time"":6329.5}]","105311.69999980927","","","","","","","","","","","","","","","","","","","","","","","",""
"pit-trial","8","133048","0.0-2.0-4.0-0.0","battery-v0.2","","""event"",""trial"",""time""
""fullscreenenter"",""1"",""2811""
","
","
","""event"",""trial"",""time""
""fullscreenenter"",""1"",""2811""
","
","","","821.9000005722046","","","25","5134","3042","&#9784;","elianto","#FFFFF080"," "," ","1","&#10004","[1674]","1","0","0","","","","","","","",""
"pit-trial","9","136616","0.0-2.0-4.1-0.1","battery-v0.2","","""event"",""trial"",""time""
""fullscreenenter"",""1"",""2811""
","
","
","""event"",""trial"",""time""
""fullscreenenter"",""1"",""2811""
","
","","","687.8999996185303","","","25","5134","3042","&#9784;","elianto","#FFFFF080"," "," ","1","&#10004","[1548]","1","0","0","","","","","","","",""
"pit-trial","10","140095","0.0-2.0-4.2-0.2","battery-v0.2","","""event"",""trial"",""time""
""fullscreenenter"",""1"",""2811""
","
","
","""event"",""trial"",""time""
""fullscreenenter"",""1"",""2811""
","
","","","599.3999996185303","","","25","5134","3042","&#9784;","elianto","#FFFFF080"," "," ","1","&#10004","[1452.6999998092651]","1","0","0","","","","","","","",""
"pit-trial","11","143512","0.0-2.0-4.3-0.3","battery-v0.2","","""event"",""trial"",""time""
""fullscreenenter"",""1"",""2811""
","
","
","""event"",""trial"",""time""
""fullscreenenter"",""1"",""2811""
","
","","","548.3999996185303","","","25","5134","3042","&#9784;","elianto","#FFFFF080"," "," ","1","&#10004","[1401.3999996185303]","1","0","0","","","","","","","",""
"pit-trial","12","147108","0.0-2.0-4.4-0.4","battery-v0.2","","""event"",""trial"",""time""
""fullscreenenter"",""1"",""2811""
","
","
","""event"",""trial"",""time""
""fullscreenenter"",""1"",""2811""
","
","","","723.6000003814697","","","25","5134","3042","&#9784;","elianto","#FFFFF080"," "," ","1","&#10004","[1578.6999998092651]","1","0","0","","","","","","","",""
"pit-instructions","13","170729","0.0-2.0-5.0","battery-v0.2","","""event"",""trial"",""time""
""fullscreenenter"",""1"",""2811""
","
","
","""event"",""trial"",""time""
""fullscreenenter"",""1"",""2811""
","
","","[{""page_index"":0,""viewing_time"":5188.199999809265},{""page_index"":1,""viewing_time"":7628.199999809265},{""page_index"":2,""viewing_time"":5009.10000038147},{""page_index"":3,""viewing_time"":5787.89999961853}]","23613.800000190735","","","","","","","","","","","","","","","","","","","","","","","",""
"pit-trial","14","175604","0.0-2.0-6.0-0.0","battery-v0.2","","""event"",""trial"",""time""
""fullscreenenter"",""1"",""2811""
","
","
","""event"",""trial"",""time""
""fullscreenenter"",""1"",""2811""
","
","","","-1","","","25","5134","3042","&#9854;","elianto","#FFFFF080","-1","-1","1","&#10004","[]","0","0","1","","","","","","","",""
"pit-trial","15","180489","0.0-2.0-6.1-0.1","battery-v0.2","","""event"",""trial"",""time""
""fullscreenenter"",""1"",""2811""
","
","
","""event"",""trial"",""time""
""fullscreenenter"",""1"",""2811""
","
","","","-1","","","25","5134","3042","&#9854;","elianto","#FFFFF080","-1","-1","1","&#10004","[]","0","0","1","","","","","","","",""
"pit-trial","16","185364","0.0-2.0-6.2-0.2","battery-v0.2","","""event"",""trial"",""time""
""fullscreenenter"",""1"",""2811""
","
","
","""event"",""trial"",""time""
""fullscreenenter"",""1"",""2811""
","
","","","-1","","","25","5134","3042","&#9854;","elianto","#FFFFF080","-1","-1","1","&#10004","[]","0","0","1","","","","","","","",""
"pit-trial","17","190239","0.0-2.0-6.3-0.3","battery-v0.2","","""event"",""trial"",""time""
""fullscreenenter"",""1"",""2811""
","
","
","""event"",""trial"",""time""
""fullscreenenter"",""1"",""2811""
","
","","","-1","","","25","5134","3042","&#9854;","elianto","#FFFFF080","-1","-1","1","&#10004","[]","0","0","1","","","","","","","",""
"pit-trial","18","195107","0.0-2.0-6.4-0.4","battery-v0.2","","""event"",""trial"",""time""
""fullscreenenter"",""1"",""2811""
","
","
","""event"",""trial"",""time""
""fullscreenenter"",""1"",""2811""
","
","","","-1","","","25","5134","3042","&#9854;","elianto","#FFFFF080","-1","-1","1","&#10004","[]","0","0","1","","","","","","","",""
"pit-instructions","19","313445","0.0-2.0-7.0","battery-v0.2","","""event"",""trial"",""time""
""fullscreenenter"",""1"",""2811""
","
","
","""event"",""trial"",""time""
""fullscreenenter"",""1"",""2811""
","
","","[{""page_index"":0,""viewing_time"":6151.800000190735},{""page_index"":1,""viewing_time"":9288.699999809265},{""page_index"":2,""viewing_time"":6439.400000572205},{""page_index"":3,""viewing_time"":6335.89999961853},{""page_index"":4,""viewing_time"":5126.60000038147},{""page_index"":5,""viewing_time"":5044.39999961853},{""page_index"":6,""viewing_time"":5007.199999809265},{""page_index"":7,""viewing_time"":7447.900000572205},{""page_index"":8,""viewing_time"":6631.199999809265},{""page_index"":9,""viewing_time"":6010},{""page_index"":10,""viewing_time"":6340.300000190735},{""page_index"":11,""viewing_time"":6015.5},{""page_index"":12,""viewing_time"":6519.89999961853},{""page_index"":13,""viewing_time"":6831.800000190735},{""page_index"":14,""viewing_time"":7267.699999809265},{""page_index"":15,""viewing_time"":6578.60000038147},{""page_index"":16,""viewing_time"":7171.39999961853},{""page_index"":17,""viewing_time"":8120.300000190735}]","118329","","","","","","","","","","","","","","","","","","","","","","","",""
"pit-trial","20","317184","0.0-2.0-8.0-0.0","battery-v0.2","","""event"",""trial"",""time""
""fullscreenenter"",""1"",""2811""
","
","
","""event"",""trial"",""time""
""fullscreenenter"",""1"",""2811""
","
","","","867.6000003814697","","","25","5134","3042","&#9776;","elianto","#3366ff99"," "," ","1","+10","[1719.0999994277954]","1","0","1","","","","","","","",""
"pit-trial","21","320468","0.0-2.0-8.0-1.0","battery-v0.2","","""event"",""trial"",""time""
""fullscreenenter"",""1"",""2811""
","
","
","""event"",""trial"",""time""
""fullscreenenter"",""1"",""2811""
","
","","","415.8999996185303","","","25","5134","3042","&#9776;","elianto","#3366ff99"," "," ","1","+10","[1268.5999994277954]","1","0","1","","","","","","","",""
"pit-trial","22","323660","0.0-2.0-8.0-2.0","battery-v0.2","","""event"",""trial"",""time""
""fullscreenenter"",""1"",""2811""
","
","
","""event"",""trial"",""time""
""fullscreenenter"",""1"",""2811""
","
","","","330.4000005722046","","","25","5134","3042","&#9776;","elianto","#3366ff99"," "," ","1","+10","[1182]","1","0","1","","","","","","","",""
"pit-trial","23","326946","0.0-2.0-8.0-3.0","battery-v0.2","","""event"",""trial"",""time""
""fullscreenenter"",""1"",""2811""
","
","
","""event"",""trial"",""time""
""fullscreenenter"",""1"",""2811""
","
","","","413.30000019073486","","","25","5134","3042","&#9776;","elianto","#3366ff99"," "," ","1","0","[1268.1000003814697]","1","0","1","","","","","","","",""
"pit-trial","24","329973","0.0-2.0-8.0-4.0","battery-v0.2","","""event"",""trial"",""time""
""fullscreenenter"",""1"",""2811""
","
","
","""event"",""trial"",""time""
""fullscreenenter"",""1"",""2811""
","
","","","161.70000076293945","","","25","5134","3042","&#9776;","elianto","#3366ff99"," "," ","1","+10","[1013]","1","0","1","","","","","","","",""
"pit-trial","25","333063","0.0-2.0-8.1-0.1","battery-v0.2","","""event"",""trial"",""time""
""fullscreenenter"",""1"",""2811""
","
","
","""event"",""trial"",""time""
""fullscreenenter"",""1"",""2811""
","
","","","222.19999980926514","","","25","5134","3042","&#9776;","elianto","#3366ff99"," "," ","1","+10","[1076.3000001907349]","1","0","1","","","","","","","",""
"pit-trial","26","336129","0.0-2.0-8.1-1.1","battery-v0.2","","""event"",""trial"",""time""
""fullscreenenter"",""1"",""2811""
","
","
","""event"",""trial"",""time""
""fullscreenenter"",""1"",""2811""
","
","","","195.0999994277954","","","25","5134","3042","&#9776;","elianto","#3366ff99"," "," ","1","+10","[1050]","1","0","1","","","","","","","",""
"pit-trial","27","339107","0.0-2.0-8.1-2.1","battery-v0.2","","""event"",""trial"",""time""
""fullscreenenter"",""1"",""2811""
","
","
","""event"",""trial"",""time""
""fullscreenenter"",""1"",""2811""
","
","","","107.80000019073486","","","25","5134","3042","&#9776;","elianto","#3366ff99"," "," ","1","+10","[962.4000005722046]","1","0","1","","","","","","","",""
"pit-trial","28","342210","0.0-2.0-8.1-3.1","battery-v0.2","","""event"",""trial"",""time""
""fullscreenenter"",""1"",""2811""
","
","
","""event"",""trial"",""time""
""fullscreenenter"",""1"",""2811""
","
","","","246.89999961853027","","","25","5134","3042","&#9776;","elianto","#3366ff99"," "," ","1","0","[1099]","1","0","1","","","","","","","",""
"pit-trial","29","345355","0.0-2.0-8.1-4.1","battery-v0.2","","""event"",""trial"",""time""
""fullscreenenter"",""1"",""2811""
","
","
","""event"",""trial"",""time""
""fullscreenenter"",""1"",""2811""
","
","","","283.19999980926514","","","25","5134","3042","&#9776;","elianto","#3366ff99"," "," ","1","+10","[1133.3999996185303]","1","0","1","","","","","","","",""
"pit-trial","30","348402","0.0-2.0-8.2-0.2","battery-v0.2","","""event"",""trial"",""time""
""fullscreenenter"",""1"",""2811""
","
","
","""event"",""trial"",""time""
""fullscreenenter"",""1"",""2811""
","
","","","183.39999961853027","","","25","5134","3042","&#9776;","elianto","#3366ff99"," "," ","1","+10","[1037.2999992370605]","1","0","1","","","","","","","",""
"pit-trial","31","351424","0.0-2.0-8.2-1.2","battery-v0.2","","""event"",""trial"",""time""
""fullscreenenter"",""1"",""2811""
","
","
","""event"",""trial"",""time""
""fullscreenenter"",""1"",""2811""
","
","","","149.29999923706055","","","25","5134","3042","&#9776;","elianto","#3366ff99"," "," ","1","+10","[1005.1999998092651]","1","0","1","","","","","","","",""
"pit-trial","32","354471","0.0-2.0-8.2-2.2","battery-v0.2","","""event"",""trial"",""time""
""fullscreenenter"",""1"",""2811""
","
","
","""event"",""trial"",""time""
""fullscreenenter"",""1"",""2811""
","
","","","160.5","","","25","5134","3042","&#9776;","elianto","#3366ff99"," "," ","1","+10","[1017.5]","1","0","1","","","","","","","",""
"pit-trial","33","357466","0.0-2.0-8.2-3.2","battery-v0.2","","""event"",""trial"",""time""
""fullscreenenter"",""1"",""2811""
","
","
","""event"",""trial"",""time""
""fullscreenenter"",""1"",""2811""
","
","","","133.39999961853027","","","25","5134","3042","&#9776;","elianto","#3366ff99"," "," ","1","0","[983.9000005722046]","1","0","1","","","","","","","",""
"pit-trial","34","360459","0.0-2.0-8.2-4.2","battery-v0.2","","""event"",""trial"",""time""
""fullscreenenter"",""1"",""2811""
","
","
","""event"",""trial"",""time""
""fullscreenenter"",""1"",""2811""
","
","","","130.4000005722046","","","25","5134","3042","&#9776;","elianto","#3366ff99"," "," ","1","+10","[982]","1","0","1","","","","","","","",""
"call-function","35","360466","0.0-2.0-9.0","battery-v0.2","","""event"",""trial"",""time""
""fullscreenenter"",""1"",""2811""
","
","
","""event"",""trial"",""time""
""fullscreenenter"",""1"",""2811""
","
","","","","","","","","","","","","","","","","","","","","","","","","","","",""
"pit-instructions","36","398216","0.0-2.0-10.0","battery-v0.2","","""event"",""trial"",""time""
""fullscreenenter"",""1"",""2811""
","
","
","""event"",""trial"",""time""
""fullscreenenter"",""1"",""2811""
","
","","[{""page_index"":0,""viewing_time"":5884.5},{""page_index"":1,""viewing_time"":6141.10000038147},{""page_index"":2,""viewing_time"":9121.099999427795},{""page_index"":3,""viewing_time"":9097.20000076294},{""page_index"":4,""viewing_time"":7504}]","37748.199999809265","","","","","","","","","","","","","","","","","","","","","","","",""
"pit-trial","37","401997","0.0-2.0-11.0-0.0","battery-v0.2","","""event"",""trial"",""time""
""fullscreenenter"",""1"",""2811""
","
","
","""event"",""trial"",""time""
""fullscreenenter"",""1"",""2811""
","
","","","895.8999996185303","","","25","5134","3042","&#9761;","elianto","#3366ff99","-1"," ","0","0","[1759.5999994277954]","1","0","2","","","","","","","",""
"pit-trial","38","406877","0.0-2.0-11.0-1.0","battery-v0.2","","""event"",""trial"",""time""
""fullscreenenter"",""1"",""2811""
","
","
","""event"",""trial"",""time""
""fullscreenenter"",""1"",""2811""
","
","","","-1","","","25","5134","3042","&#9761;","elianto","#3366ff99","-1","-1","1","+10","[]","0","0","2","","","","","","","",""
"pit-trial","39","411756","0.0-2.0-11.0-2.0","battery-v0.2","","""event"",""trial"",""time""
""fullscreenenter"",""1"",""2811""
","
","
","""event"",""trial"",""time""
""fullscreenenter"",""1"",""2811""
","
","","","-1","","","25","5134","3042","&#9761;","elianto","#3366ff99","-1","-1","1","+10","[]","0","0","2","","","","","","","",""
"pit-trial","40","416640","0.0-2.0-11.0-3.0","battery-v0.2","","""event"",""trial"",""time""
""fullscreenenter"",""1"",""2811""
","
","
","""event"",""trial"",""time""
""fullscreenenter"",""1"",""2811""
","
","","","-1","","","25","5134","3042","&#9761;","elianto","#3366ff99","-1","-1","1","0","[]","0","0","2","","","","","","","",""
"pit-trial","41","421522","0.0-2.0-11.0-4.0","battery-v0.2","","""event"",""trial"",""time""
""fullscreenenter"",""1"",""2811""
","
","
","""event"",""trial"",""time""
""fullscreenenter"",""1"",""2811""
","
","","","-1","","","25","5134","3042","&#9761;","elianto","#3366ff99","-1","-1","1","+10","[]","0","0","2","","","","","","","",""
"pit-trial","42","426411","0.0-2.0-11.1-0.1","battery-v0.2","","""event"",""trial"",""time""
""fullscreenenter"",""1"",""2811""
","
","
","""event"",""trial"",""time""
""fullscreenenter"",""1"",""2811""
","
","","","-1","","","25","5134","3042","&#9761;","elianto","#3366ff99","-1","-1","1","+10","[]","0","0","2","","","","","","","",""
"pit-trial","43","431282","0.0-2.0-11.1-1.1","battery-v0.2","","""event"",""trial"",""time""
""fullscreenenter"",""1"",""2811""
","
","
","""event"",""trial"",""time""
""fullscreenenter"",""1"",""2811""
","
","","","-1","","","25","5134","3042","&#9761;","elianto","#3366ff99","-1","-1","1","+10","[]","0","0","2","","","","","","","",""
"pit-trial","44","436154","0.0-2.0-11.1-2.1","battery-v0.2","","""event"",""trial"",""time""
""fullscreenenter"",""1"",""2811""
","
","
","""event"",""trial"",""time""
""fullscreenenter"",""1"",""2811""
","
","","","-1","","","25","5134","3042","&#9761;","elianto","#3366ff99","-1","-1","1","+10","[]","0","0","2","","","","","","","",""
"pit-trial","45","441026","0.0-2.0-11.1-3.1","battery-v0.2","","""event"",""trial"",""time""
""fullscreenenter"",""1"",""2811""
","
","
","""event"",""trial"",""time""
""fullscreenenter"",""1"",""2811""
","
","","","-1","","","25","5134","3042","&#9761;","elianto","#3366ff99","-1","-1","1","0","[]","0","0","2","","","","","","","",""
"pit-trial","46","445897","0.0-2.0-11.1-4.1","battery-v0.2","","""event"",""trial"",""time""
""fullscreenenter"",""1"",""2811""
","
","
","""event"",""trial"",""time""
""fullscreenenter"",""1"",""2811""
","
","","","-1","","","25","5134","3042","&#9761;","elianto","#3366ff99","-1","-1","1","+10","[]","0","0","2","","","","","","","",""
"pit-trial","47","450778","0.0-2.0-11.2-0.2","battery-v0.2","","""event"",""trial"",""time""
""fullscreenenter"",""1"",""2811""
","
","
","""event"",""trial"",""time""
""fullscreenenter"",""1"",""2811""
","
","","","-1","","","25","5134","3042","&#9761;","elianto","#3366ff99","-1","-1","1","+10","[]","0","0","2","","","","","","","",""
"pit-trial","48","455651","0.0-2.0-11.2-1.2","battery-v0.2","","""event"",""trial"",""time""
""fullscreenenter"",""1"",""2811""
","
","
","""event"",""trial"",""time""
""fullscreenenter"",""1"",""2811""
","
","","","-1","","","25","5134","3042","&#9761;","elianto","#3366ff99","-1","-1","1","+10","[]","0","0","2","","","","","","","",""
"pit-trial","49","460530","0.0-2.0-11.2-2.2","battery-v0.2","","""event"",""trial"",""time""
""fullscreenenter"",""1"",""2811""
","
","
","""event"",""trial"",""time""
""fullscreenenter"",""1"",""2811""
","
","","","-1","","","25","5134","3042","&#9761;","elianto","#3366ff99","-1","-1","1","+10","[]","0","0","2","","","","","","","",""
"pit-trial","50","465402","0.0-2.0-11.2-3.2","battery-v0.2","","""event"",""trial"",""time""
""fullscreenenter"",""1"",""2811""
","
","
","""event"",""trial"",""time""
""fullscreenenter"",""1"",""2811""
","
","","","-1","","","25","5134","3042","&#9761;","elianto","#3366ff99","-1","-1","1","0","[]","0","0","2","","","","","","","",""
"pit-trial","51","470274","0.0-2.0-11.2-4.2","battery-v0.2","","""event"",""trial"",""time""
""fullscreenenter"",""1"",""2811""
","
","
","""event"",""trial"",""time""
""fullscreenenter"",""1"",""2811""
","
","","","-1","","","25","5134","3042","&#9761;","elianto","#3366ff99","-1","-1","1","+10","[]","0","0","2","","","","","","","",""
"pit-trial","52","475145","0.0-2.0-11.3-0.3","battery-v0.2","","""event"",""trial"",""time""
""fullscreenenter"",""1"",""2811""
","
","
","""event"",""trial"",""time""
""fullscreenenter"",""1"",""2811""
","
","","","-1","","","25","5134","3042","&#9761;","elianto","#3366ff99","-1","-1","1","+10","[]","0","0","2","","","","","","","",""
"pit-trial","53","480027","0.0-2.0-11.3-1.3","battery-v0.2","","""event"",""trial"",""time""
""fullscreenenter"",""1"",""2811""
","
","
","""event"",""trial"",""time""
""fullscreenenter"",""1"",""2811""
","
","","","-1","","","25","5134","3042","&#9761;","elianto","#3366ff99","-1","-1","1","+10","[]","0","0","2","","","","","","","",""
"pit-trial","54","484897","0.0-2.0-11.3-2.3","battery-v0.2","","""event"",""trial"",""time""
""fullscreenenter"",""1"",""2811""
","
","
","""event"",""trial"",""time""
""fullscreenenter"",""1"",""2811""
","
","","","-1","","","25","5134","3042","&#9761;","elianto","#3366ff99","-1","-1","1","+10","[]","0","0","2","","","","","","","",""
"pit-trial","55","489761","0.0-2.0-11.3-3.3","battery-v0.2","","""event"",""trial"",""time""
""fullscreenenter"",""1"",""2811""
","
","
","""event"",""trial"",""time""
""fullscreenenter"",""1"",""2811""
","
","","","-1","","","25","5134","3042","&#9761;","elianto","#3366ff99","-1","-1","1","0","[]","0","0","2","","","","","","","",""
"pit-trial","56","494626","0.0-2.0-11.3-4.3","battery-v0.2","","""event"",""trial"",""time""
""fullscreenenter"",""1"",""2811""
","
","
","""event"",""trial"",""time""
""fullscreenenter"",""1"",""2811""
","
","","","-1","","","25","5134","3042","&#9761;","elianto","#3366ff99","-1","-1","1","+10","[]","0","0","2","","","","","","","",""
"call-function","57","494632","0.0-2.0-12.0","battery-v0.2","","""event"",""trial"",""time""
""fullscreenenter"",""1"",""2811""
","
","
","""event"",""trial"",""time""
""fullscreenenter"",""1"",""2811""
","
","","","","","","","","","","","","","","","","","","","","","","","","","","",""
"pit-instructions","58","526060","0.0-2.0-13.0","battery-v0.2","","""event"",""trial"",""time""
""fullscreenenter"",""1"",""2811""
","
","
","""event"",""trial"",""time""
""fullscreenenter"",""1"",""2811""
","
","","[{""page_index"":0,""viewing_time"":5319.400000572205},{""page_index"":1,""viewing_time"":7007.5},{""page_index"":2,""viewing_time"":3269.300000190735},{""page_index"":3,""viewing_time"":10799},{""page_index"":4,""viewing_time"":5031.89999961853}]","31427.60000038147","","","","","","","","","","","","","","","","","","","","","","","",""
"pit-trial","59","529326","0.0-2.0-14.0-0.0","battery-v0.2","","""event"",""trial"",""time""
""fullscreenenter"",""1"",""2811""
","
","
","""event"",""trial"",""time""
""fullscreenenter"",""1"",""2811""
","
","","","400.19999980926514","","","25","5134","3042","&#9826;","elianto","#f73b6a7A","-1"," ","0","-10","[1252.1000003814697]","1","0","3","","","","","","","",""
"pit-trial","60","534207","0.0-2.0-14.0-1.0","battery-v0.2","","""event"",""trial"",""time""
""fullscreenenter"",""1"",""2811""
","
","
","""event"",""trial"",""time""
""fullscreenenter"",""1"",""2811""
","
","","","-1","","","25","5134","3042","&#9826;","elianto","#f73b6a7A","-1","-1","1","0","[]","0","0","3","","","","","","","",""
"pit-trial","61","539089","0.0-2.0-14.0-2.0","battery-v0.2","","""event"",""trial"",""time""
""fullscreenenter"",""1"",""2811""
","
","
","""event"",""trial"",""time""
""fullscreenenter"",""1"",""2811""
","
","","","-1","","","25","5134","3042","&#9826;","elianto","#f73b6a7A","-1","-1","1","0","[]","0","0","3","","","","","","","",""
"pit-trial","62","543965","0.0-2.0-14.0-3.0","battery-v0.2","","""event"",""trial"",""time""
""fullscreenenter"",""1"",""2811""
","
","
","""event"",""trial"",""time""
""fullscreenenter"",""1"",""2811""
","
","","","-1","","","25","5134","3042","&#9826;","elianto","#f73b6a7A","-1","-1","1","-10","[]","0","0","3","","","","","","","",""
"pit-trial","63","548852","0.0-2.0-14.0-4.0","battery-v0.2","","""event"",""trial"",""time""
""fullscreenenter"",""1"",""2811""
","
","
","""event"",""trial"",""time""
""fullscreenenter"",""1"",""2811""
","
","","","-1","","","25","5134","3042","&#9826;","elianto","#f73b6a7A","-1","-1","1","0","[]","0","0","3","","","","","","","",""
"pit-trial","64","553737","0.0-2.0-14.1-0.1","battery-v0.2","","""event"",""trial"",""time""
""fullscreenenter"",""1"",""2811""
","
","
","""event"",""trial"",""time""
""fullscreenenter"",""1"",""2811""
","
","","","-1","","","25","5134","3042","&#9826;","elianto","#f73b6a7A","-1","-1","1","0","[]","0","0","3","","","","","","","",""
"pit-trial","65","558602","0.0-2.0-14.1-1.1","battery-v0.2","","""event"",""trial"",""time""
""fullscreenenter"",""1"",""2811""
","
","
","""event"",""trial"",""time""
""fullscreenenter"",""1"",""2811""
","
","","","-1","","","25","5134","3042","&#9826;","elianto","#f73b6a7A","-1","-1","1","0","[]","0","0","3","","","","","","","",""
"pit-trial","66","563473","0.0-2.0-14.1-2.1","battery-v0.2","","""event"",""trial"",""time""
""fullscreenenter"",""1"",""2811""
","
","
","""event"",""trial"",""time""
""fullscreenenter"",""1"",""2811""
","
","","","-1","","","25","5134","3042","&#9826;","elianto","#f73b6a7A","-1","-1","1","0","[]","0","0","3","","","","","","","",""
"pit-trial","67","568337","0.0-2.0-14.1-3.1","battery-v0.2","","""event"",""trial"",""time""
""fullscreenenter"",""1"",""2811""
","
","
","""event"",""trial"",""time""
""fullscreenenter"",""1"",""2811""
","
","","","-1","","","25","5134","3042","&#9826;","elianto","#f73b6a7A","-1","-1","1","-10","[]","0","0","3","","","","","","","",""
"pit-trial","68","573202","0.0-2.0-14.1-4.1","battery-v0.2","","""event"",""trial"",""time""
""fullscreenenter"",""1"",""2811""
","
","
","""event"",""trial"",""time""
""fullscreenenter"",""1"",""2811""
","
","","","-1","","","25","5134","3042","&#9826;","elianto","#f73b6a7A","-1","-1","1","0","[]","0","0","3","","","","","","","",""
"pit-trial","69","578074","0.0-2.0-14.2-0.2","battery-v0.2","","""event"",""trial"",""time""
""fullscreenenter"",""1"",""2811""
","
","
","""event"",""trial"",""time""
""fullscreenenter"",""1"",""2811""
","
","","","-1","","","25","5134","3042","&#9826;","elianto","#f73b6a7A","-1","-1","1","0","[]","0","0","3","","","","","","","",""
"pit-trial","70","582946","0.0-2.0-14.2-1.2","battery-v0.2","","""event"",""trial"",""time""
""fullscreenenter"",""1"",""2811""
","
","
","""event"",""trial"",""time""
""fullscreenenter"",""1"",""2811""
","
","","","-1","","","25","5134","3042","&#9826;","elianto","#f73b6a7A","-1","-1","1","0","[]","0","0","3","","","","","","","",""
"pit-trial","71","587817","0.0-2.0-14.2-2.2","battery-v0.2","","""event"",""trial"",""time""
""fullscreenenter"",""1"",""2811""
","
","
","""event"",""trial"",""time""
""fullscreenenter"",""1"",""2811""
","
","","","-1","","","25","5134","3042","&#9826;","elianto","#f73b6a7A","-1","-1","1","0","[]","0","0","3","","","","","","","",""
"pit-trial","72","592683","0.0-2.0-14.2-3.2","battery-v0.2","","""event"",""trial"",""time""
""fullscreenenter"",""1"",""2811""
","
","
","""event"",""trial"",""time""
""fullscreenenter"",""1"",""2811""
","
","","","-1","","","25","5134","3042","&#9826;","elianto","#f73b6a7A","-1","-1","1","-10","[]","0","0","3","","","","","","","",""
"pit-trial","73","597562","0.0-2.0-14.2-4.2","battery-v0.2","","""event"",""trial"",""time""
""fullscreenenter"",""1"",""2811""
","
","
","""event"",""trial"",""time""
""fullscreenenter"",""1"",""2811""
","
","","","-1","","","25","5134","3042","&#9826;","elianto","#f73b6a7A","-1","-1","1","0","[]","0","0","3","","","","","","","",""
"pit-trial","74","602434","0.0-2.0-14.3-0.3","battery-v0.2","","""event"",""trial"",""time""
""fullscreenenter"",""1"",""2811""
","
","
","""event"",""trial"",""time""
""fullscreenenter"",""1"",""2811""
","
","","","-1","","","25","5134","3042","&#9826;","elianto","#f73b6a7A","-1","-1","1","0","[]","0","0","3","","","","","","","",""
"pit-trial","75","607306","0.0-2.0-14.3-1.3","battery-v0.2","","""event"",""trial"",""time""
""fullscreenenter"",""1"",""2811""
","
","
","""event"",""trial"",""time""
""fullscreenenter"",""1"",""2811""
","
","","","-1","","","25","5134","3042","&#9826;","elianto","#f73b6a7A","-1","-1","1","0","[]","0","0","3","","","","","","","",""
"pit-trial","76","612178","0.0-2.0-14.3-2.3","battery-v0.2","","""event"",""trial"",""time""
""fullscreenenter"",""1"",""2811""
","
","
","""event"",""trial"",""time""
""fullscreenenter"",""1"",""2811""
","
","","","-1","","","25","5134","3042","&#9826;","elianto","#f73b6a7A","-1","-1","1","0","[]","0","0","3","","","","","","","",""
"pit-trial","77","617051","0.0-2.0-14.3-3.3","battery-v0.2","","""event"",""trial"",""time""
""fullscreenenter"",""1"",""2811""
","
","
","""event"",""trial"",""time""
""fullscreenenter"",""1"",""2811""
","
","","","-1","","","25","5134","3042","&#9826;","elianto","#f73b6a7A","-1","-1","1","-10","[]","0","0","3","","","","","","","",""
"pit-trial","78","621921","0.0-2.0-14.3-4.3","battery-v0.2","","""event"",""trial"",""time""
""fullscreenenter"",""1"",""2811""
","
","
","""event"",""trial"",""time""
""fullscreenenter"",""1"",""2811""
","
","","","-1","","","25","5134","3042","&#9826;","elianto","#f73b6a7A","-1","-1","1","0","[]","0","0","3","","","","","","","",""
"call-function","79","621929","0.0-2.0-15.0","battery-v0.2","","""event"",""trial"",""time""
""fullscreenenter"",""1"",""2811""
","
","
","""event"",""trial"",""time""
""fullscreenenter"",""1"",""2811""
","
","","","","","","","","","","","","","","","","","","","","","","","","","","",""
"pit-instructions","80","653104","0.0-2.0-16.0","battery-v0.2","","""event"",""trial"",""time""
""fullscreenenter"",""1"",""2811""
","
","
","""event"",""trial"",""time""
""fullscreenenter"",""1"",""2811""
","
","","[{""page_index"":0,""viewing_time"":9326.800000190735},{""page_index"":1,""viewing_time"":11500},{""page_index"":2,""viewing_time"":5125.89999961853},{""page_index"":3,""viewing_time"":5221.39999961853}]","31174.800000190735","","","","","","","","","","","","","","","","","","","","","","","",""
"pit-trial","81","656693","0.0-2.0-17.0-0.0","battery-v0.2","","""event"",""trial"",""time""
""fullscreenenter"",""1"",""2811""
","
","
","""event"",""trial"",""time""
""fullscreenenter"",""1"",""2811""
","
","","","722.8999996185303","","","25","5134","3042","&#9789;","elianto","#f73b6a7A"," "," ","1","0","[1575.6000003814697]","1","0","4","","","","","","","",""
"pit-trial","82","659947","0.0-2.0-17.0-1.0","battery-v0.2","","""event"",""trial"",""time""
""fullscreenenter"",""1"",""2811""
","
","
","""event"",""trial"",""time""
""fullscreenenter"",""1"",""2811""
","
","","","384.19999980926514","","","25","5134","3042","&#9789;","elianto","#f73b6a7A"," "," ","1","0","[1241.8000001907349]","1","0","4","","","","","","","",""
"pit-trial","83","662969","0.0-2.0-17.0-2.0","battery-v0.2","","""event"",""trial"",""time""
""fullscreenenter"",""1"",""2811""
","
","
","""event"",""trial"",""time""
""fullscreenenter"",""1"",""2811""
","
","","","163.20000076293945","","","25","5134","3042","&#9789;","elianto","#f73b6a7A"," "," ","1","0","[1014.8000001907349]","1","0","4","","","","","","","",""
"pit-trial","84","666039","0.0-2.0-17.0-3.0","battery-v0.2","","""event"",""trial"",""time""
""fullscreenenter"",""1"",""2811""
","
","
","""event"",""trial"",""time""
""fullscreenenter"",""1"",""2811""
","
","","","190.20000076293945","","","25","5134","3042","&#9789;","elianto","#f73b6a7A"," "," ","1","-10","[1048.8000001907349]","1","0","4","","","","","","","",""
"pit-trial","85","669555","0.0-2.0-17.0-4.0","battery-v0.2","","""event"",""trial"",""time""
""fullscreenenter"",""1"",""2811""
","
","
","""event"",""trial"",""time""
""fullscreenenter"",""1"",""2811""
","
","","","642.5","","","25","5134","3042","&#9789;","elianto","#f73b6a7A"," "," ","1","0","[1496.4000005722046]","1","0","4","","","","","","","",""
"pit-trial","86","672841","0.0-2.0-17.1-0.1","battery-v0.2","","""event"",""trial"",""time""
""fullscreenenter"",""1"",""2811""
","
","
","""event"",""trial"",""time""
""fullscreenenter"",""1"",""2811""
","
","","","425.1000003814697","","","25","5134","3042","&#9789;","elianto","#f73b6a7A"," "," ","1","0","[1277]","1","0","4","","","","","","","",""
"pit-trial","87","675971","0.0-2.0-17.1-1.1","battery-v0.2","","""event"",""trial"",""time""
""fullscreenenter"",""1"",""2811""
","
","
","""event"",""trial"",""time""
""fullscreenenter"",""1"",""2811""
","
","","","259.5","","","25","5134","3042","&#9789;","elianto","#f73b6a7A"," "," ","1","0","[1120.9000005722046]","1","0","4","","","","","","","",""
"pit-trial","88","678973","0.0-2.0-17.1-2.1","battery-v0.2","","""event"",""trial"",""time""
""fullscreenenter"",""1"",""2811""
","
","
","""event"",""trial"",""time""
""fullscreenenter"",""1"",""2811""
","
","","","130.0999994277954","","","25","5134","3042","&#9789;","elianto","#f73b6a7A"," "," ","1","0","[985.0999994277954]","1","0","4","","","","","","","",""
"pit-trial","89","682090","0.0-2.0-17.1-3.1","battery-v0.2","","""event"",""trial"",""time""
""fullscreenenter"",""1"",""2811""
","
","
","""event"",""trial"",""time""
""fullscreenenter"",""1"",""2811""
","
","","","239.5999994277954","","","25","5134","3042","&#9789;","elianto","#f73b6a7A"," "," ","1","-10","[1097.3999996185303]","1","0","4","","","","","","","",""
"pit-trial","90","685058","0.0-2.0-17.1-4.1","battery-v0.2","","""event"",""trial"",""time""
""fullscreenenter"",""1"",""2811""
","
","
","""event"",""trial"",""time""
""fullscreenenter"",""1"",""2811""
","
","","","98.69999980926514","","","25","5134","3042","&#9789;","elianto","#f73b6a7A"," "," ","1","0","[952.5]","1","0","4","","","","","","","",""
"pit-trial","91","688153","0.0-2.0-17.2-0.2","battery-v0.2","","""event"",""trial"",""time""
""fullscreenenter"",""1"",""2811""
","
","
","""event"",""trial"",""time""
""fullscreenenter"",""1"",""2811""
","
","","","235.30000019073486","","","25","5134","3042","&#9789;","elianto","#f73b6a7A"," "," ","1","0","[1085.1999998092651]","1","0","4","","","","","","","",""
"pit-trial","92","691394","0.0-2.0-17.2-1.2","battery-v0.2","","""event"",""trial"",""time""
""fullscreenenter"",""1"",""2811""
","
","
","""event"",""trial"",""time""
""fullscreenenter"",""1"",""2811""
","
","","","377.19999980926514","","","25","5134","3042","&#9789;","elianto","#f73b6a7A"," "," ","1","0","[1230.1000003814697]","1","0","4","","","","","","","",""
"pit-trial","93","694490","0.0-2.0-17.2-2.2","battery-v0.2","","""event"",""trial"",""time""
""fullscreenenter"",""1"",""2811""
","
","
","""event"",""trial"",""time""
""fullscreenenter"",""1"",""2811""
","
","","","227.29999923706055","","","25","5134","3042","&#9789;","elianto","#f73b6a7A"," "," ","1","0","[1084.3999996185303]","1","0","4","","","","","","","",""
"pit-trial","94","697658","0.0-2.0-17.2-3.2","battery-v0.2","","""event"",""trial"",""time""
""fullscreenenter"",""1"",""2811""
","
","
","""event"",""trial"",""time""
""fullscreenenter"",""1"",""2811""
","
","","","300","","","25","5134","3042","&#9789;","elianto","#f73b6a7A"," "," ","1","-10","[1156.5]","1","0","4","","","","","","","",""
"pit-trial","95","700660","0.0-2.0-17.2-4.2","battery-v0.2","","""event"",""trial"",""time""
""fullscreenenter"",""1"",""2811""
","
","
","""event"",""trial"",""time""
""fullscreenenter"",""1"",""2811""
","
","","","131","","","25","5134","3042","&#9789;","elianto","#f73b6a7A"," "," ","1","0","[983.6999998092651]","1","0","4","","","","","","","",""
"pit-trial","96","703579","0.0-2.0-17.3-0.3","battery-v0.2","","""event"",""trial"",""time""
""fullscreenenter"",""1"",""2811""
","
","
","""event"",""trial"",""time""
""fullscreenenter"",""1"",""2811""
","
","","","46.90000057220459","","","25","5134","3042","&#9789;","elianto","#f73b6a7A"," "," ","1","0","[899.6000003814697]","1","0","4","","","","","","","",""
"pit-trial","97","706745","0.0-2.0-17.3-1.3","battery-v0.2","","""event"",""trial"",""time""
""fullscreenenter"",""1"",""2811""
","
","
","""event"",""trial"",""time""
""fullscreenenter"",""1"",""2811""
","
","","","297.80000019073486","","","25","5134","3042","&#9789;","elianto","#f73b6a7A"," "," ","1","0","[1154.0999994277954]","1","0","4","","","","","","","",""
"pit-trial","98","710017","0.0-2.0-17.3-2.3","battery-v0.2","","""event"",""trial"",""time""
""fullscreenenter"",""1"",""2811""
","
","
","""event"",""trial"",""time""
""fullscreenenter"",""1"",""2811""
","
","","","407.4000005722046","","","25","5134","3042","&#9789;","elianto","#f73b6a7A"," "," ","1","0","[1263.9000005722046]","1","0","4","","","","","","","",""
"pit-trial","99","714890","0.0-2.0-17.3-3.3","battery-v0.2","","""event"",""trial"",""time""
""fullscreenenter"",""1"",""2811""
","
","
","""event"",""trial"",""time""
""fullscreenenter"",""1"",""2811""
","
","","","-1","","","25","5134","3042","&#9789;","elianto","#f73b6a7A"," ","-1","0","0","[2922.6000003814697]","1","0","4","","","","","","","",""
"pit-trial","100","717850","0.0-2.0-17.3-4.3","battery-v0.2","","""event"",""trial"",""time""
""fullscreenenter"",""1"",""2811""
","
","
","""event"",""trial"",""time""
""fullscreenenter"",""1"",""2811""
","
","","","88.40000057220459","","","25","5134","3042","&#9789;","elianto","#f73b6a7A"," "," ","1","0","[944.5]","1","0","4","","","","","","","",""
"call-function","101","717857","0.0-2.0-18.0","battery-v0.2","","""event"",""trial"",""time""
""fullscreenenter"",""1"",""2811""
","
","
","""event"",""trial"",""time""
""fullscreenenter"",""1"",""2811""
","
","","","","","","","","","","","","","","","","","","","","","","","","","","",""
"pit-instructions","102","792000","0.0-2.0-19.0","battery-v0.2","","""event"",""trial"",""time""
""fullscreenenter"",""1"",""2811""
","
","
","""event"",""trial"",""time""
""fullscreenenter"",""1"",""2811""
","
","","[{""page_index"":0,""viewing_time"":8671.10000038147},{""page_index"":1,""viewing_time"":6472.39999961853},{""page_index"":2,""viewing_time"":13525.800000190735},{""page_index"":3,""viewing_time"":7498.89999961853},{""page_index"":4,""viewing_time"":8971.800000190735},{""page_index"":5,""viewing_time"":9555.900000572205},{""page_index"":6,""viewing_time"":8083.699999809265},{""page_index"":7,""viewing_time"":7654.199999809265},{""page_index"":8,""viewing_time"":3708.300000190735}]","74142.5","","","","","","","","","","","","","","","","","","","","","","","",""
"pit-comprehension","103","797035","0.0-2.0-20.0-0.0","battery-v0.2","","""event"",""trial"",""time""
""fullscreenenter"",""1"",""2811""
","
","
","""event"",""trial"",""time""
""fullscreenenter"",""1"",""2811""
","
","","","5029.699999809265","[""SPACE""]","0","25","5134","3042","","","","","","","","","","","","","","","","","","",""
"pit-instructions","104","799832","0.0-2.0-20.0-1.0","battery-v0.2","","""event"",""trial"",""time""
""fullscreenenter"",""1"",""2811""
","
","
","""event"",""trial"",""time""
""fullscreenenter"",""1"",""2811""
","
","","[{""page_index"":0,""viewing_time"":2753.199999809265}]","2753.699999809265","","","","","","","","","","","","","","","","","","","","","","","",""
"pit-comprehension","105","805933","0.0-2.0-21.0-0.0","battery-v0.2","","""event"",""trial"",""time""
""fullscreenenter"",""1"",""2811""
","
","
","""event"",""trial"",""time""
""fullscreenenter"",""1"",""2811""
","
","","","6095.400000572205","[""10""]","0","25","5134","3042","","","","","","","","","","","","","","","","","","",""
"pit-instructions","106","807805","0.0-2.0-21.0-1.0","battery-v0.2","","""event"",""trial"",""time""
""fullscreenenter"",""1"",""2811""
","
","
","""event"",""trial"",""time""
""fullscreenenter"",""1"",""2811""
","
","","[{""page_index"":0,""viewing_time"":1825.7999992370605}]","1826.1999998092651","","","","","","","","","","","","","","","","","","","","","","","",""
"pit-comprehension","107","816718","0.0-2.0-22.0-0.0","battery-v0.2","","""event"",""trial"",""time""
""fullscreenenter"",""1"",""2811""
","
","
","""event"",""trial"",""time""
""fullscreenenter"",""1"",""2811""
","
","","","8908.89999961853","[""0""]","0","25","5134","3042","","","","","","","","","","","","","","","","","","",""
"pit-instructions","108","818835","0.0-2.0-22.0-1.0","battery-v0.2","","""event"",""trial"",""time""
""fullscreenenter"",""1"",""2811""
","
","
","""event"",""trial"",""time""
""fullscreenenter"",""1"",""2811""
","
","","[{""page_index"":0,""viewing_time"":2074.300000190735}]","2074.7000007629395","","","","","","","","","","","","","","","","","","","","","","","",""
"pit-comprehension","109","830842","0.0-2.0-23.0-0.0","battery-v0.2","","""event"",""trial"",""time""
""fullscreenenter"",""1"",""2811""
","
","
","""event"",""trial"",""time""
""fullscreenenter"",""1"",""2811""
","
","","","12001.400000572205","[""True""]","0","25","5134","3042","","","","","","","","","","","","","","","","","","",""
"pit-instructions","110","832750","0.0-2.0-23.0-1.0","battery-v0.2","","""event"",""trial"",""time""
""fullscreenenter"",""1"",""2811""
","
","
","""event"",""trial"",""time""
""fullscreenenter"",""1"",""2811""
","
","","[{""page_index"":0,""viewing_time"":1863.1000003814697}]","1863.4000005722046","","","","","","","","","","","","","","","","","","","","","","","",""
"pit-comprehension","111","840405","0.0-2.0-24.0-0.0","battery-v0.2","","""event"",""trial"",""time""
""fullscreenenter"",""1"",""2811""
","
","
","""event"",""trial"",""time""
""fullscreenenter"",""1"",""2811""
","
","","","7649.800000190735","[""True""]","0","25","5134","3042","","","","","","","","","","","","","","","","","","",""
"pit-instructions","112","842300","0.0-2.0-24.0-1.0","battery-v0.2","","""event"",""trial"",""time""
""fullscreenenter"",""1"",""2811""
","
","
","""event"",""trial"",""time""
""fullscreenenter"",""1"",""2811""
","
","","[{""page_index"":0,""viewing_time"":1851.6999998092651}]","1852.0999994277954","","","","","","","","","","","","","","","","","","","","","","","",""
"pit-comprehension","113","848776","0.0-2.0-25.0-0.0","battery-v0.2","","""event"",""trial"",""time""
""fullscreenenter"",""1"",""2811""
","
","
","""event"",""trial"",""time""
""fullscreenenter"",""1"",""2811""
","
","","","6471.5","[""True""]","0","25","5134","3042","","","","","","","","","","","","","","","","","","",""
"pit-instructions","114","850537","0.0-2.0-25.0-1.0","battery-v0.2","","""event"",""trial"",""time""
""fullscreenenter"",""1"",""2811""
","
","
","""event"",""trial"",""time""
""fullscreenenter"",""1"",""2811""
","
","","[{""page_index"":0,""viewing_time"":1715.6000003814697}]","1715.9000005722046","","","","","","","","","","","","","","","","","","","","","","","",""
"pit-comprehension","115","855342","0.0-2.0-26.0-0.0","battery-v0.2","","""event"",""trial"",""time""
""fullscreenenter"",""1"",""2811""
","
","
","""event"",""trial"",""time""
""fullscreenenter"",""1"",""2811""
","
","","","4799.5","[""False""]","0","25","5134","3042","","","","","","","","","","","","","","","","","","",""
"pit-instructions","116","857200","0.0-2.0-26.0-1.0","battery-v0.2","","""event"",""trial"",""time""
""fullscreenenter"",""1"",""2811""
","
","
","""event"",""trial"",""time""
""fullscreenenter"",""1"",""2811""
","
","","[{""page_index"":0,""viewing_time"":1803.9000005722046}]","1804.4000005722046","","","","","","","","","","","","","","","","","","","","","","","",""
"pit-instructions","117","873211","0.0-3.0","battery-v0.2","","""event"",""trial"",""time""
""fullscreenenter"",""1"",""2811""
","
","
","""event"",""trial"",""time""
""fullscreenenter"",""1"",""2811""
","
","","[{""page_index"":0,""viewing_time"":3726},{""page_index"":1,""viewing_time"":5122.89999961853},{""page_index"":2,""viewing_time"":7157.900000572205}]","16007.199999809265","","","","","","","","","","","","","","","","","","","","","","","",""
"pit-trial","118","878105","0.0-4.0","battery-v0.2","","""event"",""trial"",""time""
""fullscreenenter"",""1"",""2811""
","
","
","""event"",""trial"",""time""
""fullscreenenter"",""1"",""2811""
","
","","","-1","","","25","5134","3042","&#9752;","elianto","#f73b6a7A"," ","-1","0","0","[]","0","1","","","5134","1","3","3","lose","go","1"
"pit-trial","119","881620","0.0-5.0","battery-v0.2","","""event"",""trial"",""time""
""fullscreenenter"",""1"",""2811""
","
","
","""event"",""trial"",""time""
""fullscreenenter"",""1"",""2811""
","
","","","638.5","","","25","5134","3042","&#9733;","elianto","#3366ff99","-1"," ","0","0","[1493.3999996185303]","1","1","","","5134","2","2","2","win","no-go","0"
"pit-trial","120","885664","0.0-6.0","battery-v0.2","","""event"",""trial"",""time""
""fullscreenenter"",""1"",""2811""
","
","
","""event"",""trial"",""time""
""fullscreenenter"",""1"",""2811""
","
","","","1162.3999996185303","","","25","5134","3042","&#9730;","elianto","#3366ff99"," "," ","1","+10","[2015.5999994277954]","1","1","","","5134","3","1","1","win","go","0"
"pit-trial","121","889784","0.0-7.0","battery-v0.2","","""event"",""trial"",""time""
""fullscreenenter"",""1"",""2811""
","
","
","""event"",""trial"",""time""
""fullscreenenter"",""1"",""2811""
","
","","","1243","","","25","5134","3042","&#9728;","elianto","#f73b6a7A","-1"," ","0","0","[2097.300000190735]","1","1","","","5134","4","0","4","lose","no-go","1"
"pit-trial","122","894658","0.0-8.0","battery-v0.2","","""event"",""trial"",""time""
""fullscreenenter"",""1"",""2811""
","
","
","""event"",""trial"",""time""
""fullscreenenter"",""1"",""2811""
","
","","","-1","","","25","5134","3042","&#9752;","elianto","#f73b6a7A"," ","-1","0","-10","[3560.1000003814697]","1","1","","","5134","5","3","3","lose","go","0"
"pit-trial","123","898501","0.0-9.0","battery-v0.2","","""event"",""trial"",""time""
""fullscreenenter"",""1"",""2811""
","
","
","""event"",""trial"",""time""
""fullscreenenter"",""1"",""2811""
","
","","","967","","","25","5134","3042","&#9733;","elianto","#3366ff99","-1"," ","0","0","[1818.2000007629395]","1","1","","","5134","6","2","2","win","no-go","0"
"pit-trial","124","902533","0.0-10.0","battery-v0.2","","""event"",""trial"",""time""
""fullscreenenter"",""1"",""2811""
","
","
","""event"",""trial"",""time""
""fullscreenenter"",""1"",""2811""
","
","","","1155.5999994277954","","","25","5134","3042","&#9728;","elianto","#f73b6a7A","-1"," ","0","0","[2011.5]","1","1","","","5134","7","0","4","lose","no-go","1"
"pit-trial","125","907402","0.0-11.0","battery-v0.2","","""event"",""trial"",""time""
""fullscreenenter"",""1"",""2811""
","
","
","""event"",""trial"",""time""
""fullscreenenter"",""1"",""2811""
","
","","","-1","","","25","5134","3042","&#9730;","elianto","#3366ff99"," ","-1","0","0","[]","0","1","","","5134","8","1","1","win","go","0"
"pit-trial","126","911058","0.0-12.0","battery-v0.2","","""event"",""trial"",""time""
""fullscreenenter"",""1"",""2811""
","
","
","""event"",""trial"",""time""
""fullscreenenter"",""1"",""2811""
","
","","","797.3999996185303","","","25","5134","3042","&#9730;","elianto","#3366ff99"," "," ","1","0","[1647.8000001907349]","1","1","","","5134","9","1","1","win","go","1"
"pit-trial","127","915922","0.0-13.0","battery-v0.2","","""event"",""trial"",""time""
""fullscreenenter"",""1"",""2811""
","
","
","""event"",""trial"",""time""
""fullscreenenter"",""1"",""2811""
","
","","","-1","","","25","5134","3042","&#9752;","elianto","#f73b6a7A"," ","-1","0","-10","[]","0","1","","","5134","10","3","3","lose","go","0"
"pit-trial","128","919666","0.0-14.0","battery-v0.2","","""event"",""trial"",""time""
""fullscreenenter"",""1"",""2811""
","
","
","""event"",""trial"",""time""
""fullscreenenter"",""1"",""2811""
","
","","","879.6000003814697","","","25","5134","3042","&#9728;","elianto","#f73b6a7A","-1"," ","0","-10","[1732]","1","1","","","5134","11","0","4","lose","no-go","0"
"pit-trial","129","923513","0.0-15.0","battery-v0.2","","""event"",""trial"",""time""
""fullscreenenter"",""1"",""2811""
","
","
","""event"",""trial"",""time""
""fullscreenenter"",""1"",""2811""
","
","","","986.1999998092651","","","25","5134","3042","&#9733;","elianto","#3366ff99","-1"," ","0","+10","[1840.3000001907349]","1","1","","","5134","12","2","2","win","no-go","1"
"pit-trial","130","927322","0.0-16.0","battery-v0.2","","""event"",""trial"",""time""
""fullscreenenter"",""1"",""2811""
","
","
","""event"",""trial"",""time""
""fullscreenenter"",""1"",""2811""
","
","","","943.6999998092651","","","25","5134","3042","&#9730;","elianto","#3366ff99"," "," ","1","+10","[1796.5]","1","1","","","5134","13","1","1","win","go","0"
"pit-trial","131","932194","0.0-17.0","battery-v0.2","","""event"",""trial"",""time""
""fullscreenenter"",""1"",""2811""
","
","
","""event"",""trial"",""time""
""fullscreenenter"",""1"",""2811""
","
","","","-1","","","25","5134","3042","&#9728;","elianto","#f73b6a7A","-1","-1","1","0","[]","0","1","","","5134","14","0","4","lose","no-go","0"
"pit-trial","132","937066","0.0-18.0","battery-v0.2","","""event"",""trial"",""time""
""fullscreenenter"",""1"",""2811""
","
","
","""event"",""trial"",""time""
""fullscreenenter"",""1"",""2811""
","
","","","-1","","","25","5134","3042","&#9752;","elianto","#f73b6a7A"," ","-1","0","0","[]","0","1","","","5134","15","3","3","lose","go","1"
"pit-trial","133","940658","0.0-19.0","battery-v0.2","","""event"",""trial"",""time""
""fullscreenenter"",""1"",""2811""
","
","
","""event"",""trial"",""time""
""fullscreenenter"",""1"",""2811""
","
","","","726.5","","","25","5134","3042","&#9733;","elianto","#3366ff99","-1"," ","0","0","[1578.5]","1","1","","","5134","16","2","2","win","no-go","0"
"pit-trial","134","944634","0.0-20.0","battery-v0.2","","""event"",""trial"",""time""
""fullscreenenter"",""1"",""2811""
","
","
","""event"",""trial"",""time""
""fullscreenenter"",""1"",""2811""
","
","","","1113.3000001907349","","","25","5134","3042","&#9733;","elianto","#3366ff99","-1"," ","0","0","[1964.1000003814697]","1","1","","","5134","17","2","2","win","no-go","0"
"pit-trial","135","949498","0.0-21.0","battery-v0.2","","""event"",""trial"",""time""
""fullscreenenter"",""1"",""2811""
","
","
","""event"",""trial"",""time""
""fullscreenenter"",""1"",""2811""
","
","","","-1","","","25","5134","3042","&#9752;","elianto","#f73b6a7A"," ","-1","0","0","[]","0","1","","","5134","18","3","3","lose","go","1"
"pit-trial","136","953754","0.0-22.0","battery-v0.2","","""event"",""trial"",""time""
""fullscreenenter"",""1"",""2811""
","
","
","""event"",""trial"",""time""
""fullscreenenter"",""1"",""2811""
","
","","","1392.8999996185303","","","25","5134","3042","&#9730;","elianto","#3366ff99"," "," ","1","+10","[2244.7999992370605]","1","1","","","5134","19","1","1","win","go","0"
"pit-trial","137","958618","0.0-23.0","battery-v0.2","","""event"",""trial"",""time""
""fullscreenenter"",""1"",""2811""
","
","
","""event"",""trial"",""time""
""fullscreenenter"",""1"",""2811""
","
","","","-1","","","25","5134","3042","&#9728;","elianto","#f73b6a7A","-1","-1","1","0","[]","0","1","","","5134","20","0","4","lose","no-go","0"
"pit-instructions","138","984184","0.0-24.0","battery-v0.2","","""event"",""trial"",""time""
""fullscreenenter"",""1"",""2811""
","
","
","""event"",""trial"",""time""
""fullscreenenter"",""1"",""2811""
","
","","[{""page_index"":0,""viewing_time"":15674.89999961853},{""page_index"":1,""viewing_time"":9886.5}]","25562.10000038147","","","","","","","","","","","","","","","","","","","","","","","",""
"pit-trial","139","989060","0.0-25.0","battery-v0.2","","""event"",""trial"",""time""
""fullscreenenter"",""1"",""2811""
","
","
","""event"",""trial"",""time""
""fullscreenenter"",""1"",""2811""
","
","","","-1","","","25","5134","3042","e","elianto","#f73b6a7A","-1","-1","1","0","[]","0","2","","","5134","21","2","4","lose","no-go","0"
"pit-trial","140","992934","0.0-26.0","battery-v0.2","","""event"",""trial"",""time""
""fullscreenenter"",""1"",""2811""
","
","
","""event"",""trial"",""time""
""fullscreenenter"",""1"",""2811""
","
","","","1003.3000001907349","","","25","5134","3042","d","elianto","#3366ff99"," "," ","1","+10","[1858.1999998092651]","1","2","","","5134","22","1","1","win","go","0"
"pit-trial","141","996613","0.0-27.0","battery-v0.2","","""event"",""trial"",""time""
""fullscreenenter"",""1"",""2811""
","
","
","""event"",""trial"",""time""
""fullscreenenter"",""1"",""2811""
","
","","","803.8000001907349","","","25","5134","3042","j","elianto","#f73b6a7A","-1"," ","0","0","[1656.6000003814697]","1","2","","","5134","23","0","4","lose","no-go","1"
"pit-trial","142","1001368","0.0-28.0","battery-v0.2","","""event"",""trial"",""time""
""fullscreenenter"",""1"",""2811""
","
","
","""event"",""trial"",""time""
""fullscreenenter"",""1"",""2811""
","
","","","1873.5","","","25","5134","3042","w","elianto","#f73b6a7A"," "," ","1","0","[2728.9000005722046]","1","2","","","5134","24","3","3","lose","go","0"
"pit-trial","143","1005181","0.0-29.0","battery-v0.2","","""event"",""trial"",""time""
""fullscreenenter"",""1"",""2811""
","
","
","""event"",""trial"",""time""
""fullscreenenter"",""1"",""2811""
","
","","","942.1000003814697","","","25","5134","3042","w","elianto","#f73b6a7A"," "," ","1","0","[1801.8000001907349]","1","2","","","5134","25","3","3","lose","go","0"
"pit-trial","144","1010070","0.0-30.0","battery-v0.2","","""event"",""trial"",""time""
""fullscreenenter"",""1"",""2811""
","
","
","""event"",""trial"",""time""
""fullscreenenter"",""1"",""2811""
","
","","","-1","","","25","5134","3042","j","elianto","#f73b6a7A","-1","-1","1","-10","[]","0","2","","","5134","26","0","4","lose","no-go","1"
"pit-trial","145","1013659","0.0-31.0","battery-v0.2","","""event"",""trial"",""time""
""fullscreenenter"",""1"",""2811""
","
","
","""event"",""trial"",""time""
""fullscreenenter"",""1"",""2811""
","
","","","721.4000005722046","","","25","5134","3042","d","elianto","#3366ff99"," "," ","1","+10","[1574.6000003814697]","1","2","","","5134","27","1","1","win","go","0"
"pit-trial","146","1018531","0.0-32.0","battery-v0.2","","""event"",""trial"",""time""
""fullscreenenter"",""1"",""2811""
","
","
","""event"",""trial"",""time""
""fullscreenenter"",""1"",""2811""
","
","","","-1","","","25","5134","3042","e","elianto","#f73b6a7A","-1","-1","1","0","[]","0","2","","","5134","28","2","4","lose","no-go","0"
"pit-trial","147","1023402","0.0-33.0","battery-v0.2","","""event"",""trial"",""time""
""fullscreenenter"",""1"",""2811""
","
","
","""event"",""trial"",""time""
""fullscreenenter"",""1"",""2811""
","
","","","-1","","","25","5134","3042","j","elianto","#f73b6a7A","-1","-1","1","-10","[]","0","2","","","5134","29","0","4","lose","no-go","1"
"pit-trial","148","1028283","0.0-34.0","battery-v0.2","","""event"",""trial"",""time""
""fullscreenenter"",""1"",""2811""
","
","
","""event"",""trial"",""time""
""fullscreenenter"",""1"",""2811""
","
","","","-1","","","25","5134","3042","e","elianto","#f73b6a7A","-1","-1","1","0","[]","0","2","","","5134","30","2","4","lose","no-go","0"
"pit-trial","149","1031866","0.0-35.0","battery-v0.2","","""event"",""trial"",""time""
""fullscreenenter"",""1"",""2811""
","
","
","""event"",""trial"",""time""
""fullscreenenter"",""1"",""2811""
","
","","","719.6000003814697","","","25","5134","3042","d","elianto","#3366ff99"," "," ","1","0","[1572.1000003814697]","1","2","","","5134","31","1","1","win","go","1"
"pit-trial","150","1036011","0.0-36.0","battery-v0.2","","""event"",""trial"",""time""
""fullscreenenter"",""1"",""2811""
","
","
","""event"",""trial"",""time""
""fullscreenenter"",""1"",""2811""
","
","","","1281.5999994277954","","","25","5134","3042","w","elianto","#f73b6a7A"," "," ","1","0","[2132.7000007629395]","1","2","","","5134","32","3","3","lose","go","0"
"pit-trial","151","1039586","0.0-37.0","battery-v0.2","","""event"",""trial"",""time""
""fullscreenenter"",""1"",""2811""
","
","
","""event"",""trial"",""time""
""fullscreenenter"",""1"",""2811""
","
","","","710.8000001907349","","","25","5134","3042","e","elianto","#f73b6a7A","-1"," ","0","-10","[1561.4000005722046]","1","2","","","5134","33","2","4","lose","no-go","0"
"pit-trial","152","1043162","0.0-38.0","battery-v0.2","","""event"",""trial"",""time""
""fullscreenenter"",""1"",""2811""
","
","
","""event"",""trial"",""time""
""fullscreenenter"",""1"",""2811""
","
","","","706.5999994277954","","","25","5134","3042","d","elianto","#3366ff99"," "," ","1","+10","[1560.8000001907349]","1","2","","","5134","34","1","1","win","go","0"
"pit-trial","153","1046634","0.0-39.0","battery-v0.2","","""event"",""trial"",""time""
""fullscreenenter"",""1"",""2811""
","
","
","""event"",""trial"",""time""
""fullscreenenter"",""1"",""2811""
","
","","","599.6999998092651","","","25","5134","3042","j","elianto","#f73b6a7A","-1"," ","0","-10","[1457.3000001907349]","1","2","","","5134","35","0","4","lose","no-go","0"
"pit-trial","154","1050618","0.0-40.0","battery-v0.2","","""event"",""trial"",""time""
""fullscreenenter"",""1"",""2811""
","
","
","""event"",""trial"",""time""
""fullscreenenter"",""1"",""2811""
","
","","","1120.0999994277954","","","25","5134","3042","w","elianto","#f73b6a7A"," "," ","1","0","[1970.9000005722046]","1","2","","","5134","36","3","3","lose","go","0"
"pit-trial","155","1055489","0.0-41.0","battery-v0.2","","""event"",""trial"",""time""
""fullscreenenter"",""1"",""2811""
","
","
","""event"",""trial"",""time""
""fullscreenenter"",""1"",""2811""
","
","","","-1","","","25","5134","3042","e","elianto","#f73b6a7A","-1","-1","1","0","[]","0","2","","","5134","37","2","4","lose","no-go","0"
"pit-trial","156","1059090","0.0-42.0","battery-v0.2","","""event"",""trial"",""time""
""fullscreenenter"",""1"",""2811""
","
","
","""event"",""trial"",""time""
""fullscreenenter"",""1"",""2811""
","
","","","734.8000001907349","","","25","5134","3042","d","elianto","#3366ff99"," "," ","1","+10","[1588.7000007629395]","1","2","","","5134","38","1","1","win","go","0"
"pit-trial","157","1063962","0.0-43.0","battery-v0.2","","""event"",""trial"",""time""
""fullscreenenter"",""1"",""2811""
","
","
","""event"",""trial"",""time""
""fullscreenenter"",""1"",""2811""
","
","","","-1","","","25","5134","3042","j","elianto","#f73b6a7A","-1","-1","1","0","[]","0","2","","","5134","39","0","4","lose","no-go","0"
"pit-trial","158","1067481","0.0-44.0","battery-v0.2","","""event"",""trial"",""time""
""fullscreenenter"",""1"",""2811""
","
","
","""event"",""trial"",""time""
""fullscreenenter"",""1"",""2811""
","
","","","648.8000001907349","","","25","5134","3042","w","elianto","#f73b6a7A"," "," ","1","0","[1505.0999994277954]","1","2","","","5134","40","3","3","lose","go","0"
"pit-trial","159","1071081","0.0-45.0","battery-v0.2","","""event"",""trial"",""time""
""fullscreenenter"",""1"",""2811""
","
","
","""event"",""trial"",""time""
""fullscreenenter"",""1"",""2811""
","
","","","742.3000001907349","","","25","5134","3042","e","elianto","#f73b6a7A","-1"," ","0","-10","[1596.1999998092651]","1","2","","","5134","41","2","4","lose","no-go","0"
"pit-trial","160","1074682","0.0-46.0","battery-v0.2","","""event"",""trial"",""time""
""fullscreenenter"",""1"",""2811""
","
","
","""event"",""trial"",""time""
""fullscreenenter"",""1"",""2811""
","
","","","726.8000001907349","","","25","5134","3042","w","elianto","#f73b6a7A"," "," ","1","-10","[1585]","1","2","","","5134","42","3","3","lose","go","1"
"pit-trial","161","1078282","0.0-47.0","battery-v0.2","","""event"",""trial"",""time""
""fullscreenenter"",""1"",""2811""
","
","
","""event"",""trial"",""time""
""fullscreenenter"",""1"",""2811""
","
","","","733.3999996185303","","","25","5134","3042","d","elianto","#3366ff99"," "," ","1","+10","[1591.1000003814697]","1","2","","","5134","43","1","1","win","go","0"
"pit-trial","162","1083145","0.0-48.0","battery-v0.2","","""event"",""trial"",""time""
""fullscreenenter"",""1"",""2811""
","
","
","""event"",""trial"",""time""
""fullscreenenter"",""1"",""2811""
","
","","","-1","","","25","5134","3042","j","elianto","#f73b6a7A","-1","-1","1","0","[]","0","2","","","5134","44","0","4","lose","no-go","0"
"pit-trial","163","1088017","0.0-49.0","battery-v0.2","","""event"",""trial"",""time""
""fullscreenenter"",""1"",""2811""
","
","
","""event"",""trial"",""time""
""fullscreenenter"",""1"",""2811""
","
","","","-1","","","25","5134","3042","j","elianto","#f73b6a7A","-1","-1","1","-10","[]","0","2","","","5134","45","0","4","lose","no-go","1"
"pit-trial","164","1092889","0.0-50.0","battery-v0.2","","""event"",""trial"",""time""
""fullscreenenter"",""1"",""2811""
","
","
","""event"",""trial"",""time""
""fullscreenenter"",""1"",""2811""
","
","","","-1","","","25","5134","3042","e","elianto","#f73b6a7A","-1","-1","1","0","[]","0","2","","","5134","46","2","4","lose","no-go","0"
"pit-trial","165","1096418","0.0-51.0","battery-v0.2","","""event"",""trial"",""time""
""fullscreenenter"",""1"",""2811""
","
","
","""event"",""trial"",""time""
""fullscreenenter"",""1"",""2811""
","
","","","668.0999994277954","","","25","5134","3042","w","elianto","#f73b6a7A"," "," ","1","-10","[1520.7000007629395]","1","2","","","5134","47","3","3","lose","go","1"
"pit-trial","166","1101298","0.0-52.0","battery-v0.2","","""event"",""trial"",""time""
""fullscreenenter"",""1"",""2811""
","
","
","""event"",""trial"",""time""
""fullscreenenter"",""1"",""2811""
","
","","","-1","","","25","5134","3042","s","elianto","#3366ff99","-1","-1","1","+10","[]","0","2","","","5134","48","4","2","win","no-go","0"
"pit-trial","167","1106169","0.0-53.0","battery-v0.2","","""event"",""trial"",""time""
""fullscreenenter"",""1"",""2811""
","
","
","""event"",""trial"",""time""
""fullscreenenter"",""1"",""2811""
","
","","","-1","","","25","5134","3042","j","elianto","#f73b6a7A","-1","-1","1","0","[]","0","2","","","5134","49","0","4","lose","no-go","0"
"pit-trial","168","1110058","0.0-54.0","battery-v0.2","","""event"",""trial"",""time""
""fullscreenenter"",""1"",""2811""
","
","
","""event"",""trial"",""time""
""fullscreenenter"",""1"",""2811""
","
","","","1018.1999998092651","","","25","5134","3042","d","elianto","#3366ff99"," "," ","1","+10","[1875.8000001907349]","1","2","","","5134","50","1","1","win","go","0"
"pit-trial","169","1113989","0.0-55.0","battery-v0.2","","""event"",""trial"",""time""
""fullscreenenter"",""1"",""2811""
","
","
","""event"",""trial"",""time""
""fullscreenenter"",""1"",""2811""
","
","","","1063.1999998092651","","","25","5134","3042","w","elianto","#f73b6a7A"," "," ","1","0","[1913.6000003814697]","1","2","","","5134","51","3","3","lose","go","0"
"pit-trial","170","1118858","0.0-56.0","battery-v0.2","","""event"",""trial"",""time""
""fullscreenenter"",""1"",""2811""
","
","
","""event"",""trial"",""time""
""fullscreenenter"",""1"",""2811""
","
","","","-1","","","25","5134","3042","s","elianto","#3366ff99","-1","-1","1","0","[]","0","2","","","5134","52","4","2","win","no-go","1"
"pit-trial","171","1123057","0.0-57.0","battery-v0.2","","""event"",""trial"",""time""
""fullscreenenter"",""1"",""2811""
","
","
","""event"",""trial"",""time""
""fullscreenenter"",""1"",""2811""
","
","","","1332.6999998092651","","","25","5134","3042","e","elianto","#f73b6a7A","-1"," ","0","-10","[2187.8999996185303]","1","2","","","5134","53","2","4","lose","no-go","0"
"pit-trial","172","1127923","0.0-58.0","battery-v0.2","","""event"",""trial"",""time""
""fullscreenenter"",""1"",""2811""
","
","
","""event"",""trial"",""time""
""fullscreenenter"",""1"",""2811""
","
","","","-1","","","25","5134","3042","j","elianto","#f73b6a7A","-1","-1","1","-10","[]","0","2","","","5134","54","0","4","lose","no-go","1"
"pit-trial","173","1132794","0.0-59.0","battery-v0.2","","""event"",""trial"",""time""
""fullscreenenter"",""1"",""2811""
","
","
","""event"",""trial"",""time""
""fullscreenenter"",""1"",""2811""
","
","","","-1","","","25","5134","3042","s","elianto","#3366ff99","-1","-1","1","+10","[]","0","2","","","5134","55","4","2","win","no-go","0"
"pit-trial","174","1136777","0.0-60.0","battery-v0.2","","""event"",""trial"",""time""
""fullscreenenter"",""1"",""2811""
","
","
","""event"",""trial"",""time""
""fullscreenenter"",""1"",""2811""
","
","","","1114.7000007629395","","","25","5134","3042","d","elianto","#3366ff99"," "," ","1","+10","[1971.6000003814697]","1","2","","","5134","56","1","1","win","go","0"
"pit-trial","175","1141657","0.0-61.0","battery-v0.2","","""event"",""trial"",""time""
""fullscreenenter"",""1"",""2811""
","
","
","""event"",""trial"",""time""
""fullscreenenter"",""1"",""2811""
","
","","","-1","","","25","5134","3042","s","elianto","#3366ff99","-1","-1","1","0","[]","0","2","","","5134","57","4","2","win","no-go","1"
"pit-trial","176","1146522","0.0-62.0","battery-v0.2","","""event"",""trial"",""time""
""fullscreenenter"",""1"",""2811""
","
","
","""event"",""trial"",""time""
""fullscreenenter"",""1"",""2811""
","
","","","-1","","","25","5134","3042","j","elianto","#f73b6a7A","-1","-1","1","0","[]","0","2","","","5134","58","0","4","lose","no-go","0"
"pit-trial","177","1150107","0.0-63.0","battery-v0.2","","""event"",""trial"",""time""
""fullscreenenter"",""1"",""2811""
","
","
","""event"",""trial"",""time""
""fullscreenenter"",""1"",""2811""
","
","","","717.4000005722046","","","25","5134","3042","d","elianto","#3366ff99"," "," ","1","+10","[1569.5]","1","2","","","5134","59","1","1","win","go","0"
"pit-trial","178","1154106","0.0-64.0","battery-v0.2","","""event"",""trial"",""time""
""fullscreenenter"",""1"",""2811""
","
","
","""event"",""trial"",""time""
""fullscreenenter"",""1"",""2811""
","
","","","1138.8999996185303","","","25","5134","3042","w","elianto","#f73b6a7A"," "," ","1","0","[1990.5999994277954]","1","2","","","5134","60","3","3","lose","go","0"
"pit-trial","179","1157777","0.0-65.0","battery-v0.2","","""event"",""trial"",""time""
""fullscreenenter"",""1"",""2811""
","
","
","""event"",""trial"",""time""
""fullscreenenter"",""1"",""2811""
","
","","","812.1999998092651","","","25","5134","3042","e","elianto","#f73b6a7A","-1"," ","0","-10","[1663.5999994277954]","1","2","","","5134","61","2","4","lose","no-go","0"
"pit-trial","180","1161523","0.0-66.0","battery-v0.2","","""event"",""trial"",""time""
""fullscreenenter"",""1"",""2811""
","
","
","""event"",""trial"",""time""
""fullscreenenter"",""1"",""2811""
","
","","","877.6999998092651","","","25","5134","3042","s","elianto","#3366ff99","-1"," ","0","0","[1731.1999998092651]","1","2","","","5134","62","4","2","win","no-go","0"
"pit-trial","181","1165345","0.0-67.0","battery-v0.2","","""event"",""trial"",""time""
""fullscreenenter"",""1"",""2811""
","
","
","""event"",""trial"",""time""
""fullscreenenter"",""1"",""2811""
","
","","","958.3999996185303","","","25","5134","3042","d","elianto","#3366ff99"," "," ","1","+10","[1813.6999998092651]","1","2","","","5134","63","1","1","win","go","0"
"pit-trial","182","1169362","0.0-68.0","battery-v0.2","","""event"",""trial"",""time""
""fullscreenenter"",""1"",""2811""
","
","
","""event"",""trial"",""time""
""fullscreenenter"",""1"",""2811""
","
","","","1153.8999996185303","","","25","5134","3042","w","elianto","#f73b6a7A"," "," ","1","0","[2004.3999996185303]","1","2","","","5134","64","3","3","lose","go","0"
"pit-trial","183","1173154","0.0-69.0","battery-v0.2","","""event"",""trial"",""time""
""fullscreenenter"",""1"",""2811""
","
","
","""event"",""trial"",""time""
""fullscreenenter"",""1"",""2811""
","
","","","921.4000005722046","","","25","5134","3042","d","elianto","#3366ff99"," "," ","1","+10","[1778.1000003814697]","1","2","","","5134","65","1","1","win","go","0"
"pit-trial","184","1177038","0.0-70.0","battery-v0.2","","""event"",""trial"",""time""
""fullscreenenter"",""1"",""2811""
","
","
","""event"",""trial"",""time""
""fullscreenenter"",""1"",""2811""
","
","","","1003.5","","","25","5134","3042","w","elianto","#f73b6a7A"," "," ","1","0","[1861.5]","1","2","","","5134","66","3","3","lose","go","0"
"pit-trial","185","1181906","0.0-71.0","battery-v0.2","","""event"",""trial"",""time""
""fullscreenenter"",""1"",""2811""
","
","
","""event"",""trial"",""time""
""fullscreenenter"",""1"",""2811""
","
","","","-1","","","25","5134","3042","s","elianto","#3366ff99","-1","-1","1","+10","[]","0","2","","","5134","67","4","2","win","no-go","0"
"pit-trial","186","1186778","0.0-72.0","battery-v0.2","","""event"",""trial"",""time""
""fullscreenenter"",""1"",""2811""
","
","
","""event"",""trial"",""time""
""fullscreenenter"",""1"",""2811""
","
","","","-1","","","25","5134","3042","e","elianto","#f73b6a7A","-1","-1","1","0","[]","0","2","","","5134","68","2","4","lose","no-go","0"
"pit-trial","187","1190338","0.0-73.0","battery-v0.2","","""event"",""trial"",""time""
""fullscreenenter"",""1"",""2811""
","
","
","""event"",""trial"",""time""
""fullscreenenter"",""1"",""2811""
","
","","","696.7000007629395","","","25","5134","3042","d","elianto","#3366ff99"," "," ","1","+10","[1547.6000003814697]","1","2","","","5134","69","1","1","win","go","0"
"pit-trial","188","1194298","0.0-74.0","battery-v0.2","","""event"",""trial"",""time""
""fullscreenenter"",""1"",""2811""
","
","
","""event"",""trial"",""time""
""fullscreenenter"",""1"",""2811""
","
","","","1098.6999998092651","","","25","5134","3042","w","elianto","#f73b6a7A"," "," ","1","-10","[1949.0999994277954]","1","2","","","5134","70","3","3","lose","go","1"
"pit-trial","189","1199170","0.0-75.0","battery-v0.2","","""event"",""trial"",""time""
""fullscreenenter"",""1"",""2811""
","
","
","""event"",""trial"",""time""
""fullscreenenter"",""1"",""2811""
","
","","","-1","","","25","5134","3042","s","elianto","#3366ff99","-1","-1","1","+10","[]","0","2","","","5134","71","4","2","win","no-go","0"
"pit-trial","190","1204042","0.0-76.0","battery-v0.2","","""event"",""trial"",""time""
""fullscreenenter"",""1"",""2811""
","
","
","""event"",""trial"",""time""
""fullscreenenter"",""1"",""2811""
","
","","","-1","","","25","5134","3042","p","elianto","#3366ff99"," ","-1","0","0","[]","0","2","","","5134","72","5","1","win","go","0"
"pit-trial","191","1207793","0.0-77.0","battery-v0.2","","""event"",""trial"",""time""
""fullscreenenter"",""1"",""2811""
","
","
","""event"",""trial"",""time""
""fullscreenenter"",""1"",""2811""
","
","","","885.3000001907349","","","25","5134","3042","p","elianto","#3366ff99"," "," ","1","0","[1742.1000003814697]","1","2","","","5134","73","5","1","win","go","1"
"pit-trial","192","1212186","0.0-78.0","battery-v0.2","","""event"",""trial"",""time""
""fullscreenenter"",""1"",""2811""
","
","
","""event"",""trial"",""time""
""fullscreenenter"",""1"",""2811""
","
","","","1527.5","","","25","5134","3042","w","elianto","#f73b6a7A"," "," ","1","-10","[2379.5]","1","2","","","5134","74","3","3","lose","go","1"
"pit-trial","193","1215937","0.0-79.0","battery-v0.2","","""event"",""trial"",""time""
""fullscreenenter"",""1"",""2811""
","
","
","""event"",""trial"",""time""
""fullscreenenter"",""1"",""2811""
","
","","","874.4000005722046","","","25","5134","3042","d","elianto","#3366ff99"," "," ","1","+10","[1732]","1","2","","","5134","75","1","1","win","go","0"
"pit-trial","194","1220811","0.0-80.0","battery-v0.2","","""event"",""trial"",""time""
""fullscreenenter"",""1"",""2811""
","
","
","""event"",""trial"",""time""
""fullscreenenter"",""1"",""2811""
","
","","","-1","","","25","5134","3042","s","elianto","#3366ff99","-1","-1","1","+10","[]","0","2","","","5134","76","4","2","win","no-go","0"
"pit-trial","195","1225531","0.0-81.0","battery-v0.2","","""event"",""trial"",""time""
""fullscreenenter"",""1"",""2811""
","
","
","""event"",""trial"",""time""
""fullscreenenter"",""1"",""2811""
","
","","","1853.3000001907349","","","25","5134","3042","g","elianto","#f73b6a7A","-1"," ","0","0","[2709.5]","1","2","","","5134","77","6","4","lose","no-go","1"
"pit-trial","196","1229554","0.0-82.0","battery-v0.2","","""event"",""trial"",""time""
""fullscreenenter"",""1"",""2811""
","
","
","""event"",""trial"",""time""
""fullscreenenter"",""1"",""2811""
","
","","","1159.6999998092651","","","25","5134","3042","w","elianto","#f73b6a7A"," "," ","1","0","[2014.3000001907349]","1","2","","","5134","78","3","3","lose","go","0"
"pit-trial","197","1234417","0.0-83.0","battery-v0.2","","""event"",""trial"",""time""
""fullscreenenter"",""1"",""2811""
","
","
","""event"",""trial"",""time""
""fullscreenenter"",""1"",""2811""
","
","","","-1","","","25","5134","3042","p","elianto","#3366ff99"," ","-1","0","0","[]","0","2","","","5134","79","5","1","win","go","0"
"pit-trial","198","1239282","0.0-84.0","battery-v0.2","","""event"",""trial"",""time""
""fullscreenenter"",""1"",""2811""
","
","
","""event"",""trial"",""time""
""fullscreenenter"",""1"",""2811""
","
","","","-1","","","25","5134","3042","s","elianto","#3366ff99","-1","-1","1","+10","[]","0","2","","","5134","80","4","2","win","no-go","0"
"pit-trial","199","1244155","0.0-85.0","battery-v0.2","","""event"",""trial"",""time""
""fullscreenenter"",""1"",""2811""
","
","
","""event"",""trial"",""time""
""fullscreenenter"",""1"",""2811""
","
","","","-1","","","25","5134","3042","p","elianto","#3366ff99"," ","-1","0","+10","[]","0","2","","","5134","81","5","1","win","go","1"
"pit-trial","200","1248610","0.0-86.0","battery-v0.2","","""event"",""trial"",""time""
""fullscreenenter"",""1"",""2811""
","
","
","""event"",""trial"",""time""
""fullscreenenter"",""1"",""2811""
","
","","","1589.3999996185303","","","25","5134","3042","a","elianto","#f73b6a7A"," "," ","1","0","[2447.3999996185303]","1","2","","","5134","82","7","3","lose","go","0"
"pit-trial","201","1253482","0.0-87.0","battery-v0.2","","""event"",""trial"",""time""
""fullscreenenter"",""1"",""2811""
","
","
","""event"",""trial"",""time""
""fullscreenenter"",""1"",""2811""
","
","","","-1","","","25","5134","3042","g","elianto","#f73b6a7A","-1","-1","1","0","[]","0","2","","","5134","83","6","4","lose","no-go","0"
"pit-trial","202","1258362","0.0-88.0","battery-v0.2","","""event"",""trial"",""time""
""fullscreenenter"",""1"",""2811""
","
","
","""event"",""trial"",""time""
""fullscreenenter"",""1"",""2811""
","
","","","-1","","","25","5134","3042","s","elianto","#3366ff99","-1","-1","1","+10","[]","0","2","","","5134","84","4","2","win","no-go","0"
"pit-trial","203","1263147","0.0-89.0","battery-v0.2","","""event"",""trial"",""time""
""fullscreenenter"",""1"",""2811""
","
","
","""event"",""trial"",""time""
""fullscreenenter"",""1"",""2811""
","
","","","1913.7999992370605","","","25","5134","3042","p","elianto","#3366ff99"," "," ","1","+10","[2770.4000005722046]","1","2","","","5134","85","5","1","win","go","0"
"pit-trial","204","1268018","0.0-90.0","battery-v0.2","","""event"",""trial"",""time""
""fullscreenenter"",""1"",""2811""
","
","
","""event"",""trial"",""time""
""fullscreenenter"",""1"",""2811""
","
","","","-1","","","25","5134","3042","a","elianto","#f73b6a7A"," ","-1","0","-10","[]","0","2","","","5134","86","7","3","lose","go","0"
"pit-trial","205","1272891","0.0-91.0","battery-v0.2","","""event"",""trial"",""time""
""fullscreenenter"",""1"",""2811""
","
","
","""event"",""trial"",""time""
""fullscreenenter"",""1"",""2811""
","
","","","-1","","","25","5134","3042","g","elianto","#f73b6a7A","-1","-1","1","0","[]","0","2","","","5134","87","6","4","lose","no-go","0"
"pit-trial","206","1277762","0.0-92.0","battery-v0.2","","""event"",""trial"",""time""
""fullscreenenter"",""1"",""2811""
","
","
","""event"",""trial"",""time""
""fullscreenenter"",""1"",""2811""
","
","","","-1","","","25","5134","3042","s","elianto","#3366ff99","-1","-1","1","+10","[]","0","2","","","5134","88","4","2","win","no-go","0"
"pit-trial","207","1282633","0.0-93.0","battery-v0.2","","""event"",""trial"",""time""
""fullscreenenter"",""1"",""2811""
","
","
","""event"",""trial"",""time""
""fullscreenenter"",""1"",""2811""
","
","","","-1","","","25","5134","3042","a","elianto","#f73b6a7A"," ","-1","0","-10","[]","0","2","","","5134","89","7","3","lose","go","0"
"pit-trial","208","1287507","0.0-94.0","battery-v0.2","","""event"",""trial"",""time""
""fullscreenenter"",""1"",""2811""
","
","
","""event"",""trial"",""time""
""fullscreenenter"",""1"",""2811""
","
","","","-1","","","25","5134","3042","g","elianto","#f73b6a7A","-1","-1","1","0","[]","0","2","","","5134","90","6","4","lose","no-go","0"
"pit-trial","209","1292378","0.0-95.0","battery-v0.2","","""event"",""trial"",""time""
""fullscreenenter"",""1"",""2811""
","
","
","""event"",""trial"",""time""
""fullscreenenter"",""1"",""2811""
","
","","","-1","","","25","5134","3042","s","elianto","#3366ff99","-1","-1","1","+10","[]","0","2","","","5134","91","4","2","win","no-go","0"
"pit-trial","210","1296313","0.0-96.0","battery-v0.2","","""event"",""trial"",""time""
""fullscreenenter"",""1"",""2811""
","
","
","""event"",""trial"",""time""
""fullscreenenter"",""1"",""2811""
","
","","","1066.1999998092651","","","25","5134","3042","p","elianto","#3366ff99"," "," ","1","+10","[1922.6000003814697]","1","2","","","5134","92","5","1","win","go","0"
"pit-trial","211","1301187","0.0-97.0","battery-v0.2","","""event"",""trial"",""time""
""fullscreenenter"",""1"",""2811""
","
","
","""event"",""trial"",""time""
""fullscreenenter"",""1"",""2811""
","
","","","-1","","","25","5134","3042","g","elianto","#f73b6a7A","-1","-1","1","0","[]","0","2","","","5134","93","6","4","lose","no-go","0"
"pit-trial","212","1304923","0.0-98.0","battery-v0.2","","""event"",""trial"",""time""
""fullscreenenter"",""1"",""2811""
","
","
","""event"",""trial"",""time""
""fullscreenenter"",""1"",""2811""
","
","","","864.8999996185303","","","25","5134","3042","p","elianto","#3366ff99"," "," ","1","0","[1721.5]","1","2","","","5134","94","5","1","win","go","1"
"pit-trial","213","1309234","0.0-99.0","battery-v0.2","","""event"",""trial"",""time""
""fullscreenenter"",""1"",""2811""
","
","
","""event"",""trial"",""time""
""fullscreenenter"",""1"",""2811""
","
","","","1443.8000001907349","","","25","5134","3042","l","elianto","#3366ff99","-1"," ","0","0","[2296.699999809265]","1","2","","","5134","95","8","2","win","no-go","0"
"pit-trial","214","1314106","0.0-100.0","battery-v0.2","","""event"",""trial"",""time""
""fullscreenenter"",""1"",""2811""
","
","
","""event"",""trial"",""time""
""fullscreenenter"",""1"",""2811""
","
","","","-1","","","25","5134","3042","a","elianto","#f73b6a7A"," ","-1","0","-10","[]","0","2","","","5134","96","7","3","lose","go","0"
"pit-trial","215","1318378","0.0-101.0","battery-v0.2","","""event"",""trial"",""time""
""fullscreenenter"",""1"",""2811""
","
","
","""event"",""trial"",""time""
""fullscreenenter"",""1"",""2811""
","
","","","1402","","","25","5134","3042","p","elianto","#3366ff99"," "," ","1","+10","[2260.7000007629395]","1","2","","","5134","97","5","1","win","go","0"
"pit-trial","216","1323251","0.0-102.0","battery-v0.2","","""event"",""trial"",""time""
""fullscreenenter"",""1"",""2811""
","
","
","""event"",""trial"",""time""
""fullscreenenter"",""1"",""2811""
","
","","","-1","","","25","5134","3042","g","elianto","#f73b6a7A","-1","-1","1","-10","[]","0","2","","","5134","98","6","4","lose","no-go","1"
"pit-trial","217","1327250","0.0-103.0","battery-v0.2","","""event"",""trial"",""time""
""fullscreenenter"",""1"",""2811""
","
","
","""event"",""trial"",""time""
""fullscreenenter"",""1"",""2811""
","
","","","1129","","","25","5134","3042","l","elianto","#3366ff99","-1"," ","0","0","[1986.5]","1","2","","","5134","99","8","2","win","no-go","0"
"pit-trial","218","1332133","0.0-104.0","battery-v0.2","","""event"",""trial"",""time""
""fullscreenenter"",""1"",""2811""
","
","
","""event"",""trial"",""time""
""fullscreenenter"",""1"",""2811""
","
","","","-1","","","25","5134","3042","a","elianto","#f73b6a7A"," ","-1","0","0","[]","0","2","","","5134","100","7","3","lose","go","1"
"pit-trial","219","1337002","0.0-105.0","battery-v0.2","","""event"",""trial"",""time""
""fullscreenenter"",""1"",""2811""
","
","
","""event"",""trial"",""time""
""fullscreenenter"",""1"",""2811""
","
","","","-1","","","25","5134","3042","g","elianto","#f73b6a7A","-1","-1","1","0","[]","0","2","","","5134","101","6","4","lose","no-go","0"
"pit-trial","220","1341090","0.0-106.0","battery-v0.2","","""event"",""trial"",""time""
""fullscreenenter"",""1"",""2811""
","
","
","""event"",""trial"",""time""
""fullscreenenter"",""1"",""2811""
","
","","","1217.5999994277954","","","25","5134","3042","p","elianto","#3366ff99"," "," ","1","+10","[2075.0999994277954]","1","2","","","5134","102","5","1","win","go","0"
"pit-trial","221","1345955","0.0-107.0","battery-v0.2","","""event"",""trial"",""time""
""fullscreenenter"",""1"",""2811""
","
","
","""event"",""trial"",""time""
""fullscreenenter"",""1"",""2811""
","
","","","-1","","","25","5134","3042","l","elianto","#3366ff99","-1","-1","1","+10","[]","0","2","","","5134","103","8","2","win","no-go","0"
"pit-trial","222","1350259","0.0-108.0","battery-v0.2","","""event"",""trial"",""time""
""fullscreenenter"",""1"",""2811""
","
","
","""event"",""trial"",""time""
""fullscreenenter"",""1"",""2811""
","
","","","1441.3000001907349","","","25","5134","3042","u","elianto","#3366ff99","-1"," ","0","0","[2291.6000003814697]","1","2","","","5134","104","9","2","win","no-go","0"
"pit-trial","223","1354295","0.0-109.0","battery-v0.2","","""event"",""trial"",""time""
""fullscreenenter"",""1"",""2811""
","
","
","""event"",""trial"",""time""
""fullscreenenter"",""1"",""2811""
","
","","","1157.3999996185303","","","25","5134","3042","p","elianto","#3366ff99"," "," ","1","+10","[2013.8000001907349]","1","2","","","5134","105","5","1","win","go","0"
"pit-trial","224","1358171","0.0-110.0","battery-v0.2","","""event"",""trial"",""time""
""fullscreenenter"",""1"",""2811""
","
","
","""event"",""trial"",""time""
""fullscreenenter"",""1"",""2811""
","
","","","1015.8999996185303","","","25","5134","3042","u","elianto","#3366ff99","-1"," ","0","0","[1868.0999994277954]","1","2","","","5134","106","9","2","win","no-go","0"
"pit-trial","225","1363042","0.0-111.0","battery-v0.2","","""event"",""trial"",""time""
""fullscreenenter"",""1"",""2811""
","
","
","""event"",""trial"",""time""
""fullscreenenter"",""1"",""2811""
","
","","","-1","","","25","5134","3042","g","elianto","#f73b6a7A","-1","-1","1","0","[]","0","2","","","5134","107","6","4","lose","no-go","0"
"pit-trial","226","1367906","0.0-112.0","battery-v0.2","","""event"",""trial"",""time""
""fullscreenenter"",""1"",""2811""
","
","
","""event"",""trial"",""time""
""fullscreenenter"",""1"",""2811""
","
","","","-1","","","25","5134","3042","l","elianto","#3366ff99","-1","-1","1","+10","[]","0","2","","","5134","108","8","2","win","no-go","0"
"pit-trial","227","1371731","0.0-113.0","battery-v0.2","","""event"",""trial"",""time""
""fullscreenenter"",""1"",""2811""
","
","
","""event"",""trial"",""time""
""fullscreenenter"",""1"",""2811""
","
","","","962.6999998092651","","","25","5134","3042","p","elianto","#3366ff99"," "," ","1","+10","[1813.6000003814697]","1","2","","","5134","109","5","1","win","go","0"
"pit-trial","228","1375378","0.0-114.0","battery-v0.2","","""event"",""trial"",""time""
""fullscreenenter"",""1"",""2811""
","
","
","""event"",""trial"",""time""
""fullscreenenter"",""1"",""2811""
","
","","","789.7000007629395","","","25","5134","3042","u","elianto","#3366ff99","-1"," ","0","0","[1639.9000005722046]","1","2","","","5134","110","9","2","win","no-go","0"
"pit-trial","229","1380249","0.0-115.0","battery-v0.2","","""event"",""trial"",""time""
""fullscreenenter"",""1"",""2811""
","
","
","""event"",""trial"",""time""
""fullscreenenter"",""1"",""2811""
","
","","","-1","","","25","5134","3042","l","elianto","#3366ff99","-1","-1","1","+10","[]","0","2","","","5134","111","8","2","win","no-go","0"
"pit-trial","230","1385114","0.0-116.0","battery-v0.2","","""event"",""trial"",""time""
""fullscreenenter"",""1"",""2811""
","
","
","""event"",""trial"",""time""
""fullscreenenter"",""1"",""2811""
","
","","","-1","","","25","5134","3042","g","elianto","#f73b6a7A","-1","-1","1","-10","[]","0","2","","","5134","112","6","4","lose","no-go","1"
"pit-trial","231","1389978","0.0-117.0","battery-v0.2","","""event"",""trial"",""time""
""fullscreenenter"",""1"",""2811""
","
","
","""event"",""trial"",""time""
""fullscreenenter"",""1"",""2811""
","
","","","-1","","","25","5134","3042","l","elianto","#3366ff99","-1","-1","1","0","[]","0","2","","","5134","113","8","2","win","no-go","1"
"pit-trial","232","1394850","0.0-118.0","battery-v0.2","","""event"",""trial"",""time""
""fullscreenenter"",""1"",""2811""
","
","
","""event"",""trial"",""time""
""fullscreenenter"",""1"",""2811""
","
","","","-1","","","25","5134","3042","a","elianto","#f73b6a7A"," ","-1","0","-10","[]","0","2","","","5134","114","7","3","lose","go","0"
"pit-trial","233","1399714","0.0-119.0","battery-v0.2","","""event"",""trial"",""time""
""fullscreenenter"",""1"",""2811""
","
","
","""event"",""trial"",""time""
""fullscreenenter"",""1"",""2811""
","
","","","-1","","","25","5134","3042","u","elianto","#3366ff99","-1","-1","1","0","[]","0","2","","","5134","115","9","2","win","no-go","1"
"pit-trial","234","1403609","0.0-120.0","battery-v0.2","","""event"",""trial"",""time""
""fullscreenenter"",""1"",""2811""
","
","
","""event"",""trial"",""time""
""fullscreenenter"",""1"",""2811""
","
","","","1036","","","25","5134","3042","p","elianto","#3366ff99"," "," ","1","+10","[1886.9000005722046]","1","2","","","5134","116","5","1","win","go","0"
"pit-trial","235","1408474","0.0-121.0","battery-v0.2","","""event"",""trial"",""time""
""fullscreenenter"",""1"",""2811""
","
","
","""event"",""trial"",""time""
""fullscreenenter"",""1"",""2811""
","
","","","-1","","","25","5134","3042","l","elianto","#3366ff99","-1","-1","1","+10","[]","0","2","","","5134","117","8","2","win","no-go","0"
"pit-trial","236","1412243","0.0-122.0","battery-v0.2","","""event"",""trial"",""time""
""fullscreenenter"",""1"",""2811""
","
","
","""event"",""trial"",""time""
""fullscreenenter"",""1"",""2811""
","
","","","903.6999998092651","","","25","5134","3042","p","elianto","#3366ff99"," "," ","1","+10","[1759.5]","1","2","","","5134","118","5","1","win","go","0"
"pit-trial","237","1417114","0.0-123.0","battery-v0.2","","""event"",""trial"",""time""
""fullscreenenter"",""1"",""2811""
","
","
","""event"",""trial"",""time""
""fullscreenenter"",""1"",""2811""
","
","","","-1","","","25","5134","3042","g","elianto","#f73b6a7A","-1","-1","1","0","[]","0","2","","","5134","119","6","4","lose","no-go","0"
"pit-trial","238","1421978","0.0-124.0","battery-v0.2","","""event"",""trial"",""time""
""fullscreenenter"",""1"",""2811""
","
","
","""event"",""trial"",""time""
""fullscreenenter"",""1"",""2811""
","
","","","-1","","","25","5134","3042","u","elianto","#3366ff99","-1","-1","1","+10","[]","0","2","","","5134","120","9","2","win","no-go","0"
"pit-trial","239","1426850","0.0-125.0","battery-v0.2","","""event"",""trial"",""time""
""fullscreenenter"",""1"",""2811""
","
","
","""event"",""trial"",""time""
""fullscreenenter"",""1"",""2811""
","
","","","-1","","","25","5134","3042","u","elianto","#3366ff99","-1","-1","1","0","[]","0","2","","","5134","121","9","2","win","no-go","1"
"pit-trial","240","1431714","0.0-126.0","battery-v0.2","","""event"",""trial"",""time""
""fullscreenenter"",""1"",""2811""
","
","
","""event"",""trial"",""time""
""fullscreenenter"",""1"",""2811""
","
","","","-1","","","25","5134","3042","l","elianto","#3366ff99","-1","-1","1","0","[]","0","2","","","5134","122","8","2","win","no-go","1"
"pit-trial","241","1436578","0.0-127.0","battery-v0.2","","""event"",""trial"",""time""
""fullscreenenter"",""1"",""2811""
","
","
","""event"",""trial"",""time""
""fullscreenenter"",""1"",""2811""
","
","","","-1","","","25","5134","3042","a","elianto","#f73b6a7A"," ","-1","0","-10","[]","0","2","","","5134","123","7","3","lose","go","0"
"pit-trial","242","1441451","0.0-128.0","battery-v0.2","","""event"",""trial"",""time""
""fullscreenenter"",""1"",""2811""
","
","
","""event"",""trial"",""time""
""fullscreenenter"",""1"",""2811""
","
","","","-1","","","25","5134","3042","p","elianto","#3366ff99"," ","-1","0","+10","[2920.800000190735]","1","2","","","5134","124","5","1","win","go","1"
"pit-trial","243","1446322","0.0-129.0","battery-v0.2","","""event"",""trial"",""time""
""fullscreenenter"",""1"",""2811""
","
","
","""event"",""trial"",""time""
""fullscreenenter"",""1"",""2811""
","
","","","-1","","","25","5134","3042","l","elianto","#3366ff99","-1","-1","1","+10","[]","0","2","","","5134","125","8","2","win","no-go","0"
"pit-trial","244","1451194","0.0-130.0","battery-v0.2","","""event"",""trial"",""time""
""fullscreenenter"",""1"",""2811""
","
","
","""event"",""trial"",""time""
""fullscreenenter"",""1"",""2811""
","
","","","-1","","","25","5134","3042","a","elianto","#f73b6a7A"," ","-1","0","-10","[]","0","2","","","5134","126","7","3","lose","go","0"
"pit-trial","245","1456066","0.0-131.0","battery-v0.2","","""event"",""trial"",""time""
""fullscreenenter"",""1"",""2811""
","
","
","""event"",""trial"",""time""
""fullscreenenter"",""1"",""2811""
","
","","","-1","","","25","5134","3042","u","elianto","#3366ff99","-1","-1","1","0","[]","0","2","","","5134","127","9","2","win","no-go","1"
"pit-trial","246","1460930","0.0-132.0","battery-v0.2","","""event"",""trial"",""time""
""fullscreenenter"",""1"",""2811""
","
","
","""event"",""trial"",""time""
""fullscreenenter"",""1"",""2811""
","
","","","-1","","","25","5134","3042","g","elianto","#f73b6a7A","-1","-1","1","-10","[]","0","2","","","5134","128","6","4","lose","no-go","1"
"pit-trial","247","1465802","0.0-133.0","battery-v0.2","","""event"",""trial"",""time""
""fullscreenenter"",""1"",""2811""
","
","
","""event"",""trial"",""time""
""fullscreenenter"",""1"",""2811""
","
","","","-1","","","25","5134","3042","g","elianto","#f73b6a7A","-1","-1","1","0","[]","0","2","","","5134","129","6","4","lose","no-go","0"
"pit-trial","248","1470675","0.0-134.0","battery-v0.2","","""event"",""trial"",""time""
""fullscreenenter"",""1"",""2811""
","
","
","""event"",""trial"",""time""
""fullscreenenter"",""1"",""2811""
","
","","","-1","","","25","5134","3042","a","elianto","#f73b6a7A"," ","-1","0","-10","[]","0","2","","","5134","130","7","3","lose","go","0"
"pit-trial","249","1475547","0.0-135.0","battery-v0.2","","""event"",""trial"",""time""
""fullscreenenter"",""1"",""2811""
","
","
","""event"",""trial"",""time""
""fullscreenenter"",""1"",""2811""
","
","","","-1","","","25","5134","3042","l","elianto","#3366ff99","-1","-1","1","0","[]","0","2","","","5134","131","8","2","win","no-go","1"
"pit-trial","250","1480419","0.0-136.0","battery-v0.2","","""event"",""trial"",""time""
""fullscreenenter"",""1"",""2811""
","
","
","""event"",""trial"",""time""
""fullscreenenter"",""1"",""2811""
","
","","","-1","","","25","5134","3042","u","elianto","#3366ff99","-1","-1","1","+10","[]","0","2","","","5134","132","9","2","win","no-go","0"
"pit-trial","251","1485291","0.0-137.0","battery-v0.2","","""event"",""trial"",""time""
""fullscreenenter"",""1"",""2811""
","
","
","""event"",""trial"",""time""
""fullscreenenter"",""1"",""2811""
","
","","","-1","","","25","5134","3042","a","elianto","#f73b6a7A"," ","-1","0","-10","[]","0","2","","","5134","133","7","3","lose","go","0"
"pit-trial","252","1490170","0.0-138.0","battery-v0.2","","""event"",""trial"",""time""
""fullscreenenter"",""1"",""2811""
","
","
","""event"",""trial"",""time""
""fullscreenenter"",""1"",""2811""
","
","","","-1","","","25","5134","3042","u","elianto","#3366ff99","-1","-1","1","0","[]","0","2","","","5134","134","9","2","win","no-go","1"
"pit-trial","253","1495042","0.0-139.0","battery-v0.2","","""event"",""trial"",""time""
""fullscreenenter"",""1"",""2811""
","
","
","""event"",""trial"",""time""
""fullscreenenter"",""1"",""2811""
","
","","","-1","","","25","5134","3042","l","elianto","#3366ff99","-1","-1","1","+10","[]","0","2","","","5134","135","8","2","win","no-go","0"
"pit-trial","254","1499921","0.0-140.0","battery-v0.2","","""event"",""trial"",""time""
""fullscreenenter"",""1"",""2811""
","
","
","""event"",""trial"",""time""
""fullscreenenter"",""1"",""2811""
","
","","","-1","","","25","5134","3042","g","elianto","#f73b6a7A","-1","-1","1","0","[]","0","2","","","5134","136","6","4","lose","no-go","0"
"pit-trial","255","1504795","0.0-141.0","battery-v0.2","","""event"",""trial"",""time""
""fullscreenenter"",""1"",""2811""
","
","
","""event"",""trial"",""time""
""fullscreenenter"",""1"",""2811""
","
","","","-1","","","25","5134","3042","u","elianto","#3366ff99","-1","-1","1","+10","[]","0","2","","","5134","137","9","2","win","no-go","0"
"pit-trial","256","1509665","0.0-142.0","battery-v0.2","","""event"",""trial"",""time""
""fullscreenenter"",""1"",""2811""
","
","
","""event"",""trial"",""time""
""fullscreenenter"",""1"",""2811""
","
","","","-1","","","25","5134","3042","l","elianto","#3366ff99","-1","-1","1","+10","[]","0","2","","","5134","138","8","2","win","no-go","0"
"pit-trial","257","1513345","0.0-143.0","battery-v0.2","","""event"",""trial"",""time""
""fullscreenenter"",""1"",""2811""
","
","
","""event"",""trial"",""time""
""fullscreenenter"",""1"",""2811""
","
","","","821","","","25","5134","3042","a","elianto","#f73b6a7A"," "," ","1","-10","[1672.6999998092651]","1","2","","","5134","139","7","3","lose","go","1"
"pit-trial","258","1518225","0.0-144.0","battery-v0.2","","""event"",""trial"",""time""
""fullscreenenter"",""1"",""2811""
","
","
","""event"",""trial"",""time""
""fullscreenenter"",""1"",""2811""
","
","","","-1","","","25","5134","3042","g","elianto","#f73b6a7A","-1","-1","1","-10","[]","0","2","","","5134","140","6","4","lose","no-go","1"
"pit-instructions","259","1581191","0.0-145.0","battery-v0.2","","""event"",""trial"",""time""
""fullscreenenter"",""1"",""2811""
","
","
","""event"",""trial"",""time""
""fullscreenenter"",""1"",""2811""
","
","","[{""page_index"":0,""viewing_time"":52220.699999809265},{""page_index"":1,""viewing_time"":10736.5}]","62958.199999809265","","","","","","","","","","","","","","","","","","","","","","","",""
"pit-trial","260","1586071","0.0-146.0","battery-v0.2","","""event"",""trial"",""time""
""fullscreenenter"",""1"",""2811""
","
","
","""event"",""trial"",""time""
""fullscreenenter"",""1"",""2811""
","
","","","-1","","","25","5134","3042","h","elianto","#f73b6a7A","-1","-1","1","0","[]","0","3","","","5134","141","3","4","lose","no-go","0"
"pit-trial","261","1590523","0.0-147.0","battery-v0.2","","""event"",""trial"",""time""
""fullscreenenter"",""1"",""2811""
","
","
","""event"",""trial"",""time""
""fullscreenenter"",""1"",""2811""
","
","","","1582.9000005722046","","","25","5134","3042","r","elianto","#3366ff99","-1"," ","0","0","[2440.5]","1","3","","","5134","142","1","2","win","no-go","0"
"pit-trial","262","1595405","0.0-148.0","battery-v0.2","","""event"",""trial"",""time""
""fullscreenenter"",""1"",""2811""
","
","
","""event"",""trial"",""time""
""fullscreenenter"",""1"",""2811""
","
","","","-1","","","25","5134","3042","m","elianto","#f73b6a7A"," ","-1","0","-10","[]","0","3","","","5134","143","0","3","lose","go","0"
"pit-trial","263","1600284","0.0-149.0","battery-v0.2","","""event"",""trial"",""time""
""fullscreenenter"",""1"",""2811""
","
","
","""event"",""trial"",""time""
""fullscreenenter"",""1"",""2811""
","
","","","-1","","","25","5134","3042","y","elianto","#f73b6a7A"," ","-1","0","-10","[]","0","3","","","5134","144","2","3","lose","go","0"
"pit-trial","264","1605171","0.0-150.0","battery-v0.2","","""event"",""trial"",""time""
""fullscreenenter"",""1"",""2811""
","
","
","""event"",""trial"",""time""
""fullscreenenter"",""1"",""2811""
","
","","","-1","","","25","5134","3042","r","elianto","#3366ff99","-1","-1","1","+10","[]","0","3","","","5134","145","1","2","win","no-go","0"
"pit-trial","265","1609081","0.0-151.0","battery-v0.2","","""event"",""trial"",""time""
""fullscreenenter"",""1"",""2811""
","
","
","""event"",""trial"",""time""
""fullscreenenter"",""1"",""2811""
","
","","","1030.2999992370605","","","25","5134","3042","y","elianto","#f73b6a7A"," "," ","1","0","[1887]","1","3","","","5134","146","2","3","lose","go","0"
"pit-trial","266","1613954","0.0-152.0","battery-v0.2","","""event"",""trial"",""time""
""fullscreenenter"",""1"",""2811""
","
","
","""event"",""trial"",""time""
""fullscreenenter"",""1"",""2811""
","
","","","-1","","","25","5134","3042","m","elianto","#f73b6a7A"," ","-1","0","-10","[]","0","3","","","5134","147","0","3","lose","go","0"
"pit-trial","267","1618826","0.0-153.0","battery-v0.2","","""event"",""trial"",""time""
""fullscreenenter"",""1"",""2811""
","
","
","""event"",""trial"",""time""
""fullscreenenter"",""1"",""2811""
","
","","","-1","","","25","5134","3042","h","elianto","#f73b6a7A","-1","-1","1","-10","[]","0","3","","","5134","148","3","4","lose","no-go","1"
"pit-trial","268","1623698","0.0-154.0","battery-v0.2","","""event"",""trial"",""time""
""fullscreenenter"",""1"",""2811""
","
","
","""event"",""trial"",""time""
""fullscreenenter"",""1"",""2811""
","
","","","-1","","","25","5134","3042","r","elianto","#3366ff99","-1","-1","1","+10","[]","0","3","","","5134","149","1","2","win","no-go","0"
"pit-trial","269","1628562","0.0-155.0","battery-v0.2","","""event"",""trial"",""time""
