"trial_type","trial_index","time_elapsed","internal_node_id","task_version","subject_id","interactions","blur_events","focus_events","fullscreenenter_events","fullscreenexit_events","success","view_history","rt","responses","num_errors","age","subject","participantId","rune","rune_set","hex","correct","choice","accuracy","outcome","keys","total_keys","block","practice","value","sub","trial","stimulus","robot","valence","action","sham"
"pavlovia","0","11","0.0-0.0","battery-v0.2","","""event"",""trial"",""time""
""fullscreenenter"",""1"",""1296""
","
","
","""event"",""trial"",""time""
""fullscreenenter"",""1"",""1296""
","
","","","","","","","","","","","","","","","","","","","","","","","","","","",""
"fullscreen","1","2286","0.0-1.0","battery-v0.2","","""event"",""trial"",""time""
""fullscreenenter"",""1"",""1296""
""fullscreenexit"",""2"",""4625""
""blur"",""2"",""5913""
""focus"",""2"",""6236""
""blur"",""2"",""6803""
""focus"",""2"",""8294""
","""event"",""trial"",""time""
""blur"",""2"",""5913""
""blur"",""2"",""6803""
","""event"",""trial"",""time""
""focus"",""2"",""6236""
""focus"",""2"",""8294""
","""event"",""trial"",""time""
""fullscreenenter"",""1"",""1296""
","""event"",""trial"",""time""
""fullscreenexit"",""2"",""4625""
","true","","","","","","","","","","","","","","","","","","","","","","","","","",""
"pit-instructions","2","14956","0.0-2.0-0.0","battery-v0.2","","""event"",""trial"",""time""
""fullscreenenter"",""1"",""1296""
""fullscreenexit"",""2"",""4625""
""blur"",""2"",""5913""
""focus"",""2"",""6236""
""blur"",""2"",""6803""
""focus"",""2"",""8294""
","""event"",""trial"",""time""
""blur"",""2"",""5913""
""blur"",""2"",""6803""
","""event"",""trial"",""time""
""focus"",""2"",""6236""
""focus"",""2"",""8294""
","""event"",""trial"",""time""
""fullscreenenter"",""1"",""1296""
","""event"",""trial"",""time""
""fullscreenexit"",""2"",""4625""
","","[{""page_index"":0,""viewing_time"":12667.5}]","12667.800000011921","","","","","","","","","","","","","","","","","","","","","","","",""
"pit-comprehension","3","18085","0.0-2.0-1.0-0.0","battery-v0.2","","""event"",""trial"",""time""
""fullscreenenter"",""1"",""1296""
""fullscreenexit"",""2"",""4625""
""blur"",""2"",""5913""
""focus"",""2"",""6236""
""blur"",""2"",""6803""
""focus"",""2"",""8294""
","""event"",""trial"",""time""
""blur"",""2"",""5913""
""blur"",""2"",""6803""
","""event"",""trial"",""time""
""focus"",""2"",""6236""
""focus"",""2"",""8294""
","""event"",""trial"",""time""
""fullscreenenter"",""1"",""1296""
","""event"",""trial"",""time""
""fullscreenexit"",""2"",""4625""
","","","3124.100000023842","[""shark""]","0","15","9487","4384","","","","","","","","","","","","","","","","","","",""
"pit-instructions","4","19344","0.0-2.0-1.0-1.0","battery-v0.2","","""event"",""trial"",""time""
""fullscreenenter"",""1"",""1296""
""fullscreenexit"",""2"",""4625""
""blur"",""2"",""5913""
""focus"",""2"",""6236""
""blur"",""2"",""6803""
""focus"",""2"",""8294""
","""event"",""trial"",""time""
""blur"",""2"",""5913""
""blur"",""2"",""6803""
","""event"",""trial"",""time""
""focus"",""2"",""6236""
""focus"",""2"",""8294""
","""event"",""trial"",""time""
""fullscreenenter"",""1"",""1296""
","""event"",""trial"",""time""
""fullscreenexit"",""2"",""4625""
","","[{""page_index"":0,""viewing_time"":1250}]","1250.199999988079","","","","","","","","","","","","","","","","","","","","","","","",""
"pit-comprehension","5","22382","0.0-2.0-2.0-0.0","battery-v0.2","","""event"",""trial"",""time""
""fullscreenenter"",""1"",""1296""
""fullscreenexit"",""2"",""4625""
""blur"",""2"",""5913""
""focus"",""2"",""6236""
""blur"",""2"",""6803""
""focus"",""2"",""8294""
","""event"",""trial"",""time""
""blur"",""2"",""5913""
""blur"",""2"",""6803""
","""event"",""trial"",""time""
""focus"",""2"",""6236""
""focus"",""2"",""8294""
","""event"",""trial"",""time""
""fullscreenenter"",""1"",""1296""
","""event"",""trial"",""time""
""fullscreenexit"",""2"",""4625""
","","","3034.800000011921","[""tiger""]","0","15","9487","4384","","","","","","","","","","","","","","","","","","",""
"pit-instructions","6","23440","0.0-2.0-2.0-1.0","battery-v0.2","","""event"",""trial"",""time""
""fullscreenenter"",""1"",""1296""
""fullscreenexit"",""2"",""4625""
""blur"",""2"",""5913""
""focus"",""2"",""6236""
""blur"",""2"",""6803""
""focus"",""2"",""8294""
""blur"",""7"",""71682""
""focus"",""7"",""138752""
""blur"",""7"",""144368""
""focus"",""7"",""150702""
","""event"",""trial"",""time""
""blur"",""2"",""5913""
""blur"",""2"",""6803""
""blur"",""7"",""71682""
""blur"",""7"",""144368""
","""event"",""trial"",""time""
""focus"",""2"",""6236""
""focus"",""2"",""8294""
""focus"",""7"",""138752""
""focus"",""7"",""150702""
","""event"",""trial"",""time""
""fullscreenenter"",""1"",""1296""
","""event"",""trial"",""time""
""fullscreenexit"",""2"",""4625""
","","[{""page_index"":0,""viewing_time"":1054.7000000178814}]","1054.9000000059605","","","","","","","","","","","","","","","","","","","","","","","",""
"pit-instructions","7","185638","0.0-2.0-3.0","battery-v0.2","","""event"",""trial"",""time""
""fullscreenenter"",""1"",""1296""
""fullscreenexit"",""2"",""4625""
""blur"",""2"",""5913""
""focus"",""2"",""6236""
""blur"",""2"",""6803""
""focus"",""2"",""8294""
""blur"",""7"",""71682""
""focus"",""7"",""138752""
""blur"",""7"",""144368""
""focus"",""7"",""150702""
","""event"",""trial"",""time""
""blur"",""2"",""5913""
""blur"",""2"",""6803""
""blur"",""7"",""71682""
""blur"",""7"",""144368""
","""event"",""trial"",""time""
""focus"",""2"",""6236""
""focus"",""2"",""8294""
""focus"",""7"",""138752""
""focus"",""7"",""150702""
","""event"",""trial"",""time""
""fullscreenenter"",""1"",""1296""
","""event"",""trial"",""time""
""fullscreenexit"",""2"",""4625""
","","[{""page_index"":0,""viewing_time"":8706.59999999404},{""page_index"":1,""viewing_time"":7903.800000011921},{""page_index"":2,""viewing_time"":6201.899999976158},{""page_index"":3,""viewing_time"":6874.200000017881},{""page_index"":4,""viewing_time"":5584},{""page_index"":5,""viewing_time"":5157.799999982119},{""page_index"":6,""viewing_time"":5350.600000023842},{""page_index"":7,""viewing_time"":70997.29999998212},{""page_index"":8,""viewing_time"":10612.59999999404},{""page_index"":9,""viewing_time"":9167.600000023842},{""page_index"":10,""viewing_time"":7505.899999976158},{""page_index"":11,""viewing_time"":4353.800000011921},{""page_index"":12,""viewing_time"":7332.4000000059605},{""page_index"":13,""viewing_time"":6446.0999999940395}]","162194.90000000596","","","","","","","","","","","","","","","","","","","","","","","",""
"pit-trial","8","190493","0.0-2.0-4.0-0.0","battery-v0.2","","""event"",""trial"",""time""
""fullscreenenter"",""1"",""1296""
""fullscreenexit"",""2"",""4625""
""blur"",""2"",""5913""
""focus"",""2"",""6236""
""blur"",""2"",""6803""
""focus"",""2"",""8294""
""blur"",""7"",""71682""
""focus"",""7"",""138752""
""blur"",""7"",""144368""
""focus"",""7"",""150702""
","""event"",""trial"",""time""
""blur"",""2"",""5913""
""blur"",""2"",""6803""
""blur"",""7"",""71682""
""blur"",""7"",""144368""
","""event"",""trial"",""time""
""focus"",""2"",""6236""
""focus"",""2"",""8294""
""focus"",""7"",""138752""
""focus"",""7"",""150702""
","""event"",""trial"",""time""
""fullscreenenter"",""1"",""1296""
","""event"",""trial"",""time""
""fullscreenexit"",""2"",""4625""
","","","-1","","","15","9487","4384","&#9784;","elianto","#FFFFF080"," ","-1","0","&#10060","[4135.9000000059605,4744]","2","0","0","","","","","","","",""
"pit-trial","9","194189","0.0-2.0-4.1-0.1","battery-v0.2","","""event"",""trial"",""time""
""fullscreenenter"",""1"",""1296""
""fullscreenexit"",""2"",""4625""
""blur"",""2"",""5913""
""focus"",""2"",""6236""
""blur"",""2"",""6803""
""focus"",""2"",""8294""
""blur"",""7"",""71682""
""focus"",""7"",""138752""
""blur"",""7"",""144368""
""focus"",""7"",""150702""
","""event"",""trial"",""time""
""blur"",""2"",""5913""
""blur"",""2"",""6803""
""blur"",""7"",""71682""
""blur"",""7"",""144368""
","""event"",""trial"",""time""
""focus"",""2"",""6236""
""focus"",""2"",""8294""
""focus"",""7"",""138752""
""focus"",""7"",""150702""
","""event"",""trial"",""time""
""fullscreenenter"",""1"",""1296""
","""event"",""trial"",""time""
""fullscreenexit"",""2"",""4625""
","","","838.3000000119209","","","15","9487","4384","&#9784;","elianto","#FFFFF080"," "," ","1","&#10004","[1688.7000000178814]","1","0","0","","","","","","","",""
"pit-trial","10","197704","0.0-2.0-4.2-0.2","battery-v0.2","","""event"",""trial"",""time""
""fullscreenenter"",""1"",""1296""
""fullscreenexit"",""2"",""4625""
""blur"",""2"",""5913""
""focus"",""2"",""6236""
""blur"",""2"",""6803""
""focus"",""2"",""8294""
""blur"",""7"",""71682""
""focus"",""7"",""138752""
""blur"",""7"",""144368""
""focus"",""7"",""150702""
","""event"",""trial"",""time""
""blur"",""2"",""5913""
""blur"",""2"",""6803""
""blur"",""7"",""71682""
""blur"",""7"",""144368""
","""event"",""trial"",""time""
""focus"",""2"",""6236""
""focus"",""2"",""8294""
""focus"",""7"",""138752""
""focus"",""7"",""150702""
","""event"",""trial"",""time""
""fullscreenenter"",""1"",""1296""
","""event"",""trial"",""time""
""fullscreenexit"",""2"",""4625""
","","","645","","","15","9487","4384","&#9784;","elianto","#FFFFF080"," "," ","1","&#10004","[1497.300000011921]","1","0","0","","","","","","","",""
"pit-trial","11","201066","0.0-2.0-4.3-0.3","battery-v0.2","","""event"",""trial"",""time""
""fullscreenenter"",""1"",""1296""
""fullscreenexit"",""2"",""4625""
""blur"",""2"",""5913""
""focus"",""2"",""6236""
""blur"",""2"",""6803""
""focus"",""2"",""8294""
""blur"",""7"",""71682""
""focus"",""7"",""138752""
""blur"",""7"",""144368""
""focus"",""7"",""150702""
","""event"",""trial"",""time""
""blur"",""2"",""5913""
""blur"",""2"",""6803""
""blur"",""7"",""71682""
""blur"",""7"",""144368""
","""event"",""trial"",""time""
""focus"",""2"",""6236""
""focus"",""2"",""8294""
""focus"",""7"",""138752""
""focus"",""7"",""150702""
","""event"",""trial"",""time""
""fullscreenenter"",""1"",""1296""
","""event"",""trial"",""time""
""fullscreenexit"",""2"",""4625""
","","","503.7999999821186","","","15","9487","4384","&#9784;","elianto","#FFFFF080"," "," ","1","&#10004","[1357.8999999761581]","1","0","0","","","","","","","",""
"pit-trial","12","204385","0.0-2.0-4.4-0.4","battery-v0.2","","""event"",""trial"",""time""
""fullscreenenter"",""1"",""1296""
""fullscreenexit"",""2"",""4625""
""blur"",""2"",""5913""
""focus"",""2"",""6236""
""blur"",""2"",""6803""
""focus"",""2"",""8294""
""blur"",""7"",""71682""
""focus"",""7"",""138752""
""blur"",""7"",""144368""
""focus"",""7"",""150702""
","""event"",""trial"",""time""
""blur"",""2"",""5913""
""blur"",""2"",""6803""
""blur"",""7"",""71682""
""blur"",""7"",""144368""
","""event"",""trial"",""time""
""focus"",""2"",""6236""
""focus"",""2"",""8294""
""focus"",""7"",""138752""
""focus"",""7"",""150702""
","""event"",""trial"",""time""
""fullscreenenter"",""1"",""1296""
","""event"",""trial"",""time""
""fullscreenexit"",""2"",""4625""
","","","453.30000001192093","","","15","9487","4384","&#9784;","elianto","#FFFFF080"," "," ","1","&#10004","[1308.8999999761581]","1","0","0","","","","","","","",""
"pit-instructions","13","228904","0.0-2.0-5.0","battery-v0.2","","""event"",""trial"",""time""
""fullscreenenter"",""1"",""1296""
""fullscreenexit"",""2"",""4625""
""blur"",""2"",""5913""
""focus"",""2"",""6236""
""blur"",""2"",""6803""
""focus"",""2"",""8294""
""blur"",""7"",""71682""
""focus"",""7"",""138752""
""blur"",""7"",""144368""
""focus"",""7"",""150702""
","""event"",""trial"",""time""
""blur"",""2"",""5913""
""blur"",""2"",""6803""
""blur"",""7"",""71682""
""blur"",""7"",""144368""
","""event"",""trial"",""time""
""focus"",""2"",""6236""
""focus"",""2"",""8294""
""focus"",""7"",""138752""
""focus"",""7"",""150702""
","""event"",""trial"",""time""
""fullscreenenter"",""1"",""1296""
","""event"",""trial"",""time""
""fullscreenexit"",""2"",""4625""
","","[{""page_index"":0,""viewing_time"":6549.5},{""page_index"":1,""viewing_time"":5865.9000000059605},{""page_index"":2,""viewing_time"":5801.699999988079},{""page_index"":3,""viewing_time"":6298.0999999940395}]","24515.5","","","","","","","","","","","","","","","","","","","","","","","",""
"pit-trial","14","233757","0.0-2.0-6.0-0.0","battery-v0.2","","""event"",""trial"",""time""
""fullscreenenter"",""1"",""1296""
""fullscreenexit"",""2"",""4625""
""blur"",""2"",""5913""
""focus"",""2"",""6236""
""blur"",""2"",""6803""
""focus"",""2"",""8294""
""blur"",""7"",""71682""
""focus"",""7"",""138752""
""blur"",""7"",""144368""
""focus"",""7"",""150702""
","""event"",""trial"",""time""
""blur"",""2"",""5913""
""blur"",""2"",""6803""
""blur"",""7"",""71682""
""blur"",""7"",""144368""
","""event"",""trial"",""time""
""focus"",""2"",""6236""
""focus"",""2"",""8294""
""focus"",""7"",""138752""
""focus"",""7"",""150702""
","""event"",""trial"",""time""
""fullscreenenter"",""1"",""1296""
","""event"",""trial"",""time""
""fullscreenexit"",""2"",""4625""
","","","-1","","","15","9487","4384","&#9854;","elianto","#FFFFF080","-1","-1","1","&#10004","[]","0","0","1","","","","","","","",""
"pit-trial","15","238624","0.0-2.0-6.1-0.1","battery-v0.2","","""event"",""trial"",""time""
""fullscreenenter"",""1"",""1296""
""fullscreenexit"",""2"",""4625""
""blur"",""2"",""5913""
""focus"",""2"",""6236""
""blur"",""2"",""6803""
""focus"",""2"",""8294""
""blur"",""7"",""71682""
""focus"",""7"",""138752""
""blur"",""7"",""144368""
""focus"",""7"",""150702""
","""event"",""trial"",""time""
""blur"",""2"",""5913""
""blur"",""2"",""6803""
""blur"",""7"",""71682""
""blur"",""7"",""144368""
","""event"",""trial"",""time""
""focus"",""2"",""6236""
""focus"",""2"",""8294""
""focus"",""7"",""138752""
""focus"",""7"",""150702""
","""event"",""trial"",""time""
""fullscreenenter"",""1"",""1296""
","""event"",""trial"",""time""
""fullscreenexit"",""2"",""4625""
","","","-1","","","15","9487","4384","&#9854;","elianto","#FFFFF080","-1","-1","1","&#10004","[]","0","0","1","","","","","","","",""
"pit-trial","16","243489","0.0-2.0-6.2-0.2","battery-v0.2","","""event"",""trial"",""time""
""fullscreenenter"",""1"",""1296""
""fullscreenexit"",""2"",""4625""
""blur"",""2"",""5913""
""focus"",""2"",""6236""
""blur"",""2"",""6803""
""focus"",""2"",""8294""
""blur"",""7"",""71682""
""focus"",""7"",""138752""
""blur"",""7"",""144368""
""focus"",""7"",""150702""
","""event"",""trial"",""time""
""blur"",""2"",""5913""
""blur"",""2"",""6803""
""blur"",""7"",""71682""
""blur"",""7"",""144368""
","""event"",""trial"",""time""
""focus"",""2"",""6236""
""focus"",""2"",""8294""
""focus"",""7"",""138752""
""focus"",""7"",""150702""
","""event"",""trial"",""time""
""fullscreenenter"",""1"",""1296""
","""event"",""trial"",""time""
""fullscreenexit"",""2"",""4625""
","","","-1","","","15","9487","4384","&#9854;","elianto","#FFFFF080","-1","-1","1","&#10004","[]","0","0","1","","","","","","","",""
"pit-trial","17","246890","0.0-2.0-6.3-0.3","battery-v0.2","","""event"",""trial"",""time""
""fullscreenenter"",""1"",""1296""
""fullscreenexit"",""2"",""4625""
""blur"",""2"",""5913""
""focus"",""2"",""6236""
""blur"",""2"",""6803""
""focus"",""2"",""8294""
""blur"",""7"",""71682""
""focus"",""7"",""138752""
""blur"",""7"",""144368""
""focus"",""7"",""150702""
","""event"",""trial"",""time""
""blur"",""2"",""5913""
""blur"",""2"",""6803""
""blur"",""7"",""71682""
""blur"",""7"",""144368""
","""event"",""trial"",""time""
""focus"",""2"",""6236""
""focus"",""2"",""8294""
""focus"",""7"",""138752""
""focus"",""7"",""150702""
","""event"",""trial"",""time""
""fullscreenenter"",""1"",""1296""
","""event"",""trial"",""time""
""fullscreenexit"",""2"",""4625""
","","","544.6000000238419","","","15","9487","4384","&#9854;","elianto","#FFFFF080","-1"," ","0","&#10060","[1396.699999988079]","1","0","1","","","","","","","",""
"pit-trial","18","251765","0.0-2.0-6.4-0.4","battery-v0.2","","""event"",""trial"",""time""
""fullscreenenter"",""1"",""1296""
""fullscreenexit"",""2"",""4625""
""blur"",""2"",""5913""
""focus"",""2"",""6236""
""blur"",""2"",""6803""
""focus"",""2"",""8294""
""blur"",""7"",""71682""
""focus"",""7"",""138752""
""blur"",""7"",""144368""
""focus"",""7"",""150702""
","""event"",""trial"",""time""
""blur"",""2"",""5913""
""blur"",""2"",""6803""
""blur"",""7"",""71682""
""blur"",""7"",""144368""
","""event"",""trial"",""time""
""focus"",""2"",""6236""
""focus"",""2"",""8294""
""focus"",""7"",""138752""
""focus"",""7"",""150702""
","""event"",""trial"",""time""
""fullscreenenter"",""1"",""1296""
","""event"",""trial"",""time""
""fullscreenexit"",""2"",""4625""
","","","-1","","","15","9487","4384","&#9854;","elianto","#FFFFF080","-1","-1","1","&#10004","[]","0","0","1","","","","","","","",""
"pit-trial","19","256630","0.0-2.0-6.5-0.5","battery-v0.2","","""event"",""trial"",""time""
""fullscreenenter"",""1"",""1296""
""fullscreenexit"",""2"",""4625""
""blur"",""2"",""5913""
""focus"",""2"",""6236""
""blur"",""2"",""6803""
""focus"",""2"",""8294""
""blur"",""7"",""71682""
""focus"",""7"",""138752""
""blur"",""7"",""144368""
""focus"",""7"",""150702""
","""event"",""trial"",""time""
""blur"",""2"",""5913""
""blur"",""2"",""6803""
""blur"",""7"",""71682""
""blur"",""7"",""144368""
","""event"",""trial"",""time""
""focus"",""2"",""6236""
""focus"",""2"",""8294""
""focus"",""7"",""138752""
""focus"",""7"",""150702""
","""event"",""trial"",""time""
""fullscreenenter"",""1"",""1296""
","""event"",""trial"",""time""
""fullscreenexit"",""2"",""4625""
","","","-1","","","15","9487","4384","&#9854;","elianto","#FFFFF080","-1","-1","1","&#10004","[]","0","0","1","","","","","","","",""
"pit-trial","20","261485","0.0-2.0-6.6-0.6","battery-v0.2","","""event"",""trial"",""time""
""fullscreenenter"",""1"",""1296""
""fullscreenexit"",""2"",""4625""
""blur"",""2"",""5913""
""focus"",""2"",""6236""
""blur"",""2"",""6803""
""focus"",""2"",""8294""
""blur"",""7"",""71682""
""focus"",""7"",""138752""
""blur"",""7"",""144368""
""focus"",""7"",""150702""
","""event"",""trial"",""time""
""blur"",""2"",""5913""
""blur"",""2"",""6803""
""blur"",""7"",""71682""
""blur"",""7"",""144368""
","""event"",""trial"",""time""
""focus"",""2"",""6236""
""focus"",""2"",""8294""
""focus"",""7"",""138752""
""focus"",""7"",""150702""
","""event"",""trial"",""time""
""fullscreenenter"",""1"",""1296""
","""event"",""trial"",""time""
""fullscreenexit"",""2"",""4625""
","","","-1","","","15","9487","4384","&#9854;","elianto","#FFFFF080","-1","-1","1","&#10004","[]","0","0","1","","","","","","","",""
"pit-instructions","21","276552","0.0-2.0-6.6-1.6-0.6","battery-v0.2","","""event"",""trial"",""time""
""fullscreenenter"",""1"",""1296""
""fullscreenexit"",""2"",""4625""
""blur"",""2"",""5913""
""focus"",""2"",""6236""
""blur"",""2"",""6803""
""focus"",""2"",""8294""
""blur"",""7"",""71682""
""focus"",""7"",""138752""
""blur"",""7"",""144368""
""focus"",""7"",""150702""
""blur"",""22"",""332375""
""focus"",""22"",""338441""
","""event"",""trial"",""time""
""blur"",""2"",""5913""
""blur"",""2"",""6803""
""blur"",""7"",""71682""
""blur"",""7"",""144368""
""blur"",""22"",""332375""
","""event"",""trial"",""time""
""focus"",""2"",""6236""
""focus"",""2"",""8294""
""focus"",""7"",""138752""
""focus"",""7"",""150702""
""focus"",""22"",""338441""
","""event"",""trial"",""time""
""fullscreenenter"",""1"",""1296""
","""event"",""trial"",""time""
""fullscreenexit"",""2"",""4625""
","","[{""page_index"":0,""viewing_time"":6436.299999982119},{""page_index"":1,""viewing_time"":8627.800000011921}]","15064.399999976158","","","","","","","","","","","","","","","","","","","","","","","",""
"pit-instructions","22","435048","0.0-2.0-7.0","battery-v0.2","","""event"",""trial"",""time""
""fullscreenenter"",""1"",""1296""
""fullscreenexit"",""2"",""4625""
""blur"",""2"",""5913""
""focus"",""2"",""6236""
""blur"",""2"",""6803""
""focus"",""2"",""8294""
""blur"",""7"",""71682""
""focus"",""7"",""138752""
""blur"",""7"",""144368""
""focus"",""7"",""150702""
""blur"",""22"",""332375""
""focus"",""22"",""338441""
","""event"",""trial"",""time""
""blur"",""2"",""5913""
""blur"",""2"",""6803""
""blur"",""7"",""71682""
""blur"",""7"",""144368""
""blur"",""22"",""332375""
","""event"",""trial"",""time""
""focus"",""2"",""6236""
""focus"",""2"",""8294""
""focus"",""7"",""138752""
""focus"",""7"",""150702""
""focus"",""22"",""338441""
","""event"",""trial"",""time""
""fullscreenenter"",""1"",""1296""
","""event"",""trial"",""time""
""fullscreenexit"",""2"",""4625""
","","[{""page_index"":0,""viewing_time"":7156.600000023842},{""page_index"":1,""viewing_time"":9704.199999988079},{""page_index"":2,""viewing_time"":9613.90000000596},{""page_index"":3,""viewing_time"":9207.699999988079},{""page_index"":4,""viewing_time"":5104.200000017881},{""page_index"":5,""viewing_time"":6064},{""page_index"":6,""viewing_time"":4299.899999976158},{""page_index"":7,""viewing_time"":12762.200000017881},{""page_index"":8,""viewing_time"":11640.299999982119},{""page_index"":9,""viewing_time"":6601.700000017881},{""page_index"":10,""viewing_time"":7002.299999982119},{""page_index"":11,""viewing_time"":13651.5},{""page_index"":12,""viewing_time"":6787.700000017881},{""page_index"":13,""viewing_time"":7326.0999999940395},{""page_index"":14,""viewing_time"":6460.0999999940395},{""page_index"":15,""viewing_time"":10417.90000000596},{""page_index"":16,""viewing_time"":8432.09999999404},{""page_index"":17,""viewing_time"":16259.800000011921}]","158492.5","","","","","","","","","","","","","","","","","","","","","","","",""
"pit-trial","23","439912","0.0-2.0-8.0-0.0","battery-v0.2","","""event"",""trial"",""time""
""fullscreenenter"",""1"",""1296""
""fullscreenexit"",""2"",""4625""
""blur"",""2"",""5913""
""focus"",""2"",""6236""
""blur"",""2"",""6803""
""focus"",""2"",""8294""
""blur"",""7"",""71682""
""focus"",""7"",""138752""
""blur"",""7"",""144368""
""focus"",""7"",""150702""
""blur"",""22"",""332375""
""focus"",""22"",""338441""
","""event"",""trial"",""time""
""blur"",""2"",""5913""
""blur"",""2"",""6803""
""blur"",""7"",""71682""
""blur"",""7"",""144368""
""blur"",""22"",""332375""
","""event"",""trial"",""time""
""focus"",""2"",""6236""
""focus"",""2"",""8294""
""focus"",""7"",""138752""
""focus"",""7"",""150702""
""focus"",""22"",""338441""
","""event"",""trial"",""time""
""fullscreenenter"",""1"",""1296""
","""event"",""trial"",""time""
""fullscreenexit"",""2"",""4625""
","","","-1","","","15","9487","4384","&#9776;","elianto","#3366ff99"," ","-1","0","0","[]","0","0","1","","","","","","","",""
"pit-trial","24","443531","0.0-2.0-8.0-1.0","battery-v0.2","","""event"",""trial"",""time""
""fullscreenenter"",""1"",""1296""
""fullscreenexit"",""2"",""4625""
""blur"",""2"",""5913""
""focus"",""2"",""6236""
""blur"",""2"",""6803""
""focus"",""2"",""8294""
""blur"",""7"",""71682""
""focus"",""7"",""138752""
""blur"",""7"",""144368""
""focus"",""7"",""150702""
""blur"",""22"",""332375""
""focus"",""22"",""338441""
","""event"",""trial"",""time""
""blur"",""2"",""5913""
""blur"",""2"",""6803""
""blur"",""7"",""71682""
""blur"",""7"",""144368""
""blur"",""22"",""332375""
","""event"",""trial"",""time""
""focus"",""2"",""6236""
""focus"",""2"",""8294""
""focus"",""7"",""138752""
""focus"",""7"",""150702""
""focus"",""22"",""338441""
","""event"",""trial"",""time""
""fullscreenenter"",""1"",""1296""
","""event"",""trial"",""time""
""fullscreenexit"",""2"",""4625""
","","","748.0999999940395","","","15","9487","4384","&#9776;","elianto","#3366ff99"," "," ","1","+10","[1606.800000011921]","1","0","1","","","","","","","",""
"pit-trial","25","446967","0.0-2.0-8.0-2.0","battery-v0.2","","""event"",""trial"",""time""
""fullscreenenter"",""1"",""1296""
""fullscreenexit"",""2"",""4625""
""blur"",""2"",""5913""
""focus"",""2"",""6236""
""blur"",""2"",""6803""
""focus"",""2"",""8294""
""blur"",""7"",""71682""
""focus"",""7"",""138752""
""blur"",""7"",""144368""
""focus"",""7"",""150702""
""blur"",""22"",""332375""
""focus"",""22"",""338441""
","""event"",""trial"",""time""
""blur"",""2"",""5913""
""blur"",""2"",""6803""
""blur"",""7"",""71682""
""blur"",""7"",""144368""
""blur"",""22"",""332375""
","""event"",""trial"",""time""
""focus"",""2"",""6236""
""focus"",""2"",""8294""
""focus"",""7"",""138752""
""focus"",""7"",""150702""
""focus"",""22"",""338441""
","""event"",""trial"",""time""
""fullscreenenter"",""1"",""1296""
","""event"",""trial"",""time""
""fullscreenexit"",""2"",""4625""
","","","567.3999999761581","","","15","9487","4384","&#9776;","elianto","#3366ff99"," "," ","1","+10","[1427.5]","1","0","1","","","","","","","",""
"pit-trial","26","450424","0.0-2.0-8.0-3.0","battery-v0.2","","""event"",""trial"",""time""
""fullscreenenter"",""1"",""1296""
""fullscreenexit"",""2"",""4625""
""blur"",""2"",""5913""
""focus"",""2"",""6236""
""blur"",""2"",""6803""
""focus"",""2"",""8294""
""blur"",""7"",""71682""
""focus"",""7"",""138752""
""blur"",""7"",""144368""
""focus"",""7"",""150702""
""blur"",""22"",""332375""
""focus"",""22"",""338441""
","""event"",""trial"",""time""
""blur"",""2"",""5913""
""blur"",""2"",""6803""
""blur"",""7"",""71682""
""blur"",""7"",""144368""
""blur"",""22"",""332375""
","""event"",""trial"",""time""
""focus"",""2"",""6236""
""focus"",""2"",""8294""
""focus"",""7"",""138752""
""focus"",""7"",""150702""
""focus"",""22"",""338441""
","""event"",""trial"",""time""
""fullscreenenter"",""1"",""1296""
","""event"",""trial"",""time""
""fullscreenexit"",""2"",""4625""
","","","581","","","15","9487","4384","&#9776;","elianto","#3366ff99"," "," ","1","0","[1439.5]","1","0","1","","","","","","","",""
"pit-trial","27","453967","0.0-2.0-8.0-4.0","battery-v0.2","","""event"",""trial"",""time""
""fullscreenenter"",""1"",""1296""
""fullscreenexit"",""2"",""4625""
""blur"",""2"",""5913""
""focus"",""2"",""6236""
""blur"",""2"",""6803""
""focus"",""2"",""8294""
""blur"",""7"",""71682""
""focus"",""7"",""138752""
""blur"",""7"",""144368""
""focus"",""7"",""150702""
""blur"",""22"",""332375""
""focus"",""22"",""338441""
","""event"",""trial"",""time""
""blur"",""2"",""5913""
""blur"",""2"",""6803""
""blur"",""7"",""71682""
""blur"",""7"",""144368""
""blur"",""22"",""332375""
","""event"",""trial"",""time""
""focus"",""2"",""6236""
""focus"",""2"",""8294""
""focus"",""7"",""138752""
""focus"",""7"",""150702""
""focus"",""22"",""338441""
","""event"",""trial"",""time""
""fullscreenenter"",""1"",""1296""
","""event"",""trial"",""time""
""fullscreenexit"",""2"",""4625""
","","","674.6000000238419","","","15","9487","4384","&#9776;","elianto","#3366ff99"," "," ","1","+10","[1526.300000011921]","1","0","1","","","","","","","",""
"pit-trial","28","457322","0.0-2.0-8.1-0.1","battery-v0.2","","""event"",""trial"",""time""
""fullscreenenter"",""1"",""1296""
""fullscreenexit"",""2"",""4625""
""blur"",""2"",""5913""
""focus"",""2"",""6236""
""blur"",""2"",""6803""
""focus"",""2"",""8294""
""blur"",""7"",""71682""
""focus"",""7"",""138752""
""blur"",""7"",""144368""
""focus"",""7"",""150702""
""blur"",""22"",""332375""
""focus"",""22"",""338441""
","""event"",""trial"",""time""
""blur"",""2"",""5913""
""blur"",""2"",""6803""
""blur"",""7"",""71682""
""blur"",""7"",""144368""
""blur"",""22"",""332375""
","""event"",""trial"",""time""
""focus"",""2"",""6236""
""focus"",""2"",""8294""
""focus"",""7"",""138752""
""focus"",""7"",""150702""
""focus"",""22"",""338441""
","""event"",""trial"",""time""
""fullscreenenter"",""1"",""1296""
","""event"",""trial"",""time""
""fullscreenexit"",""2"",""4625""
","","","493.40000000596046","","","15","9487","4384","&#9776;","elianto","#3366ff99"," "," ","1","+10","[1351.300000011921]","1","0","1","","","","","","","",""
"pit-trial","29","460690","0.0-2.0-8.1-1.1","battery-v0.2","","""event"",""trial"",""time""
""fullscreenenter"",""1"",""1296""
""fullscreenexit"",""2"",""4625""
""blur"",""2"",""5913""
""focus"",""2"",""6236""
""blur"",""2"",""6803""
""focus"",""2"",""8294""
""blur"",""7"",""71682""
""focus"",""7"",""138752""
""blur"",""7"",""144368""
""focus"",""7"",""150702""
""blur"",""22"",""332375""
""focus"",""22"",""338441""
","""event"",""trial"",""time""
""blur"",""2"",""5913""
""blur"",""2"",""6803""
""blur"",""7"",""71682""
""blur"",""7"",""144368""
""blur"",""22"",""332375""
","""event"",""trial"",""time""
""focus"",""2"",""6236""
""focus"",""2"",""8294""
""focus"",""7"",""138752""
""focus"",""7"",""150702""
""focus"",""22"",""338441""
","""event"",""trial"",""time""
""fullscreenenter"",""1"",""1296""
","""event"",""trial"",""time""
""fullscreenexit"",""2"",""4625""
","","","513.0999999940395","","","15","9487","4384","&#9776;","elianto","#3366ff99"," "," ","1","+10","[1363.9000000059605]","1","0","1","","","","","","","",""
"pit-trial","30","464105","0.0-2.0-8.1-2.1","battery-v0.2","","""event"",""trial"",""time""
""fullscreenenter"",""1"",""1296""
""fullscreenexit"",""2"",""4625""
""blur"",""2"",""5913""
""focus"",""2"",""6236""
""blur"",""2"",""6803""
""focus"",""2"",""8294""
""blur"",""7"",""71682""
""focus"",""7"",""138752""
""blur"",""7"",""144368""
""focus"",""7"",""150702""
""blur"",""22"",""332375""
""focus"",""22"",""338441""
","""event"",""trial"",""time""
""blur"",""2"",""5913""
""blur"",""2"",""6803""
""blur"",""7"",""71682""
""blur"",""7"",""144368""
""blur"",""22"",""332375""
","""event"",""trial"",""time""
""focus"",""2"",""6236""
""focus"",""2"",""8294""
""focus"",""7"",""138752""
""focus"",""7"",""150702""
""focus"",""22"",""338441""
","""event"",""trial"",""time""
""fullscreenenter"",""1"",""1296""
","""event"",""trial"",""time""
""fullscreenexit"",""2"",""4625""
","","","561.8000000119209","","","15","9487","4384","&#9776;","elianto","#3366ff99"," "," ","1","+10","[1411.9000000059605]","1","0","1","","","","","","","",""
"pit-trial","31","467432","0.0-2.0-8.1-3.1","battery-v0.2","","""event"",""trial"",""time""
""fullscreenenter"",""1"",""1296""
""fullscreenexit"",""2"",""4625""
""blur"",""2"",""5913""
""focus"",""2"",""6236""
""blur"",""2"",""6803""
""focus"",""2"",""8294""
""blur"",""7"",""71682""
""focus"",""7"",""138752""
""blur"",""7"",""144368""
""focus"",""7"",""150702""
""blur"",""22"",""332375""
""focus"",""22"",""338441""
","""event"",""trial"",""time""
""blur"",""2"",""5913""
""blur"",""2"",""6803""
""blur"",""7"",""71682""
""blur"",""7"",""144368""
""blur"",""22"",""332375""
","""event"",""trial"",""time""
""focus"",""2"",""6236""
""focus"",""2"",""8294""
""focus"",""7"",""138752""
""focus"",""7"",""150702""
""focus"",""22"",""338441""
","""event"",""trial"",""time""
""fullscreenenter"",""1"",""1296""
","""event"",""trial"",""time""
""fullscreenexit"",""2"",""4625""
","","","474.5","","","15","9487","4384","&#9776;","elianto","#3366ff99"," "," ","1","0","[1325]","1","0","1","","","","","","","",""
"pit-trial","32","470873","0.0-2.0-8.1-4.1","battery-v0.2","","""event"",""trial"",""time""
""fullscreenenter"",""1"",""1296""
""fullscreenexit"",""2"",""4625""
""blur"",""2"",""5913""
""focus"",""2"",""6236""
""blur"",""2"",""6803""
""focus"",""2"",""8294""
""blur"",""7"",""71682""
""focus"",""7"",""138752""
""blur"",""7"",""144368""
""focus"",""7"",""150702""
""blur"",""22"",""332375""
""focus"",""22"",""338441""
","""event"",""trial"",""time""
""blur"",""2"",""5913""
""blur"",""2"",""6803""
""blur"",""7"",""71682""
""blur"",""7"",""144368""
""blur"",""22"",""332375""
","""event"",""trial"",""time""
""focus"",""2"",""6236""
""focus"",""2"",""8294""
""focus"",""7"",""138752""
""focus"",""7"",""150702""
""focus"",""22"",""338441""
","""event"",""trial"",""time""
""fullscreenenter"",""1"",""1296""
","""event"",""trial"",""time""
""fullscreenexit"",""2"",""4625""
","","","587.3000000119209","","","15","9487","4384","&#9776;","elianto","#3366ff99"," "," ","1","+10","[1437.5]","1","0","1","","","","","","","",""
"pit-trial","33","474146","0.0-2.0-8.2-0.2","battery-v0.2","","""event"",""trial"",""time""
""fullscreenenter"",""1"",""1296""
""fullscreenexit"",""2"",""4625""
""blur"",""2"",""5913""
""focus"",""2"",""6236""
""blur"",""2"",""6803""
""focus"",""2"",""8294""
""blur"",""7"",""71682""
""focus"",""7"",""138752""
""blur"",""7"",""144368""
""focus"",""7"",""150702""
""blur"",""22"",""332375""
""focus"",""22"",""338441""
","""event"",""trial"",""time""
""blur"",""2"",""5913""
""blur"",""2"",""6803""
""blur"",""7"",""71682""
""blur"",""7"",""144368""
""blur"",""22"",""332375""
","""event"",""trial"",""time""
""focus"",""2"",""6236""
""focus"",""2"",""8294""
""focus"",""7"",""138752""
""focus"",""7"",""150702""
""focus"",""22"",""338441""
","""event"",""trial"",""time""
""fullscreenenter"",""1"",""1296""
","""event"",""trial"",""time""
""fullscreenexit"",""2"",""4625""
","","","417.39999997615814","","","15","9487","4384","&#9776;","elianto","#3366ff99"," "," ","1","+10","[1268.199999988079]","1","0","1","","","","","","","",""
"pit-trial","34","477442","0.0-2.0-8.2-1.2","battery-v0.2","","""event"",""trial"",""time""
""fullscreenenter"",""1"",""1296""
""fullscreenexit"",""2"",""4625""
""blur"",""2"",""5913""
""focus"",""2"",""6236""
""blur"",""2"",""6803""
""focus"",""2"",""8294""
""blur"",""7"",""71682""
""focus"",""7"",""138752""
""blur"",""7"",""144368""
""focus"",""7"",""150702""
""blur"",""22"",""332375""
""focus"",""22"",""338441""
","""event"",""trial"",""time""
""blur"",""2"",""5913""
""blur"",""2"",""6803""
""blur"",""7"",""71682""
""blur"",""7"",""144368""
""blur"",""22"",""332375""
","""event"",""trial"",""time""
""focus"",""2"",""6236""
""focus"",""2"",""8294""
""focus"",""7"",""138752""
""focus"",""7"",""150702""
""focus"",""22"",""338441""
","""event"",""trial"",""time""
""fullscreenenter"",""1"",""1296""
","""event"",""trial"",""time""
""fullscreenexit"",""2"",""4625""
","","","442.5","","","15","9487","4384","&#9776;","elianto","#3366ff99"," "," ","1","+10","[1292.7000000178814]","1","0","1","","","","","","","",""
"pit-trial","35","480849","0.0-2.0-8.2-2.2","battery-v0.2","","""event"",""trial"",""time""
""fullscreenenter"",""1"",""1296""
""fullscreenexit"",""2"",""4625""
""blur"",""2"",""5913""
""focus"",""2"",""6236""
""blur"",""2"",""6803""
""focus"",""2"",""8294""
""blur"",""7"",""71682""
""focus"",""7"",""138752""
""blur"",""7"",""144368""
""focus"",""7"",""150702""
""blur"",""22"",""332375""
""focus"",""22"",""338441""
","""event"",""trial"",""time""
""blur"",""2"",""5913""
""blur"",""2"",""6803""
""blur"",""7"",""71682""
""blur"",""7"",""144368""
""blur"",""22"",""332375""
","""event"",""trial"",""time""
""focus"",""2"",""6236""
""focus"",""2"",""8294""
""focus"",""7"",""138752""
""focus"",""7"",""150702""
""focus"",""22"",""338441""
","""event"",""trial"",""time""
""fullscreenenter"",""1"",""1296""
","""event"",""trial"",""time""
""fullscreenexit"",""2"",""4625""
","","","551.3999999761581","","","15","9487","4384","&#9776;","elianto","#3366ff99"," "," ","1","+10","[1403.9000000059605]","1","0","1","","","","","","","",""
"pit-trial","36","484130","0.0-2.0-8.2-3.2","battery-v0.2","","""event"",""trial"",""time""
""fullscreenenter"",""1"",""1296""
""fullscreenexit"",""2"",""4625""
""blur"",""2"",""5913""
""focus"",""2"",""6236""
""blur"",""2"",""6803""
""focus"",""2"",""8294""
""blur"",""7"",""71682""
""focus"",""7"",""138752""
""blur"",""7"",""144368""
""focus"",""7"",""150702""
""blur"",""22"",""332375""
""focus"",""22"",""338441""
","""event"",""trial"",""time""
""blur"",""2"",""5913""
""blur"",""2"",""6803""
""blur"",""7"",""71682""
""blur"",""7"",""144368""
""blur"",""22"",""332375""
","""event"",""trial"",""time""
""focus"",""2"",""6236""
""focus"",""2"",""8294""
""focus"",""7"",""138752""
""focus"",""7"",""150702""
""focus"",""22"",""338441""
","""event"",""trial"",""time""
""fullscreenenter"",""1"",""1296""
","""event"",""trial"",""time""
""fullscreenexit"",""2"",""4625""
","","","426.40000000596046","","","15","9487","4384","&#9776;","elianto","#3366ff99"," "," ","1","0","[1277.4000000059605]","1","0","1","","","","","","","",""
"pit-trial","37","487384","0.0-2.0-8.2-4.2","battery-v0.2","","""event"",""trial"",""time""
""fullscreenenter"",""1"",""1296""
""fullscreenexit"",""2"",""4625""
""blur"",""2"",""5913""
""focus"",""2"",""6236""
""blur"",""2"",""6803""
""focus"",""2"",""8294""
""blur"",""7"",""71682""
""focus"",""7"",""138752""
""blur"",""7"",""144368""
""focus"",""7"",""150702""
""blur"",""22"",""332375""
""focus"",""22"",""338441""
","""event"",""trial"",""time""
""blur"",""2"",""5913""
""blur"",""2"",""6803""
""blur"",""7"",""71682""
""blur"",""7"",""144368""
""blur"",""22"",""332375""
","""event"",""trial"",""time""
""focus"",""2"",""6236""
""focus"",""2"",""8294""
""focus"",""7"",""138752""
""focus"",""7"",""150702""
""focus"",""22"",""338441""
","""event"",""trial"",""time""
""fullscreenenter"",""1"",""1296""
","""event"",""trial"",""time""
""fullscreenexit"",""2"",""4625""
","","","401.59999999403954","","","15","9487","4384","&#9776;","elianto","#3366ff99"," "," ","1","+10","[1251.699999988079]","1","0","1","","","","","","","",""
"call-function","38","487387","0.0-2.0-9.0","battery-v0.2","","""event"",""trial"",""time""
""fullscreenenter"",""1"",""1296""
""fullscreenexit"",""2"",""4625""
""blur"",""2"",""5913""
""focus"",""2"",""6236""
""blur"",""2"",""6803""
""focus"",""2"",""8294""
""blur"",""7"",""71682""
""focus"",""7"",""138752""
""blur"",""7"",""144368""
""focus"",""7"",""150702""
""blur"",""22"",""332375""
""focus"",""22"",""338441""
""blur"",""39"",""507630""
""focus"",""39"",""530146""
","""event"",""trial"",""time""
""blur"",""2"",""5913""
""blur"",""2"",""6803""
""blur"",""7"",""71682""
""blur"",""7"",""144368""
""blur"",""22"",""332375""
""blur"",""39"",""507630""
","""event"",""trial"",""time""
""focus"",""2"",""6236""
""focus"",""2"",""8294""
""focus"",""7"",""138752""
""focus"",""7"",""150702""
""focus"",""22"",""338441""
""focus"",""39"",""530146""
","""event"",""trial"",""time""
""fullscreenenter"",""1"",""1296""
","""event"",""trial"",""time""
""fullscreenexit"",""2"",""4625""
","","","","","","","","","","","","","","","","","","","","","","","","","","",""
"pit-instructions","39","548327","0.0-2.0-10.0","battery-v0.2","","""event"",""trial"",""time""
""fullscreenenter"",""1"",""1296""
""fullscreenexit"",""2"",""4625""
""blur"",""2"",""5913""
""focus"",""2"",""6236""
""blur"",""2"",""6803""
""focus"",""2"",""8294""
""blur"",""7"",""71682""
""focus"",""7"",""138752""
""blur"",""7"",""144368""
""focus"",""7"",""150702""
""blur"",""22"",""332375""
""focus"",""22"",""338441""
""blur"",""39"",""507630""
""focus"",""39"",""530146""
","""event"",""trial"",""time""
""blur"",""2"",""5913""
""blur"",""2"",""6803""
""blur"",""7"",""71682""
""blur"",""7"",""144368""
""blur"",""22"",""332375""
""blur"",""39"",""507630""
","""event"",""trial"",""time""
""focus"",""2"",""6236""
""focus"",""2"",""8294""
""focus"",""7"",""138752""
""focus"",""7"",""150702""
""focus"",""22"",""338441""
""focus"",""39"",""530146""
","""event"",""trial"",""time""
""fullscreenenter"",""1"",""1296""
","""event"",""trial"",""time""
""fullscreenexit"",""2"",""4625""
","","[{""page_index"":0,""viewing_time"":7721.799999982119},{""page_index"":1,""viewing_time"":7857.700000017881},{""page_index"":2,""viewing_time"":28358.19999998808},{""page_index"":3,""viewing_time"":9713.90000000596},{""page_index"":4,""viewing_time"":7287.800000011921}]","60939.69999998808","","","","","","","","","","","","","","","","","","","","","","","",""
"pit-trial","40","552073","0.0-2.0-11.0-0.0","battery-v0.2","","""event"",""trial"",""time""
""fullscreenenter"",""1"",""1296""
""fullscreenexit"",""2"",""4625""
""blur"",""2"",""5913""
""focus"",""2"",""6236""
""blur"",""2"",""6803""
""focus"",""2"",""8294""
""blur"",""7"",""71682""
""focus"",""7"",""138752""
""blur"",""7"",""144368""
""focus"",""7"",""150702""
""blur"",""22"",""332375""
""focus"",""22"",""338441""
""blur"",""39"",""507630""
""focus"",""39"",""530146""
","""event"",""trial"",""time""
""blur"",""2"",""5913""
""blur"",""2"",""6803""
""blur"",""7"",""71682""
""blur"",""7"",""144368""
""blur"",""22"",""332375""
""blur"",""39"",""507630""
","""event"",""trial"",""time""
""focus"",""2"",""6236""
""focus"",""2"",""8294""
""focus"",""7"",""138752""
""focus"",""7"",""150702""
""focus"",""22"",""338441""
""focus"",""39"",""530146""
","""event"",""trial"",""time""
""fullscreenenter"",""1"",""1296""
","""event"",""trial"",""time""
""fullscreenexit"",""2"",""4625""
","","","884.5999999940395","","","15","9487","4384","&#9761;","elianto","#3366ff99","-1"," ","0","0","[1734.800000011921]","1","0","2","","","","","","","",""
"pit-trial","41","555482","0.0-2.0-11.0-1.0","battery-v0.2","","""event"",""trial"",""time""
""fullscreenenter"",""1"",""1296""
""fullscreenexit"",""2"",""4625""
""blur"",""2"",""5913""
""focus"",""2"",""6236""
""blur"",""2"",""6803""
""focus"",""2"",""8294""
""blur"",""7"",""71682""
""focus"",""7"",""138752""
""blur"",""7"",""144368""
""focus"",""7"",""150702""
""blur"",""22"",""332375""
""focus"",""22"",""338441""
""blur"",""39"",""507630""
""focus"",""39"",""530146""
","""event"",""trial"",""time""
""blur"",""2"",""5913""
""blur"",""2"",""6803""
""blur"",""7"",""71682""
""blur"",""7"",""144368""
""blur"",""22"",""332375""
""blur"",""39"",""507630""
","""event"",""trial"",""time""
""focus"",""2"",""6236""
""focus"",""2"",""8294""
""focus"",""7"",""138752""
""focus"",""7"",""150702""
""focus"",""22"",""338441""
""focus"",""39"",""530146""
","""event"",""trial"",""time""
""fullscreenenter"",""1"",""1296""
","""event"",""trial"",""time""
""fullscreenexit"",""2"",""4625""
","","","545","","","15","9487","4384","&#9761;","elianto","#3366ff99","-1"," ","0","0","[1396.7000000178814]","1","0","2","","","","","","","",""
"pit-trial","42","558828","0.0-2.0-11.0-2.0","battery-v0.2","","""event"",""trial"",""time""
""fullscreenenter"",""1"",""1296""
""fullscreenexit"",""2"",""4625""
""blur"",""2"",""5913""
""focus"",""2"",""6236""
""blur"",""2"",""6803""
""focus"",""2"",""8294""
""blur"",""7"",""71682""
""focus"",""7"",""138752""
""blur"",""7"",""144368""
""focus"",""7"",""150702""
""blur"",""22"",""332375""
""focus"",""22"",""338441""
""blur"",""39"",""507630""
""focus"",""39"",""530146""
","""event"",""trial"",""time""
""blur"",""2"",""5913""
""blur"",""2"",""6803""
""blur"",""7"",""71682""
""blur"",""7"",""144368""
""blur"",""22"",""332375""
""blur"",""39"",""507630""
","""event"",""trial"",""time""
""focus"",""2"",""6236""
""focus"",""2"",""8294""
""focus"",""7"",""138752""
""focus"",""7"",""150702""
""focus"",""22"",""338441""
""focus"",""39"",""530146""
","""event"",""trial"",""time""
""fullscreenenter"",""1"",""1296""
","""event"",""trial"",""time""
""fullscreenexit"",""2"",""4625""
","","","487.40000000596046","","","15","9487","4384","&#9761;","elianto","#3366ff99","-1"," ","0","0","[1341.199999988079]","1","0","2","","","","","","","",""
"pit-trial","43","563695","0.0-2.0-11.0-3.0","battery-v0.2","","""event"",""trial"",""time""
""fullscreenenter"",""1"",""1296""
""fullscreenexit"",""2"",""4625""
""blur"",""2"",""5913""
""focus"",""2"",""6236""
""blur"",""2"",""6803""
""focus"",""2"",""8294""
""blur"",""7"",""71682""
""focus"",""7"",""138752""
""blur"",""7"",""144368""
""focus"",""7"",""150702""
""blur"",""22"",""332375""
""focus"",""22"",""338441""
""blur"",""39"",""507630""
""focus"",""39"",""530146""
","""event"",""trial"",""time""
""blur"",""2"",""5913""
""blur"",""2"",""6803""
""blur"",""7"",""71682""
""blur"",""7"",""144368""
""blur"",""22"",""332375""
""blur"",""39"",""507630""
","""event"",""trial"",""time""
""focus"",""2"",""6236""
""focus"",""2"",""8294""
""focus"",""7"",""138752""
""focus"",""7"",""150702""
""focus"",""22"",""338441""
""focus"",""39"",""530146""
","""event"",""trial"",""time""
""fullscreenenter"",""1"",""1296""
","""event"",""trial"",""time""
""fullscreenexit"",""2"",""4625""
","","","-1","","","15","9487","4384","&#9761;","elianto","#3366ff99","-1","-1","1","0","[]","0","0","2","","","","","","","",""
"pit-trial","44","568557","0.0-2.0-11.0-4.0","battery-v0.2","","""event"",""trial"",""time""
""fullscreenenter"",""1"",""1296""
""fullscreenexit"",""2"",""4625""
""blur"",""2"",""5913""
""focus"",""2"",""6236""
""blur"",""2"",""6803""
""focus"",""2"",""8294""
""blur"",""7"",""71682""
""focus"",""7"",""138752""
""blur"",""7"",""144368""
""focus"",""7"",""150702""
""blur"",""22"",""332375""
""focus"",""22"",""338441""
""blur"",""39"",""507630""
""focus"",""39"",""530146""
","""event"",""trial"",""time""
""blur"",""2"",""5913""
""blur"",""2"",""6803""
""blur"",""7"",""71682""
""blur"",""7"",""144368""
""blur"",""22"",""332375""
""blur"",""39"",""507630""
","""event"",""trial"",""time""
""focus"",""2"",""6236""
""focus"",""2"",""8294""
""focus"",""7"",""138752""
""focus"",""7"",""150702""
""focus"",""22"",""338441""
""focus"",""39"",""530146""
","""event"",""trial"",""time""
""fullscreenenter"",""1"",""1296""
","""event"",""trial"",""time""
""fullscreenexit"",""2"",""4625""
","","","-1","","","15","9487","4384","&#9761;","elianto","#3366ff99","-1","-1","1","+10","[]","0","0","2","","","","","","","",""
"pit-trial","45","573433","0.0-2.0-11.1-0.1","battery-v0.2","","""event"",""trial"",""time""
""fullscreenenter"",""1"",""1296""
""fullscreenexit"",""2"",""4625""
""blur"",""2"",""5913""
""focus"",""2"",""6236""
""blur"",""2"",""6803""
""focus"",""2"",""8294""
""blur"",""7"",""71682""
""focus"",""7"",""138752""
""blur"",""7"",""144368""
""focus"",""7"",""150702""
""blur"",""22"",""332375""
""focus"",""22"",""338441""
""blur"",""39"",""507630""
""focus"",""39"",""530146""
","""event"",""trial"",""time""
""blur"",""2"",""5913""
""blur"",""2"",""6803""
""blur"",""7"",""71682""
""blur"",""7"",""144368""
""blur"",""22"",""332375""
""blur"",""39"",""507630""
","""event"",""trial"",""time""
""focus"",""2"",""6236""
""focus"",""2"",""8294""
""focus"",""7"",""138752""
""focus"",""7"",""150702""
""focus"",""22"",""338441""
""focus"",""39"",""530146""
","""event"",""trial"",""time""
""fullscreenenter"",""1"",""1296""
","""event"",""trial"",""time""
""fullscreenexit"",""2"",""4625""
","","","-1","","","15","9487","4384","&#9761;","elianto","#3366ff99","-1","-1","1","+10","[]","0","0","2","","","","","","","",""
"pit-trial","46","578298","0.0-2.0-11.1-1.1","battery-v0.2","","""event"",""trial"",""time""
""fullscreenenter"",""1"",""1296""
""fullscreenexit"",""2"",""4625""
""blur"",""2"",""5913""
""focus"",""2"",""6236""
""blur"",""2"",""6803""
""focus"",""2"",""8294""
""blur"",""7"",""71682""
""focus"",""7"",""138752""
""blur"",""7"",""144368""
""focus"",""7"",""150702""
""blur"",""22"",""332375""
""focus"",""22"",""338441""
""blur"",""39"",""507630""
""focus"",""39"",""530146""
","""event"",""trial"",""time""
""blur"",""2"",""5913""
""blur"",""2"",""6803""
""blur"",""7"",""71682""
""blur"",""7"",""144368""
""blur"",""22"",""332375""
""blur"",""39"",""507630""
","""event"",""trial"",""time""
""focus"",""2"",""6236""
""focus"",""2"",""8294""
""focus"",""7"",""138752""
""focus"",""7"",""150702""
""focus"",""22"",""338441""
""focus"",""39"",""530146""
","""event"",""trial"",""time""
""fullscreenenter"",""1"",""1296""
","""event"",""trial"",""time""
""fullscreenexit"",""2"",""4625""
","","","-1","","","15","9487","4384","&#9761;","elianto","#3366ff99","-1","-1","1","+10","[]","0","0","2","","","","","","","",""
"pit-trial","47","583152","0.0-2.0-11.1-2.1","battery-v0.2","","""event"",""trial"",""time""
""fullscreenenter"",""1"",""1296""
""fullscreenexit"",""2"",""4625""
""blur"",""2"",""5913""
""focus"",""2"",""6236""
""blur"",""2"",""6803""
""focus"",""2"",""8294""
""blur"",""7"",""71682""
""focus"",""7"",""138752""
""blur"",""7"",""144368""
""focus"",""7"",""150702""
""blur"",""22"",""332375""
""focus"",""22"",""338441""
""blur"",""39"",""507630""
""focus"",""39"",""530146""
","""event"",""trial"",""time""
""blur"",""2"",""5913""
""blur"",""2"",""6803""
""blur"",""7"",""71682""
""blur"",""7"",""144368""
""blur"",""22"",""332375""
""blur"",""39"",""507630""
","""event"",""trial"",""time""
""focus"",""2"",""6236""
""focus"",""2"",""8294""
""focus"",""7"",""138752""
""focus"",""7"",""150702""
""focus"",""22"",""338441""
""focus"",""39"",""530146""
","""event"",""trial"",""time""
""fullscreenenter"",""1"",""1296""
","""event"",""trial"",""time""
""fullscreenexit"",""2"",""4625""
","","","-1","","","15","9487","4384","&#9761;","elianto","#3366ff99","-1","-1","1","+10","[]","0","0","2","","","","","","","",""
"pit-trial","48","586289","0.0-2.0-11.1-3.1","battery-v0.2","","""event"",""trial"",""time""
""fullscreenenter"",""1"",""1296""
""fullscreenexit"",""2"",""4625""
""blur"",""2"",""5913""
""focus"",""2"",""6236""
""blur"",""2"",""6803""
""focus"",""2"",""8294""
""blur"",""7"",""71682""
""focus"",""7"",""138752""
""blur"",""7"",""144368""
""focus"",""7"",""150702""
""blur"",""22"",""332375""
""focus"",""22"",""338441""
""blur"",""39"",""507630""
""focus"",""39"",""530146""
","""event"",""trial"",""time""
""blur"",""2"",""5913""
""blur"",""2"",""6803""
""blur"",""7"",""71682""
""blur"",""7"",""144368""
""blur"",""22"",""332375""
""blur"",""39"",""507630""
","""event"",""trial"",""time""
""focus"",""2"",""6236""
""focus"",""2"",""8294""
""focus"",""7"",""138752""
""focus"",""7"",""150702""
""focus"",""22"",""338441""
""focus"",""39"",""530146""
","""event"",""trial"",""time""
""fullscreenenter"",""1"",""1296""
","""event"",""trial"",""time""
""fullscreenexit"",""2"",""4625""
","","","283.90000000596046","","","15","9487","4384","&#9761;","elianto","#3366ff99","-1"," ","0","+10","[1134.0999999940395]","1","0","2","","","","","","","",""
"pit-trial","49","589505","0.0-2.0-11.1-4.1","battery-v0.2","","""event"",""trial"",""time""
""fullscreenenter"",""1"",""1296""
""fullscreenexit"",""2"",""4625""
""blur"",""2"",""5913""
""focus"",""2"",""6236""
""blur"",""2"",""6803""
""focus"",""2"",""8294""
""blur"",""7"",""71682""
""focus"",""7"",""138752""
""blur"",""7"",""144368""
""focus"",""7"",""150702""
""blur"",""22"",""332375""
""focus"",""22"",""338441""
""blur"",""39"",""507630""
""focus"",""39"",""530146""
","""event"",""trial"",""time""
""blur"",""2"",""5913""
""blur"",""2"",""6803""
""blur"",""7"",""71682""
""blur"",""7"",""144368""
""blur"",""22"",""332375""
""blur"",""39"",""507630""
","""event"",""trial"",""time""
""focus"",""2"",""6236""
""focus"",""2"",""8294""
""focus"",""7"",""138752""
""focus"",""7"",""150702""
""focus"",""22"",""338441""
""focus"",""39"",""530146""
","""event"",""trial"",""time""
""fullscreenenter"",""1"",""1296""
","""event"",""trial"",""time""
""fullscreenexit"",""2"",""4625""
","","","361.69999998807907","","","15","9487","4384","&#9761;","elianto","#3366ff99","-1"," ","0","0","[1213.699999988079]","1","0","2","","","","","","","",""
"pit-trial","50","592547","0.0-2.0-11.2-0.2","battery-v0.2","","""event"",""trial"",""time""
""fullscreenenter"",""1"",""1296""
""fullscreenexit"",""2"",""4625""
""blur"",""2"",""5913""
""focus"",""2"",""6236""
""blur"",""2"",""6803""
""focus"",""2"",""8294""
""blur"",""7"",""71682""
""focus"",""7"",""138752""
""blur"",""7"",""144368""
""focus"",""7"",""150702""
""blur"",""22"",""332375""
""focus"",""22"",""338441""
""blur"",""39"",""507630""
""focus"",""39"",""530146""
","""event"",""trial"",""time""
""blur"",""2"",""5913""
""blur"",""2"",""6803""
""blur"",""7"",""71682""
""blur"",""7"",""144368""
""blur"",""22"",""332375""
""blur"",""39"",""507630""
","""event"",""trial"",""time""
""focus"",""2"",""6236""
""focus"",""2"",""8294""
""focus"",""7"",""138752""
""focus"",""7"",""150702""
""focus"",""22"",""338441""
""focus"",""39"",""530146""
","""event"",""trial"",""time""
""fullscreenenter"",""1"",""1296""
","""event"",""trial"",""time""
""fullscreenexit"",""2"",""4625""
","","","186.59999999403954","","","15","9487","4384","&#9761;","elianto","#3366ff99","-1"," ","0","0","[1037.0999999940395]","1","0","2","","","","","","","",""
"pit-trial","51","595617","0.0-2.0-11.2-1.2","battery-v0.2","","""event"",""trial"",""time""
""fullscreenenter"",""1"",""1296""
""fullscreenexit"",""2"",""4625""
""blur"",""2"",""5913""
""focus"",""2"",""6236""
""blur"",""2"",""6803""
""focus"",""2"",""8294""
""blur"",""7"",""71682""
""focus"",""7"",""138752""
""blur"",""7"",""144368""
""focus"",""7"",""150702""
""blur"",""22"",""332375""
""focus"",""22"",""338441""
""blur"",""39"",""507630""
""focus"",""39"",""530146""
","""event"",""trial"",""time""
""blur"",""2"",""5913""
""blur"",""2"",""6803""
""blur"",""7"",""71682""
""blur"",""7"",""144368""
""blur"",""22"",""332375""
""blur"",""39"",""507630""
","""event"",""trial"",""time""
""focus"",""2"",""6236""
""focus"",""2"",""8294""
""focus"",""7"",""138752""
""focus"",""7"",""150702""
""focus"",""22"",""338441""
""focus"",""39"",""530146""
","""event"",""trial"",""time""
""fullscreenenter"",""1"",""1296""
","""event"",""trial"",""time""
""fullscreenexit"",""2"",""4625""
","","","216.10000002384186","","","15","9487","4384","&#9761;","elianto","#3366ff99","-1"," ","0","0","[1067.3999999761581]","1","0","2","","","","","","","",""
"pit-trial","52","598650","0.0-2.0-11.2-2.2","battery-v0.2","","""event"",""trial"",""time""
""fullscreenenter"",""1"",""1296""
""fullscreenexit"",""2"",""4625""
""blur"",""2"",""5913""
""focus"",""2"",""6236""
""blur"",""2"",""6803""
""focus"",""2"",""8294""
""blur"",""7"",""71682""
""focus"",""7"",""138752""
""blur"",""7"",""144368""
""focus"",""7"",""150702""
""blur"",""22"",""332375""
""focus"",""22"",""338441""
""blur"",""39"",""507630""
""focus"",""39"",""530146""
","""event"",""trial"",""time""
""blur"",""2"",""5913""
""blur"",""2"",""6803""
""blur"",""7"",""71682""
""blur"",""7"",""144368""
""blur"",""22"",""332375""
""blur"",""39"",""507630""
","""event"",""trial"",""time""
""focus"",""2"",""6236""
""focus"",""2"",""8294""
""focus"",""7"",""138752""
""focus"",""7"",""150702""
""focus"",""22"",""338441""
""focus"",""39"",""530146""
","""event"",""trial"",""time""
""fullscreenenter"",""1"",""1296""
","""event"",""trial"",""time""
""fullscreenexit"",""2"",""4625""
","","","178.40000000596046","","","15","9487","4384","&#9761;","elianto","#3366ff99","-1"," ","0","0","[1029]","1","0","2","","","","","","","",""
"pit-trial","53","601586","0.0-2.0-11.2-3.2","battery-v0.2","","""event"",""trial"",""time""
""fullscreenenter"",""1"",""1296""
""fullscreenexit"",""2"",""4625""
""blur"",""2"",""5913""
""focus"",""2"",""6236""
""blur"",""2"",""6803""
""focus"",""2"",""8294""
""blur"",""7"",""71682""
""focus"",""7"",""138752""
""blur"",""7"",""144368""
""focus"",""7"",""150702""
""blur"",""22"",""332375""
""focus"",""22"",""338441""
""blur"",""39"",""507630""
""focus"",""39"",""530146""
","""event"",""trial"",""time""
""blur"",""2"",""5913""
""blur"",""2"",""6803""
""blur"",""7"",""71682""
""blur"",""7"",""144368""
""blur"",""22"",""332375""
""blur"",""39"",""507630""
","""event"",""trial"",""time""
""focus"",""2"",""6236""
""focus"",""2"",""8294""
""focus"",""7"",""138752""
""focus"",""7"",""150702""
""focus"",""22"",""338441""
""focus"",""39"",""530146""
","""event"",""trial"",""time""
""fullscreenenter"",""1"",""1296""
","""event"",""trial"",""time""
""fullscreenexit"",""2"",""4625""
","","","81.5","","","15","9487","4384","&#9761;","elianto","#3366ff99","-1"," ","0","+10","[932]","1","0","2","","","","","","","",""
"pit-trial","54","604649","0.0-2.0-11.2-4.2","battery-v0.2","","""event"",""trial"",""time""
""fullscreenenter"",""1"",""1296""
""fullscreenexit"",""2"",""4625""
""blur"",""2"",""5913""
""focus"",""2"",""6236""
""blur"",""2"",""6803""
""focus"",""2"",""8294""
""blur"",""7"",""71682""
""focus"",""7"",""138752""
""blur"",""7"",""144368""
""focus"",""7"",""150702""
""blur"",""22"",""332375""
""focus"",""22"",""338441""
""blur"",""39"",""507630""
""focus"",""39"",""530146""
","""event"",""trial"",""time""
""blur"",""2"",""5913""
""blur"",""2"",""6803""
""blur"",""7"",""71682""
""blur"",""7"",""144368""
""blur"",""22"",""332375""
""blur"",""39"",""507630""
","""event"",""trial"",""time""
""focus"",""2"",""6236""
""focus"",""2"",""8294""
""focus"",""7"",""138752""
""focus"",""7"",""150702""
""focus"",""22"",""338441""
""focus"",""39"",""530146""
","""event"",""trial"",""time""
""fullscreenenter"",""1"",""1296""
","""event"",""trial"",""time""
""fullscreenexit"",""2"",""4625""
","","","209.59999999403954","","","15","9487","4384","&#9761;","elianto","#3366ff99","-1"," ","0","0","[1061.4000000059605]","1","0","2","","","","","","","",""
"pit-trial","55","607737","0.0-2.0-11.3-0.3","battery-v0.2","","""event"",""trial"",""time""
""fullscreenenter"",""1"",""1296""
""fullscreenexit"",""2"",""4625""
""blur"",""2"",""5913""
""focus"",""2"",""6236""
""blur"",""2"",""6803""
""focus"",""2"",""8294""
""blur"",""7"",""71682""
""focus"",""7"",""138752""
""blur"",""7"",""144368""
""focus"",""7"",""150702""
""blur"",""22"",""332375""
""focus"",""22"",""338441""
""blur"",""39"",""507630""
""focus"",""39"",""530146""
","""event"",""trial"",""time""
""blur"",""2"",""5913""
""blur"",""2"",""6803""
""blur"",""7"",""71682""
""blur"",""7"",""144368""
""blur"",""22"",""332375""
""blur"",""39"",""507630""
","""event"",""trial"",""time""
""focus"",""2"",""6236""
""focus"",""2"",""8294""
""focus"",""7"",""138752""
""focus"",""7"",""150702""
""focus"",""22"",""338441""
""focus"",""39"",""530146""
","""event"",""trial"",""time""
""fullscreenenter"",""1"",""1296""
","""event"",""trial"",""time""
""fullscreenexit"",""2"",""4625""
","","","234.19999998807907","","","15","9487","4384","&#9761;","elianto","#3366ff99","-1"," ","0","0","[1084.800000011921]","1","0","2","","","","","","","",""
"pit-trial","56","610803","0.0-2.0-11.3-1.3","battery-v0.2","","""event"",""trial"",""time""
""fullscreenenter"",""1"",""1296""
""fullscreenexit"",""2"",""4625""
""blur"",""2"",""5913""
""focus"",""2"",""6236""
""blur"",""2"",""6803""
""focus"",""2"",""8294""
""blur"",""7"",""71682""
""focus"",""7"",""138752""
""blur"",""7"",""144368""
""focus"",""7"",""150702""
""blur"",""22"",""332375""
""focus"",""22"",""338441""
""blur"",""39"",""507630""
""focus"",""39"",""530146""
","""event"",""trial"",""time""
""blur"",""2"",""5913""
""blur"",""2"",""6803""
""blur"",""7"",""71682""
""blur"",""7"",""144368""
""blur"",""22"",""332375""
""blur"",""39"",""507630""
","""event"",""trial"",""time""
""focus"",""2"",""6236""
""focus"",""2"",""8294""
""focus"",""7"",""138752""
""focus"",""7"",""150702""
""focus"",""22"",""338441""
""focus"",""39"",""530146""
","""event"",""trial"",""time""
""fullscreenenter"",""1"",""1296""
","""event"",""trial"",""time""
""fullscreenexit"",""2"",""4625""
","","","210.2999999821186","","","15","9487","4384","&#9761;","elianto","#3366ff99","-1"," ","0","0","[1061.3999999761581]","1","0","2","","","","","","","",""
"pit-trial","57","613742","0.0-2.0-11.3-2.3","battery-v0.2","","""event"",""trial"",""time""
""fullscreenenter"",""1"",""1296""
""fullscreenexit"",""2"",""4625""
""blur"",""2"",""5913""
""focus"",""2"",""6236""
""blur"",""2"",""6803""
""focus"",""2"",""8294""
""blur"",""7"",""71682""
""focus"",""7"",""138752""
""blur"",""7"",""144368""
""focus"",""7"",""150702""
""blur"",""22"",""332375""
""focus"",""22"",""338441""
""blur"",""39"",""507630""
""focus"",""39"",""530146""
","""event"",""trial"",""time""
""blur"",""2"",""5913""
""blur"",""2"",""6803""
""blur"",""7"",""71682""
""blur"",""7"",""144368""
""blur"",""22"",""332375""
""blur"",""39"",""507630""
","""event"",""trial"",""time""
""focus"",""2"",""6236""
""focus"",""2"",""8294""
""focus"",""7"",""138752""
""focus"",""7"",""150702""
""focus"",""22"",""338441""
""focus"",""39"",""530146""
","""event"",""trial"",""time""
""fullscreenenter"",""1"",""1296""
","""event"",""trial"",""time""
""fullscreenexit"",""2"",""4625""
","","","81.09999999403954","","","15","9487","4384","&#9761;","elianto","#3366ff99","-1"," ","0","0","[931.7000000178814]","1","0","2","","","","","","","",""
"pit-trial","58","616706","0.0-2.0-11.3-3.3","battery-v0.2","","""event"",""trial"",""time""
""fullscreenenter"",""1"",""1296""
""fullscreenexit"",""2"",""4625""
""blur"",""2"",""5913""
""focus"",""2"",""6236""
""blur"",""2"",""6803""
""focus"",""2"",""8294""
""blur"",""7"",""71682""
""focus"",""7"",""138752""
""blur"",""7"",""144368""
""focus"",""7"",""150702""
""blur"",""22"",""332375""
""focus"",""22"",""338441""
""blur"",""39"",""507630""
""focus"",""39"",""530146""
","""event"",""trial"",""time""
""blur"",""2"",""5913""
""blur"",""2"",""6803""
""blur"",""7"",""71682""
""blur"",""7"",""144368""
""blur"",""22"",""332375""
""blur"",""39"",""507630""
","""event"",""trial"",""time""
""focus"",""2"",""6236""
""focus"",""2"",""8294""
""focus"",""7"",""138752""
""focus"",""7"",""150702""
""focus"",""22"",""338441""
""focus"",""39"",""530146""
","""event"",""trial"",""time""
""fullscreenenter"",""1"",""1296""
","""event"",""trial"",""time""
""fullscreenexit"",""2"",""4625""
","","","109.40000000596046","","","15","9487","4384","&#9761;","elianto","#3366ff99","-1"," ","0","+10","[960.5,1920.2999999821186]","2","0","2","","","","","","","",""
"pit-trial","59","619745","0.0-2.0-11.3-4.3","battery-v0.2","","""event"",""trial"",""time""
""fullscreenenter"",""1"",""1296""
""fullscreenexit"",""2"",""4625""
""blur"",""2"",""5913""
""focus"",""2"",""6236""
""blur"",""2"",""6803""
""focus"",""2"",""8294""
""blur"",""7"",""71682""
""focus"",""7"",""138752""
""blur"",""7"",""144368""
""focus"",""7"",""150702""
""blur"",""22"",""332375""
""focus"",""22"",""338441""
""blur"",""39"",""507630""
""focus"",""39"",""530146""
","""event"",""trial"",""time""
""blur"",""2"",""5913""
""blur"",""2"",""6803""
""blur"",""7"",""71682""
""blur"",""7"",""144368""
""blur"",""22"",""332375""
""blur"",""39"",""507630""
","""event"",""trial"",""time""
""focus"",""2"",""6236""
""focus"",""2"",""8294""
""focus"",""7"",""138752""
""focus"",""7"",""150702""
""focus"",""22"",""338441""
""focus"",""39"",""530146""
","""event"",""trial"",""time""
""fullscreenenter"",""1"",""1296""
","""event"",""trial"",""time""
""fullscreenexit"",""2"",""4625""
","","","186","","","15","9487","4384","&#9761;","elianto","#3366ff99","-1"," ","0","0","[1036.2000000178814]","1","0","2","","","","","","","",""
"call-function","60","619748","0.0-2.0-12.0","battery-v0.2","","""event"",""trial"",""time""
""fullscreenenter"",""1"",""1296""
""fullscreenexit"",""2"",""4625""
""blur"",""2"",""5913""
""focus"",""2"",""6236""
""blur"",""2"",""6803""
""focus"",""2"",""8294""
""blur"",""7"",""71682""
""focus"",""7"",""138752""
""blur"",""7"",""144368""
""focus"",""7"",""150702""
""blur"",""22"",""332375""
""focus"",""22"",""338441""
""blur"",""39"",""507630""
""focus"",""39"",""530146""
","""event"",""trial"",""time""
""blur"",""2"",""5913""
""blur"",""2"",""6803""
""blur"",""7"",""71682""
""blur"",""7"",""144368""
""blur"",""22"",""332375""
""blur"",""39"",""507630""
","""event"",""trial"",""time""
""focus"",""2"",""6236""
""focus"",""2"",""8294""
""focus"",""7"",""138752""
""focus"",""7"",""150702""
""focus"",""22"",""338441""
""focus"",""39"",""530146""
","""event"",""trial"",""time""
""fullscreenenter"",""1"",""1296""
","""event"",""trial"",""time""
""fullscreenexit"",""2"",""4625""
","","","","","","","","","","","","","","","","","","","","","","","","","","",""
"pit-instructions","61","655354","0.0-2.0-13.0","battery-v0.2","","""event"",""trial"",""time""
""fullscreenenter"",""1"",""1296""
""fullscreenexit"",""2"",""4625""
""blur"",""2"",""5913""
""focus"",""2"",""6236""
""blur"",""2"",""6803""
""focus"",""2"",""8294""
""blur"",""7"",""71682""
""focus"",""7"",""138752""
""blur"",""7"",""144368""
""focus"",""7"",""150702""
""blur"",""22"",""332375""
""focus"",""22"",""338441""
""blur"",""39"",""507630""
""focus"",""39"",""530146""
","""event"",""trial"",""time""
""blur"",""2"",""5913""
""blur"",""2"",""6803""
""blur"",""7"",""71682""
""blur"",""7"",""144368""
""blur"",""22"",""332375""
""blur"",""39"",""507630""
","""event"",""trial"",""time""
""focus"",""2"",""6236""
""focus"",""2"",""8294""
""focus"",""7"",""138752""
""focus"",""7"",""150702""
""focus"",""22"",""338441""
""focus"",""39"",""530146""
","""event"",""trial"",""time""
""fullscreenenter"",""1"",""1296""
","""event"",""trial"",""time""
""fullscreenexit"",""2"",""4625""
","","[{""page_index"":0,""viewing_time"":6659.200000017881},{""page_index"":1,""viewing_time"":8948.09999999404},{""page_index"":2,""viewing_time"":4096.299999982119},{""page_index"":3,""viewing_time"":10359.700000017881},{""page_index"":4,""viewing_time"":5542}]","35605.59999999404","","","","","","","","","","","","","","","","","","","","","","","",""
"pit-trial","62","660216","0.0-2.0-14.0-0.0","battery-v0.2","","""event"",""trial"",""time""
""fullscreenenter"",""1"",""1296""
""fullscreenexit"",""2"",""4625""
""blur"",""2"",""5913""
""focus"",""2"",""6236""
""blur"",""2"",""6803""
""focus"",""2"",""8294""
""blur"",""7"",""71682""
""focus"",""7"",""138752""
""blur"",""7"",""144368""
""focus"",""7"",""150702""
""blur"",""22"",""332375""
""focus"",""22"",""338441""
""blur"",""39"",""507630""
""focus"",""39"",""530146""
","""event"",""trial"",""time""
""blur"",""2"",""5913""
""blur"",""2"",""6803""
""blur"",""7"",""71682""
""blur"",""7"",""144368""
""blur"",""22"",""332375""
""blur"",""39"",""507630""
","""event"",""trial"",""time""
""focus"",""2"",""6236""
""focus"",""2"",""8294""
""focus"",""7"",""138752""
""focus"",""7"",""150702""
""focus"",""22"",""338441""
""focus"",""39"",""530146""
","""event"",""trial"",""time""
""fullscreenenter"",""1"",""1296""
","""event"",""trial"",""time""
""fullscreenexit"",""2"",""4625""
","","","-1","","","15","9487","4384","&#9826;","elianto","#f73b6a7A","-1","-1","1","0","[]","0","0","3","","","","","","","",""
"pit-trial","63","665083","0.0-2.0-14.0-1.0","battery-v0.2","","""event"",""trial"",""time""
""fullscreenenter"",""1"",""1296""
""fullscreenexit"",""2"",""4625""
""blur"",""2"",""5913""
""focus"",""2"",""6236""
""blur"",""2"",""6803""
""focus"",""2"",""8294""
""blur"",""7"",""71682""
""focus"",""7"",""138752""
""blur"",""7"",""144368""
""focus"",""7"",""150702""
""blur"",""22"",""332375""
""focus"",""22"",""338441""
""blur"",""39"",""507630""
""focus"",""39"",""530146""
","""event"",""trial"",""time""
""blur"",""2"",""5913""
""blur"",""2"",""6803""
""blur"",""7"",""71682""
""blur"",""7"",""144368""
""blur"",""22"",""332375""
""blur"",""39"",""507630""
","""event"",""trial"",""time""
""focus"",""2"",""6236""
""focus"",""2"",""8294""
""focus"",""7"",""138752""
""focus"",""7"",""150702""
""focus"",""22"",""338441""
""focus"",""39"",""530146""
","""event"",""trial"",""time""
""fullscreenenter"",""1"",""1296""
","""event"",""trial"",""time""
""fullscreenexit"",""2"",""4625""
","","","-1","","","15","9487","4384","&#9826;","elianto","#f73b6a7A","-1","-1","1","0","[]","0","0","3","","","","","","","",""
"pit-trial","64","669954","0.0-2.0-14.0-2.0","battery-v0.2","","""event"",""trial"",""time""
""fullscreenenter"",""1"",""1296""
""fullscreenexit"",""2"",""4625""
""blur"",""2"",""5913""
""focus"",""2"",""6236""
""blur"",""2"",""6803""
""focus"",""2"",""8294""
""blur"",""7"",""71682""
""focus"",""7"",""138752""
""blur"",""7"",""144368""
""focus"",""7"",""150702""
""blur"",""22"",""332375""
""focus"",""22"",""338441""
""blur"",""39"",""507630""
""focus"",""39"",""530146""
","""event"",""trial"",""time""
""blur"",""2"",""5913""
""blur"",""2"",""6803""
""blur"",""7"",""71682""
""blur"",""7"",""144368""
""blur"",""22"",""332375""
""blur"",""39"",""507630""
","""event"",""trial"",""time""
""focus"",""2"",""6236""
""focus"",""2"",""8294""
""focus"",""7"",""138752""
""focus"",""7"",""150702""
""focus"",""22"",""338441""
""focus"",""39"",""530146""
","""event"",""trial"",""time""
""fullscreenenter"",""1"",""1296""
","""event"",""trial"",""time""
""fullscreenexit"",""2"",""4625""
","","","-1","","","15","9487","4384","&#9826;","elianto","#f73b6a7A","-1","-1","1","0","[]","0","0","3","","","","","","","",""
"pit-trial","65","674817","0.0-2.0-14.0-3.0","battery-v0.2","","""event"",""trial"",""time""
""fullscreenenter"",""1"",""1296""
""fullscreenexit"",""2"",""4625""
""blur"",""2"",""5913""
""focus"",""2"",""6236""
""blur"",""2"",""6803""
""focus"",""2"",""8294""
""blur"",""7"",""71682""
""focus"",""7"",""138752""
""blur"",""7"",""144368""
""focus"",""7"",""150702""
""blur"",""22"",""332375""
""focus"",""22"",""338441""
""blur"",""39"",""507630""
""focus"",""39"",""530146""
","""event"",""trial"",""time""
""blur"",""2"",""5913""
""blur"",""2"",""6803""
""blur"",""7"",""71682""
""blur"",""7"",""144368""
""blur"",""22"",""332375""
""blur"",""39"",""507630""
","""event"",""trial"",""time""
""focus"",""2"",""6236""
""focus"",""2"",""8294""
""focus"",""7"",""138752""
""focus"",""7"",""150702""
""focus"",""22"",""338441""
""focus"",""39"",""530146""
","""event"",""trial"",""time""
""fullscreenenter"",""1"",""1296""
","""event"",""trial"",""time""
""fullscreenexit"",""2"",""4625""
","","","-1","","","15","9487","4384","&#9826;","elianto","#f73b6a7A","-1","-1","1","-10","[]","0","0","3","","","","","","","",""
"pit-trial","66","679683","0.0-2.0-14.0-4.0","battery-v0.2","","""event"",""trial"",""time""
""fullscreenenter"",""1"",""1296""
""fullscreenexit"",""2"",""4625""
""blur"",""2"",""5913""
""focus"",""2"",""6236""
""blur"",""2"",""6803""
""focus"",""2"",""8294""
""blur"",""7"",""71682""
""focus"",""7"",""138752""
""blur"",""7"",""144368""
""focus"",""7"",""150702""
""blur"",""22"",""332375""
""focus"",""22"",""338441""
""blur"",""39"",""507630""
""focus"",""39"",""530146""
","""event"",""trial"",""time""
""blur"",""2"",""5913""
""blur"",""2"",""6803""
""blur"",""7"",""71682""
""blur"",""7"",""144368""
""blur"",""22"",""332375""
""blur"",""39"",""507630""
","""event"",""trial"",""time""
""focus"",""2"",""6236""
""focus"",""2"",""8294""
""focus"",""7"",""138752""
""focus"",""7"",""150702""
""focus"",""22"",""338441""
""focus"",""39"",""530146""
","""event"",""trial"",""time""
""fullscreenenter"",""1"",""1296""
","""event"",""trial"",""time""
""fullscreenexit"",""2"",""4625""
","","","-1","","","15","9487","4384","&#9826;","elianto","#f73b6a7A","-1","-1","1","0","[]","0","0","3","","","","","","","",""
"pit-trial","67","684559","0.0-2.0-14.1-0.1","battery-v0.2","","""event"",""trial"",""time""
""fullscreenenter"",""1"",""1296""
""fullscreenexit"",""2"",""4625""
""blur"",""2"",""5913""
""focus"",""2"",""6236""
""blur"",""2"",""6803""
""focus"",""2"",""8294""
""blur"",""7"",""71682""
""focus"",""7"",""138752""
""blur"",""7"",""144368""
""focus"",""7"",""150702""
""blur"",""22"",""332375""
""focus"",""22"",""338441""
""blur"",""39"",""507630""
""focus"",""39"",""530146""
","""event"",""trial"",""time""
""blur"",""2"",""5913""
""blur"",""2"",""6803""
""blur"",""7"",""71682""
""blur"",""7"",""144368""
""blur"",""22"",""332375""
""blur"",""39"",""507630""
","""event"",""trial"",""time""
""focus"",""2"",""6236""
""focus"",""2"",""8294""
""focus"",""7"",""138752""
""focus"",""7"",""150702""
""focus"",""22"",""338441""
""focus"",""39"",""530146""
","""event"",""trial"",""time""
""fullscreenenter"",""1"",""1296""
","""event"",""trial"",""time""
""fullscreenexit"",""2"",""4625""
","","","-1","","","15","9487","4384","&#9826;","elianto","#f73b6a7A","-1","-1","1","0","[]","0","0","3","","","","","","","",""
"pit-trial","68","689412","0.0-2.0-14.1-1.1","battery-v0.2","","""event"",""trial"",""time""
""fullscreenenter"",""1"",""1296""
""fullscreenexit"",""2"",""4625""
""blur"",""2"",""5913""
""focus"",""2"",""6236""
""blur"",""2"",""6803""
""focus"",""2"",""8294""
""blur"",""7"",""71682""
""focus"",""7"",""138752""
""blur"",""7"",""144368""
""focus"",""7"",""150702""
""blur"",""22"",""332375""
""focus"",""22"",""338441""
""blur"",""39"",""507630""
""focus"",""39"",""530146""
","""event"",""trial"",""time""
""blur"",""2"",""5913""
""blur"",""2"",""6803""
""blur"",""7"",""71682""
""blur"",""7"",""144368""
""blur"",""22"",""332375""
""blur"",""39"",""507630""
","""event"",""trial"",""time""
""focus"",""2"",""6236""
""focus"",""2"",""8294""
""focus"",""7"",""138752""
""focus"",""7"",""150702""
""focus"",""22"",""338441""
""focus"",""39"",""530146""
","""event"",""trial"",""time""
""fullscreenenter"",""1"",""1296""
","""event"",""trial"",""time""
""fullscreenexit"",""2"",""4625""
","","","-1","","","15","9487","4384","&#9826;","elianto","#f73b6a7A","-1","-1","1","0","[]","0","0","3","","","","","","","",""
"pit-trial","69","694268","0.0-2.0-14.1-2.1","battery-v0.2","","""event"",""trial"",""time""
""fullscreenenter"",""1"",""1296""
""fullscreenexit"",""2"",""4625""
""blur"",""2"",""5913""
""focus"",""2"",""6236""
""blur"",""2"",""6803""
""focus"",""2"",""8294""
""blur"",""7"",""71682""
""focus"",""7"",""138752""
""blur"",""7"",""144368""
""focus"",""7"",""150702""
""blur"",""22"",""332375""
""focus"",""22"",""338441""
""blur"",""39"",""507630""
""focus"",""39"",""530146""
","""event"",""trial"",""time""
""blur"",""2"",""5913""
""blur"",""2"",""6803""
""blur"",""7"",""71682""
""blur"",""7"",""144368""
""blur"",""22"",""332375""
""blur"",""39"",""507630""
","""event"",""trial"",""time""
""focus"",""2"",""6236""
""focus"",""2"",""8294""
""focus"",""7"",""138752""
""focus"",""7"",""150702""
""focus"",""22"",""338441""
""focus"",""39"",""530146""
","""event"",""trial"",""time""
""fullscreenenter"",""1"",""1296""
","""event"",""trial"",""time""
""fullscreenexit"",""2"",""4625""
","","","-1","","","15","9487","4384","&#9826;","elianto","#f73b6a7A","-1","-1","1","0","[]","0","0","3","","","","","","","",""
"pit-trial","70","699122","0.0-2.0-14.1-3.1","battery-v0.2","","""event"",""trial"",""time""
""fullscreenenter"",""1"",""1296""
""fullscreenexit"",""2"",""4625""
""blur"",""2"",""5913""
""focus"",""2"",""6236""
""blur"",""2"",""6803""
""focus"",""2"",""8294""
""blur"",""7"",""71682""
""focus"",""7"",""138752""
""blur"",""7"",""144368""
""focus"",""7"",""150702""
""blur"",""22"",""332375""
""focus"",""22"",""338441""
""blur"",""39"",""507630""
""focus"",""39"",""530146""
","""event"",""trial"",""time""
""blur"",""2"",""5913""
""blur"",""2"",""6803""
""blur"",""7"",""71682""
""blur"",""7"",""144368""
""blur"",""22"",""332375""
""blur"",""39"",""507630""
","""event"",""trial"",""time""
""focus"",""2"",""6236""
""focus"",""2"",""8294""
""focus"",""7"",""138752""
""focus"",""7"",""150702""
""focus"",""22"",""338441""
""focus"",""39"",""530146""
","""event"",""trial"",""time""
""fullscreenenter"",""1"",""1296""
","""event"",""trial"",""time""
""fullscreenexit"",""2"",""4625""
","","","-1","","","15","9487","4384","&#9826;","elianto","#f73b6a7A","-1","-1","1","-10","[]","0","0","3","","","","","","","",""
"pit-trial","71","703977","0.0-2.0-14.1-4.1","battery-v0.2","","""event"",""trial"",""time""
""fullscreenenter"",""1"",""1296""
""fullscreenexit"",""2"",""4625""
""blur"",""2"",""5913""
""focus"",""2"",""6236""
""blur"",""2"",""6803""
""focus"",""2"",""8294""
""blur"",""7"",""71682""
""focus"",""7"",""138752""
""blur"",""7"",""144368""
""focus"",""7"",""150702""
""blur"",""22"",""332375""
""focus"",""22"",""338441""
""blur"",""39"",""507630""
""focus"",""39"",""530146""
","""event"",""trial"",""time""
""blur"",""2"",""5913""
""blur"",""2"",""6803""
""blur"",""7"",""71682""
""blur"",""7"",""144368""
""blur"",""22"",""332375""
""blur"",""39"",""507630""
","""event"",""trial"",""time""
""focus"",""2"",""6236""
""focus"",""2"",""8294""
""focus"",""7"",""138752""
""focus"",""7"",""150702""
""focus"",""22"",""338441""
""focus"",""39"",""530146""
","""event"",""trial"",""time""
""fullscreenenter"",""1"",""1296""
","""event"",""trial"",""time""
""fullscreenexit"",""2"",""4625""
","","","-1","","","15","9487","4384","&#9826;","elianto","#f73b6a7A","-1","-1","1","0","[]","0","0","3","","","","","","","",""
"pit-trial","72","708842","0.0-2.0-14.2-0.2","battery-v0.2","","""event"",""trial"",""time""
""fullscreenenter"",""1"",""1296""
""fullscreenexit"",""2"",""4625""
""blur"",""2"",""5913""
""focus"",""2"",""6236""
""blur"",""2"",""6803""
""focus"",""2"",""8294""
""blur"",""7"",""71682""
""focus"",""7"",""138752""
""blur"",""7"",""144368""
""focus"",""7"",""150702""
""blur"",""22"",""332375""
""focus"",""22"",""338441""
""blur"",""39"",""507630""
""focus"",""39"",""530146""
","""event"",""trial"",""time""
""blur"",""2"",""5913""
""blur"",""2"",""6803""
""blur"",""7"",""71682""
""blur"",""7"",""144368""
""blur"",""22"",""332375""
""blur"",""39"",""507630""
","""event"",""trial"",""time""
""focus"",""2"",""6236""
""focus"",""2"",""8294""
""focus"",""7"",""138752""
""focus"",""7"",""150702""
""focus"",""22"",""338441""
""focus"",""39"",""530146""
","""event"",""trial"",""time""
""fullscreenenter"",""1"",""1296""
","""event"",""trial"",""time""
""fullscreenexit"",""2"",""4625""
","","","-1","","","15","9487","4384","&#9826;","elianto","#f73b6a7A","-1","-1","1","0","[]","0","0","3","","","","","","","",""
"pit-trial","73","713697","0.0-2.0-14.2-1.2","battery-v0.2","","""event"",""trial"",""time""
""fullscreenenter"",""1"",""1296""
""fullscreenexit"",""2"",""4625""
""blur"",""2"",""5913""
""focus"",""2"",""6236""
""blur"",""2"",""6803""
""focus"",""2"",""8294""
""blur"",""7"",""71682""
""focus"",""7"",""138752""
""blur"",""7"",""144368""
""focus"",""7"",""150702""
""blur"",""22"",""332375""
""focus"",""22"",""338441""
""blur"",""39"",""507630""
""focus"",""39"",""530146""
","""event"",""trial"",""time""
""blur"",""2"",""5913""
""blur"",""2"",""6803""
""blur"",""7"",""71682""
""blur"",""7"",""144368""
""blur"",""22"",""332375""
""blur"",""39"",""507630""
","""event"",""trial"",""time""
""focus"",""2"",""6236""
""focus"",""2"",""8294""
""focus"",""7"",""138752""
""focus"",""7"",""150702""
""focus"",""22"",""338441""
""focus"",""39"",""530146""
","""event"",""trial"",""time""
""fullscreenenter"",""1"",""1296""
","""event"",""trial"",""time""
""fullscreenexit"",""2"",""4625""
","","","-1","","","15","9487","4384","&#9826;","elianto","#f73b6a7A","-1","-1","1","0","[]","0","0","3","","","","","","","",""
"pit-trial","74","718551","0.0-2.0-14.2-2.2","battery-v0.2","","""event"",""trial"",""time""
""fullscreenenter"",""1"",""1296""
""fullscreenexit"",""2"",""4625""
""blur"",""2"",""5913""
""focus"",""2"",""6236""
""blur"",""2"",""6803""
""focus"",""2"",""8294""
""blur"",""7"",""71682""
""focus"",""7"",""138752""
""blur"",""7"",""144368""
""focus"",""7"",""150702""
""blur"",""22"",""332375""
""focus"",""22"",""338441""
""blur"",""39"",""507630""
""focus"",""39"",""530146""
","""event"",""trial"",""time""
""blur"",""2"",""5913""
""blur"",""2"",""6803""
""blur"",""7"",""71682""
""blur"",""7"",""144368""
""blur"",""22"",""332375""
""blur"",""39"",""507630""
","""event"",""trial"",""time""
""focus"",""2"",""6236""
""focus"",""2"",""8294""
""focus"",""7"",""138752""
""focus"",""7"",""150702""
""focus"",""22"",""338441""
""focus"",""39"",""530146""
","""event"",""trial"",""time""
""fullscreenenter"",""1"",""1296""
","""event"",""trial"",""time""
""fullscreenexit"",""2"",""4625""
","","","-1","","","15","9487","4384","&#9826;","elianto","#f73b6a7A","-1","-1","1","0","[]","0","0","3","","","","","","","",""
"pit-trial","75","723405","0.0-2.0-14.2-3.2","battery-v0.2","","""event"",""trial"",""time""
""fullscreenenter"",""1"",""1296""
""fullscreenexit"",""2"",""4625""
""blur"",""2"",""5913""
""focus"",""2"",""6236""
""blur"",""2"",""6803""
""focus"",""2"",""8294""
""blur"",""7"",""71682""
""focus"",""7"",""138752""
""blur"",""7"",""144368""
""focus"",""7"",""150702""
""blur"",""22"",""332375""
""focus"",""22"",""338441""
""blur"",""39"",""507630""
""focus"",""39"",""530146""
","""event"",""trial"",""time""
""blur"",""2"",""5913""
""blur"",""2"",""6803""
""blur"",""7"",""71682""
""blur"",""7"",""144368""
""blur"",""22"",""332375""
""blur"",""39"",""507630""
","""event"",""trial"",""time""
""focus"",""2"",""6236""
""focus"",""2"",""8294""
""focus"",""7"",""138752""
""focus"",""7"",""150702""
""focus"",""22"",""338441""
""focus"",""39"",""530146""
","""event"",""trial"",""time""
""fullscreenenter"",""1"",""1296""
","""event"",""trial"",""time""
""fullscreenexit"",""2"",""4625""
","","","-1","","","15","9487","4384","&#9826;","elianto","#f73b6a7A","-1","-1","1","-10","[]","0","0","3","","","","","","","",""
"pit-trial","76","728259","0.0-2.0-14.2-4.2","battery-v0.2","","""event"",""trial"",""time""
""fullscreenenter"",""1"",""1296""
""fullscreenexit"",""2"",""4625""
""blur"",""2"",""5913""
""focus"",""2"",""6236""
""blur"",""2"",""6803""
""focus"",""2"",""8294""
""blur"",""7"",""71682""
""focus"",""7"",""138752""
""blur"",""7"",""144368""
""focus"",""7"",""150702""
""blur"",""22"",""332375""
""focus"",""22"",""338441""
""blur"",""39"",""507630""
""focus"",""39"",""530146""
","""event"",""trial"",""time""
""blur"",""2"",""5913""
""blur"",""2"",""6803""
""blur"",""7"",""71682""
""blur"",""7"",""144368""
""blur"",""22"",""332375""
""blur"",""39"",""507630""
","""event"",""trial"",""time""
""focus"",""2"",""6236""
""focus"",""2"",""8294""
""focus"",""7"",""138752""
""focus"",""7"",""150702""
""focus"",""22"",""338441""
""focus"",""39"",""530146""
","""event"",""trial"",""time""
""fullscreenenter"",""1"",""1296""
","""event"",""trial"",""time""
""fullscreenexit"",""2"",""4625""
","","","-1","","","15","9487","4384","&#9826;","elianto","#f73b6a7A","-1","-1","1","0","[]","0","0","3","","","","","","","",""
"pit-trial","77","733113","0.0-2.0-14.3-0.3","battery-v0.2","","""event"",""trial"",""time""
""fullscreenenter"",""1"",""1296""
""fullscreenexit"",""2"",""4625""
""blur"",""2"",""5913""
""focus"",""2"",""6236""
""blur"",""2"",""6803""
""focus"",""2"",""8294""
""blur"",""7"",""71682""
""focus"",""7"",""138752""
""blur"",""7"",""144368""
""focus"",""7"",""150702""
""blur"",""22"",""332375""
""focus"",""22"",""338441""
""blur"",""39"",""507630""
""focus"",""39"",""530146""
","""event"",""trial"",""time""
""blur"",""2"",""5913""
""blur"",""2"",""6803""
""blur"",""7"",""71682""
""blur"",""7"",""144368""
""blur"",""22"",""332375""
""blur"",""39"",""507630""
","""event"",""trial"",""time""
""focus"",""2"",""6236""
""focus"",""2"",""8294""
""focus"",""7"",""138752""
""focus"",""7"",""150702""
""focus"",""22"",""338441""
""focus"",""39"",""530146""
","""event"",""trial"",""time""
""fullscreenenter"",""1"",""1296""
","""event"",""trial"",""time""
""fullscreenexit"",""2"",""4625""
","","","-1","","","15","9487","4384","&#9826;","elianto","#f73b6a7A","-1","-1","1","0","[]","0","0","3","","","","","","","",""
"pit-trial","78","737968","0.0-2.0-14.3-1.3","battery-v0.2","","""event"",""trial"",""time""
""fullscreenenter"",""1"",""1296""
""fullscreenexit"",""2"",""4625""
""blur"",""2"",""5913""
""focus"",""2"",""6236""
""blur"",""2"",""6803""
""focus"",""2"",""8294""
""blur"",""7"",""71682""
""focus"",""7"",""138752""
""blur"",""7"",""144368""
""focus"",""7"",""150702""
""blur"",""22"",""332375""
""focus"",""22"",""338441""
""blur"",""39"",""507630""
""focus"",""39"",""530146""
","""event"",""trial"",""time""
""blur"",""2"",""5913""
""blur"",""2"",""6803""
""blur"",""7"",""71682""
""blur"",""7"",""144368""
""blur"",""22"",""332375""
""blur"",""39"",""507630""
","""event"",""trial"",""time""
""focus"",""2"",""6236""
""focus"",""2"",""8294""
""focus"",""7"",""138752""
""focus"",""7"",""150702""
""focus"",""22"",""338441""
""focus"",""39"",""530146""
","""event"",""trial"",""time""
""fullscreenenter"",""1"",""1296""
","""event"",""trial"",""time""
""fullscreenexit"",""2"",""4625""
","","","-1","","","15","9487","4384","&#9826;","elianto","#f73b6a7A","-1","-1","1","0","[]","0","0","3","","","","","","","",""
"pit-trial","79","742822","0.0-2.0-14.3-2.3","battery-v0.2","","""event"",""trial"",""time""
""fullscreenenter"",""1"",""1296""
""fullscreenexit"",""2"",""4625""
""blur"",""2"",""5913""
""focus"",""2"",""6236""
""blur"",""2"",""6803""
""focus"",""2"",""8294""
""blur"",""7"",""71682""
""focus"",""7"",""138752""
""blur"",""7"",""144368""
""focus"",""7"",""150702""
""blur"",""22"",""332375""
""focus"",""22"",""338441""
""blur"",""39"",""507630""
""focus"",""39"",""530146""
","""event"",""trial"",""time""
""blur"",""2"",""5913""
""blur"",""2"",""6803""
""blur"",""7"",""71682""
""blur"",""7"",""144368""
""blur"",""22"",""332375""
""blur"",""39"",""507630""
","""event"",""trial"",""time""
""focus"",""2"",""6236""
""focus"",""2"",""8294""
""focus"",""7"",""138752""
""focus"",""7"",""150702""
""focus"",""22"",""338441""
""focus"",""39"",""530146""
","""event"",""trial"",""time""
""fullscreenenter"",""1"",""1296""
","""event"",""trial"",""time""
""fullscreenexit"",""2"",""4625""
","","","-1","","","15","9487","4384","&#9826;","elianto","#f73b6a7A","-1","-1","1","0","[]","0","0","3","","","","","","","",""
"pit-trial","80","747677","0.0-2.0-14.3-3.3","battery-v0.2","","""event"",""trial"",""time""
""fullscreenenter"",""1"",""1296""
""fullscreenexit"",""2"",""4625""
""blur"",""2"",""5913""
""focus"",""2"",""6236""
""blur"",""2"",""6803""
""focus"",""2"",""8294""
""blur"",""7"",""71682""
""focus"",""7"",""138752""
""blur"",""7"",""144368""
""focus"",""7"",""150702""
""blur"",""22"",""332375""
""focus"",""22"",""338441""
""blur"",""39"",""507630""
""focus"",""39"",""530146""
","""event"",""trial"",""time""
""blur"",""2"",""5913""
""blur"",""2"",""6803""
""blur"",""7"",""71682""
""blur"",""7"",""144368""
""blur"",""22"",""332375""
""blur"",""39"",""507630""
","""event"",""trial"",""time""
""focus"",""2"",""6236""
""focus"",""2"",""8294""
""focus"",""7"",""138752""
""focus"",""7"",""150702""
""focus"",""22"",""338441""
""focus"",""39"",""530146""
","""event"",""trial"",""time""
""fullscreenenter"",""1"",""1296""
","""event"",""trial"",""time""
""fullscreenexit"",""2"",""4625""
","","","-1","","","15","9487","4384","&#9826;","elianto","#f73b6a7A","-1","-1","1","-10","[]","0","0","3","","","","","","","",""
"pit-trial","81","752530","0.0-2.0-14.3-4.3","battery-v0.2","","""event"",""trial"",""time""
""fullscreenenter"",""1"",""1296""
""fullscreenexit"",""2"",""4625""
""blur"",""2"",""5913""
""focus"",""2"",""6236""
""blur"",""2"",""6803""
""focus"",""2"",""8294""
""blur"",""7"",""71682""
""focus"",""7"",""138752""
""blur"",""7"",""144368""
""focus"",""7"",""150702""
""blur"",""22"",""332375""
""focus"",""22"",""338441""
""blur"",""39"",""507630""
""focus"",""39"",""530146""
","""event"",""trial"",""time""
""blur"",""2"",""5913""
""blur"",""2"",""6803""
""blur"",""7"",""71682""
""blur"",""7"",""144368""
""blur"",""22"",""332375""
""blur"",""39"",""507630""
","""event"",""trial"",""time""
""focus"",""2"",""6236""
""focus"",""2"",""8294""
""focus"",""7"",""138752""
""focus"",""7"",""150702""
""focus"",""22"",""338441""
""focus"",""39"",""530146""
","""event"",""trial"",""time""
""fullscreenenter"",""1"",""1296""
","""event"",""trial"",""time""
""fullscreenexit"",""2"",""4625""
","","","-1","","","15","9487","4384","&#9826;","elianto","#f73b6a7A","-1","-1","1","0","[]","0","0","3","","","","","","","",""
"call-function","82","752533","0.0-2.0-15.0","battery-v0.2","","""event"",""trial"",""time""
""fullscreenenter"",""1"",""1296""
""fullscreenexit"",""2"",""4625""
""blur"",""2"",""5913""
""focus"",""2"",""6236""
""blur"",""2"",""6803""
""focus"",""2"",""8294""
""blur"",""7"",""71682""
""focus"",""7"",""138752""
""blur"",""7"",""144368""
""focus"",""7"",""150702""
""blur"",""22"",""332375""
""focus"",""22"",""338441""
""blur"",""39"",""507630""
""focus"",""39"",""530146""
","""event"",""trial"",""time""
""blur"",""2"",""5913""
""blur"",""2"",""6803""
""blur"",""7"",""71682""
""blur"",""7"",""144368""
""blur"",""22"",""332375""
""blur"",""39"",""507630""
","""event"",""trial"",""time""
""focus"",""2"",""6236""
""focus"",""2"",""8294""
""focus"",""7"",""138752""
""focus"",""7"",""150702""
""focus"",""22"",""338441""
""focus"",""39"",""530146""
","""event"",""trial"",""time""
""fullscreenenter"",""1"",""1296""
","""event"",""trial"",""time""
""fullscreenexit"",""2"",""4625""
","","","","","","","","","","","","","","","","","","","","","","","","","","",""
"pit-instructions","83","780488","0.0-2.0-16.0","battery-v0.2","","""event"",""trial"",""time""
""fullscreenenter"",""1"",""1296""
""fullscreenexit"",""2"",""4625""
""blur"",""2"",""5913""
""focus"",""2"",""6236""
""blur"",""2"",""6803""
""focus"",""2"",""8294""
""blur"",""7"",""71682""
""focus"",""7"",""138752""
""blur"",""7"",""144368""
""focus"",""7"",""150702""
""blur"",""22"",""332375""
""focus"",""22"",""338441""
""blur"",""39"",""507630""
""focus"",""39"",""530146""
","""event"",""trial"",""time""
""blur"",""2"",""5913""
""blur"",""2"",""6803""
""blur"",""7"",""71682""
""blur"",""7"",""144368""
""blur"",""22"",""332375""
""blur"",""39"",""507630""
","""event"",""trial"",""time""
""focus"",""2"",""6236""
""focus"",""2"",""8294""
""focus"",""7"",""138752""
""focus"",""7"",""150702""
""focus"",""22"",""338441""
""focus"",""39"",""530146""
","""event"",""trial"",""time""
""fullscreenenter"",""1"",""1296""
","""event"",""trial"",""time""
""fullscreenexit"",""2"",""4625""
","","[{""page_index"":0,""viewing_time"":9798},{""page_index"":1,""viewing_time"":8416},{""page_index"":2,""viewing_time"":4092},{""page_index"":3,""viewing_time"":5647.699999988079}]","27954","","","","","","","","","","","","","","","","","","","","","","","",""
"pit-trial","84","785358","0.0-2.0-17.0-0.0","battery-v0.2","","""event"",""trial"",""time""
""fullscreenenter"",""1"",""1296""
""fullscreenexit"",""2"",""4625""
""blur"",""2"",""5913""
""focus"",""2"",""6236""
""blur"",""2"",""6803""
""focus"",""2"",""8294""
""blur"",""7"",""71682""
""focus"",""7"",""138752""
""blur"",""7"",""144368""
""focus"",""7"",""150702""
""blur"",""22"",""332375""
""focus"",""22"",""338441""
""blur"",""39"",""507630""
""focus"",""39"",""530146""
","""event"",""trial"",""time""
""blur"",""2"",""5913""
""blur"",""2"",""6803""
""blur"",""7"",""71682""
""blur"",""7"",""144368""
""blur"",""22"",""332375""
""blur"",""39"",""507630""
","""event"",""trial"",""time""
""focus"",""2"",""6236""
""focus"",""2"",""8294""
""focus"",""7"",""138752""
""focus"",""7"",""150702""
""focus"",""22"",""338441""
""focus"",""39"",""530146""
","""event"",""trial"",""time""
""fullscreenenter"",""1"",""1296""
","""event"",""trial"",""time""
""fullscreenexit"",""2"",""4625""
","","","-1","","","15","9487","4384","&#9789;","elianto","#f73b6a7A"," ","-1","0","-10","[]","0","0","4","","","","","","","",""
"pit-trial","85","790220","0.0-2.0-17.0-1.0","battery-v0.2","","""event"",""trial"",""time""
""fullscreenenter"",""1"",""1296""
""fullscreenexit"",""2"",""4625""
""blur"",""2"",""5913""
""focus"",""2"",""6236""
""blur"",""2"",""6803""
""focus"",""2"",""8294""
""blur"",""7"",""71682""
""focus"",""7"",""138752""
""blur"",""7"",""144368""
""focus"",""7"",""150702""
""blur"",""22"",""332375""
""focus"",""22"",""338441""
""blur"",""39"",""507630""
""focus"",""39"",""530146""
","""event"",""trial"",""time""
""blur"",""2"",""5913""
""blur"",""2"",""6803""
""blur"",""7"",""71682""
""blur"",""7"",""144368""
""blur"",""22"",""332375""
""blur"",""39"",""507630""
","""event"",""trial"",""time""
""focus"",""2"",""6236""
""focus"",""2"",""8294""
""focus"",""7"",""138752""
""focus"",""7"",""150702""
""focus"",""22"",""338441""
""focus"",""39"",""530146""
","""event"",""trial"",""time""
""fullscreenenter"",""1"",""1296""
","""event"",""trial"",""time""
""fullscreenexit"",""2"",""4625""
","","","-1","","","15","9487","4384","&#9789;","elianto","#f73b6a7A"," ","-1","0","-10","[]","0","0","4","","","","","","","",""
"pit-trial","86","795096","0.0-2.0-17.0-2.0","battery-v0.2","","""event"",""trial"",""time""
""fullscreenenter"",""1"",""1296""
""fullscreenexit"",""2"",""4625""
""blur"",""2"",""5913""
""focus"",""2"",""6236""
""blur"",""2"",""6803""
""focus"",""2"",""8294""
""blur"",""7"",""71682""
""focus"",""7"",""138752""
""blur"",""7"",""144368""
""focus"",""7"",""150702""
""blur"",""22"",""332375""
""focus"",""22"",""338441""
""blur"",""39"",""507630""
""focus"",""39"",""530146""
","""event"",""trial"",""time""
""blur"",""2"",""5913""
""blur"",""2"",""6803""
""blur"",""7"",""71682""
""blur"",""7"",""144368""
""blur"",""22"",""332375""
""blur"",""39"",""507630""
","""event"",""trial"",""time""
""focus"",""2"",""6236""
""focus"",""2"",""8294""
""focus"",""7"",""138752""
""focus"",""7"",""150702""
""focus"",""22"",""338441""
""focus"",""39"",""530146""
","""event"",""trial"",""time""
""fullscreenenter"",""1"",""1296""
","""event"",""trial"",""time""
""fullscreenexit"",""2"",""4625""
","","","-1","","","15","9487","4384","&#9789;","elianto","#f73b6a7A"," ","-1","0","-10","[]","0","0","4","","","","","","","",""
"pit-trial","87","799964","0.0-2.0-17.0-3.0","battery-v0.2","","""event"",""trial"",""time""
""fullscreenenter"",""1"",""1296""
""fullscreenexit"",""2"",""4625""
""blur"",""2"",""5913""
""focus"",""2"",""6236""
""blur"",""2"",""6803""
""focus"",""2"",""8294""
""blur"",""7"",""71682""
""focus"",""7"",""138752""
""blur"",""7"",""144368""
""focus"",""7"",""150702""
""blur"",""22"",""332375""
""focus"",""22"",""338441""
""blur"",""39"",""507630""
""focus"",""39"",""530146""
","""event"",""trial"",""time""
""blur"",""2"",""5913""
""blur"",""2"",""6803""
""blur"",""7"",""71682""
""blur"",""7"",""144368""
""blur"",""22"",""332375""
""blur"",""39"",""507630""
","""event"",""trial"",""time""
""focus"",""2"",""6236""
""focus"",""2"",""8294""
""focus"",""7"",""138752""
""focus"",""7"",""150702""
""focus"",""22"",""338441""
""focus"",""39"",""530146""
","""event"",""trial"",""time""
""fullscreenenter"",""1"",""1296""
","""event"",""trial"",""time""
""fullscreenexit"",""2"",""4625""
","","","-1","","","15","9487","4384","&#9789;","elianto","#f73b6a7A"," ","-1","0","0","[]","0","0","4","","","","","","","",""
"pit-trial","88","804833","0.0-2.0-17.0-4.0","battery-v0.2","","""event"",""trial"",""time""
""fullscreenenter"",""1"",""1296""
""fullscreenexit"",""2"",""4625""
""blur"",""2"",""5913""
""focus"",""2"",""6236""
""blur"",""2"",""6803""
""focus"",""2"",""8294""
""blur"",""7"",""71682""
""focus"",""7"",""138752""
""blur"",""7"",""144368""
""focus"",""7"",""150702""
""blur"",""22"",""332375""
""focus"",""22"",""338441""
""blur"",""39"",""507630""
""focus"",""39"",""530146""
","""event"",""trial"",""time""
""blur"",""2"",""5913""
""blur"",""2"",""6803""
""blur"",""7"",""71682""
""blur"",""7"",""144368""
""blur"",""22"",""332375""
""blur"",""39"",""507630""
","""event"",""trial"",""time""
""focus"",""2"",""6236""
""focus"",""2"",""8294""
""focus"",""7"",""138752""
""focus"",""7"",""150702""
""focus"",""22"",""338441""
""focus"",""39"",""530146""
","""event"",""trial"",""time""
""fullscreenenter"",""1"",""1296""
","""event"",""trial"",""time""
""fullscreenexit"",""2"",""4625""
","","","-1","","","15","9487","4384","&#9789;","elianto","#f73b6a7A"," ","-1","0","-10","[]","0","0","4","","","","","","","",""
"pit-trial","89","809698","0.0-2.0-17.1-0.1","battery-v0.2","","""event"",""trial"",""time""
""fullscreenenter"",""1"",""1296""
""fullscreenexit"",""2"",""4625""
""blur"",""2"",""5913""
""focus"",""2"",""6236""
""blur"",""2"",""6803""
""focus"",""2"",""8294""
""blur"",""7"",""71682""
""focus"",""7"",""138752""
""blur"",""7"",""144368""
""focus"",""7"",""150702""
""blur"",""22"",""332375""
""focus"",""22"",""338441""
""blur"",""39"",""507630""
""focus"",""39"",""530146""
","""event"",""trial"",""time""
""blur"",""2"",""5913""
""blur"",""2"",""6803""
""blur"",""7"",""71682""
""blur"",""7"",""144368""
""blur"",""22"",""332375""
""blur"",""39"",""507630""
","""event"",""trial"",""time""
""focus"",""2"",""6236""
""focus"",""2"",""8294""
""focus"",""7"",""138752""
""focus"",""7"",""150702""
""focus"",""22"",""338441""
""focus"",""39"",""530146""
","""event"",""trial"",""time""
""fullscreenenter"",""1"",""1296""
","""event"",""trial"",""time""
""fullscreenexit"",""2"",""4625""
","","","-1","","","15","9487","4384","&#9789;","elianto","#f73b6a7A"," ","-1","0","-10","[]","0","0","4","","","","","","","",""
"pit-trial","90","814552","0.0-2.0-17.1-1.1","battery-v0.2","","""event"",""trial"",""time""
""fullscreenenter"",""1"",""1296""
""fullscreenexit"",""2"",""4625""
""blur"",""2"",""5913""
""focus"",""2"",""6236""
""blur"",""2"",""6803""
""focus"",""2"",""8294""
""blur"",""7"",""71682""
""focus"",""7"",""138752""
""blur"",""7"",""144368""
""focus"",""7"",""150702""
""blur"",""22"",""332375""
""focus"",""22"",""338441""
""blur"",""39"",""507630""
""focus"",""39"",""530146""
","""event"",""trial"",""time""
""blur"",""2"",""5913""
""blur"",""2"",""6803""
""blur"",""7"",""71682""
""blur"",""7"",""144368""
""blur"",""22"",""332375""
""blur"",""39"",""507630""
","""event"",""trial"",""time""
""focus"",""2"",""6236""
""focus"",""2"",""8294""
""focus"",""7"",""138752""
""focus"",""7"",""150702""
""focus"",""22"",""338441""
""focus"",""39"",""530146""
","""event"",""trial"",""time""
""fullscreenenter"",""1"",""1296""
","""event"",""trial"",""time""
""fullscreenexit"",""2"",""4625""
","","","-1","","","15","9487","4384","&#9789;","elianto","#f73b6a7A"," ","-1","0","-10","[]","0","0","4","","","","","","","",""
"pit-trial","91","819406","0.0-2.0-17.1-2.1","battery-v0.2","","""event"",""trial"",""time""
""fullscreenenter"",""1"",""1296""
