"trial_type","trial_index","time_elapsed","internal_node_id","task_version","subject_id","interactions","blur_events","focus_events","fullscreenenter_events","fullscreenexit_events","success","view_history","rt","responses","num_errors","age","subject","participantId","rune","rune_set","hex","correct","choice","accuracy","outcome","keys","total_keys","block","practice","value","sub","trial","stimulus","robot","valence","action","sham"
"pavlovia","0","7","0.0-0.0","battery-v0.2","","""event"",""trial"",""time""
""fullscreenenter"",""1"",""11366""
","
","
","""event"",""trial"",""time""
""fullscreenenter"",""1"",""11366""
","
","","","","","","","","","","","","","","","","","","","","","","","","","","",""
"fullscreen","1","12343","0.0-1.0","battery-v0.2","","""event"",""trial"",""time""
""fullscreenenter"",""1"",""11366""
","
","
","""event"",""trial"",""time""
""fullscreenenter"",""1"",""11366""
","
","true","","","","","","","","","","","","","","","","","","","","","","","","","",""
"pit-instructions","2","19911","0.0-2.0-0.0","battery-v0.2","","""event"",""trial"",""time""
""fullscreenenter"",""1"",""11366""
","
","
","""event"",""trial"",""time""
""fullscreenenter"",""1"",""11366""
","
","","[{""page_index"":0,""viewing_time"":7563.5}]","7563.899999976158","","","","","","","","","","","","","","","","","","","","","","","",""
"pit-comprehension","3","23693","0.0-2.0-1.0-0.0","battery-v0.2","","""event"",""trial"",""time""
""fullscreenenter"",""1"",""11366""
","
","
","""event"",""trial"",""time""
""fullscreenenter"",""1"",""11366""
","
","","","3776.899999976158","[""shark""]","0","24","11145","662","","","","","","","","","","","","","","","","","","",""
"pit-instructions","4","27044","0.0-2.0-1.0-1.0","battery-v0.2","","""event"",""trial"",""time""
""fullscreenenter"",""1"",""11366""
","
","
","""event"",""trial"",""time""
""fullscreenenter"",""1"",""11366""
","
","","[{""page_index"":0,""viewing_time"":3338.5}]","3338.899999976158","","","","","","","","","","","","","","","","","","","","","","","",""
"pit-comprehension","5","30280","0.0-2.0-2.0-0.0","battery-v0.2","","""event"",""trial"",""time""
""fullscreenenter"",""1"",""11366""
","
","
","""event"",""trial"",""time""
""fullscreenenter"",""1"",""11366""
","
","","","3231.600000023842","[""tiger""]","0","24","11145","662","","","","","","","","","","","","","","","","","","",""
"pit-instructions","6","34713","0.0-2.0-2.0-1.0","battery-v0.2","","""event"",""trial"",""time""
""fullscreenenter"",""1"",""11366""
","
","
","""event"",""trial"",""time""
""fullscreenenter"",""1"",""11366""
","
","","[{""page_index"":0,""viewing_time"":4428.800000071526}]","4429.200000047684","","","","","","","","","","","","","","","","","","","","","","","",""
"pit-instructions","7","148434","0.0-2.0-3.0","battery-v0.2","","""event"",""trial"",""time""
""fullscreenenter"",""1"",""11366""
","
","
","""event"",""trial"",""time""
""fullscreenenter"",""1"",""11366""
","
","","[{""page_index"":0,""viewing_time"":9151.399999976158},{""page_index"":1,""viewing_time"":6365},{""page_index"":2,""viewing_time"":6929.600000023842},{""page_index"":3,""viewing_time"":9202.600000023842},{""page_index"":4,""viewing_time"":7807.299999952316},{""page_index"":5,""viewing_time"":8983.100000023842},{""page_index"":6,""viewing_time"":7877.100000023842},{""page_index"":7,""viewing_time"":6776.099999904633},{""page_index"":8,""viewing_time"":9567.700000047684},{""page_index"":9,""viewing_time"":10226.299999952316},{""page_index"":10,""viewing_time"":8142.100000023842},{""page_index"":11,""viewing_time"":8920.399999976158},{""page_index"":12,""viewing_time"":7511.400000095367},{""page_index"":13,""viewing_time"":6256.399999976158}]","113717","","","","","","","","","","","","","","","","","","","","","","","",""
"pit-trial","8","151708","0.0-2.0-4.0-0.0","battery-v0.2","","""event"",""trial"",""time""
""fullscreenenter"",""1"",""11366""
","
","
","""event"",""trial"",""time""
""fullscreenenter"",""1"",""11366""
","
","","","418.2000000476837","","","24","11145","662","&#9784;","elianto","#FFFFF080"," "," ","1","&#10004","[1268.3999999761581]","1","0","0","","","","","","","",""
"pit-trial","9","154986","0.0-2.0-4.1-0.1","battery-v0.2","","""event"",""trial"",""time""
""fullscreenenter"",""1"",""11366""
","
","
","""event"",""trial"",""time""
""fullscreenenter"",""1"",""11366""
","
","","","421","","","24","11145","662","&#9784;","elianto","#FFFFF080"," "," ","1","&#10004","[1272.6999999284744]","1","0","0","","","","","","","",""
"pit-trial","10","158292","0.0-2.0-4.2-0.2","battery-v0.2","","""event"",""trial"",""time""
""fullscreenenter"",""1"",""11366""
","
","
","""event"",""trial"",""time""
""fullscreenenter"",""1"",""11366""
","
","","","451.59999990463257","","","24","11145","662","&#9784;","elianto","#FFFFF080"," "," ","1","&#10004","[1302.8999999761581]","1","0","0","","","","","","","",""
"pit-trial","11","161613","0.0-2.0-4.3-0.3","battery-v0.2","","""event"",""trial"",""time""
""fullscreenenter"",""1"",""11366""
","
","
","""event"",""trial"",""time""
""fullscreenenter"",""1"",""11366""
","
","","","466.39999997615814","","","24","11145","662","&#9784;","elianto","#FFFFF080"," "," ","1","&#10004","[1317.1000000238419]","1","0","0","","","","","","","",""
"pit-trial","12","164917","0.0-2.0-4.4-0.4","battery-v0.2","","""event"",""trial"",""time""
""fullscreenenter"",""1"",""11366""
","
","
","""event"",""trial"",""time""
""fullscreenenter"",""1"",""11366""
","
","","","450.40000009536743","","","24","11145","662","&#9784;","elianto","#FFFFF080"," "," ","1","&#10004","[1301]","1","0","0","","","","","","","",""
"pit-instructions","13","189230","0.0-2.0-5.0","battery-v0.2","","""event"",""trial"",""time""
""fullscreenenter"",""1"",""11366""
","
","
","""event"",""trial"",""time""
""fullscreenenter"",""1"",""11366""
","
","","[{""page_index"":0,""viewing_time"":5655.899999976158},{""page_index"":1,""viewing_time"":6525},{""page_index"":2,""viewing_time"":6424.700000047684},{""page_index"":3,""viewing_time"":5703.299999952316}]","24309.299999952316","","","","","","","","","","","","","","","","","","","","","","","",""
"pit-trial","14","194084","0.0-2.0-6.0-0.0","battery-v0.2","","""event"",""trial"",""time""
""fullscreenenter"",""1"",""11366""
","
","
","""event"",""trial"",""time""
""fullscreenenter"",""1"",""11366""
","
","","","-1","","","24","11145","662","&#9854;","elianto","#FFFFF080","-1","-1","1","&#10004","[]","0","0","1","","","","","","","",""
"pit-trial","15","197623","0.0-2.0-6.1-0.1","battery-v0.2","","""event"",""trial"",""time""
""fullscreenenter"",""1"",""11366""
","
","
","""event"",""trial"",""time""
""fullscreenenter"",""1"",""11366""
","
","","","684.6999999284744","","","24","11145","662","&#9854;","elianto","#FFFFF080","-1"," ","0","&#10060","[1535]","1","0","1","","","","","","","",""
"pit-trial","16","202478","0.0-2.0-6.2-0.2","battery-v0.2","","""event"",""trial"",""time""
""fullscreenenter"",""1"",""11366""
","
","
","""event"",""trial"",""time""
""fullscreenenter"",""1"",""11366""
","
","","","-1","","","24","11145","662","&#9854;","elianto","#FFFFF080","-1","-1","1","&#10004","[]","0","0","1","","","","","","","",""
"pit-trial","17","207333","0.0-2.0-6.3-0.3","battery-v0.2","","""event"",""trial"",""time""
""fullscreenenter"",""1"",""11366""
","
","
","""event"",""trial"",""time""
""fullscreenenter"",""1"",""11366""
","
","","","-1","","","24","11145","662","&#9854;","elianto","#FFFFF080","-1","-1","1","&#10004","[]","0","0","1","","","","","","","",""
"pit-trial","18","212187","0.0-2.0-6.4-0.4","battery-v0.2","","""event"",""trial"",""time""
""fullscreenenter"",""1"",""11366""
","
","
","""event"",""trial"",""time""
""fullscreenenter"",""1"",""11366""
","
","","","-1","","","24","11145","662","&#9854;","elianto","#FFFFF080","-1","-1","1","&#10004","[]","0","0","1","","","","","","","",""
"pit-instructions","19","386690","0.0-2.0-7.0","battery-v0.2","","""event"",""trial"",""time""
""fullscreenenter"",""1"",""11366""
","
","
","""event"",""trial"",""time""
""fullscreenenter"",""1"",""11366""
","
","","[{""page_index"":0,""viewing_time"":9648.799999952316},{""page_index"":1,""viewing_time"":8703.700000047684},{""page_index"":2,""viewing_time"":42473.799999952316},{""page_index"":3,""viewing_time"":7177.399999976158},{""page_index"":4,""viewing_time"":5788},{""page_index"":5,""viewing_time"":6842},{""page_index"":6,""viewing_time"":5649.5},{""page_index"":7,""viewing_time"":8681.200000047684},{""page_index"":8,""viewing_time"":8896.899999976158},{""page_index"":9,""viewing_time"":6008},{""page_index"":10,""viewing_time"":8959.899999976158},{""page_index"":11,""viewing_time"":6189.5},{""page_index"":12,""viewing_time"":8224.100000023842},{""page_index"":13,""viewing_time"":8344.399999976158},{""page_index"":14,""viewing_time"":8914.100000023842},{""page_index"":15,""viewing_time"":7886.200000047684},{""page_index"":16,""viewing_time"":8188.299999952316},{""page_index"":17,""viewing_time"":7922.899999976158}]","174499.09999990463","","","","","","","","","","","","","","","","","","","","","","","",""
"pit-trial","20","390047","0.0-2.0-8.0-0.0","battery-v0.2","","""event"",""trial"",""time""
""fullscreenenter"",""1"",""11366""
","
","
","""event"",""trial"",""time""
""fullscreenenter"",""1"",""11366""
","
","","","501.6999999284744","","","24","11145","662","&#9776;","elianto","#3366ff99"," "," ","1","+10","[1353.1000000238419]","1","0","1","","","","","","","",""
"pit-trial","21","393220","0.0-2.0-8.0-1.0","battery-v0.2","","""event"",""trial"",""time""
""fullscreenenter"",""1"",""11366""
","
","
","""event"",""trial"",""time""
""fullscreenenter"",""1"",""11366""
","
","","","318.7999999523163","","","24","11145","662","&#9776;","elianto","#3366ff99"," "," ","1","+10","[1170]","1","0","1","","","","","","","",""
"pit-trial","22","396492","0.0-2.0-8.0-2.0","battery-v0.2","","""event"",""trial"",""time""
""fullscreenenter"",""1"",""11366""
","
","
","""event"",""trial"",""time""
""fullscreenenter"",""1"",""11366""
","
","","","417","","","24","11145","662","&#9776;","elianto","#3366ff99"," "," ","1","+10","[1267.6999999284744]","1","0","1","","","","","","","",""
"pit-trial","23","399793","0.0-2.0-8.0-3.0","battery-v0.2","","""event"",""trial"",""time""
""fullscreenenter"",""1"",""11366""
","
","
","""event"",""trial"",""time""
""fullscreenenter"",""1"",""11366""
","
","","","447.39999997615814","","","24","11145","662","&#9776;","elianto","#3366ff99"," "," ","1","0","[1298.6000000238419]","1","0","1","","","","","","","",""
"pit-trial","24","403075","0.0-2.0-8.0-4.0","battery-v0.2","","""event"",""trial"",""time""
""fullscreenenter"",""1"",""11366""
","
","
","""event"",""trial"",""time""
""fullscreenenter"",""1"",""11366""
","
","","","427.60000002384186","","","24","11145","662","&#9776;","elianto","#3366ff99"," "," ","1","+10","[1279]","1","0","1","","","","","","","",""
"pit-trial","25","406376","0.0-2.0-8.1-0.1","battery-v0.2","","""event"",""trial"",""time""
""fullscreenenter"",""1"",""11366""
","
","
","""event"",""trial"",""time""
""fullscreenenter"",""1"",""11366""
","
","","","445.60000002384186","","","24","11145","662","&#9776;","elianto","#3366ff99"," "," ","1","+10","[1296.6000000238419]","1","0","1","","","","","","","",""
"pit-trial","26","409671","0.0-2.0-8.1-1.1","battery-v0.2","","""event"",""trial"",""time""
""fullscreenenter"",""1"",""11366""
","
","
","""event"",""trial"",""time""
""fullscreenenter"",""1"",""11366""
","
","","","442.2000000476837","","","24","11145","662","&#9776;","elianto","#3366ff99"," "," ","1","+10","[1292.2000000476837]","1","0","1","","","","","","","",""
"pit-trial","27","413054","0.0-2.0-8.1-2.1","battery-v0.2","","""event"",""trial"",""time""
""fullscreenenter"",""1"",""11366""
","
","
","""event"",""trial"",""time""
""fullscreenenter"",""1"",""11366""
","
","","","528.8999999761581","","","24","11145","662","&#9776;","elianto","#3366ff99"," "," ","1","+10","[1380.0999999046326]","1","0","1","","","","","","","",""
"pit-trial","28","416291","0.0-2.0-8.1-3.1","battery-v0.2","","""event"",""trial"",""time""
""fullscreenenter"",""1"",""11366""
","
","
","""event"",""trial"",""time""
""fullscreenenter"",""1"",""11366""
","
","","","383.7000000476837","","","24","11145","662","&#9776;","elianto","#3366ff99"," "," ","1","0","[1234]","1","0","1","","","","","","","",""
"pit-trial","29","419595","0.0-2.0-8.1-4.1","battery-v0.2","","""event"",""trial"",""time""
""fullscreenenter"",""1"",""11366""
","
","
","""event"",""trial"",""time""
""fullscreenenter"",""1"",""11366""
","
","","","448.7000000476837","","","24","11145","662","&#9776;","elianto","#3366ff99"," "," ","1","+10","[1300.2000000476837]","1","0","1","","","","","","","",""
"pit-trial","30","422839","0.0-2.0-8.2-0.2","battery-v0.2","","""event"",""trial"",""time""
""fullscreenenter"",""1"",""11366""
","
","
","""event"",""trial"",""time""
""fullscreenenter"",""1"",""11366""
","
","","","389","","","24","11145","662","&#9776;","elianto","#3366ff99"," "," ","1","+10","[1240.1999999284744]","1","0","1","","","","","","","",""
"pit-trial","31","426101","0.0-2.0-8.2-1.2","battery-v0.2","","""event"",""trial"",""time""
""fullscreenenter"",""1"",""11366""
","
","
","""event"",""trial"",""time""
""fullscreenenter"",""1"",""11366""
","
","","","408.2999999523163","","","24","11145","662","&#9776;","elianto","#3366ff99"," "," ","1","+10","[1258.6000000238419]","1","0","1","","","","","","","",""
"pit-trial","32","429378","0.0-2.0-8.2-2.2","battery-v0.2","","""event"",""trial"",""time""
""fullscreenenter"",""1"",""11366""
","
","
","""event"",""trial"",""time""
""fullscreenenter"",""1"",""11366""
","
","","","423.8000000715256","","","24","11145","662","&#9776;","elianto","#3366ff99"," "," ","1","+10","[1274]","1","0","1","","","","","","","",""
"pit-trial","33","432732","0.0-2.0-8.2-3.2","battery-v0.2","","""event"",""trial"",""time""
""fullscreenenter"",""1"",""11366""
","
","
","""event"",""trial"",""time""
""fullscreenenter"",""1"",""11366""
","
","","","498.89999997615814","","","24","11145","662","&#9776;","elianto","#3366ff99"," "," ","1","0","[1350.1000000238419]","1","0","1","","","","","","","",""
"pit-trial","34","435847","0.0-2.0-8.2-4.2","battery-v0.2","","""event"",""trial"",""time""
""fullscreenenter"",""1"",""11366""
","
","
","""event"",""trial"",""time""
""fullscreenenter"",""1"",""11366""
","
","","","261.6999999284744","","","24","11145","662","&#9776;","elianto","#3366ff99"," "," ","1","+10","[1112.6999999284744]","1","0","1","","","","","","","",""
"call-function","35","435849","0.0-2.0-9.0","battery-v0.2","","""event"",""trial"",""time""
""fullscreenenter"",""1"",""11366""
","
","
","""event"",""trial"",""time""
""fullscreenenter"",""1"",""11366""
","
","","","","","","","","","","","","","","","","","","","","","","","","","","",""
"pit-instructions","36","487565","0.0-2.0-10.0","battery-v0.2","","""event"",""trial"",""time""
""fullscreenenter"",""1"",""11366""
","
","
","""event"",""trial"",""time""
""fullscreenenter"",""1"",""11366""
","
","","[{""page_index"":0,""viewing_time"":12862.799999952316},{""page_index"":1,""viewing_time"":8607.700000047684},{""page_index"":2,""viewing_time"":11549.100000023842},{""page_index"":3,""viewing_time"":10672.199999928474},{""page_index"":4,""viewing_time"":8023.300000071526}]","51715.39999997616","","","","","","","","","","","","","","","","","","","","","","","",""
"pit-trial","37","492419","0.0-2.0-11.0-0.0","battery-v0.2","","""event"",""trial"",""time""
""fullscreenenter"",""1"",""11366""
","
","
","""event"",""trial"",""time""
""fullscreenenter"",""1"",""11366""
","
","","","-1","","","24","11145","662","&#9761;","elianto","#3366ff99","-1","-1","1","+10","[]","0","0","2","","","","","","","",""
"pit-trial","38","497273","0.0-2.0-11.0-1.0","battery-v0.2","","""event"",""trial"",""time""
""fullscreenenter"",""1"",""11366""
","
","
","""event"",""trial"",""time""
""fullscreenenter"",""1"",""11366""
","
","","","-1","","","24","11145","662","&#9761;","elianto","#3366ff99","-1","-1","1","+10","[]","0","0","2","","","","","","","",""
"pit-trial","39","502128","0.0-2.0-11.0-2.0","battery-v0.2","","""event"",""trial"",""time""
""fullscreenenter"",""1"",""11366""
","
","
","""event"",""trial"",""time""
""fullscreenenter"",""1"",""11366""
","
","","","-1","","","24","11145","662","&#9761;","elianto","#3366ff99","-1","-1","1","+10","[]","0","0","2","","","","","","","",""
"pit-trial","40","506981","0.0-2.0-11.0-3.0","battery-v0.2","","""event"",""trial"",""time""
""fullscreenenter"",""1"",""11366""
","
","
","""event"",""trial"",""time""
""fullscreenenter"",""1"",""11366""
","
","","","-1","","","24","11145","662","&#9761;","elianto","#3366ff99","-1","-1","1","0","[]","0","0","2","","","","","","","",""
"pit-trial","41","511835","0.0-2.0-11.0-4.0","battery-v0.2","","""event"",""trial"",""time""
""fullscreenenter"",""1"",""11366""
","
","
","""event"",""trial"",""time""
""fullscreenenter"",""1"",""11366""
","
","","","-1","","","24","11145","662","&#9761;","elianto","#3366ff99","-1","-1","1","+10","[]","0","0","2","","","","","","","",""
"pit-trial","42","516691","0.0-2.0-11.1-0.1","battery-v0.2","","""event"",""trial"",""time""
""fullscreenenter"",""1"",""11366""
","
","
","""event"",""trial"",""time""
""fullscreenenter"",""1"",""11366""
","
","","","-1","","","24","11145","662","&#9761;","elianto","#3366ff99","-1","-1","1","+10","[]","0","0","2","","","","","","","",""
"pit-trial","43","521544","0.0-2.0-11.1-1.1","battery-v0.2","","""event"",""trial"",""time""
""fullscreenenter"",""1"",""11366""
","
","
","""event"",""trial"",""time""
""fullscreenenter"",""1"",""11366""
","
","","","-1","","","24","11145","662","&#9761;","elianto","#3366ff99","-1","-1","1","+10","[]","0","0","2","","","","","","","",""
"pit-trial","44","526399","0.0-2.0-11.1-2.1","battery-v0.2","","""event"",""trial"",""time""
""fullscreenenter"",""1"",""11366""
","
","
","""event"",""trial"",""time""
""fullscreenenter"",""1"",""11366""
","
","","","-1","","","24","11145","662","&#9761;","elianto","#3366ff99","-1","-1","1","+10","[]","0","0","2","","","","","","","",""
"pit-trial","45","531252","0.0-2.0-11.1-3.1","battery-v0.2","","""event"",""trial"",""time""
""fullscreenenter"",""1"",""11366""
","
","
","""event"",""trial"",""time""
""fullscreenenter"",""1"",""11366""
","
","","","-1","","","24","11145","662","&#9761;","elianto","#3366ff99","-1","-1","1","0","[]","0","0","2","","","","","","","",""
"pit-trial","46","536106","0.0-2.0-11.1-4.1","battery-v0.2","","""event"",""trial"",""time""
""fullscreenenter"",""1"",""11366""
","
","
","""event"",""trial"",""time""
""fullscreenenter"",""1"",""11366""
","
","","","-1","","","24","11145","662","&#9761;","elianto","#3366ff99","-1","-1","1","+10","[]","0","0","2","","","","","","","",""
"pit-trial","47","540960","0.0-2.0-11.2-0.2","battery-v0.2","","""event"",""trial"",""time""
""fullscreenenter"",""1"",""11366""
","
","
","""event"",""trial"",""time""
""fullscreenenter"",""1"",""11366""
","
","","","-1","","","24","11145","662","&#9761;","elianto","#3366ff99","-1","-1","1","+10","[]","0","0","2","","","","","","","",""
"pit-trial","48","545815","0.0-2.0-11.2-1.2","battery-v0.2","","""event"",""trial"",""time""
""fullscreenenter"",""1"",""11366""
","
","
","""event"",""trial"",""time""
""fullscreenenter"",""1"",""11366""
","
","","","-1","","","24","11145","662","&#9761;","elianto","#3366ff99","-1","-1","1","+10","[]","0","0","2","","","","","","","",""
"pit-trial","49","550668","0.0-2.0-11.2-2.2","battery-v0.2","","""event"",""trial"",""time""
""fullscreenenter"",""1"",""11366""
","
","
","""event"",""trial"",""time""
""fullscreenenter"",""1"",""11366""
","
","","","-1","","","24","11145","662","&#9761;","elianto","#3366ff99","-1","-1","1","+10","[]","0","0","2","","","","","","","",""
"pit-trial","50","555523","0.0-2.0-11.2-3.2","battery-v0.2","","""event"",""trial"",""time""
""fullscreenenter"",""1"",""11366""
","
","
","""event"",""trial"",""time""
""fullscreenenter"",""1"",""11366""
","
","","","-1","","","24","11145","662","&#9761;","elianto","#3366ff99","-1","-1","1","0","[]","0","0","2","","","","","","","",""
"pit-trial","51","560377","0.0-2.0-11.2-4.2","battery-v0.2","","""event"",""trial"",""time""
""fullscreenenter"",""1"",""11366""
","
","
","""event"",""trial"",""time""
""fullscreenenter"",""1"",""11366""
","
","","","-1","","","24","11145","662","&#9761;","elianto","#3366ff99","-1","-1","1","+10","[]","0","0","2","","","","","","","",""
"pit-trial","52","565231","0.0-2.0-11.3-0.3","battery-v0.2","","""event"",""trial"",""time""
""fullscreenenter"",""1"",""11366""
","
","
","""event"",""trial"",""time""
""fullscreenenter"",""1"",""11366""
","
","","","-1","","","24","11145","662","&#9761;","elianto","#3366ff99","-1","-1","1","+10","[]","0","0","2","","","","","","","",""
"pit-trial","53","570084","0.0-2.0-11.3-1.3","battery-v0.2","","""event"",""trial"",""time""
""fullscreenenter"",""1"",""11366""
","
","
","""event"",""trial"",""time""
""fullscreenenter"",""1"",""11366""
","
","","","-1","","","24","11145","662","&#9761;","elianto","#3366ff99","-1","-1","1","+10","[]","0","0","2","","","","","","","",""
"pit-trial","54","574938","0.0-2.0-11.3-2.3","battery-v0.2","","""event"",""trial"",""time""
""fullscreenenter"",""1"",""11366""
","
","
","""event"",""trial"",""time""
""fullscreenenter"",""1"",""11366""
","
","","","-1","","","24","11145","662","&#9761;","elianto","#3366ff99","-1","-1","1","+10","[]","0","0","2","","","","","","","",""
"pit-trial","55","579793","0.0-2.0-11.3-3.3","battery-v0.2","","""event"",""trial"",""time""
""fullscreenenter"",""1"",""11366""
","
","
","""event"",""trial"",""time""
""fullscreenenter"",""1"",""11366""
","
","","","-1","","","24","11145","662","&#9761;","elianto","#3366ff99","-1","-1","1","0","[]","0","0","2","","","","","","","",""
"pit-trial","56","583165","0.0-2.0-11.3-4.3","battery-v0.2","","""event"",""trial"",""time""
""fullscreenenter"",""1"",""11366""
","
","
","""event"",""trial"",""time""
""fullscreenenter"",""1"",""11366""
","
","","","519","","","24","11145","662","&#9761;","elianto","#3366ff99","-1"," ","0","0","[1370.3999999761581]","1","0","2","","","","","","","",""
"call-function","57","583168","0.0-2.0-12.0","battery-v0.2","","""event"",""trial"",""time""
""fullscreenenter"",""1"",""11366""
","
","
","""event"",""trial"",""time""
""fullscreenenter"",""1"",""11366""
","
","","","","","","","","","","","","","","","","","","","","","","","","","","",""
"pit-instructions","58","623255","0.0-2.0-13.0","battery-v0.2","","""event"",""trial"",""time""
""fullscreenenter"",""1"",""11366""
","
","
","""event"",""trial"",""time""
""fullscreenenter"",""1"",""11366""
","
","","[{""page_index"":0,""viewing_time"":7015.100000023842},{""page_index"":1,""viewing_time"":10250.5},{""page_index"":2,""viewing_time"":5300.299999952316},{""page_index"":3,""viewing_time"":11932.100000023842},{""page_index"":4,""viewing_time"":5588.5}]","40086.89999997616","","","","","","","","","","","","","","","","","","","","","","","",""
"pit-trial","59","626449","0.0-2.0-14.0-0.0","battery-v0.2","","""event"",""trial"",""time""
""fullscreenenter"",""1"",""11366""
","
","
","""event"",""trial"",""time""
""fullscreenenter"",""1"",""11366""
","
","","","338","","","24","11145","662","&#9826;","elianto","#f73b6a7A","-1"," ","0","-10","[1189.8999999761581]","1","0","3","","","","","","","",""
"pit-trial","60","631304","0.0-2.0-14.0-1.0","battery-v0.2","","""event"",""trial"",""time""
""fullscreenenter"",""1"",""11366""
","
","
","""event"",""trial"",""time""
""fullscreenenter"",""1"",""11366""
","
","","","-1","","","24","11145","662","&#9826;","elianto","#f73b6a7A","-1","-1","1","0","[]","0","0","3","","","","","","","",""
"pit-trial","61","636157","0.0-2.0-14.0-2.0","battery-v0.2","","""event"",""trial"",""time""
""fullscreenenter"",""1"",""11366""
","
","
","""event"",""trial"",""time""
""fullscreenenter"",""1"",""11366""
","
","","","-1","","","24","11145","662","&#9826;","elianto","#f73b6a7A","-1","-1","1","0","[]","0","0","3","","","","","","","",""
"pit-trial","62","641012","0.0-2.0-14.0-3.0","battery-v0.2","","""event"",""trial"",""time""
""fullscreenenter"",""1"",""11366""
","
","
","""event"",""trial"",""time""
""fullscreenenter"",""1"",""11366""
","
","","","-1","","","24","11145","662","&#9826;","elianto","#f73b6a7A","-1","-1","1","-10","[]","0","0","3","","","","","","","",""
"pit-trial","63","645865","0.0-2.0-14.0-4.0","battery-v0.2","","""event"",""trial"",""time""
""fullscreenenter"",""1"",""11366""
","
","
","""event"",""trial"",""time""
""fullscreenenter"",""1"",""11366""
","
","","","-1","","","24","11145","662","&#9826;","elianto","#f73b6a7A","-1","-1","1","0","[]","0","0","3","","","","","","","",""
"pit-trial","64","650721","0.0-2.0-14.1-0.1","battery-v0.2","","""event"",""trial"",""time""
""fullscreenenter"",""1"",""11366""
","
","
","""event"",""trial"",""time""
""fullscreenenter"",""1"",""11366""
","
","","","-1","","","24","11145","662","&#9826;","elianto","#f73b6a7A","-1","-1","1","0","[]","0","0","3","","","","","","","",""
"pit-trial","65","655575","0.0-2.0-14.1-1.1","battery-v0.2","","""event"",""trial"",""time""
""fullscreenenter"",""1"",""11366""
","
","
","""event"",""trial"",""time""
""fullscreenenter"",""1"",""11366""
","
","","","-1","","","24","11145","662","&#9826;","elianto","#f73b6a7A","-1","-1","1","0","[]","0","0","3","","","","","","","",""
"pit-trial","66","660428","0.0-2.0-14.1-2.1","battery-v0.2","","""event"",""trial"",""time""
""fullscreenenter"",""1"",""11366""
","
","
","""event"",""trial"",""time""
""fullscreenenter"",""1"",""11366""
","
","","","-1","","","24","11145","662","&#9826;","elianto","#f73b6a7A","-1","-1","1","0","[]","0","0","3","","","","","","","",""
"pit-trial","67","665281","0.0-2.0-14.1-3.1","battery-v0.2","","""event"",""trial"",""time""
""fullscreenenter"",""1"",""11366""
","
","
","""event"",""trial"",""time""
""fullscreenenter"",""1"",""11366""
","
","","","-1","","","24","11145","662","&#9826;","elianto","#f73b6a7A","-1","-1","1","-10","[]","0","0","3","","","","","","","",""
"pit-trial","68","670135","0.0-2.0-14.1-4.1","battery-v0.2","","""event"",""trial"",""time""
""fullscreenenter"",""1"",""11366""
","
","
","""event"",""trial"",""time""
""fullscreenenter"",""1"",""11366""
","
","","","-1","","","24","11145","662","&#9826;","elianto","#f73b6a7A","-1","-1","1","0","[4018.399999976158]","1","0","3","","","","","","","",""
"pit-trial","69","674989","0.0-2.0-14.2-0.2","battery-v0.2","","""event"",""trial"",""time""
""fullscreenenter"",""1"",""11366""
","
","
","""event"",""trial"",""time""
""fullscreenenter"",""1"",""11366""
","
","","","-1","","","24","11145","662","&#9826;","elianto","#f73b6a7A","-1","-1","1","0","[]","0","0","3","","","","","","","",""
"pit-trial","70","679843","0.0-2.0-14.2-1.2","battery-v0.2","","""event"",""trial"",""time""
""fullscreenenter"",""1"",""11366""
","
","
","""event"",""trial"",""time""
""fullscreenenter"",""1"",""11366""
","
","","","-1","","","24","11145","662","&#9826;","elianto","#f73b6a7A","-1","-1","1","0","[]","0","0","3","","","","","","","",""
"pit-trial","71","684697","0.0-2.0-14.2-2.2","battery-v0.2","","""event"",""trial"",""time""
""fullscreenenter"",""1"",""11366""
","
","
","""event"",""trial"",""time""
""fullscreenenter"",""1"",""11366""
","
","","","-1","","","24","11145","662","&#9826;","elianto","#f73b6a7A","-1","-1","1","0","[]","0","0","3","","","","","","","",""
"pit-trial","72","689550","0.0-2.0-14.2-3.2","battery-v0.2","","""event"",""trial"",""time""
""fullscreenenter"",""1"",""11366""
","
","
","""event"",""trial"",""time""
""fullscreenenter"",""1"",""11366""
","
","","","-1","","","24","11145","662","&#9826;","elianto","#f73b6a7A","-1","-1","1","-10","[]","0","0","3","","","","","","","",""
"pit-trial","73","694405","0.0-2.0-14.2-4.2","battery-v0.2","","""event"",""trial"",""time""
""fullscreenenter"",""1"",""11366""
","
","
","""event"",""trial"",""time""
""fullscreenenter"",""1"",""11366""
","
","","","-1","","","24","11145","662","&#9826;","elianto","#f73b6a7A","-1","-1","1","0","[]","0","0","3","","","","","","","",""
"pit-trial","74","699259","0.0-2.0-14.3-0.3","battery-v0.2","","""event"",""trial"",""time""
""fullscreenenter"",""1"",""11366""
","
","
","""event"",""trial"",""time""
""fullscreenenter"",""1"",""11366""
","
","","","-1","","","24","11145","662","&#9826;","elianto","#f73b6a7A","-1","-1","1","0","[]","0","0","3","","","","","","","",""
"pit-trial","75","704113","0.0-2.0-14.3-1.3","battery-v0.2","","""event"",""trial"",""time""
""fullscreenenter"",""1"",""11366""
","
","
","""event"",""trial"",""time""
""fullscreenenter"",""1"",""11366""
","
","","","-1","","","24","11145","662","&#9826;","elianto","#f73b6a7A","-1","-1","1","0","[]","0","0","3","","","","","","","",""
"pit-trial","76","708967","0.0-2.0-14.3-2.3","battery-v0.2","","""event"",""trial"",""time""
""fullscreenenter"",""1"",""11366""
","
","
","""event"",""trial"",""time""
""fullscreenenter"",""1"",""11366""
","
","","","-1","","","24","11145","662","&#9826;","elianto","#f73b6a7A","-1","-1","1","0","[]","0","0","3","","","","","","","",""
"pit-trial","77","713820","0.0-2.0-14.3-3.3","battery-v0.2","","""event"",""trial"",""time""
""fullscreenenter"",""1"",""11366""
","
","
","""event"",""trial"",""time""
""fullscreenenter"",""1"",""11366""
","
","","","-1","","","24","11145","662","&#9826;","elianto","#f73b6a7A","-1","-1","1","-10","[]","0","0","3","","","","","","","",""
"pit-trial","78","718674","0.0-2.0-14.3-4.3","battery-v0.2","","""event"",""trial"",""time""
""fullscreenenter"",""1"",""11366""
","
","
","""event"",""trial"",""time""
""fullscreenenter"",""1"",""11366""
","
","","","-1","","","24","11145","662","&#9826;","elianto","#f73b6a7A","-1","-1","1","0","[]","0","0","3","","","","","","","",""
"call-function","79","718677","0.0-2.0-15.0","battery-v0.2","","""event"",""trial"",""time""
""fullscreenenter"",""1"",""11366""
","
","
","""event"",""trial"",""time""
""fullscreenenter"",""1"",""11366""
","
","","","","","","","","","","","","","","","","","","","","","","","","","","",""
"pit-instructions","80","747031","0.0-2.0-16.0","battery-v0.2","","""event"",""trial"",""time""
""fullscreenenter"",""1"",""11366""
","
","
","""event"",""trial"",""time""
""fullscreenenter"",""1"",""11366""
","
","","[{""page_index"":0,""viewing_time"":7467.5},{""page_index"":1,""viewing_time"":9983.399999976158},{""page_index"":2,""viewing_time"":5671.299999952316},{""page_index"":3,""viewing_time"":5230.800000071526}]","28353.299999952316","","","","","","","","","","","","","","","","","","","","","","","",""
"pit-trial","81","750256","0.0-2.0-17.0-0.0","battery-v0.2","","""event"",""trial"",""time""
""fullscreenenter"",""1"",""11366""
","
","
","""event"",""trial"",""time""
""fullscreenenter"",""1"",""11366""
","
","","","370.7000000476837","","","24","11145","662","&#9789;","elianto","#f73b6a7A"," "," ","1","0","[1221]","1","0","4","","","","","","","",""
"pit-trial","82","753367","0.0-2.0-17.0-1.0","battery-v0.2","","""event"",""trial"",""time""
""fullscreenenter"",""1"",""11366""
","
","
","""event"",""trial"",""time""
""fullscreenenter"",""1"",""11366""
","
","","","258.60000002384186","","","24","11145","662","&#9789;","elianto","#f73b6a7A"," "," ","1","0","[1108.7000000476837]","1","0","4","","","","","","","",""
"pit-trial","83","756418","0.0-2.0-17.0-2.0","battery-v0.2","","""event"",""trial"",""time""
""fullscreenenter"",""1"",""11366""
","
","
","""event"",""trial"",""time""
""fullscreenenter"",""1"",""11366""
","
","","","197.29999995231628","","","24","11145","662","&#9789;","elianto","#f73b6a7A"," "," ","1","0","[1047.6999999284744]","1","0","4","","","","","","","",""
"pit-trial","84","759380","0.0-2.0-17.0-3.0","battery-v0.2","","""event"",""trial"",""time""
""fullscreenenter"",""1"",""11366""
","
","
","""event"",""trial"",""time""
""fullscreenenter"",""1"",""11366""
","
","","","107.80000007152557","","","24","11145","662","&#9789;","elianto","#f73b6a7A"," "," ","1","-10","[959.4000000953674]","1","0","4","","","","","","","",""
"pit-trial","85","762279","0.0-2.0-17.0-4.0","battery-v0.2","","""event"",""trial"",""time""
""fullscreenenter"",""1"",""11366""
","
","
","""event"",""trial"",""time""
""fullscreenenter"",""1"",""11366""
","
","","","44.89999997615814","","","24","11145","662","&#9789;","elianto","#f73b6a7A"," "," ","1","0","[895.1000000238419]","1","0","4","","","","","","","",""
"pit-trial","86","765138","0.0-2.0-17.1-0.1","battery-v0.2","","""event"",""trial"",""time""
""fullscreenenter"",""1"",""11366""
","
","
","""event"",""trial"",""time""
""fullscreenenter"",""1"",""11366""
","
","","","3.4000000953674316","","","24","11145","662","&#9789;","elianto","#f73b6a7A"," "," ","1","0","[855.1000000238419]","1","0","4","","","","","","","",""
"pit-trial","87","768168","0.0-2.0-17.1-1.1","battery-v0.2","","""event"",""trial"",""time""
""fullscreenenter"",""1"",""11366""
","
","
","""event"",""trial"",""time""
""fullscreenenter"",""1"",""11366""
","
","","","175.79999995231628","","","24","11145","662","&#9789;","elianto","#f73b6a7A"," "," ","1","0","[1026.6999999284744]","1","0","4","","","","","","","",""
"pit-trial","88","771223","0.0-2.0-17.1-2.1","battery-v0.2","","""event"",""trial"",""time""
""fullscreenenter"",""1"",""11366""
","
","
","""event"",""trial"",""time""
""fullscreenenter"",""1"",""11366""
","
","","","201.40000009536743","","","24","11145","662","&#9789;","elianto","#f73b6a7A"," "," ","1","0","[1052.1000000238419]","1","0","4","","","","","","","",""
"pit-trial","89","774356","0.0-2.0-17.1-3.1","battery-v0.2","","""event"",""trial"",""time""
""fullscreenenter"",""1"",""11366""
","
","
","""event"",""trial"",""time""
""fullscreenenter"",""1"",""11366""
","
","","","280.7999999523163","","","24","11145","662","&#9789;","elianto","#f73b6a7A"," "," ","1","-10","[1131.2999999523163]","1","0","4","","","","","","","",""
"pit-trial","90","777434","0.0-2.0-17.1-4.1","battery-v0.2","","""event"",""trial"",""time""
""fullscreenenter"",""1"",""11366""
","
","
","""event"",""trial"",""time""
""fullscreenenter"",""1"",""11366""
","
","","","224.69999992847443","","","24","11145","662","&#9789;","elianto","#f73b6a7A"," "," ","1","0","[1075.1999999284744]","1","0","4","","","","","","","",""
"pit-trial","91","780628","0.0-2.0-17.2-0.2","battery-v0.2","","""event"",""trial"",""time""
""fullscreenenter"",""1"",""11366""
","
","
","""event"",""trial"",""time""
""fullscreenenter"",""1"",""11366""
","
","","","340.59999990463257","","","24","11145","662","&#9789;","elianto","#f73b6a7A"," "," ","1","0","[1191.5999999046326]","1","0","4","","","","","","","",""
"pit-trial","92","783876","0.0-2.0-17.2-1.2","battery-v0.2","","""event"",""trial"",""time""
""fullscreenenter"",""1"",""11366""
","
","
","""event"",""trial"",""time""
""fullscreenenter"",""1"",""11366""
","
","","","393.3000000715256","","","24","11145","662","&#9789;","elianto","#f73b6a7A"," "," ","1","0","[1244.7000000476837]","1","0","4","","","","","","","",""
"pit-trial","93","787093","0.0-2.0-17.2-2.2","battery-v0.2","","""event"",""trial"",""time""
""fullscreenenter"",""1"",""11366""
","
","
","""event"",""trial"",""time""
""fullscreenenter"",""1"",""11366""
","
","","","363.2000000476837","","","24","11145","662","&#9789;","elianto","#f73b6a7A"," "," ","1","0","[1213.3999999761581]","1","0","4","","","","","","","",""
"pit-trial","94","790294","0.0-2.0-17.2-3.2","battery-v0.2","","""event"",""trial"",""time""
""fullscreenenter"",""1"",""11366""
","
","
","""event"",""trial"",""time""
""fullscreenenter"",""1"",""11366""
","
","","","348.3000000715256","","","24","11145","662","&#9789;","elianto","#f73b6a7A"," "," ","1","-10","[1198.7000000476837]","1","0","4","","","","","","","",""
"pit-trial","95","793587","0.0-2.0-17.2-4.2","battery-v0.2","","""event"",""trial"",""time""
""fullscreenenter"",""1"",""11366""
","
","
","""event"",""trial"",""time""
""fullscreenenter"",""1"",""11366""
","
","","","438.10000002384186","","","24","11145","662","&#9789;","elianto","#f73b6a7A"," "," ","1","0","[1289.1000000238419]","1","0","4","","","","","","","",""
"pit-trial","96","796460","0.0-2.0-17.3-0.3","battery-v0.2","","""event"",""trial"",""time""
""fullscreenenter"",""1"",""11366""
","
","
","""event"",""trial"",""time""
""fullscreenenter"",""1"",""11366""
","
","","","18.100000023841858","","","24","11145","662","&#9789;","elianto","#f73b6a7A"," "," ","1","0","[833.2999999523163,869.2999999523163]","2","0","4","","","","","","","",""
"pit-trial","97","799832","0.0-2.0-17.3-1.3","battery-v0.2","","""event"",""trial"",""time""
""fullscreenenter"",""1"",""11366""
","
","
","""event"",""trial"",""time""
""fullscreenenter"",""1"",""11366""
","
","","","518.7999999523163","","","24","11145","662","&#9789;","elianto","#f73b6a7A"," "," ","1","0","[1369.8999999761581]","1","0","4","","","","","","","",""
"pit-trial","98","803097","0.0-2.0-17.3-2.3","battery-v0.2","","""event"",""trial"",""time""
""fullscreenenter"",""1"",""11366""
","
","
","""event"",""trial"",""time""
""fullscreenenter"",""1"",""11366""
","
","","","409.2999999523163","","","24","11145","662","&#9789;","elianto","#f73b6a7A"," "," ","1","0","[1260.5999999046326]","1","0","4","","","","","","","",""
"pit-trial","99","806479","0.0-2.0-17.3-3.3","battery-v0.2","","""event"",""trial"",""time""
""fullscreenenter"",""1"",""11366""
","
","
","""event"",""trial"",""time""
""fullscreenenter"",""1"",""11366""
","
","","","528.5","","","24","11145","662","&#9789;","elianto","#f73b6a7A"," "," ","1","-10","[1378.6999999284744]","1","0","4","","","","","","","",""
"pit-trial","100","809755","0.0-2.0-17.3-4.3","battery-v0.2","","""event"",""trial"",""time""
""fullscreenenter"",""1"",""11366""
","
","
","""event"",""trial"",""time""
""fullscreenenter"",""1"",""11366""
","
","","","423.2000000476837","","","24","11145","662","&#9789;","elianto","#f73b6a7A"," "," ","1","0","[1273.3999999761581]","1","0","4","","","","","","","",""
"call-function","101","809757","0.0-2.0-18.0","battery-v0.2","","""event"",""trial"",""time""
""fullscreenenter"",""1"",""11366""
","
","
","""event"",""trial"",""time""
""fullscreenenter"",""1"",""11366""
","
","","","","","","","","","","","","","","","","","","","","","","","","","","",""
"pit-instructions","102","931594","0.0-2.0-19.0","battery-v0.2","","""event"",""trial"",""time""
""fullscreenenter"",""1"",""11366""
","
","
","""event"",""trial"",""time""
""fullscreenenter"",""1"",""11366""
","
","","[{""page_index"":0,""viewing_time"":12133.5},{""page_index"":1,""viewing_time"":6639.399999976158},{""page_index"":2,""viewing_time"":14171.199999928474},{""page_index"":3,""viewing_time"":50023.700000047684},{""page_index"":4,""viewing_time"":9742.399999976158},{""page_index"":5,""viewing_time"":8813.5},{""page_index"":6,""viewing_time"":8842.800000071526},{""page_index"":7,""viewing_time"":7037.599999904633},{""page_index"":8,""viewing_time"":4432.200000047684}]","121836.79999995232","","","","","","","","","","","","","","","","","","","","","","","",""
"pit-comprehension","103","938277","0.0-2.0-20.0-0.0","battery-v0.2","","""event"",""trial"",""time""
""fullscreenenter"",""1"",""11366""
","
","
","""event"",""trial"",""time""
""fullscreenenter"",""1"",""11366""
","
","","","6678.200000047684","[""SPACE""]","0","24","11145","662","","","","","","","","","","","","","","","","","","",""
"pit-instructions","104","942008","0.0-2.0-20.0-1.0","battery-v0.2","","""event"",""trial"",""time""
""fullscreenenter"",""1"",""11366""
","
","
","""event"",""trial"",""time""
""fullscreenenter"",""1"",""11366""
","
","","[{""page_index"":0,""viewing_time"":3707.1999999284744}]","3707.2999999523163","","","","","","","","","","","","","","","","","","","","","","","",""
"pit-comprehension","105","948253","0.0-2.0-21.0-0.0","battery-v0.2","","""event"",""trial"",""time""
""fullscreenenter"",""1"",""11366""
","
","
","""event"",""trial"",""time""
""fullscreenenter"",""1"",""11366""
","
","","","6242.200000047684","[""10""]","0","24","11145","662","","","","","","","","","","","","","","","","","","",""
"pit-instructions","106","950820","0.0-2.0-21.0-1.0","battery-v0.2","","""event"",""trial"",""time""
""fullscreenenter"",""1"",""11366""
","
","
","""event"",""trial"",""time""
""fullscreenenter"",""1"",""11366""
","
","","[{""page_index"":0,""viewing_time"":2542.399999976158}]","2542.7999999523163","","","","","","","","","","","","","","","","","","","","","","","",""
"pit-comprehension","107","960641","0.0-2.0-22.0-0.0","battery-v0.2","","""event"",""trial"",""time""
""fullscreenenter"",""1"",""11366""
","
","
","""event"",""trial"",""time""
""fullscreenenter"",""1"",""11366""
","
","","","9816.700000047684","[""0""]","0","24","11145","662","","","","","","","","","","","","","","","","","","",""
"pit-instructions","108","962754","0.0-2.0-22.0-1.0","battery-v0.2","","""event"",""trial"",""time""
""fullscreenenter"",""1"",""11366""
","
","
","""event"",""trial"",""time""
""fullscreenenter"",""1"",""11366""
","
","","[{""page_index"":0,""viewing_time"":2087.100000023842}]","2087.5","","","","","","","","","","","","","","","","","","","","","","","",""
"pit-comprehension","109","972626","0.0-2.0-23.0-0.0","battery-v0.2","","""event"",""trial"",""time""
""fullscreenenter"",""1"",""11366""
","
","
","""event"",""trial"",""time""
""fullscreenenter"",""1"",""11366""
","
","","","9867.700000047684","[""True""]","0","24","11145","662","","","","","","","","","","","","","","","","","","",""
"pit-instructions","110","977856","0.0-2.0-23.0-1.0","battery-v0.2","","""event"",""trial"",""time""
""fullscreenenter"",""1"",""11366""
","
","
","""event"",""trial"",""time""
""fullscreenenter"",""1"",""11366""
","
","","[{""page_index"":0,""viewing_time"":5205.899999976158}]","5206.199999928474","","","","","","","","","","","","","","","","","","","","","","","",""
"pit-comprehension","111","985458","0.0-2.0-24.0-0.0","battery-v0.2","","""event"",""trial"",""time""
""fullscreenenter"",""1"",""11366""
","
","
","""event"",""trial"",""time""
""fullscreenenter"",""1"",""11366""
","
","","","7597.600000023842","[""True""]","0","24","11145","662","","","","","","","","","","","","","","","","","","",""
"pit-instructions","112","991184","0.0-2.0-24.0-1.0","battery-v0.2","","""event"",""trial"",""time""
""fullscreenenter"",""1"",""11366""
","
","
","""event"",""trial"",""time""
""fullscreenenter"",""1"",""11366""
","
","","[{""page_index"":0,""viewing_time"":5702.199999928474}]","5702.600000023842","","","","","","","","","","","","","","","","","","","","","","","",""
"pit-comprehension","113","997827","0.0-2.0-25.0-0.0","battery-v0.2","","""event"",""trial"",""time""
""fullscreenenter"",""1"",""11366""
","
","
","""event"",""trial"",""time""
""fullscreenenter"",""1"",""11366""
","
","","","6638.600000023842","[""True""]","0","24","11145","662","","","","","","","","","","","","","","","","","","",""
"pit-instructions","114","1002202","0.0-2.0-25.0-1.0","battery-v0.2","","""event"",""trial"",""time""
""fullscreenenter"",""1"",""11366""
","
","
","""event"",""trial"",""time""
""fullscreenenter"",""1"",""11366""
","
","","[{""page_index"":0,""viewing_time"":4346.100000023842}]","4346.399999976158","","","","","","","","","","","","","","","","","","","","","","","",""
"pit-comprehension","115","1007983","0.0-2.0-26.0-0.0","battery-v0.2","","""event"",""trial"",""time""
""fullscreenenter"",""1"",""11366""
","
","
","""event"",""trial"",""time""
""fullscreenenter"",""1"",""11366""
","
","","","5777.199999928474","[""False""]","0","24","11145","662","","","","","","","","","","","","","","","","","","",""
"pit-instructions","116","1012139","0.0-2.0-26.0-1.0","battery-v0.2","","""event"",""trial"",""time""
""fullscreenenter"",""1"",""11366""
","
","
","""event"",""trial"",""time""
""fullscreenenter"",""1"",""11366""
","
","","[{""page_index"":0,""viewing_time"":4129.399999976158}]","4129.799999952316","","","","","","","","","","","","","","","","","","","","","","","",""
"pit-instructions","117","1039030","0.0-3.0","battery-v0.2","","""event"",""trial"",""time""
""fullscreenenter"",""1"",""11366""
","
","
","""event"",""trial"",""time""
""fullscreenenter"",""1"",""11366""
","
","","[{""page_index"":0,""viewing_time"":6107},{""page_index"":1,""viewing_time"":12775},{""page_index"":2,""viewing_time"":8004.799999952316}]","26887.100000023842","","","","","","","","","","","","","","","","","","","","","","","",""
"pit-trial","118","1042369","0.0-4.0","battery-v0.2","","""event"",""trial"",""time""
""fullscreenenter"",""1"",""11366""
","
","
","""event"",""trial"",""time""
""fullscreenenter"",""1"",""11366""
","
","","","481.2000000476837","","","24","11145","662","&#9752;","elianto","#f73b6a7A"," "," ","1","-10","[1332.7999999523163]","1","1","","","11145","1","3","3","lose","go","1"
"pit-trial","119","1045830","0.0-5.0","battery-v0.2","","""event"",""trial"",""time""
""fullscreenenter"",""1"",""11366""
","
","
","""event"",""trial"",""time""
""fullscreenenter"",""1"",""11366""
","
","","","605.7999999523163","","","24","11145","662","&#9730;","elianto","#3366ff99"," "," ","1","0","[1456.7999999523163]","1","1","","","11145","2","1","1","win","go","1"
"pit-trial","120","1049273","0.0-6.0","battery-v0.2","","""event"",""trial"",""time""
""fullscreenenter"",""1"",""11366""
","
","
","""event"",""trial"",""time""
""fullscreenenter"",""1"",""11366""
","
","","","589.7000000476837","","","24","11145","662","&#9728;","elianto","#f73b6a7A","-1"," ","0","-10","[1440]","1","1","","","11145","3","0","4","lose","no-go","0"
"pit-trial","121","1052819","0.0-7.0","battery-v0.2","","""event"",""trial"",""time""
""fullscreenenter"",""1"",""11366""
","
","
","""event"",""trial"",""time""
""fullscreenenter"",""1"",""11366""
","
","","","691.6999999284744","","","24","11145","662","&#9733;","elianto","#3366ff99","-1"," ","0","0","[1542.7999999523163]","1","1","","","11145","4","2","2","win","no-go","0"
"pit-trial","122","1057673","0.0-8.0","battery-v0.2","","""event"",""trial"",""time""
""fullscreenenter"",""1"",""11366""
","
","
","""event"",""trial"",""time""
""fullscreenenter"",""1"",""11366""
","
","","","-1","","","24","11145","662","&#9730;","elianto","#3366ff99"," ","-1","0","0","[]","0","1","","","11145","5","1","1","win","go","0"
"pit-trial","123","1062528","0.0-9.0","battery-v0.2","","""event"",""trial"",""time""
""fullscreenenter"",""1"",""11366""
","
","
","""event"",""trial"",""time""
""fullscreenenter"",""1"",""11366""
","
","","","-1","","","24","11145","662","&#9733;","elianto","#3366ff99","-1","-1","1","+10","[]","0","1","","","11145","6","2","2","win","no-go","0"
"pit-trial","124","1067382","0.0-10.0","battery-v0.2","","""event"",""trial"",""time""
""fullscreenenter"",""1"",""11366""
","
","
","""event"",""trial"",""time""
""fullscreenenter"",""1"",""11366""
","
","","","-1","","","24","11145","662","&#9728;","elianto","#f73b6a7A","-1","-1","1","0","[]","0","1","","","11145","7","0","4","lose","no-go","0"
"pit-trial","125","1072236","0.0-11.0","battery-v0.2","","""event"",""trial"",""time""
""fullscreenenter"",""1"",""11366""
","
","
","""event"",""trial"",""time""
""fullscreenenter"",""1"",""11366""
","
","","","-1","","","24","11145","662","&#9752;","elianto","#f73b6a7A"," ","-1","0","0","[]","0","1","","","11145","8","3","3","lose","go","1"
"pit-trial","126","1077091","0.0-12.0","battery-v0.2","","""event"",""trial"",""time""
""fullscreenenter"",""1"",""11366""
","
","
","""event"",""trial"",""time""
""fullscreenenter"",""1"",""11366""
","
","","","-1","","","24","11145","662","&#9752;","elianto","#f73b6a7A"," ","-1","0","-10","[]","0","1","","","11145","9","3","3","lose","go","0"
"pit-trial","127","1081945","0.0-13.0","battery-v0.2","","""event"",""trial"",""time""
""fullscreenenter"",""1"",""11366""
","
","
","""event"",""trial"",""time""
""fullscreenenter"",""1"",""11366""
","
","","","-1","","","24","11145","662","&#9728;","elianto","#f73b6a7A","-1","-1","1","0","[]","0","1","","","11145","10","0","4","lose","no-go","0"
"pit-trial","128","1086157","0.0-14.0","battery-v0.2","","""event"",""trial"",""time""
""fullscreenenter"",""1"",""11366""
","
","
","""event"",""trial"",""time""
""fullscreenenter"",""1"",""11366""
","
","","","1359.5","","","24","11145","662","&#9730;","elianto","#3366ff99"," "," ","1","+10","[2209.7000000476837]","1","1","","","11145","11","1","1","win","go","0"
"pit-trial","129","1091011","0.0-15.0","battery-v0.2","","""event"",""trial"",""time""
""fullscreenenter"",""1"",""11366""
","
","
","""event"",""trial"",""time""
""fullscreenenter"",""1"",""11366""
","
","","","-1","","","24","11145","662","&#9733;","elianto","#3366ff99","-1","-1","1","+10","[]","0","1","","","11145","12","2","2","win","no-go","0"
"pit-trial","130","1095062","0.0-16.0","battery-v0.2","","""event"",""trial"",""time""
""fullscreenenter"",""1"",""11366""
","
","
","""event"",""trial"",""time""
""fullscreenenter"",""1"",""11366""
","
","","","1196.2000000476837","","","24","11145","662","&#9730;","elianto","#3366ff99"," "," ","1","+10","[2047.5]","1","1","","","11145","13","1","1","win","go","0"
"pit-trial","131","1099917","0.0-17.0","battery-v0.2","","""event"",""trial"",""time""
""fullscreenenter"",""1"",""11366""
","
","
","""event"",""trial"",""time""
""fullscreenenter"",""1"",""11366""
","
","","","-1","","","24","11145","662","&#9728;","elianto","#f73b6a7A","-1","-1","1","0","[]","0","1","","","11145","14","0","4","lose","no-go","0"
"pit-trial","132","1102772","0.0-18.0","battery-v0.2","","""event"",""trial"",""time""
""fullscreenenter"",""1"",""11366""
","
","
","""event"",""trial"",""time""
""fullscreenenter"",""1"",""11366""
","
","","","1.100000023841858","","","24","11145","662","&#9752;","elianto","#f73b6a7A"," "," ","1","0","[802.1000000238419,851.8999999761581]","2","1","","","11145","15","3","3","lose","go","0"
"pit-trial","133","1107626","0.0-19.0","battery-v0.2","","""event"",""trial"",""time""
""fullscreenenter"",""1"",""11366""
","
","
","""event"",""trial"",""time""
""fullscreenenter"",""1"",""11366""
","
","","","-1","","","24","11145","662","&#9733;","elianto","#3366ff99","-1","-1","1","+10","[]","0","1","","","11145","16","2","2","win","no-go","0"
"pit-trial","134","1112479","0.0-20.0","battery-v0.2","","""event"",""trial"",""time""
""fullscreenenter"",""1"",""11366""
","
","
","""event"",""trial"",""time""
""fullscreenenter"",""1"",""11366""
","
","","","-1","","","24","11145","662","&#9733;","elianto","#3366ff99","-1","-1","1","+10","[]","0","1","","","11145","17","2","2","win","no-go","0"
"pit-trial","135","1117332","0.0-21.0","battery-v0.2","","""event"",""trial"",""time""
""fullscreenenter"",""1"",""11366""
","
","
","""event"",""trial"",""time""
""fullscreenenter"",""1"",""11366""
","
","","","-1","","","24","11145","662","&#9728;","elianto","#f73b6a7A","-1","-1","1","0","[]","0","1","","","11145","18","0","4","lose","no-go","0"
"pit-trial","136","1120806","0.0-22.0","battery-v0.2","","""event"",""trial"",""time""
""fullscreenenter"",""1"",""11366""
","
","
","""event"",""trial"",""time""
""fullscreenenter"",""1"",""11366""
","
","","","619.6999999284744","","","24","11145","662","&#9730;","elianto","#3366ff99"," "," ","1","+10","[1471.1000000238419]","1","1","","","11145","19","1","1","win","go","0"
"pit-trial","137","1124532","0.0-23.0","battery-v0.2","","""event"",""trial"",""time""
""fullscreenenter"",""1"",""11366""
","
","
","""event"",""trial"",""time""
""fullscreenenter"",""1"",""11366""
","
","","","870.8999999761581","","","24","11145","662","&#9752;","elianto","#f73b6a7A"," "," ","1","0","[1722.8999999761581]","1","1","","","11145","20","3","3","lose","go","0"
"pit-instructions","138","1139747","0.0-24.0","battery-v0.2","","""event"",""trial"",""time""
""fullscreenenter"",""1"",""11366""
","
","
","""event"",""trial"",""time""
""fullscreenenter"",""1"",""11366""
","
","","[{""page_index"":0,""viewing_time"":7319},{""page_index"":1,""viewing_time"":7893}]","15212.399999976158","","","","","","","","","","","","","","","","","","","","","","","",""
"pit-trial","139","1143290","0.0-25.0","battery-v0.2","","""event"",""trial"",""time""
""fullscreenenter"",""1"",""11366""
","
","
","""event"",""trial"",""time""
""fullscreenenter"",""1"",""11366""
","
","","","687.6000000238419","","","24","11145","662","a","elianto","#f73b6a7A"," "," ","1","0","[1537.7000000476837]","1","2","","","11145","21","2","3","lose","go","0"
"pit-trial","140","1147053","0.0-26.0","battery-v0.2","","""event"",""trial"",""time""
""fullscreenenter"",""1"",""11366""
","
","
","""event"",""trial"",""time""
""fullscreenenter"",""1"",""11366""
","
","","","908.3000000715256","","","24","11145","662","u","elianto","#f73b6a7A"," "," ","1","-10","[1759.5]","1","2","","","11145","22","0","3","lose","go","1"
"pit-trial","141","1150756","0.0-27.0","battery-v0.2","","""event"",""trial"",""time""
""fullscreenenter"",""1"",""11366""
","
","
","""event"",""trial"",""time""
""fullscreenenter"",""1"",""11366""
","
","","","848.6999999284744","","","24","11145","662","l","elianto","#3366ff99","-1"," ","0","+10","[1699.1000000238419]","1","2","","","11145","23","1","2","win","no-go","1"
"pit-trial","142","1154682","0.0-28.0","battery-v0.2","","""event"",""trial"",""time""
""fullscreenenter"",""1"",""11366""
","
","
","""event"",""trial"",""time""
""fullscreenenter"",""1"",""11366""
","
","","","1071","","","24","11145","662","g","elianto","#f73b6a7A","-1"," ","0","-10","[1921.6000000238419]","1","2","","","11145","24","3","4","lose","no-go","0"
"pit-trial","143","1158475","0.0-29.0","battery-v0.2","","""event"",""trial"",""time""
""fullscreenenter"",""1"",""11366""
","
","
","""event"",""trial"",""time""
""fullscreenenter"",""1"",""11366""
","
","","","938.8000000715256","","","24","11145","662","l","elianto","#3366ff99","-1"," ","0","0","[1790.1000000238419]","1","2","","","11145","25","1","2","win","no-go","0"
"pit-trial","144","1162684","0.0-30.0","battery-v0.2","","""event"",""trial"",""time""
""fullscreenenter"",""1"",""11366""
","
","
","""event"",""trial"",""time""
""fullscreenenter"",""1"",""11366""
","
","","","1353.8999999761581","","","24","11145","662","u","elianto","#f73b6a7A"," "," ","1","-10","[2204.6999999284744]","1","2","","","11145","26","0","3","lose","go","1"
"pit-trial","145","1167538","0.0-31.0","battery-v0.2","","""event"",""trial"",""time""
""fullscreenenter"",""1"",""11366""
","
","
","""event"",""trial"",""time""
""fullscreenenter"",""1"",""11366""
","
","","","-1","","","24","11145","662","g","elianto","#f73b6a7A","-1","-1","1","0","[]","0","2","","","11145","27","3","4","lose","no-go","0"
"pit-trial","146","1171088","0.0-32.0","battery-v0.2","","""event"",""trial"",""time""
""fullscreenenter"",""1"",""11366""
","
","
","""event"",""trial"",""time""
""fullscreenenter"",""1"",""11366""
","
","","","695.8000000715256","","","24","11145","662","a","elianto","#f73b6a7A"," "," ","1","0","[1546.6000000238419]","1","2","","","11145","28","2","3","lose","go","0"
"pit-trial","147","1175944","0.0-33.0","battery-v0.2","","""event"",""trial"",""time""
""fullscreenenter"",""1"",""11366""
","
","
","""event"",""trial"",""time""
""fullscreenenter"",""1"",""11366""
","
","","","-1","","","24","11145","662","u","elianto","#f73b6a7A"," ","-1","0","-10","[]","0","2","","","11145","29","0","3","lose","go","0"
"pit-trial","148","1180797","0.0-34.0","battery-v0.2","","""event"",""trial"",""time""
""fullscreenenter"",""1"",""11366""
","
","
","""event"",""trial"",""time""
""fullscreenenter"",""1"",""11366""
","
","","","-1","","","24","11145","662","g","elianto","#f73b6a7A","-1","-1","1","0","[]","0","2","","","11145","30","3","4","lose","no-go","0"
"pit-trial","149","1184210","0.0-35.0","battery-v0.2","","""event"",""trial"",""time""
""fullscreenenter"",""1"",""11366""
","
","
","""event"",""trial"",""time""
""fullscreenenter"",""1"",""11366""
","
","","","558.7000000476837","","","24","11145","662","a","elianto","#f73b6a7A"," "," ","1","0","[1409.7000000476837]","1","2","","","11145","31","2","3","lose","go","0"
"pit-trial","150","1187921","0.0-36.0","battery-v0.2","","""event"",""trial"",""time""
""fullscreenenter"",""1"",""11366""
","
","
","""event"",""trial"",""time""
""fullscreenenter"",""1"",""11366""
","
","","","856.7999999523163","","","24","11145","662","l","elianto","#3366ff99","-1"," ","0","0","[1707.6000000238419]","1","2","","","11145","32","1","2","win","no-go","0"
"pit-trial","151","1192775","0.0-37.0","battery-v0.2","","""event"",""trial"",""time""
""fullscreenenter"",""1"",""11366""
","
","
","""event"",""trial"",""time""
""fullscreenenter"",""1"",""11366""
","
","","","-1","","","24","11145","662","u","elianto","#f73b6a7A"," ","-1","0","-10","[]","0","2","","","11145","33","0","3","lose","go","0"
"pit-trial","152","1196286","0.0-38.0","battery-v0.2","","""event"",""trial"",""time""
""fullscreenenter"",""1"",""11366""
","
","
","""event"",""trial"",""time""
""fullscreenenter"",""1"",""11366""
","
","","","657.2000000476837","","","24","11145","662","a","elianto","#f73b6a7A"," "," ","1","0","[1507.5]","1","2","","","11145","34","2","3","lose","go","0"
"pit-trial","153","1201140","0.0-39.0","battery-v0.2","","""event"",""trial"",""time""
""fullscreenenter"",""1"",""11366""
","
","
","""event"",""trial"",""time""
""fullscreenenter"",""1"",""11366""
","
","","","-1","","","24","11145","662","g","elianto","#f73b6a7A","-1","-1","1","-10","[]","0","2","","","11145","35","3","4","lose","no-go","1"
"pit-trial","154","1204527","0.0-40.0","battery-v0.2","","""event"",""trial"",""time""
""fullscreenenter"",""1"",""11366""
","
","
","""event"",""trial"",""time""
""fullscreenenter"",""1"",""11366""
","
","","","533.6000000238419","","","24","11145","662","l","elianto","#3366ff99","-1"," ","0","0","[1383.8999999761581]","1","2","","","11145","36","1","2","win","no-go","0"
"pit-trial","155","1209381","0.0-41.0","battery-v0.2","","""event"",""trial"",""time""
""fullscreenenter"",""1"",""11366""
","
","
","""event"",""trial"",""time""
""fullscreenenter"",""1"",""11366""
","
","","","-1","","","24","11145","662","u","elianto","#f73b6a7A"," ","-1","0","-10","[4018.7000000476837]","1","2","","","11145","37","0","3","lose","go","0"
"pit-trial","156","1212818","0.0-42.0","battery-v0.2","","""event"",""trial"",""time""
""fullscreenenter"",""1"",""11366""
","
","
","""event"",""trial"",""time""
""fullscreenenter"",""1"",""11366""
","
","","","581.2999999523163","","","24","11145","662","a","elianto","#f73b6a7A"," "," ","1","0","[1432.6000000238419]","1","2","","","11145","38","2","3","lose","go","0"
"pit-trial","157","1217672","0.0-43.0","battery-v0.2","","""event"",""trial"",""time""
""fullscreenenter"",""1"",""11366""
","
","
","""event"",""trial"",""time""
""fullscreenenter"",""1"",""11366""
","
","","","-1","","","24","11145","662","g","elianto","#f73b6a7A","-1","-1","1","0","[]","0","2","","","11145","39","3","4","lose","no-go","0"
"pit-trial","158","1222526","0.0-44.0","battery-v0.2","","""event"",""trial"",""time""
""fullscreenenter"",""1"",""11366""
","
","
","""event"",""trial"",""time""
""fullscreenenter"",""1"",""11366""
","
","","","-1","","","24","11145","662","l","elianto","#3366ff99","-1","-1","1","+10","[]","0","2","","","11145","40","1","2","win","no-go","0"
"pit-trial","159","1226361","0.0-45.0","battery-v0.2","","""event"",""trial"",""time""
""fullscreenenter"",""1"",""11366""
","
","
","""event"",""trial"",""time""
""fullscreenenter"",""1"",""11366""
","
","","","981.8000000715256","","","24","11145","662","u","elianto","#f73b6a7A"," "," ","1","0","[1832.1000000238419]","1","2","","","11145","41","0","3","lose","go","0"
"pit-trial","160","1229824","0.0-46.0","battery-v0.2","","""event"",""trial"",""time""
""fullscreenenter"",""1"",""11366""
","
","
","""event"",""trial"",""time""
""fullscreenenter"",""1"",""11366""
","
","","","606.7999999523163","","","24","11145","662","a","elianto","#f73b6a7A"," "," ","1","0","[1458.6999999284744]","1","2","","","11145","42","2","3","lose","go","0"
"pit-trial","161","1234679","0.0-47.0","battery-v0.2","","""event"",""trial"",""time""
""fullscreenenter"",""1"",""11366""
","
","
","""event"",""trial"",""time""
""fullscreenenter"",""1"",""11366""
","
","","","-1","","","24","11145","662","l","elianto","#3366ff99","-1","-1","1","0","[]","0","2","","","11145","43","1","2","win","no-go","1"
"pit-trial","162","1239533","0.0-48.0","battery-v0.2","","""event"",""trial"",""time""
""fullscreenenter"",""1"",""11366""
","
","
","""event"",""trial"",""time""
""fullscreenenter"",""1"",""11366""
","
","","","-1","","","24","11145","662","g","elianto","#f73b6a7A","-1","-1","1","-10","[]","0","2","","","11145","44","3","4","lose","no-go","1"
"pit-trial","163","1244386","0.0-49.0","battery-v0.2","","""event"",""trial"",""time""
""fullscreenenter"",""1"",""11366""
","
","
","""event"",""trial"",""time""
""fullscreenenter"",""1"",""11366""
","
","","","-1","","","24","11145","662","g","elianto","#f73b6a7A","-1","-1","1","0","[]","0","2","","","11145","45","3","4","lose","no-go","0"
"pit-trial","164","1249240","0.0-50.0","battery-v0.2","","""event"",""trial"",""time""
""fullscreenenter"",""1"",""11366""
","
","
","""event"",""trial"",""time""
""fullscreenenter"",""1"",""11366""
","
","","","-1","","","24","11145","662","l","elianto","#3366ff99","-1","-1","1","0","[]","0","2","","","11145","46","1","2","win","no-go","1"
"pit-trial","165","1252846","0.0-51.0","battery-v0.2","","""event"",""trial"",""time""
""fullscreenenter"",""1"",""11366""
","
","
","""event"",""trial"",""time""
""fullscreenenter"",""1"",""11366""
","
","","","753.1999999284744","","","24","11145","662","u","elianto","#f73b6a7A"," "," ","1","0","[1604.6000000238419]","1","2","","","11145","47","0","3","lose","go","0"
"pit-trial","166","1256242","0.0-52.0","battery-v0.2","","""event"",""trial"",""time""
""fullscreenenter"",""1"",""11366""
","
","
","""event"",""trial"",""time""
""fullscreenenter"",""1"",""11366""
","
","","","541.2000000476837","","","24","11145","662","a","elianto","#f73b6a7A"," "," ","1","0","[1392.7000000476837]","1","2","","","11145","48","2","3","lose","go","0"
"pit-trial","167","1259764","0.0-53.0","battery-v0.2","","""event"",""trial"",""time""
""fullscreenenter"",""1"",""11366""
","
","
","""event"",""trial"",""time""
""fullscreenenter"",""1"",""11366""
","
","","","668.7000000476837","","","24","11145","662","a","elianto","#f73b6a7A"," "," ","1","0","[1519.3000000715256]","1","2","","","11145","49","2","3","lose","go","0"
"pit-trial","168","1263208","0.0-54.0","battery-v0.2","","""event"",""trial"",""time""
""fullscreenenter"",""1"",""11366""
","
","
","""event"",""trial"",""time""
""fullscreenenter"",""1"",""11366""
","
","","","590","","","24","11145","662","l","elianto","#3366ff99","-1"," ","0","0","[1441.0999999046326]","1","2","","","11145","50","1","2","win","no-go","0"
"pit-trial","169","1268061","0.0-55.0","battery-v0.2","","""event"",""trial"",""time""
""fullscreenenter"",""1"",""11366""
","
","
","""event"",""trial"",""time""
""fullscreenenter"",""1"",""11366""
","
","","","-1","","","24","11145","662","g","elianto","#f73b6a7A","-1","-1","1","0","[]","0","2","","","11145","51","3","4","lose","no-go","0"
"pit-trial","170","1271759","0.0-56.0","battery-v0.2","","""event"",""trial"",""time""
""fullscreenenter"",""1"",""11366""
","
","
","""event"",""trial"",""time""
""fullscreenenter"",""1"",""11366""
","
","","","844.1000000238419","","","24","11145","662","u","elianto","#f73b6a7A"," "," ","1","0","[1695]","1","2","","","11145","52","0","3","lose","go","0"
"pit-trial","171","1276613","0.0-57.0","battery-v0.2","","""event"",""trial"",""time""
""fullscreenenter"",""1"",""11366""
","
","
","""event"",""trial"",""time""
""fullscreenenter"",""1"",""11366""
","
","","","-1","","","24","11145","662","g","elianto","#f73b6a7A","-1","-1","1","0","[]","0","2","","","11145","53","3","4","lose","no-go","0"
"pit-trial","172","1280085","0.0-58.0","battery-v0.2","","""event"",""trial"",""time""
""fullscreenenter"",""1"",""11366""
","
","
","""event"",""trial"",""time""
""fullscreenenter"",""1"",""11366""
","
","","","616.6999999284744","","","24","11145","662","u","elianto","#f73b6a7A"," "," ","1","0","[1467.6999999284744]","1","2","","","11145","54","0","3","lose","go","0"
"pit-trial","173","1283528","0.0-59.0","battery-v0.2","","""event"",""trial"",""time""
""fullscreenenter"",""1"",""11366""
","
","
","""event"",""trial"",""time""
""fullscreenenter"",""1"",""11366""
","
","","","589.3000000715256","","","24","11145","662","a","elianto","#f73b6a7A"," "," ","1","0","[1440.3000000715256]","1","2","","","11145","55","2","3","lose","go","0"
"pit-trial","174","1287433","0.0-60.0","battery-v0.2","","""event"",""trial"",""time""
""fullscreenenter"",""1"",""11366""
","
","
","""event"",""trial"",""time""
""fullscreenenter"",""1"",""11366""
","
","","","1050.7000000476837","","","24","11145","662","l","elianto","#3366ff99","-1"," ","0","0","[1901.2999999523163]","1","2","","","11145","56","1","2","win","no-go","0"
"pit-trial","175","1291726","0.0-61.0","battery-v0.2","","""event"",""trial"",""time""
""fullscreenenter"",""1"",""11366""
","
","
","""event"",""trial"",""time""
""fullscreenenter"",""1"",""11366""
","
","","","1439.2999999523163","","","24","11145","662","p","elianto","#3366ff99"," "," ","1","+10","[2289.7999999523163]","1","2","","","11145","57","4","1","win","go","0"
"pit-trial","176","1295419","0.0-62.0","battery-v0.2","","""event"",""trial"",""time""
""fullscreenenter"",""1"",""11366""
","
","
","""event"",""trial"",""time""
""fullscreenenter"",""1"",""11366""
","
","","","837.3999999761581","","","24","11145","662","a","elianto","#f73b6a7A"," "," ","1","0","[1688.6999999284744]","1","2","","","11145","58","2","3","lose","go","0"
"pit-trial","177","1298872","0.0-63.0","battery-v0.2","","""event"",""trial"",""time""
""fullscreenenter"",""1"",""11366""
","
","
","""event"",""trial"",""time""
""fullscreenenter"",""1"",""11366""
","
","","","599.8000000715256","","","24","11145","662","u","elianto","#f73b6a7A"," "," ","1","0","[1450.8999999761581]","1","2","","","11145","59","0","3","lose","go","0"
"pit-trial","178","1303726","0.0-64.0","battery-v0.2","","""event"",""trial"",""time""
""fullscreenenter"",""1"",""11366""
","
","
","""event"",""trial"",""time""
""fullscreenenter"",""1"",""11366""
","
","","","-1","","","24","11145","662","g","elianto","#f73b6a7A","-1","-1","1","0","[]","0","2","","","11145","60","3","4","lose","no-go","0"
"pit-trial","179","1307314","0.0-65.0","battery-v0.2","","""event"",""trial"",""time""
""fullscreenenter"",""1"",""11366""
","
","
","""event"",""trial"",""time""
""fullscreenenter"",""1"",""11366""
","
","","","733.8999999761581","","","24","11145","662","a","elianto","#f73b6a7A"," "," ","1","0","[1585.7999999523163]","1","2","","","11145","61","2","3","lose","go","0"
"pit-trial","180","1312169","0.0-66.0","battery-v0.2","","""event"",""trial"",""time""
""fullscreenenter"",""1"",""11366""
","
","
","""event"",""trial"",""time""
""fullscreenenter"",""1"",""11366""
","
","","","-1","","","24","11145","662","l","elianto","#3366ff99","-1","-1","1","+10","[]","0","2","","","11145","62","1","2","win","no-go","0"
"pit-trial","181","1317023","0.0-67.0","battery-v0.2","","""event"",""trial"",""time""
""fullscreenenter"",""1"",""11366""
","
","
","""event"",""trial"",""time""
""fullscreenenter"",""1"",""11366""
","
","","","-1","","","24","11145","662","g","elianto","#f73b6a7A","-1","-1","1","0","[]","0","2","","","11145","63","3","4","lose","no-go","0"
"pit-trial","182","1320789","0.0-68.0","battery-v0.2","","""event"",""trial"",""time""
""fullscreenenter"",""1"",""11366""
","
","
","""event"",""trial"",""time""
""fullscreenenter"",""1"",""11366""
","
","","","911.3000000715256","","","24","11145","662","p","elianto","#3366ff99"," "," ","1","0","[1762.3999999761581]","1","2","","","11145","64","4","1","win","go","1"
"pit-trial","183","1324208","0.0-69.0","battery-v0.2","","""event"",""trial"",""time""
""fullscreenenter"",""1"",""11366""
","
","
","""event"",""trial"",""time""
""fullscreenenter"",""1"",""11366""
","
","","","565.5","","","24","11145","662","p","elianto","#3366ff99"," "," ","1","0","[1415.8999999761581]","1","2","","","11145","65","4","1","win","go","1"
"pit-trial","184","1327991","0.0-70.0","battery-v0.2","","""event"",""trial"",""time""
""fullscreenenter"",""1"",""11366""
","
","
","""event"",""trial"",""time""
""fullscreenenter"",""1"",""11366""
","
","","","929.5","","","24","11145","662","s","elianto","#3366ff99","-1"," ","0","0","[1779.5999999046326]","1","2","","","11145","66","5","2","win","no-go","0"
"pit-trial","185","1332845","0.0-71.0","battery-v0.2","","""event"",""trial"",""time""
""fullscreenenter"",""1"",""11366""
","
","
","""event"",""trial"",""time""
""fullscreenenter"",""1"",""11366""
","
","","","-1","","","24","11145","662","l","elianto","#3366ff99","-1","-1","1","0","[]","0","2","","","11145","67","1","2","win","no-go","1"
"pit-trial","186","1337697","0.0-72.0","battery-v0.2","","""event"",""trial"",""time""
""fullscreenenter"",""1"",""11366""
","
","
","""event"",""trial"",""time""
""fullscreenenter"",""1"",""11366""
","
","","","-1","","","24","11145","662","g","elianto","#f73b6a7A","-1","-1","1","0","[]","0","2","","","11145","68","3","4","lose","no-go","0"
"pit-trial","187","1341364","0.0-73.0","battery-v0.2","","""event"",""trial"",""time""
""fullscreenenter"",""1"",""11366""
","
","
","""event"",""trial"",""time""
""fullscreenenter"",""1"",""11366""
","
","","","812.5","","","24","11145","662","s","elianto","#3366ff99","-1"," ","0","+10","[1663]","1","2","","","11145","69","5","2","win","no-go","1"
"pit-trial","188","1344994","0.0-74.0","battery-v0.2","","""event"",""trial"",""time""
""fullscreenenter"",""1"",""11366""
","
","
","""event"",""trial"",""time""
""fullscreenenter"",""1"",""11366""
","
","","","774.8999999761581","","","24","11145","662","a","elianto","#f73b6a7A"," "," ","1","-10","[1625.7999999523163]","1","2","","","11145","70","2","3","lose","go","1"
"pit-trial","189","1348840","0.0-75.0","battery-v0.2","","""event"",""trial"",""time""
""fullscreenenter"",""1"",""11366""
","
","
","""event"",""trial"",""time""
""fullscreenenter"",""1"",""11366""
","
","","","992.6000000238419","","","24","11145","662","p","elianto","#3366ff99"," "," ","1","+10","[1843.6999999284744]","1","2","","","11145","71","4","1","win","go","0"
"pit-trial","190","1353693","0.0-76.0","battery-v0.2","","""event"",""trial"",""time""
""fullscreenenter"",""1"",""11366""
","
","
","""event"",""trial"",""time""
""fullscreenenter"",""1"",""11366""
","
","","","-1","","","24","11145","662","l","elianto","#3366ff99","-1","-1","1","0","[]","0","2","","","11145","72","1","2","win","no-go","1"
"pit-trial","191","1357285","0.0-77.0","battery-v0.2","","""event"",""trial"",""time""
""fullscreenenter"",""1"",""11366""
","
","
","""event"",""trial"",""time""
""fullscreenenter"",""1"",""11366""
","
","","","738.3000000715256","","","24","11145","662","p","elianto","#3366ff99"," "," ","1","0","[1588.5]","1","2","","","11145","73","4","1","win","go","1"
"pit-trial","192","1362139","0.0-78.0","battery-v0.2","","""event"",""trial"",""time""
""fullscreenenter"",""1"",""11366""
","
","
","""event"",""trial"",""time""
""fullscreenenter"",""1"",""11366""
","
","","","-1","","","24","11145","662","g","elianto","#f73b6a7A","-1","-1","1","0","[]","0","2","","","11145","74","3","4","lose","no-go","0"
"pit-trial","193","1365770","0.0-79.0","battery-v0.2","","""event"",""trial"",""time""
""fullscreenenter"",""1"",""11366""
","
","
","""event"",""trial"",""time""
""fullscreenenter"",""1"",""11366""
","
","","","775.6000000238419","","","24","11145","662","l","elianto","#3366ff99","-1"," ","0","+10","[1627]","1","2","","","11145","75","1","2","win","no-go","1"
"pit-trial","194","1369592","0.0-80.0","battery-v0.2","","""event"",""trial"",""time""
""fullscreenenter"",""1"",""11366""
","
","
","""event"",""trial"",""time""
""fullscreenenter"",""1"",""11366""
","
","","","966.8999999761581","","","24","11145","662","s","elianto","#3366ff99","-1"," ","0","0","[1818.5]","1","2","","","11145","76","5","2","win","no-go","0"
"pit-trial","195","1373107","0.0-81.0","battery-v0.2","","""event"",""trial"",""time""
""fullscreenenter"",""1"",""11366""
","
","
","""event"",""trial"",""time""
""fullscreenenter"",""1"",""11366""
","
","","","662.5","","","24","11145","662","p","elianto","#3366ff99"," "," ","1","+10","[1513.2000000476837]","1","2","","","11145","77","4","1","win","go","0"
"pit-trial","196","1376696","0.0-82.0","battery-v0.2","","""event"",""trial"",""time""
""fullscreenenter"",""1"",""11366""
","
","
","""event"",""trial"",""time""
""fullscreenenter"",""1"",""11366""
","
","","","734.1000000238419","","","24","11145","662","p","elianto","#3366ff99"," "," ","1","0","[1585.1999999284744]","1","2","","","11145","78","4","1","win","go","1"
"pit-trial","197","1381549","0.0-83.0","battery-v0.2","","""event"",""trial"",""time""
""fullscreenenter"",""1"",""11366""
","
","
","""event"",""trial"",""time""
""fullscreenenter"",""1"",""11366""
","
","","","-1","","","24","11145","662","g","elianto","#f73b6a7A","-1","-1","1","0","[]","0","2","","","11145","79","3","4","lose","no-go","0"
"pit-trial","198","1385081","0.0-84.0","battery-v0.2","","""event"",""trial"",""time""
""fullscreenenter"",""1"",""11366""
","
","
","""event"",""trial"",""time""
""fullscreenenter"",""1"",""11366""
","
","","","677.8000000715256","","","24","11145","662","s","elianto","#3366ff99","-1"," ","0","+10","[1528.5]","1","2","","","11145","80","5","2","win","no-go","1"
"pit-trial","199","1389936","0.0-85.0","battery-v0.2","","""event"",""trial"",""time""
""fullscreenenter"",""1"",""11366""
","
","
","""event"",""trial"",""time""
""fullscreenenter"",""1"",""11366""
","
","","","-1","","","24","11145","662","g","elianto","#f73b6a7A","-1","-1","1","0","[]","0","2","","","11145","81","3","4","lose","no-go","0"
"pit-trial","200","1393435","0.0-86.0","battery-v0.2","","""event"",""trial"",""time""
""fullscreenenter"",""1"",""11366""
","
","
","""event"",""trial"",""time""
""fullscreenenter"",""1"",""11366""
","
","","","644.8999999761581","","","24","11145","662","p","elianto","#3366ff99"," "," ","1","+10","[1495.7999999523163]","1","2","","","11145","82","4","1","win","go","0"
"pit-trial","201","1397765","0.0-87.0","battery-v0.2","","""event"",""trial"",""time""
""fullscreenenter"",""1"",""11366""
","
","
","""event"",""trial"",""time""
""fullscreenenter"",""1"",""11366""
","
","","","1477.2000000476837","","","24","11145","662","e","elianto","#f73b6a7A","-1"," ","0","-10","[2327.9000000953674]","1","2","","","11145","83","7","4","lose","no-go","0"
"pit-trial","202","1401353","0.0-88.0","battery-v0.2","","""event"",""trial"",""time""
""fullscreenenter"",""1"",""11366""
","
","
","""event"",""trial"",""time""
""fullscreenenter"",""1"",""11366""
","
","","","732.8999999761581","","","24","11145","662","s","elianto","#3366ff99","-1"," ","0","0","[1584]","1","2","","","11145","84","5","2","win","no-go","0"
"pit-trial","203","1405074","0.0-89.0","battery-v0.2","","""event"",""trial"",""time""
""fullscreenenter"",""1"",""11366""
","
","
","""event"",""trial"",""time""
""fullscreenenter"",""1"",""11366""
","
","","","865.3999999761581","","","24","11145","662","e","elianto","#f73b6a7A","-1"," ","0","-10","[1716.8999999761581]","1","2","","","11145","85","7","4","lose","no-go","0"
"pit-trial","204","1409080","0.0-90.0","battery-v0.2","","""event"",""trial"",""time""
""fullscreenenter"",""1"",""11366""
","
","
","""event"",""trial"",""time""
""fullscreenenter"",""1"",""11366""
","
","","","1152.6999999284744","","","24","11145","662","w","elianto","#f73b6a7A"," "," ","1","0","[2003]","1","2","","","11145","86","6","3","lose","go","0"
"pit-trial","205","1412701","0.0-91.0","battery-v0.2","","""event"",""trial"",""time""
""fullscreenenter"",""1"",""11366""
","
","
","""event"",""trial"",""time""
""fullscreenenter"",""1"",""11366""
","
","","","767.1999999284744","","","24","11145","662","s","elianto","#3366ff99","-1"," ","0","0","[1618.3999999761581]","1","2","","","11145","87","5","2","win","no-go","0"
"pit-trial","206","1416254","0.0-92.0","battery-v0.2","","""event"",""trial"",""time""
""fullscreenenter"",""1"",""11366""
","
","
","""event"",""trial"",""time""
""fullscreenenter"",""1"",""11366""
","
","","","698.5","","","24","11145","662","p","elianto","#3366ff99"," "," ","1","+10","[1550.2999999523163,3252.399999976158]","2","2","","","11145","88","4","1","win","go","0"
"pit-trial","207","1419872","0.0-93.0","battery-v0.2","","""event"",""trial"",""time""
""fullscreenenter"",""1"",""11366""
","
","
","""event"",""trial"",""time""
""fullscreenenter"",""1"",""11366""
","
","","","763.2999999523163","","","24","11145","662","p","elianto","#3366ff99"," "," ","1","+10","[1614.2999999523163]","1","2","","","11145","89","4","1","win","go","0"
"pit-trial","208","1424725","0.0-94.0","battery-v0.2","","""event"",""trial"",""time""
""fullscreenenter"",""1"",""11366""
","
","
","""event"",""trial"",""time""
""fullscreenenter"",""1"",""11366""
","
","","","-1","","","24","11145","662","w","elianto","#f73b6a7A"," ","-1","0","-10","[]","0","2","","","11145","90","6","3","lose","go","0"
"pit-trial","209","1428300","0.0-95.0","battery-v0.2","","""event"",""trial"",""time""
""fullscreenenter"",""1"",""11366""
","
","
","""event"",""trial"",""time""
""fullscreenenter"",""1"",""11366""
","
","","","719.5","","","24","11145","662","s","elianto","#3366ff99","-1"," ","0","0","[1571.1000000238419]","1","2","","","11145","91","5","2","win","no-go","0"
"pit-trial","210","1433152","0.0-96.0","battery-v0.2","","""event"",""trial"",""time""
""fullscreenenter"",""1"",""11366""
","
","
","""event"",""trial"",""time""
""fullscreenenter"",""1"",""11366""
","
","","","-1","","","24","11145","662","e","elianto","#f73b6a7A","-1","-1","1","0","[]","0","2","","","11145","92","7","4","lose","no-go","0"
"pit-trial","211","1438006","0.0-97.0","battery-v0.2","","""event"",""trial"",""time""
""fullscreenenter"",""1"",""11366""
","
","
","""event"",""trial"",""time""
""fullscreenenter"",""1"",""11366""
","
","","","-1","","","24","11145","662","e","elianto","#f73b6a7A","-1","-1","1","0","[]","0","2","","","11145","93","7","4","lose","no-go","0"
"pit-trial","212","1442395","0.0-98.0","battery-v0.2","","""event"",""trial"",""time""
""fullscreenenter"",""1"",""11366""
","
","
","""event"",""trial"",""time""
""fullscreenenter"",""1"",""11366""
","
","","","1535.6000000238419","","","24","11145","662","s","elianto","#3366ff99","-1"," ","0","0","[2385.600000023842]","1","2","","","11145","94","5","2","win","no-go","0"
"pit-trial","213","1446713","0.0-99.0","battery-v0.2","","""event"",""trial"",""time""
""fullscreenenter"",""1"",""11366""
","
","
","""event"",""trial"",""time""
""fullscreenenter"",""1"",""11366""
","
","","","1464.2999999523163","","","24","11145","662","w","elianto","#f73b6a7A"," "," ","1","0","[2314.7999999523163]","1","2","","","11145","95","6","3","lose","go","0"
"pit-trial","214","1450696","0.0-100.0","battery-v0.2","","""event"",""trial"",""time""
""fullscreenenter"",""1"",""11366""
","
","
","""event"",""trial"",""time""
""fullscreenenter"",""1"",""11366""
","
","","","1127.7000000476837","","","24","11145","662","d","elianto","#3366ff99"," "," ","1","+10","[1978.7999999523163]","1","2","","","11145","96","8","1","win","go","0"
"pit-trial","215","1454521","0.0-101.0","battery-v0.2","","""event"",""trial"",""time""
""fullscreenenter"",""1"",""11366""
","
","
","""event"",""trial"",""time""
""fullscreenenter"",""1"",""11366""
","
","","","971.6000000238419","","","24","11145","662","w","elianto","#f73b6a7A"," "," ","1","0","[202.30000007152557,1821.8000000715256]","2","2","","","11145","97","6","3","lose","go","0"
"pit-trial","216","1458158","0.0-102.0","battery-v0.2","","""event"",""trial"",""time""
""fullscreenenter"",""1"",""11366""
","
","
","""event"",""trial"",""time""
""fullscreenenter"",""1"",""11366""
","
","","","784.2000000476837","","","24","11145","662","e","elianto","#f73b6a7A","-1"," ","0","-10","[1634.3999999761581]","1","2","","","11145","98","7","4","lose","no-go","0"
"pit-trial","217","1461890","0.0-103.0","battery-v0.2","","""event"",""trial"",""time""
""fullscreenenter"",""1"",""11366""
","
","
","""event"",""trial"",""time""
""fullscreenenter"",""1"",""11366""
","
","","","878.1000000238419","","","24","11145","662","s","elianto","#3366ff99","-1"," ","0","0","[1728]","1","2","","","11145","99","5","2","win","no-go","0"
"pit-trial","218","1465778","0.0-104.0","battery-v0.2","","""event"",""trial"",""time""
""fullscreenenter"",""1"",""11366""
","
","
","""event"",""trial"",""time""
""fullscreenenter"",""1"",""11366""
","
","","","1035.5","","","24","11145","662","d","elianto","#3366ff99"," "," ","1","+10","[1885.5]","1","2","","","11145","100","8","1","win","go","0"
"pit-trial","219","1469466","0.0-105.0","battery-v0.2","","""event"",""trial"",""time""
""fullscreenenter"",""1"",""11366""
","
","
","""event"",""trial"",""time""
""fullscreenenter"",""1"",""11366""
","
","","","833.5","","","24","11145","662","j","elianto","#3366ff99"," "," ","1","+10","[1684.2000000476837]","1","2","","","11145","101","9","1","win","go","0"
"pit-trial","220","1474320","0.0-106.0","battery-v0.2","","""event"",""trial"",""time""
""fullscreenenter"",""1"",""11366""
","
","
","""event"",""trial"",""time""
""fullscreenenter"",""1"",""11366""
","
","","","-1","","","24","11145","662","s","elianto","#3366ff99","-1","-1","1","+10","[]","0","2","","","11145","102","5","2","win","no-go","0"
"pit-trial","221","1479174","0.0-107.0","battery-v0.2","","""event"",""trial"",""time""
""fullscreenenter"",""1"",""11366""
","
","
","""event"",""trial"",""time""
""fullscreenenter"",""1"",""11366""
","
","","","-1","","","24","11145","662","e","elianto","#f73b6a7A","-1","-1","1","0","[]","0","2","","","11145","103","7","4","lose","no-go","0"
"pit-trial","222","1482998","0.0-108.0","battery-v0.2","","""event"",""trial"",""time""
""fullscreenenter"",""1"",""11366""
","
","
","""event"",""trial"",""time""
""fullscreenenter"",""1"",""11366""
","
","","","970.4000000953674","","","24","11145","662","d","elianto","#3366ff99"," "," ","1","+10","[1821.2000000476837]","1","2","","","11145","104","8","1","win","go","0"
"pit-trial","223","1486856","0.0-109.0","battery-v0.2","","""event"",""trial"",""time""
""fullscreenenter"",""1"",""11366""
","
","
","""event"",""trial"",""time""
""fullscreenenter"",""1"",""11366""
","
","","","1003.3999999761581","","","24","11145","662","j","elianto","#3366ff99"," "," ","1","+10","[1854.2999999523163]","1","2","","","11145","105","9","1","win","go","0"
"pit-trial","224","1490474","0.0-110.0","battery-v0.2","","""event"",""trial"",""time""
""fullscreenenter"",""1"",""11366""
","
","
","""event"",""trial"",""time""
""fullscreenenter"",""1"",""11366""
","
","","","762.3999999761581","","","24","11145","662","d","elianto","#3366ff99"," "," ","1","+10","[1614.2000000476837]","1","2","","","11145","106","8","1","win","go","0"
"pit-trial","225","1494118","0.0-111.0","battery-v0.2","","""event"",""trial"",""time""
""fullscreenenter"",""1"",""11366""
","
","
","""event"",""trial"",""time""
""fullscreenenter"",""1"",""11366""
","
","","","789.6999999284744","","","24","11145","662","p","elianto","#3366ff99"," "," ","1","+10","[1641]","1","2","","","11145","107","4","1","win","go","0"
"pit-trial","226","1498971","0.0-112.0","battery-v0.2","","""event"",""trial"",""time""
""fullscreenenter"",""1"",""11366""
","
","
","""event"",""trial"",""time""
""fullscreenenter"",""1"",""11366""
","
","","","-1","","","24","11145","662","w","elianto","#f73b6a7A"," ","-1","0","-10","[]","0","2","","","11145","108","6","3","lose","go","0"
"pit-trial","227","1502564","0.0-113.0","battery-v0.2","","""event"",""trial"",""time""
""fullscreenenter"",""1"",""11366""
","
","
","""event"",""trial"",""time""
""fullscreenenter"",""1"",""11366""
","
","","","738.1000000238419","","","24","11145","662","j","elianto","#3366ff99"," "," ","1","0","[1589]","1","2","","","11145","109","9","1","win","go","1"
"pit-trial","228","1506126","0.0-114.0","battery-v0.2","","""event"",""trial"",""time""
""fullscreenenter"",""1"",""11366""
","
","
","""event"",""trial"",""time""
""fullscreenenter"",""1"",""11366""
","
","","","708.5999999046326","","","24","11145","662","w","elianto","#f73b6a7A"," "," ","1","0","[1559.5]","1","2","","","11145","110","6","3","lose","go","0"
"pit-trial","229","1509795","0.0-115.0","battery-v0.2","","""event"",""trial"",""time""
""fullscreenenter"",""1"",""11366""
","
","
","""event"",""trial"",""time""
""fullscreenenter"",""1"",""11366""
","
","","","815.5","","","24","11145","662","d","elianto","#3366ff99"," "," ","1","+10","[1666.1000000238419]","1","2","","","11145","111","8","1","win","go","0"
"pit-trial","230","1513131","0.0-116.0","battery-v0.2","","""event"",""trial"",""time""
""fullscreenenter"",""1"",""11366""
","
","
","""event"",""trial"",""time""
""fullscreenenter"",""1"",""11366""
","
","","","481.1999999284744","","","24","11145","662","s","elianto","#3366ff99","-1"," ","0","0","[1332.5999999046326]","1","2","","","11145","112","5","2","win","no-go","0"
"pit-trial","231","1516646","0.0-117.0","battery-v0.2","","""event"",""trial"",""time""
""fullscreenenter"",""1"",""11366""
","
","
","""event"",""trial"",""time""
""fullscreenenter"",""1"",""11366""
","
","","","661.1000000238419","","","24","11145","662","d","elianto","#3366ff99"," "," ","1","+10","[1511.8999999761581]","1","2","","","11145","113","8","1","win","go","0"
"pit-trial","232","1520290","0.0-118.0","battery-v0.2","","""event"",""trial"",""time""
""fullscreenenter"",""1"",""11366""
","
","
","""event"",""trial"",""time""
""fullscreenenter"",""1"",""11366""
","
","","","790.3999999761581","","","24","11145","662","j","elianto","#3366ff99"," "," ","1","+10","[1641.1000000238419]","1","2","","","11145","114","9","1","win","go","0"
"pit-trial","233","1523851","0.0-119.0","battery-v0.2","","""event"",""trial"",""time""
""fullscreenenter"",""1"",""11366""
","
","
","""event"",""trial"",""time""
""fullscreenenter"",""1"",""11366""
","
","","","707.3000000715256","","","24","11145","662","w","elianto","#f73b6a7A"," "," ","1","0","[1557.6000000238419]","1","2","","","11145","115","6","3","lose","go","0"
"pit-trial","234","1528706","0.0-120.0","battery-v0.2","","""event"",""trial"",""time""
""fullscreenenter"",""1"",""11366""
","
","
","""event"",""trial"",""time""
""fullscreenenter"",""1"",""11366""
","
","","","-1","","","24","11145","662","s","elianto","#3366ff99","-1","-1","1","+10","[]","0","2","","","11145","116","5","2","win","no-go","0"
"pit-trial","235","1532215","0.0-121.0","battery-v0.2","","""event"",""trial"",""time""
""fullscreenenter"",""1"",""11366""
","
","
","""event"",""trial"",""time""
""fullscreenenter"",""1"",""11366""
","
","","","656","","","24","11145","662","d","elianto","#3366ff99"," "," ","1","+10","[1506.5]","1","2","","","11145","117","8","1","win","go","0"
"pit-trial","236","1537069","0.0-122.0","battery-v0.2","","""event"",""trial"",""time""
""fullscreenenter"",""1"",""11366""
","
","
","""event"",""trial"",""time""
""fullscreenenter"",""1"",""11366""
","
","","","-1","","","24","11145","662","s","elianto","#3366ff99","-1","-1","1","+10","[]","0","2","","","11145","118","5","2","win","no-go","0"
"pit-trial","237","1540524","0.0-123.0","battery-v0.2","","""event"",""trial"",""time""
""fullscreenenter"",""1"",""11366""
","
","
","""event"",""trial"",""time""
""fullscreenenter"",""1"",""11366""
","
","","","600.7999999523163","","","24","11145","662","j","elianto","#3366ff99"," "," ","1","+10","[1452.5]","1","2","","","11145","119","9","1","win","go","0"
"pit-trial","238","1544339","0.0-124.0","battery-v0.2","","""event"",""trial"",""time""
""fullscreenenter"",""1"",""11366""
","
","
","""event"",""trial"",""time""
""fullscreenenter"",""1"",""11366""
","
","","","962","","","24","11145","662","w","elianto","#f73b6a7A"," "," ","1","0","[1813]","1","2","","","11145","120","6","3","lose","go","0"
"pit-trial","239","1549194","0.0-125.0","battery-v0.2","","""event"",""trial"",""time""
""fullscreenenter"",""1"",""11366""
","
","
","""event"",""trial"",""time""
""fullscreenenter"",""1"",""11366""
","
","","","-1","","","24","11145","662","e","elianto","#f73b6a7A","-1","-1","1","0","[]","0","2","","","11145","121","7","4","lose","no-go","0"
"pit-trial","240","1552687","0.0-126.0","battery-v0.2","","""event"",""trial"",""time""
""fullscreenenter"",""1"",""11366""
","
","
","""event"",""trial"",""time""
""fullscreenenter"",""1"",""11366""
","
","","","639.5999999046326","","","24","11145","662","d","elianto","#3366ff99"," "," ","1","0","[1489.8999999761581]","1","2","","","11145","122","8","1","win","go","1"
"pit-trial","241","1556364","0.0-127.0","battery-v0.2","","""event"",""trial"",""time""
""fullscreenenter"",""1"",""11366""
","
","
","""event"",""trial"",""time""
""fullscreenenter"",""1"",""11366""
","
","","","823.3999999761581","","","24","11145","662","w","elianto","#f73b6a7A"," "," ","1","0","[1673.7000000476837]","1","2","","","11145","123","6","3","lose","go","0"
"pit-trial","242","1559849","0.0-128.0","battery-v0.2","","""event"",""trial"",""time""
""fullscreenenter"",""1"",""11366""
","
","
","""event"",""trial"",""time""
""fullscreenenter"",""1"",""11366""
","
","","","630.2999999523163","","","24","11145","662","j","elianto","#3366ff99"," "," ","1","+10","[1481]","1","2","","","11145","124","9","1","win","go","0"
"pit-trial","243","1563370","0.0-129.0","battery-v0.2","","""event"",""trial"",""time""
""fullscreenenter"",""1"",""11366""
","
","
","""event"",""trial"",""time""
""fullscreenenter"",""1"",""11366""
","
","","","665.5","","","24","11145","662","j","elianto","#3366ff99"," "," ","1","+10","[1517.1000000238419]","1","2","","","11145","125","9","1","win","go","0"
"pit-trial","244","1566895","0.0-130.0","battery-v0.2","","""event"",""trial"",""time""
""fullscreenenter"",""1"",""11366""
","
","
","""event"",""trial"",""time""
""fullscreenenter"",""1"",""11366""
","
","","","671","","","24","11145","662","d","elianto","#3366ff99"," "," ","1","0","[1521.3000000715256]","1","2","","","11145","126","8","1","win","go","1"
"pit-trial","245","1571748","0.0-131.0","battery-v0.2","","""event"",""trial"",""time""
""fullscreenenter"",""1"",""11366""
","
","
","""event"",""trial"",""time""
""fullscreenenter"",""1"",""11366""
","
","","","-1","","","24","11145","662","e","elianto","#f73b6a7A","-1","-1","1","0","[]","0","2","","","11145","127","7","4","lose","no-go","0"
"pit-trial","246","1575369","0.0-132.0","battery-v0.2","","""event"",""trial"",""time""
""fullscreenenter"",""1"",""11366""
","
","
","""event"",""trial"",""time""
""fullscreenenter"",""1"",""11366""
","
","","","766.8999999761581","","","24","11145","662","w","elianto","#f73b6a7A"," "," ","1","-10","[1617]","1","2","","","11145","128","6","3","lose","go","1"
"pit-trial","247","1578991","0.0-133.0","battery-v0.2","","""event"",""trial"",""time""
""fullscreenenter"",""1"",""11366""
","
","
","""event"",""trial"",""time""
""fullscreenenter"",""1"",""11366""
","
","","","768.3999999761581","","","24","11145","662","j","elianto","#3366ff99"," "," ","1","+10","[1619]","1","2","","","11145","129","9","1","win","go","0"
"pit-trial","248","1582401","0.0-134.0","battery-v0.2","","""event"",""trial"",""time""
""fullscreenenter"",""1"",""11366""
","
","
","""event"",""trial"",""time""
""fullscreenenter"",""1"",""11366""
","
","","","555.3999999761581","","","24","11145","662","d","elianto","#3366ff99"," "," ","1","+10","[1405.5999999046326]","1","2","","","11145","130","8","1","win","go","0"
"pit-trial","249","1585974","0.0-135.0","battery-v0.2","","""event"",""trial"",""time""
""fullscreenenter"",""1"",""11366""
","
","
","""event"",""trial"",""time""
""fullscreenenter"",""1"",""11366""
","
","","","719","","","24","11145","662","w","elianto","#f73b6a7A"," "," ","1","0","[1569.8000000715256]","1","2","","","11145","131","6","3","lose","go","0"
"pit-trial","250","1589379","0.0-136.0","battery-v0.2","","""event"",""trial"",""time""
""fullscreenenter"",""1"",""11366""
","
","
","""event"",""trial"",""time""
""fullscreenenter"",""1"",""11366""
","
","","","551.4000000953674","","","24","11145","662","e","elianto","#f73b6a7A","-1"," ","0","-10","[1402.8999999761581]","1","2","","","11145","132","7","4","lose","no-go","0"
"pit-trial","251","1592971","0.0-137.0","battery-v0.2","","""event"",""trial"",""time""
""fullscreenenter"",""1"",""11366""
","
","
","""event"",""trial"",""time""
""fullscreenenter"",""1"",""11366""
","
","","","737.1000000238419","","","24","11145","662","w","elianto","#f73b6a7A"," "," ","1","0","[1588.5]","1","2","","","11145","133","6","3","lose","go","0"
"pit-trial","252","1596331","0.0-138.0","battery-v0.2","","""event"",""trial"",""time""
""fullscreenenter"",""1"",""11366""
","
","
","""event"",""trial"",""time""
""fullscreenenter"",""1"",""11366""
","
","","","505.1999999284744","","","24","11145","662","d","elianto","#3366ff99"," "," ","1","+10","[1355.3999999761581]","1","2","","","11145","134","8","1","win","go","0"
"pit-trial","253","1599781","0.0-139.0","battery-v0.2","","""event"",""trial"",""time""
""fullscreenenter"",""1"",""11366""
","
","
","""event"",""trial"",""time""
""fullscreenenter"",""1"",""11366""
","
","","","596.5","","","24","11145","662","j","elianto","#3366ff99"," "," ","1","+10","[1447]","1","2","","","11145","135","9","1","win","go","0"
"pit-trial","254","1604635","0.0-140.0","battery-v0.2","","""event"",""trial"",""time""
""fullscreenenter"",""1"",""11366""
","
","
","""event"",""trial"",""time""
""fullscreenenter"",""1"",""11366""
","
","","","-1","","","24","11145","662","e","elianto","#f73b6a7A","-1","-1","1","0","[]","0","2","","","11145","136","7","4","lose","no-go","0"
"pit-trial","255","1608087","0.0-141.0","battery-v0.2","","""event"",""trial"",""time""
""fullscreenenter"",""1"",""11366""
","
","
","""event"",""trial"",""time""
""fullscreenenter"",""1"",""11366""
","
","","","596.7999999523163","","","24","11145","662","d","elianto","#3366ff99"," "," ","1","+10","[1448.1999999284744]","1","2","","","11145","137","8","1","win","go","0"
"pit-trial","256","1611617","0.0-142.0","battery-v0.2","","""event"",""trial"",""time""
""fullscreenenter"",""1"",""11366""
","
","
","""event"",""trial"",""time""
""fullscreenenter"",""1"",""11366""
","
","","","676.5","","","24","11145","662","w","elianto","#f73b6a7A"," "," ","1","0","[1527.6000000238419]","1","2","","","11145","138","6","3","lose","go","0"
"pit-trial","257","1615026","0.0-143.0","battery-v0.2","","""event"",""trial"",""time""
""fullscreenenter"",""1"",""11366""
","
","
","""event"",""trial"",""time""
""fullscreenenter"",""1"",""11366""
","
","","","553.8999999761581","","","24","11145","662","e","elianto","#f73b6a7A","-1"," ","0","-10","[1405.3999999761581]","1","2","","","11145","139","7","4","lose","no-go","0"
"pit-trial","258","1618572","0.0-144.0","battery-v0.2","","""event"",""trial"",""time""
""fullscreenenter"",""1"",""11366""
","
","
","""event"",""trial"",""time""
""fullscreenenter"",""1"",""11366""
","
","","","693","","","24","11145","662","j","elianto","#3366ff99"," "," ","1","+10","[1543.2000000476837]","1","2","","","11145","140","9","1","win","go","0"
"pit-instructions","259","1693650","0.0-145.0","battery-v0.2","","""event"",""trial"",""time""
""fullscreenenter"",""1"",""11366""
","
","
","""event"",""trial"",""time""
""fullscreenenter"",""1"",""11366""
","
","","[{""page_index"":0,""viewing_time"":66303.90000009537},{""page_index"":1,""viewing_time"":8772.399999976158}]","75076.60000002384","","","","","","","","","","","","","","","","","","","","","","","",""
"pit-trial","260","1697291","0.0-146.0","battery-v0.2","","""event"",""trial"",""time""
""fullscreenenter"",""1"",""11366""
","
","
","""event"",""trial"",""time""
""fullscreenenter"",""1"",""11366""
","
","","","785.9000000953674","","","24","11145","662","n","elianto","#f73b6a7A","-1"," ","0","0","[1636.2000000476837]","1","3","","","11145","141","0","4","lose","no-go","1"
"pit-trial","261","1700870","0.0-147.0","battery-v0.2","","""event"",""trial"",""time""
""fullscreenenter"",""1"",""11366""
","
","
","""event"",""trial"",""time""
""fullscreenenter"",""1"",""11366""
","
","","","725.6000000238419","","","24","11145","662","b","elianto","#f73b6a7A"," "," ","1","0","[1576.2999999523163]","1","3","","","11145","142","3","3","lose","go","0"
"pit-trial","262","1704368","0.0-148.0","battery-v0.2","","""event"",""trial"",""time""
""fullscreenenter"",""1"",""11366""
","
","
","""event"",""trial"",""time""
""fullscreenenter"",""1"",""11366""
","
","","","643.3000000715256","","","24","11145","662","f","elianto","#3366ff99"," "," ","1","+10","[1494.2000000476837]","1","3","","","11145","143","1","1","win","go","0"
"pit-trial","263","1707930","0.0-149.0","battery-v0.2","","""event"",""trial"",""time""
""fullscreenenter"",""1"",""11366""
","
","
","""event"",""trial"",""time""
""fullscreenenter"",""1"",""11366""
","
","","","707.6000000238419","","","24","11145","662","t","elianto","#f73b6a7A","-1"," ","0","-10","[1558.2000000476837]","1","3","","","11145","144","2","4","lose","no-go","0"
"pit-trial","264","1711414","0.0-150.0","battery-v0.2","","""event"",""trial"",""time""
""fullscreenenter"",""1"",""11366""
","
","
","""event"",""trial"",""time""
""fullscreenenter"",""1"",""11366""
","
