"trial_type","trial_index","time_elapsed","internal_node_id","task_version","subject_id","interactions","blur_events","focus_events","fullscreenenter_events","fullscreenexit_events","success","view_history","rt","responses","num_errors","age","subject","participantId","rune","rune_set","hex","correct","choice","accuracy","outcome","keys","total_keys","block","practice","value","sub","trial","stimulus","robot","valence","action","sham"
"pavlovia","0","13","0.0-0.0","battery-v0.2","","""event"",""trial"",""time""
""fullscreenenter"",""1"",""2040""
","
","
","""event"",""trial"",""time""
""fullscreenenter"",""1"",""2040""
","
","","","","","","","","","","","","","","","","","","","","","","","","","","",""
"fullscreen","1","3031","0.0-1.0","battery-v0.2","","""event"",""trial"",""time""
""fullscreenenter"",""1"",""2040""
","
","
","""event"",""trial"",""time""
""fullscreenenter"",""1"",""2040""
","
","true","","","","","","","","","","","","","","","","","","","","","","","","","",""
"pit-instructions","2","8478","0.0-2.0-0.0","battery-v0.2","","""event"",""trial"",""time""
""fullscreenenter"",""1"",""2040""
","
","
","""event"",""trial"",""time""
""fullscreenenter"",""1"",""2040""
","
","","[{""page_index"":0,""viewing_time"":5442.9000000059605}]","5443.5","","","","","","","","","","","","","","","","","","","","","","","",""
"pit-comprehension","3","11135","0.0-2.0-1.0-0.0","battery-v0.2","","""event"",""trial"",""time""
""fullscreenenter"",""1"",""2040""
","
","
","""event"",""trial"",""time""
""fullscreenenter"",""1"",""2040""
","
","","","2651.5","[""shark""]","0","18","16593","6380","","","","","","","","","","","","","","","","","","",""
"pit-instructions","4","15176","0.0-2.0-1.0-1.0","battery-v0.2","","""event"",""trial"",""time""
""fullscreenenter"",""1"",""2040""
","
","
","""event"",""trial"",""time""
""fullscreenenter"",""1"",""2040""
","
","","[{""page_index"":0,""viewing_time"":4032.899999976158}]","4033.5","","","","","","","","","","","","","","","","","","","","","","","",""
"pit-comprehension","5","18653","0.0-2.0-2.0-0.0","battery-v0.2","","""event"",""trial"",""time""
""fullscreenenter"",""1"",""2040""
","
","
","""event"",""trial"",""time""
""fullscreenenter"",""1"",""2040""
","
","","","3471.5","[""tiger""]","0","18","16593","6380","","","","","","","","","","","","","","","","","","",""
"pit-instructions","6","23989","0.0-2.0-2.0-1.0","battery-v0.2","","""event"",""trial"",""time""
""fullscreenenter"",""1"",""2040""
","
","
","""event"",""trial"",""time""
""fullscreenenter"",""1"",""2040""
","
","","[{""page_index"":0,""viewing_time"":5332.300000011921}]","5332.800000011921","","","","","","","","","","","","","","","","","","","","","","","",""
"pit-instructions","7","118596","0.0-2.0-3.0","battery-v0.2","","""event"",""trial"",""time""
""fullscreenenter"",""1"",""2040""
","
","
","""event"",""trial"",""time""
""fullscreenenter"",""1"",""2040""
","
","","[{""page_index"":0,""viewing_time"":8179.299999982119},{""page_index"":1,""viewing_time"":6029.5},{""page_index"":2,""viewing_time"":6402.800000011921},{""page_index"":3,""viewing_time"":6163.5},{""page_index"":4,""viewing_time"":6730.699999988079},{""page_index"":5,""viewing_time"":5957.5999999940395},{""page_index"":6,""viewing_time"":6395.700000017881},{""page_index"":7,""viewing_time"":6013.699999988079},{""page_index"":8,""viewing_time"":6384.300000011921},{""page_index"":9,""viewing_time"":8354.5},{""page_index"":10,""viewing_time"":7435.4000000059605},{""page_index"":11,""viewing_time"":8356},{""page_index"":12,""viewing_time"":7307.299999982119},{""page_index"":13,""viewing_time"":4897.800000011921}]","94608.89999997616","","","","","","","","","","","","","","","","","","","","","","","",""
"pit-trial","8","122169","0.0-2.0-4.0-0.0","battery-v0.2","","""event"",""trial"",""time""
""fullscreenenter"",""1"",""2040""
","
","
","""event"",""trial"",""time""
""fullscreenenter"",""1"",""2040""
","
","","","715.7999999821186","","","18","16593","6380","&#9784;","elianto","#FFFFF080"," "," ","1","&#10004","[1566.199999988079]","1","0","0","","","","","","","",""
"pit-trial","9","126033","0.0-2.0-4.1-0.1","battery-v0.2","","""event"",""trial"",""time""
""fullscreenenter"",""1"",""2040""
","
","
","""event"",""trial"",""time""
""fullscreenenter"",""1"",""2040""
","
","","","1006.1000000238419","","","18","16593","6380","&#9784;","elianto","#FFFFF080"," "," ","1","&#10004","[1856.7999999821186]","1","0","0","","","","","","","",""
"pit-trial","10","129480","0.0-2.0-4.2-0.2","battery-v0.2","","""event"",""trial"",""time""
""fullscreenenter"",""1"",""2040""
","
","
","""event"",""trial"",""time""
""fullscreenenter"",""1"",""2040""
","
","","","591.2999999821186","","","18","16593","6380","&#9784;","elianto","#FFFFF080"," "," ","1","&#10004","[1441.5999999940395]","1","0","0","","","","","","","",""
"pit-trial","11","133943","0.0-2.0-4.3-0.3","battery-v0.2","","""event"",""trial"",""time""
""fullscreenenter"",""1"",""2040""
","
","
","""event"",""trial"",""time""
""fullscreenenter"",""1"",""2040""
","
","","","1606.199999988079","","","18","16593","6380","&#9784;","elianto","#FFFFF080"," "," ","1","&#10004","[2457]","1","0","0","","","","","","","",""
"pit-trial","12","137427","0.0-2.0-4.4-0.4","battery-v0.2","","""event"",""trial"",""time""
""fullscreenenter"",""1"",""2040""
","
","
","""event"",""trial"",""time""
""fullscreenenter"",""1"",""2040""
","
","","","626.8999999761581","","","18","16593","6380","&#9784;","elianto","#FFFFF080"," "," ","1","&#10004","[1478]","1","0","0","","","","","","","",""
"pit-instructions","13","159826","0.0-2.0-5.0","battery-v0.2","","""event"",""trial"",""time""
""fullscreenenter"",""1"",""2040""
","
","
","""event"",""trial"",""time""
""fullscreenenter"",""1"",""2040""
","
","","[{""page_index"":0,""viewing_time"":5294.800000011921},{""page_index"":1,""viewing_time"":5404.300000011921},{""page_index"":2,""viewing_time"":5253.399999976158},{""page_index"":3,""viewing_time"":6442.5}]","22395.90000000596","","","","","","","","","","","","","","","","","","","","","","","",""
"pit-trial","14","164682","0.0-2.0-6.0-0.0","battery-v0.2","","""event"",""trial"",""time""
""fullscreenenter"",""1"",""2040""
","
","
","""event"",""trial"",""time""
""fullscreenenter"",""1"",""2040""
","
","","","-1","","","18","16593","6380","&#9854;","elianto","#FFFFF080","-1","-1","1","&#10004","[]","0","0","1","","","","","","","",""
"pit-trial","15","169539","0.0-2.0-6.1-0.1","battery-v0.2","","""event"",""trial"",""time""
""fullscreenenter"",""1"",""2040""
","
","
","""event"",""trial"",""time""
""fullscreenenter"",""1"",""2040""
","
","","","-1","","","18","16593","6380","&#9854;","elianto","#FFFFF080","-1","-1","1","&#10004","[]","0","0","1","","","","","","","",""
"pit-trial","16","174396","0.0-2.0-6.2-0.2","battery-v0.2","","""event"",""trial"",""time""
""fullscreenenter"",""1"",""2040""
","
","
","""event"",""trial"",""time""
""fullscreenenter"",""1"",""2040""
","
","","","-1","","","18","16593","6380","&#9854;","elianto","#FFFFF080","-1","-1","1","&#10004","[]","0","0","1","","","","","","","",""
"pit-trial","17","179253","0.0-2.0-6.3-0.3","battery-v0.2","","""event"",""trial"",""time""
""fullscreenenter"",""1"",""2040""
","
","
","""event"",""trial"",""time""
""fullscreenenter"",""1"",""2040""
","
","","","-1","","","18","16593","6380","&#9854;","elianto","#FFFFF080","-1","-1","1","&#10004","[]","0","0","1","","","","","","","",""
"pit-trial","18","184110","0.0-2.0-6.4-0.4","battery-v0.2","","""event"",""trial"",""time""
""fullscreenenter"",""1"",""2040""
","
","
","""event"",""trial"",""time""
""fullscreenenter"",""1"",""2040""
","
","","","-1","","","18","16593","6380","&#9854;","elianto","#FFFFF080","-1","-1","1","&#10004","[]","0","0","1","","","","","","","",""
"pit-instructions","19","312828","0.0-2.0-7.0","battery-v0.2","","""event"",""trial"",""time""
""fullscreenenter"",""1"",""2040""
","
","
","""event"",""trial"",""time""
""fullscreenenter"",""1"",""2040""
","
","","[{""page_index"":0,""viewing_time"":5774.700000017881},{""page_index"":1,""viewing_time"":8237.799999982119},{""page_index"":2,""viewing_time"":6311},{""page_index"":3,""viewing_time"":7122.9000000059605},{""page_index"":4,""viewing_time"":5981.9000000059605},{""page_index"":5,""viewing_time"":7597.9000000059605},{""page_index"":6,""viewing_time"":4619.199999988079},{""page_index"":7,""viewing_time"":8149.200000017881},{""page_index"":8,""viewing_time"":7086.899999976158},{""page_index"":9,""viewing_time"":5956.5},{""page_index"":10,""viewing_time"":6094.4000000059605},{""page_index"":11,""viewing_time"":7293.800000011921},{""page_index"":12,""viewing_time"":6699.5999999940395},{""page_index"":13,""viewing_time"":6802.5999999940395},{""page_index"":14,""viewing_time"":7243.5999999940395},{""page_index"":15,""viewing_time"":6406.800000011921},{""page_index"":16,""viewing_time"":6809.5999999940395},{""page_index"":17,""viewing_time"":6592.200000017881},{""page_index"":16,""viewing_time"":1384.3999999761581},{""page_index"":17,""viewing_time"":6556}]","128721.60000002384","","","","","","","","","","","","","","","","","","","","","","","",""
"pit-trial","20","316857","0.0-2.0-8.0-0.0","battery-v0.2","","""event"",""trial"",""time""
""fullscreenenter"",""1"",""2040""
","
","
","""event"",""trial"",""time""
""fullscreenenter"",""1"",""2040""
","
","","","1173.7000000178814","","","18","16593","6380","&#9776;","elianto","#3366ff99"," "," ","1","+10","[2025.2000000178814]","1","0","1","","","","","","","",""
"pit-trial","21","320248","0.0-2.0-8.0-1.0","battery-v0.2","","""event"",""trial"",""time""
""fullscreenenter"",""1"",""2040""
","
","
","""event"",""trial"",""time""
""fullscreenenter"",""1"",""2040""
","
","","","536.1999999880791","","","18","16593","6380","&#9776;","elianto","#3366ff99"," "," ","1","+10","[1387.300000011921]","1","0","1","","","","","","","",""
"pit-trial","22","323582","0.0-2.0-8.0-2.0","battery-v0.2","","""event"",""trial"",""time""
""fullscreenenter"",""1"",""2040""
","
","
","""event"",""trial"",""time""
""fullscreenenter"",""1"",""2040""
","
","","","479.7000000178814","","","18","16593","6380","&#9776;","elianto","#3366ff99"," "," ","1","+10","[1331.4000000059605]","1","0","1","","","","","","","",""
"pit-trial","23","327143","0.0-2.0-8.0-3.0","battery-v0.2","","""event"",""trial"",""time""
""fullscreenenter"",""1"",""2040""
","
","
","""event"",""trial"",""time""
""fullscreenenter"",""1"",""2040""
","
","","","705.9000000059605","","","18","16593","6380","&#9776;","elianto","#3366ff99"," "," ","1","0","[1556.5]","1","0","1","","","","","","","",""
"pit-trial","24","330373","0.0-2.0-8.0-4.0","battery-v0.2","","""event"",""trial"",""time""
""fullscreenenter"",""1"",""2040""
","
","
","""event"",""trial"",""time""
""fullscreenenter"",""1"",""2040""
","
","","","374","","","18","16593","6380","&#9776;","elianto","#3366ff99"," "," ","1","+10","[1225.5]","1","0","1","","","","","","","",""
"pit-trial","25","333564","0.0-2.0-8.1-0.1","battery-v0.2","","""event"",""trial"",""time""
""fullscreenenter"",""1"",""2040""
","
","
","""event"",""trial"",""time""
""fullscreenenter"",""1"",""2040""
","
","","","335.09999999403954","","","18","16593","6380","&#9776;","elianto","#3366ff99"," "," ","1","+10","[1186.0999999940395]","1","0","1","","","","","","","",""
"pit-trial","26","336838","0.0-2.0-8.1-1.1","battery-v0.2","","""event"",""trial"",""time""
""fullscreenenter"",""1"",""2040""
","
","
","""event"",""trial"",""time""
""fullscreenenter"",""1"",""2040""
","
","","","416.59999999403954","","","18","16593","6380","&#9776;","elianto","#3366ff99"," "," ","1","+10","[1270.0999999940395]","1","0","1","","","","","","","",""
"pit-trial","27","339953","0.0-2.0-8.1-2.1","battery-v0.2","","""event"",""trial"",""time""
""fullscreenenter"",""1"",""2040""
","
","
","""event"",""trial"",""time""
""fullscreenenter"",""1"",""2040""
","
","","","259.2999999821186","","","18","16593","6380","&#9776;","elianto","#3366ff99"," "," ","1","+10","[1110.300000011921]","1","0","1","","","","","","","",""
"pit-trial","28","343180","0.0-2.0-8.1-3.1","battery-v0.2","","""event"",""trial"",""time""
""fullscreenenter"",""1"",""2040""
","
","
","""event"",""trial"",""time""
""fullscreenenter"",""1"",""2040""
","
","","","371.40000000596046","","","18","16593","6380","&#9776;","elianto","#3366ff99"," "," ","1","0","[1222]","1","0","1","","","","","","","",""
"pit-trial","29","346401","0.0-2.0-8.1-4.1","battery-v0.2","","""event"",""trial"",""time""
""fullscreenenter"",""1"",""2040""
","
","
","""event"",""trial"",""time""
""fullscreenenter"",""1"",""2040""
","
","","","366.5","","","18","16593","6380","&#9776;","elianto","#3366ff99"," "," ","1","+10","[1217]","1","0","1","","","","","","","",""
"pit-trial","30","350814","0.0-2.0-8.2-0.2","battery-v0.2","","""event"",""trial"",""time""
""fullscreenenter"",""1"",""2040""
","
","
","""event"",""trial"",""time""
""fullscreenenter"",""1"",""2040""
","
","","","1558.3999999761581","","","18","16593","6380","&#9776;","elianto","#3366ff99"," "," ","1","+10","[2408.7999999821186]","1","0","1","","","","","","","",""
"pit-trial","31","354187","0.0-2.0-8.2-1.2","battery-v0.2","","""event"",""trial"",""time""
""fullscreenenter"",""1"",""2040""
","
","
","""event"",""trial"",""time""
""fullscreenenter"",""1"",""2040""
","
","","","517.8000000119209","","","18","16593","6380","&#9776;","elianto","#3366ff99"," "," ","1","+10","[1368.199999988079]","1","0","1","","","","","","","",""
"pit-trial","32","359042","0.0-2.0-8.2-2.2","battery-v0.2","","""event"",""trial"",""time""
""fullscreenenter"",""1"",""2040""
","
","
","""event"",""trial"",""time""
""fullscreenenter"",""1"",""2040""
","
","","","-1","","","18","16593","6380","&#9776;","elianto","#3366ff99"," ","-1","0","0","[]","0","0","1","","","","","","","",""
"pit-trial","33","362638","0.0-2.0-8.2-3.2","battery-v0.2","","""event"",""trial"",""time""
""fullscreenenter"",""1"",""2040""
","
","
","""event"",""trial"",""time""
""fullscreenenter"",""1"",""2040""
","
","","","740.0999999940395","","","18","16593","6380","&#9776;","elianto","#3366ff99"," "," ","1","0","[1590.8999999761581]","1","0","1","","","","","","","",""
"pit-trial","34","365874","0.0-2.0-8.2-4.2","battery-v0.2","","""event"",""trial"",""time""
""fullscreenenter"",""1"",""2040""
","
","
","""event"",""trial"",""time""
""fullscreenenter"",""1"",""2040""
","
","","","381.2999999821186","","","18","16593","6380","&#9776;","elianto","#3366ff99"," "," ","1","+10","[1232.699999988079]","1","0","1","","","","","","","",""
"call-function","35","365877","0.0-2.0-9.0","battery-v0.2","","""event"",""trial"",""time""
""fullscreenenter"",""1"",""2040""
""fullscreenexit"",""36"",""388861""
""blur"",""36"",""391225""
""focus"",""36"",""396868""
","""event"",""trial"",""time""
""blur"",""36"",""391225""
","""event"",""trial"",""time""
""focus"",""36"",""396868""
","""event"",""trial"",""time""
""fullscreenenter"",""1"",""2040""
","""event"",""trial"",""time""
""fullscreenexit"",""36"",""388861""
","","","","","","","","","","","","","","","","","","","","","","","","","","",""
"pit-instructions","36","409154","0.0-2.0-10.0","battery-v0.2","","""event"",""trial"",""time""
""fullscreenenter"",""1"",""2040""
""fullscreenexit"",""36"",""388861""
""blur"",""36"",""391225""
""focus"",""36"",""396868""
","""event"",""trial"",""time""
""blur"",""36"",""391225""
","""event"",""trial"",""time""
""focus"",""36"",""396868""
","""event"",""trial"",""time""
""fullscreenenter"",""1"",""2040""
","""event"",""trial"",""time""
""fullscreenexit"",""36"",""388861""
","","[{""page_index"":0,""viewing_time"":5852.5},{""page_index"":1,""viewing_time"":7605.300000011921},{""page_index"":2,""viewing_time"":9362.59999999404},{""page_index"":3,""viewing_time"":12960.5},{""page_index"":4,""viewing_time"":7497.0999999940395}]","43278.5","","","","","","","","","","","","","","","","","","","","","","","",""
"pit-trial","37","412993","0.0-2.0-11.0-0.0","battery-v0.2","","""event"",""trial"",""time""
""fullscreenenter"",""1"",""2040""
""fullscreenexit"",""36"",""388861""
""blur"",""36"",""391225""
""focus"",""36"",""396868""
","""event"",""trial"",""time""
""blur"",""36"",""391225""
","""event"",""trial"",""time""
""focus"",""36"",""396868""
","""event"",""trial"",""time""
""fullscreenenter"",""1"",""2040""
","""event"",""trial"",""time""
""fullscreenexit"",""36"",""388861""
","","","983.5","","","18","16593","6380","&#9761;","elianto","#3366ff99","-1"," ","0","0","[1835.300000011921]","1","0","2","","","","","","","",""
"pit-trial","38","417849","0.0-2.0-11.0-1.0","battery-v0.2","","""event"",""trial"",""time""
""fullscreenenter"",""1"",""2040""
""fullscreenexit"",""36"",""388861""
""blur"",""36"",""391225""
""focus"",""36"",""396868""
","""event"",""trial"",""time""
""blur"",""36"",""391225""
","""event"",""trial"",""time""
""focus"",""36"",""396868""
","""event"",""trial"",""time""
""fullscreenenter"",""1"",""2040""
","""event"",""trial"",""time""
""fullscreenexit"",""36"",""388861""
","","","-1","","","18","16593","6380","&#9761;","elianto","#3366ff99","-1","-1","1","+10","[]","0","0","2","","","","","","","",""
"pit-trial","39","422704","0.0-2.0-11.0-2.0","battery-v0.2","","""event"",""trial"",""time""
""fullscreenenter"",""1"",""2040""
""fullscreenexit"",""36"",""388861""
""blur"",""36"",""391225""
""focus"",""36"",""396868""
","""event"",""trial"",""time""
""blur"",""36"",""391225""
","""event"",""trial"",""time""
""focus"",""36"",""396868""
","""event"",""trial"",""time""
""fullscreenenter"",""1"",""2040""
","""event"",""trial"",""time""
""fullscreenexit"",""36"",""388861""
","","","-1","","","18","16593","6380","&#9761;","elianto","#3366ff99","-1","-1","1","+10","[]","0","0","2","","","","","","","",""
"pit-trial","40","427561","0.0-2.0-11.0-3.0","battery-v0.2","","""event"",""trial"",""time""
""fullscreenenter"",""1"",""2040""
""fullscreenexit"",""36"",""388861""
""blur"",""36"",""391225""
""focus"",""36"",""396868""
","""event"",""trial"",""time""
""blur"",""36"",""391225""
","""event"",""trial"",""time""
""focus"",""36"",""396868""
","""event"",""trial"",""time""
""fullscreenenter"",""1"",""2040""
","""event"",""trial"",""time""
""fullscreenexit"",""36"",""388861""
","","","-1","","","18","16593","6380","&#9761;","elianto","#3366ff99","-1","-1","1","0","[]","0","0","2","","","","","","","",""
"pit-trial","41","432415","0.0-2.0-11.0-4.0","battery-v0.2","","""event"",""trial"",""time""
""fullscreenenter"",""1"",""2040""
""fullscreenexit"",""36"",""388861""
""blur"",""36"",""391225""
""focus"",""36"",""396868""
","""event"",""trial"",""time""
""blur"",""36"",""391225""
","""event"",""trial"",""time""
""focus"",""36"",""396868""
","""event"",""trial"",""time""
""fullscreenenter"",""1"",""2040""
","""event"",""trial"",""time""
""fullscreenexit"",""36"",""388861""
","","","-1","","","18","16593","6380","&#9761;","elianto","#3366ff99","-1","-1","1","+10","[]","0","0","2","","","","","","","",""
"pit-trial","42","437272","0.0-2.0-11.1-0.1","battery-v0.2","","""event"",""trial"",""time""
""fullscreenenter"",""1"",""2040""
""fullscreenexit"",""36"",""388861""
""blur"",""36"",""391225""
""focus"",""36"",""396868""
","""event"",""trial"",""time""
""blur"",""36"",""391225""
","""event"",""trial"",""time""
""focus"",""36"",""396868""
","""event"",""trial"",""time""
""fullscreenenter"",""1"",""2040""
","""event"",""trial"",""time""
""fullscreenexit"",""36"",""388861""
","","","-1","","","18","16593","6380","&#9761;","elianto","#3366ff99","-1","-1","1","+10","[]","0","0","2","","","","","","","",""
"pit-trial","43","442128","0.0-2.0-11.1-1.1","battery-v0.2","","""event"",""trial"",""time""
""fullscreenenter"",""1"",""2040""
""fullscreenexit"",""36"",""388861""
""blur"",""36"",""391225""
""focus"",""36"",""396868""
","""event"",""trial"",""time""
""blur"",""36"",""391225""
","""event"",""trial"",""time""
""focus"",""36"",""396868""
","""event"",""trial"",""time""
""fullscreenenter"",""1"",""2040""
","""event"",""trial"",""time""
""fullscreenexit"",""36"",""388861""
","","","-1","","","18","16593","6380","&#9761;","elianto","#3366ff99","-1","-1","1","+10","[]","0","0","2","","","","","","","",""
"pit-trial","44","446984","0.0-2.0-11.1-2.1","battery-v0.2","","""event"",""trial"",""time""
""fullscreenenter"",""1"",""2040""
""fullscreenexit"",""36"",""388861""
""blur"",""36"",""391225""
""focus"",""36"",""396868""
","""event"",""trial"",""time""
""blur"",""36"",""391225""
","""event"",""trial"",""time""
""focus"",""36"",""396868""
","""event"",""trial"",""time""
""fullscreenenter"",""1"",""2040""
","""event"",""trial"",""time""
""fullscreenexit"",""36"",""388861""
","","","-1","","","18","16593","6380","&#9761;","elianto","#3366ff99","-1","-1","1","+10","[]","0","0","2","","","","","","","",""
"pit-trial","45","451839","0.0-2.0-11.1-3.1","battery-v0.2","","""event"",""trial"",""time""
""fullscreenenter"",""1"",""2040""
""fullscreenexit"",""36"",""388861""
""blur"",""36"",""391225""
""focus"",""36"",""396868""
","""event"",""trial"",""time""
""blur"",""36"",""391225""
","""event"",""trial"",""time""
""focus"",""36"",""396868""
","""event"",""trial"",""time""
""fullscreenenter"",""1"",""2040""
","""event"",""trial"",""time""
""fullscreenexit"",""36"",""388861""
","","","-1","","","18","16593","6380","&#9761;","elianto","#3366ff99","-1","-1","1","0","[]","0","0","2","","","","","","","",""
"pit-trial","46","456694","0.0-2.0-11.1-4.1","battery-v0.2","","""event"",""trial"",""time""
""fullscreenenter"",""1"",""2040""
""fullscreenexit"",""36"",""388861""
""blur"",""36"",""391225""
""focus"",""36"",""396868""
","""event"",""trial"",""time""
""blur"",""36"",""391225""
","""event"",""trial"",""time""
""focus"",""36"",""396868""
","""event"",""trial"",""time""
""fullscreenenter"",""1"",""2040""
","""event"",""trial"",""time""
""fullscreenexit"",""36"",""388861""
","","","-1","","","18","16593","6380","&#9761;","elianto","#3366ff99","-1","-1","1","+10","[]","0","0","2","","","","","","","",""
"pit-trial","47","461551","0.0-2.0-11.2-0.2","battery-v0.2","","""event"",""trial"",""time""
""fullscreenenter"",""1"",""2040""
""fullscreenexit"",""36"",""388861""
""blur"",""36"",""391225""
""focus"",""36"",""396868""
","""event"",""trial"",""time""
""blur"",""36"",""391225""
","""event"",""trial"",""time""
""focus"",""36"",""396868""
","""event"",""trial"",""time""
""fullscreenenter"",""1"",""2040""
","""event"",""trial"",""time""
""fullscreenexit"",""36"",""388861""
","","","-1","","","18","16593","6380","&#9761;","elianto","#3366ff99","-1","-1","1","+10","[]","0","0","2","","","","","","","",""
"pit-trial","48","466408","0.0-2.0-11.2-1.2","battery-v0.2","","""event"",""trial"",""time""
""fullscreenenter"",""1"",""2040""
""fullscreenexit"",""36"",""388861""
""blur"",""36"",""391225""
""focus"",""36"",""396868""
","""event"",""trial"",""time""
""blur"",""36"",""391225""
","""event"",""trial"",""time""
""focus"",""36"",""396868""
","""event"",""trial"",""time""
""fullscreenenter"",""1"",""2040""
","""event"",""trial"",""time""
""fullscreenexit"",""36"",""388861""
","","","-1","","","18","16593","6380","&#9761;","elianto","#3366ff99","-1","-1","1","+10","[]","0","0","2","","","","","","","",""
"pit-trial","49","471263","0.0-2.0-11.2-2.2","battery-v0.2","","""event"",""trial"",""time""
""fullscreenenter"",""1"",""2040""
""fullscreenexit"",""36"",""388861""
""blur"",""36"",""391225""
""focus"",""36"",""396868""
","""event"",""trial"",""time""
""blur"",""36"",""391225""
","""event"",""trial"",""time""
""focus"",""36"",""396868""
","""event"",""trial"",""time""
""fullscreenenter"",""1"",""2040""
","""event"",""trial"",""time""
""fullscreenexit"",""36"",""388861""
","","","-1","","","18","16593","6380","&#9761;","elianto","#3366ff99","-1","-1","1","+10","[]","0","0","2","","","","","","","",""
"pit-trial","50","476120","0.0-2.0-11.2-3.2","battery-v0.2","","""event"",""trial"",""time""
""fullscreenenter"",""1"",""2040""
""fullscreenexit"",""36"",""388861""
""blur"",""36"",""391225""
""focus"",""36"",""396868""
","""event"",""trial"",""time""
""blur"",""36"",""391225""
","""event"",""trial"",""time""
""focus"",""36"",""396868""
","""event"",""trial"",""time""
""fullscreenenter"",""1"",""2040""
","""event"",""trial"",""time""
""fullscreenexit"",""36"",""388861""
","","","-1","","","18","16593","6380","&#9761;","elianto","#3366ff99","-1","-1","1","0","[]","0","0","2","","","","","","","",""
"pit-trial","51","480976","0.0-2.0-11.2-4.2","battery-v0.2","","""event"",""trial"",""time""
""fullscreenenter"",""1"",""2040""
""fullscreenexit"",""36"",""388861""
""blur"",""36"",""391225""
""focus"",""36"",""396868""
","""event"",""trial"",""time""
""blur"",""36"",""391225""
","""event"",""trial"",""time""
""focus"",""36"",""396868""
","""event"",""trial"",""time""
""fullscreenenter"",""1"",""2040""
","""event"",""trial"",""time""
""fullscreenexit"",""36"",""388861""
","","","-1","","","18","16593","6380","&#9761;","elianto","#3366ff99","-1","-1","1","+10","[]","0","0","2","","","","","","","",""
"pit-trial","52","485833","0.0-2.0-11.3-0.3","battery-v0.2","","""event"",""trial"",""time""
""fullscreenenter"",""1"",""2040""
""fullscreenexit"",""36"",""388861""
""blur"",""36"",""391225""
""focus"",""36"",""396868""
","""event"",""trial"",""time""
""blur"",""36"",""391225""
","""event"",""trial"",""time""
""focus"",""36"",""396868""
","""event"",""trial"",""time""
""fullscreenenter"",""1"",""2040""
","""event"",""trial"",""time""
""fullscreenexit"",""36"",""388861""
","","","-1","","","18","16593","6380","&#9761;","elianto","#3366ff99","-1","-1","1","+10","[]","0","0","2","","","","","","","",""
"pit-trial","53","490689","0.0-2.0-11.3-1.3","battery-v0.2","","""event"",""trial"",""time""
""fullscreenenter"",""1"",""2040""
""fullscreenexit"",""36"",""388861""
""blur"",""36"",""391225""
""focus"",""36"",""396868""
","""event"",""trial"",""time""
""blur"",""36"",""391225""
","""event"",""trial"",""time""
""focus"",""36"",""396868""
","""event"",""trial"",""time""
""fullscreenenter"",""1"",""2040""
","""event"",""trial"",""time""
""fullscreenexit"",""36"",""388861""
","","","-1","","","18","16593","6380","&#9761;","elianto","#3366ff99","-1","-1","1","+10","[]","0","0","2","","","","","","","",""
"pit-trial","54","495543","0.0-2.0-11.3-2.3","battery-v0.2","","""event"",""trial"",""time""
""fullscreenenter"",""1"",""2040""
""fullscreenexit"",""36"",""388861""
""blur"",""36"",""391225""
""focus"",""36"",""396868""
","""event"",""trial"",""time""
""blur"",""36"",""391225""
","""event"",""trial"",""time""
""focus"",""36"",""396868""
","""event"",""trial"",""time""
""fullscreenenter"",""1"",""2040""
","""event"",""trial"",""time""
""fullscreenexit"",""36"",""388861""
","","","-1","","","18","16593","6380","&#9761;","elianto","#3366ff99","-1","-1","1","+10","[]","0","0","2","","","","","","","",""
"pit-trial","55","500397","0.0-2.0-11.3-3.3","battery-v0.2","","""event"",""trial"",""time""
""fullscreenenter"",""1"",""2040""
""fullscreenexit"",""36"",""388861""
""blur"",""36"",""391225""
""focus"",""36"",""396868""
","""event"",""trial"",""time""
""blur"",""36"",""391225""
","""event"",""trial"",""time""
""focus"",""36"",""396868""
","""event"",""trial"",""time""
""fullscreenenter"",""1"",""2040""
","""event"",""trial"",""time""
""fullscreenexit"",""36"",""388861""
","","","-1","","","18","16593","6380","&#9761;","elianto","#3366ff99","-1","-1","1","0","[]","0","0","2","","","","","","","",""
"pit-trial","56","505252","0.0-2.0-11.3-4.3","battery-v0.2","","""event"",""trial"",""time""
""fullscreenenter"",""1"",""2040""
""fullscreenexit"",""36"",""388861""
""blur"",""36"",""391225""
""focus"",""36"",""396868""
","""event"",""trial"",""time""
""blur"",""36"",""391225""
","""event"",""trial"",""time""
""focus"",""36"",""396868""
","""event"",""trial"",""time""
""fullscreenenter"",""1"",""2040""
","""event"",""trial"",""time""
""fullscreenexit"",""36"",""388861""
","","","-1","","","18","16593","6380","&#9761;","elianto","#3366ff99","-1","-1","1","+10","[]","0","0","2","","","","","","","",""
"call-function","57","505254","0.0-2.0-12.0","battery-v0.2","","""event"",""trial"",""time""
""fullscreenenter"",""1"",""2040""
""fullscreenexit"",""36"",""388861""
""blur"",""36"",""391225""
""focus"",""36"",""396868""
","""event"",""trial"",""time""
""blur"",""36"",""391225""
","""event"",""trial"",""time""
""focus"",""36"",""396868""
","""event"",""trial"",""time""
""fullscreenenter"",""1"",""2040""
","""event"",""trial"",""time""
""fullscreenexit"",""36"",""388861""
","","","","","","","","","","","","","","","","","","","","","","","","","","",""
"pit-instructions","58","539942","0.0-2.0-13.0","battery-v0.2","","""event"",""trial"",""time""
""fullscreenenter"",""1"",""2040""
""fullscreenexit"",""36"",""388861""
""blur"",""36"",""391225""
""focus"",""36"",""396868""
","""event"",""trial"",""time""
""blur"",""36"",""391225""
","""event"",""trial"",""time""
""focus"",""36"",""396868""
","""event"",""trial"",""time""
""fullscreenenter"",""1"",""2040""
","""event"",""trial"",""time""
""fullscreenexit"",""36"",""388861""
","","[{""page_index"":0,""viewing_time"":6345.700000017881},{""page_index"":1,""viewing_time"":6765.799999982119},{""page_index"":2,""viewing_time"":4050.7000000178814},{""page_index"":3,""viewing_time"":11926.299999982119},{""page_index"":4,""viewing_time"":5599.4000000059605}]","34688.30000001192","","","","","","","","","","","","","","","","","","","","","","","",""
"pit-trial","59","544798","0.0-2.0-14.0-0.0","battery-v0.2","","""event"",""trial"",""time""
""fullscreenenter"",""1"",""2040""
""fullscreenexit"",""36"",""388861""
""blur"",""36"",""391225""
""focus"",""36"",""396868""
","""event"",""trial"",""time""
""blur"",""36"",""391225""
","""event"",""trial"",""time""
""focus"",""36"",""396868""
","""event"",""trial"",""time""
""fullscreenenter"",""1"",""2040""
","""event"",""trial"",""time""
""fullscreenexit"",""36"",""388861""
","","","-1","","","18","16593","6380","&#9826;","elianto","#f73b6a7A","-1","-1","1","0","[]","0","0","3","","","","","","","",""
"pit-trial","60","549656","0.0-2.0-14.0-1.0","battery-v0.2","","""event"",""trial"",""time""
""fullscreenenter"",""1"",""2040""
""fullscreenexit"",""36"",""388861""
""blur"",""36"",""391225""
""focus"",""36"",""396868""
","""event"",""trial"",""time""
""blur"",""36"",""391225""
","""event"",""trial"",""time""
""focus"",""36"",""396868""
","""event"",""trial"",""time""
""fullscreenenter"",""1"",""2040""
","""event"",""trial"",""time""
""fullscreenexit"",""36"",""388861""
","","","-1","","","18","16593","6380","&#9826;","elianto","#f73b6a7A","-1","-1","1","0","[]","0","0","3","","","","","","","",""
"pit-trial","61","554511","0.0-2.0-14.0-2.0","battery-v0.2","","""event"",""trial"",""time""
""fullscreenenter"",""1"",""2040""
""fullscreenexit"",""36"",""388861""
""blur"",""36"",""391225""
""focus"",""36"",""396868""
","""event"",""trial"",""time""
""blur"",""36"",""391225""
","""event"",""trial"",""time""
""focus"",""36"",""396868""
","""event"",""trial"",""time""
""fullscreenenter"",""1"",""2040""
","""event"",""trial"",""time""
""fullscreenexit"",""36"",""388861""
","","","-1","","","18","16593","6380","&#9826;","elianto","#f73b6a7A","-1","-1","1","0","[]","0","0","3","","","","","","","",""
"pit-trial","62","559367","0.0-2.0-14.0-3.0","battery-v0.2","","""event"",""trial"",""time""
""fullscreenenter"",""1"",""2040""
""fullscreenexit"",""36"",""388861""
""blur"",""36"",""391225""
""focus"",""36"",""396868""
","""event"",""trial"",""time""
""blur"",""36"",""391225""
","""event"",""trial"",""time""
""focus"",""36"",""396868""
","""event"",""trial"",""time""
""fullscreenenter"",""1"",""2040""
","""event"",""trial"",""time""
""fullscreenexit"",""36"",""388861""
","","","-1","","","18","16593","6380","&#9826;","elianto","#f73b6a7A","-1","-1","1","-10","[]","0","0","3","","","","","","","",""
"pit-trial","63","564223","0.0-2.0-14.0-4.0","battery-v0.2","","""event"",""trial"",""time""
""fullscreenenter"",""1"",""2040""
""fullscreenexit"",""36"",""388861""
""blur"",""36"",""391225""
""focus"",""36"",""396868""
","""event"",""trial"",""time""
""blur"",""36"",""391225""
","""event"",""trial"",""time""
""focus"",""36"",""396868""
","""event"",""trial"",""time""
""fullscreenenter"",""1"",""2040""
","""event"",""trial"",""time""
""fullscreenexit"",""36"",""388861""
","","","-1","","","18","16593","6380","&#9826;","elianto","#f73b6a7A","-1","-1","1","0","[]","0","0","3","","","","","","","",""
"pit-trial","64","569080","0.0-2.0-14.1-0.1","battery-v0.2","","""event"",""trial"",""time""
""fullscreenenter"",""1"",""2040""
""fullscreenexit"",""36"",""388861""
""blur"",""36"",""391225""
""focus"",""36"",""396868""
","""event"",""trial"",""time""
""blur"",""36"",""391225""
","""event"",""trial"",""time""
""focus"",""36"",""396868""
","""event"",""trial"",""time""
""fullscreenenter"",""1"",""2040""
","""event"",""trial"",""time""
""fullscreenexit"",""36"",""388861""
","","","-1","","","18","16593","6380","&#9826;","elianto","#f73b6a7A","-1","-1","1","0","[]","0","0","3","","","","","","","",""
"pit-trial","65","573934","0.0-2.0-14.1-1.1","battery-v0.2","","""event"",""trial"",""time""
""fullscreenenter"",""1"",""2040""
""fullscreenexit"",""36"",""388861""
""blur"",""36"",""391225""
""focus"",""36"",""396868""
","""event"",""trial"",""time""
""blur"",""36"",""391225""
","""event"",""trial"",""time""
""focus"",""36"",""396868""
","""event"",""trial"",""time""
""fullscreenenter"",""1"",""2040""
","""event"",""trial"",""time""
""fullscreenexit"",""36"",""388861""
","","","-1","","","18","16593","6380","&#9826;","elianto","#f73b6a7A","-1","-1","1","0","[]","0","0","3","","","","","","","",""
"pit-trial","66","578793","0.0-2.0-14.1-2.1","battery-v0.2","","""event"",""trial"",""time""
""fullscreenenter"",""1"",""2040""
""fullscreenexit"",""36"",""388861""
""blur"",""36"",""391225""
""focus"",""36"",""396868""
","""event"",""trial"",""time""
""blur"",""36"",""391225""
","""event"",""trial"",""time""
""focus"",""36"",""396868""
","""event"",""trial"",""time""
""fullscreenenter"",""1"",""2040""
","""event"",""trial"",""time""
""fullscreenexit"",""36"",""388861""
","","","-1","","","18","16593","6380","&#9826;","elianto","#f73b6a7A","-1","-1","1","0","[]","0","0","3","","","","","","","",""
"pit-trial","67","583648","0.0-2.0-14.1-3.1","battery-v0.2","","""event"",""trial"",""time""
""fullscreenenter"",""1"",""2040""
""fullscreenexit"",""36"",""388861""
""blur"",""36"",""391225""
""focus"",""36"",""396868""
","""event"",""trial"",""time""
""blur"",""36"",""391225""
","""event"",""trial"",""time""
""focus"",""36"",""396868""
","""event"",""trial"",""time""
""fullscreenenter"",""1"",""2040""
","""event"",""trial"",""time""
""fullscreenexit"",""36"",""388861""
","","","-1","","","18","16593","6380","&#9826;","elianto","#f73b6a7A","-1","-1","1","-10","[]","0","0","3","","","","","","","",""
"pit-trial","68","588501","0.0-2.0-14.1-4.1","battery-v0.2","","""event"",""trial"",""time""
""fullscreenenter"",""1"",""2040""
""fullscreenexit"",""36"",""388861""
""blur"",""36"",""391225""
""focus"",""36"",""396868""
","""event"",""trial"",""time""
""blur"",""36"",""391225""
","""event"",""trial"",""time""
""focus"",""36"",""396868""
","""event"",""trial"",""time""
""fullscreenenter"",""1"",""2040""
","""event"",""trial"",""time""
""fullscreenexit"",""36"",""388861""
","","","-1","","","18","16593","6380","&#9826;","elianto","#f73b6a7A","-1","-1","1","0","[]","0","0","3","","","","","","","",""
"pit-trial","69","593357","0.0-2.0-14.2-0.2","battery-v0.2","","""event"",""trial"",""time""
""fullscreenenter"",""1"",""2040""
""fullscreenexit"",""36"",""388861""
""blur"",""36"",""391225""
""focus"",""36"",""396868""
","""event"",""trial"",""time""
""blur"",""36"",""391225""
","""event"",""trial"",""time""
""focus"",""36"",""396868""
","""event"",""trial"",""time""
""fullscreenenter"",""1"",""2040""
","""event"",""trial"",""time""
""fullscreenexit"",""36"",""388861""
","","","-1","","","18","16593","6380","&#9826;","elianto","#f73b6a7A","-1","-1","1","0","[]","0","0","3","","","","","","","",""
"pit-trial","70","598213","0.0-2.0-14.2-1.2","battery-v0.2","","""event"",""trial"",""time""
""fullscreenenter"",""1"",""2040""
""fullscreenexit"",""36"",""388861""
""blur"",""36"",""391225""
""focus"",""36"",""396868""
","""event"",""trial"",""time""
""blur"",""36"",""391225""
","""event"",""trial"",""time""
""focus"",""36"",""396868""
","""event"",""trial"",""time""
""fullscreenenter"",""1"",""2040""
","""event"",""trial"",""time""
""fullscreenexit"",""36"",""388861""
","","","-1","","","18","16593","6380","&#9826;","elianto","#f73b6a7A","-1","-1","1","0","[]","0","0","3","","","","","","","",""
"pit-trial","71","603069","0.0-2.0-14.2-2.2","battery-v0.2","","""event"",""trial"",""time""
""fullscreenenter"",""1"",""2040""
""fullscreenexit"",""36"",""388861""
""blur"",""36"",""391225""
""focus"",""36"",""396868""
","""event"",""trial"",""time""
""blur"",""36"",""391225""
","""event"",""trial"",""time""
""focus"",""36"",""396868""
","""event"",""trial"",""time""
""fullscreenenter"",""1"",""2040""
","""event"",""trial"",""time""
""fullscreenexit"",""36"",""388861""
","","","-1","","","18","16593","6380","&#9826;","elianto","#f73b6a7A","-1","-1","1","0","[]","0","0","3","","","","","","","",""
"pit-trial","72","607924","0.0-2.0-14.2-3.2","battery-v0.2","","""event"",""trial"",""time""
""fullscreenenter"",""1"",""2040""
""fullscreenexit"",""36"",""388861""
""blur"",""36"",""391225""
""focus"",""36"",""396868""
","""event"",""trial"",""time""
""blur"",""36"",""391225""
","""event"",""trial"",""time""
""focus"",""36"",""396868""
","""event"",""trial"",""time""
""fullscreenenter"",""1"",""2040""
","""event"",""trial"",""time""
""fullscreenexit"",""36"",""388861""
","","","-1","","","18","16593","6380","&#9826;","elianto","#f73b6a7A","-1","-1","1","-10","[]","0","0","3","","","","","","","",""
"pit-trial","73","612779","0.0-2.0-14.2-4.2","battery-v0.2","","""event"",""trial"",""time""
""fullscreenenter"",""1"",""2040""
""fullscreenexit"",""36"",""388861""
""blur"",""36"",""391225""
""focus"",""36"",""396868""
","""event"",""trial"",""time""
""blur"",""36"",""391225""
","""event"",""trial"",""time""
""focus"",""36"",""396868""
","""event"",""trial"",""time""
""fullscreenenter"",""1"",""2040""
","""event"",""trial"",""time""
""fullscreenexit"",""36"",""388861""
","","","-1","","","18","16593","6380","&#9826;","elianto","#f73b6a7A","-1","-1","1","0","[]","0","0","3","","","","","","","",""
"pit-trial","74","617635","0.0-2.0-14.3-0.3","battery-v0.2","","""event"",""trial"",""time""
""fullscreenenter"",""1"",""2040""
""fullscreenexit"",""36"",""388861""
""blur"",""36"",""391225""
""focus"",""36"",""396868""
","""event"",""trial"",""time""
""blur"",""36"",""391225""
","""event"",""trial"",""time""
""focus"",""36"",""396868""
","""event"",""trial"",""time""
""fullscreenenter"",""1"",""2040""
","""event"",""trial"",""time""
""fullscreenexit"",""36"",""388861""
","","","-1","","","18","16593","6380","&#9826;","elianto","#f73b6a7A","-1","-1","1","0","[]","0","0","3","","","","","","","",""
"pit-trial","75","622491","0.0-2.0-14.3-1.3","battery-v0.2","","""event"",""trial"",""time""
""fullscreenenter"",""1"",""2040""
""fullscreenexit"",""36"",""388861""
""blur"",""36"",""391225""
""focus"",""36"",""396868""
","""event"",""trial"",""time""
""blur"",""36"",""391225""
","""event"",""trial"",""time""
""focus"",""36"",""396868""
","""event"",""trial"",""time""
""fullscreenenter"",""1"",""2040""
","""event"",""trial"",""time""
""fullscreenexit"",""36"",""388861""
","","","-1","","","18","16593","6380","&#9826;","elianto","#f73b6a7A","-1","-1","1","0","[]","0","0","3","","","","","","","",""
"pit-trial","76","627347","0.0-2.0-14.3-2.3","battery-v0.2","","""event"",""trial"",""time""
""fullscreenenter"",""1"",""2040""
""fullscreenexit"",""36"",""388861""
""blur"",""36"",""391225""
""focus"",""36"",""396868""
","""event"",""trial"",""time""
""blur"",""36"",""391225""
","""event"",""trial"",""time""
""focus"",""36"",""396868""
","""event"",""trial"",""time""
""fullscreenenter"",""1"",""2040""
","""event"",""trial"",""time""
""fullscreenexit"",""36"",""388861""
","","","-1","","","18","16593","6380","&#9826;","elianto","#f73b6a7A","-1","-1","1","0","[]","0","0","3","","","","","","","",""
"pit-trial","77","632203","0.0-2.0-14.3-3.3","battery-v0.2","","""event"",""trial"",""time""
""fullscreenenter"",""1"",""2040""
""fullscreenexit"",""36"",""388861""
""blur"",""36"",""391225""
""focus"",""36"",""396868""
","""event"",""trial"",""time""
""blur"",""36"",""391225""
","""event"",""trial"",""time""
""focus"",""36"",""396868""
","""event"",""trial"",""time""
""fullscreenenter"",""1"",""2040""
","""event"",""trial"",""time""
""fullscreenexit"",""36"",""388861""
","","","-1","","","18","16593","6380","&#9826;","elianto","#f73b6a7A","-1","-1","1","-10","[]","0","0","3","","","","","","","",""
"pit-trial","78","637059","0.0-2.0-14.3-4.3","battery-v0.2","","""event"",""trial"",""time""
""fullscreenenter"",""1"",""2040""
""fullscreenexit"",""36"",""388861""
""blur"",""36"",""391225""
""focus"",""36"",""396868""
","""event"",""trial"",""time""
""blur"",""36"",""391225""
","""event"",""trial"",""time""
""focus"",""36"",""396868""
","""event"",""trial"",""time""
""fullscreenenter"",""1"",""2040""
","""event"",""trial"",""time""
""fullscreenexit"",""36"",""388861""
","","","-1","","","18","16593","6380","&#9826;","elianto","#f73b6a7A","-1","-1","1","0","[]","0","0","3","","","","","","","",""
"call-function","79","637062","0.0-2.0-15.0","battery-v0.2","","""event"",""trial"",""time""
""fullscreenenter"",""1"",""2040""
""fullscreenexit"",""36"",""388861""
""blur"",""36"",""391225""
""focus"",""36"",""396868""
","""event"",""trial"",""time""
""blur"",""36"",""391225""
","""event"",""trial"",""time""
""focus"",""36"",""396868""
","""event"",""trial"",""time""
""fullscreenenter"",""1"",""2040""
","""event"",""trial"",""time""
""fullscreenexit"",""36"",""388861""
","","","","","","","","","","","","","","","","","","","","","","","","","","",""
"pit-instructions","80","675412","0.0-2.0-16.0","battery-v0.2","","""event"",""trial"",""time""
""fullscreenenter"",""1"",""2040""
""fullscreenexit"",""36"",""388861""
""blur"",""36"",""391225""
""focus"",""36"",""396868""
","""event"",""trial"",""time""
""blur"",""36"",""391225""
","""event"",""trial"",""time""
""focus"",""36"",""396868""
","""event"",""trial"",""time""
""fullscreenenter"",""1"",""2040""
","""event"",""trial"",""time""
""fullscreenexit"",""36"",""388861""
","","[{""page_index"":0,""viewing_time"":9205.299999982119},{""page_index"":1,""viewing_time"":9976},{""page_index"":2,""viewing_time"":12325},{""page_index"":3,""viewing_time"":6845.300000011921}]","38352","","","","","","","","","","","","","","","","","","","","","","","",""
"pit-trial","81","680268","0.0-2.0-17.0-0.0","battery-v0.2","","""event"",""trial"",""time""
""fullscreenenter"",""1"",""2040""
""fullscreenexit"",""36"",""388861""
""blur"",""36"",""391225""
""focus"",""36"",""396868""
","""event"",""trial"",""time""
""blur"",""36"",""391225""
","""event"",""trial"",""time""
""focus"",""36"",""396868""
","""event"",""trial"",""time""
""fullscreenenter"",""1"",""2040""
","""event"",""trial"",""time""
""fullscreenexit"",""36"",""388861""
","","","-1","","","18","16593","6380","&#9789;","elianto","#f73b6a7A"," ","-1","0","-10","[]","0","0","4","","","","","","","",""
"pit-trial","82","683971","0.0-2.0-17.0-1.0","battery-v0.2","","""event"",""trial"",""time""
""fullscreenenter"",""1"",""2040""
""fullscreenexit"",""36"",""388861""
""blur"",""36"",""391225""
""focus"",""36"",""396868""
","""event"",""trial"",""time""
""blur"",""36"",""391225""
","""event"",""trial"",""time""
""focus"",""36"",""396868""
","""event"",""trial"",""time""
""fullscreenenter"",""1"",""2040""
","""event"",""trial"",""time""
""fullscreenexit"",""36"",""388861""
","","","848.5999999940395","","","18","16593","6380","&#9789;","elianto","#f73b6a7A"," "," ","1","0","[1699.0999999940395]","1","0","4","","","","","","","",""
"pit-trial","83","687256","0.0-2.0-17.0-2.0","battery-v0.2","","""event"",""trial"",""time""
""fullscreenenter"",""1"",""2040""
""fullscreenexit"",""36"",""388861""
""blur"",""36"",""391225""
""focus"",""36"",""396868""
","""event"",""trial"",""time""
""blur"",""36"",""391225""
","""event"",""trial"",""time""
""focus"",""36"",""396868""
","""event"",""trial"",""time""
""fullscreenenter"",""1"",""2040""
","""event"",""trial"",""time""
""fullscreenexit"",""36"",""388861""
","","","429.90000000596046","","","18","16593","6380","&#9789;","elianto","#f73b6a7A"," "," ","1","0","[1280.7000000178814]","1","0","4","","","","","","","",""
"pit-trial","84","690575","0.0-2.0-17.0-3.0","battery-v0.2","","""event"",""trial"",""time""
""fullscreenenter"",""1"",""2040""
""fullscreenexit"",""36"",""388861""
""blur"",""36"",""391225""
""focus"",""36"",""396868""
","""event"",""trial"",""time""
""blur"",""36"",""391225""
","""event"",""trial"",""time""
""focus"",""36"",""396868""
","""event"",""trial"",""time""
""fullscreenenter"",""1"",""2040""
","""event"",""trial"",""time""
""fullscreenexit"",""36"",""388861""
","","","462.40000000596046","","","18","16593","6380","&#9789;","elianto","#f73b6a7A"," "," ","1","-10","[1314.199999988079]","1","0","4","","","","","","","",""
"pit-trial","85","693642","0.0-2.0-17.0-4.0","battery-v0.2","","""event"",""trial"",""time""
""fullscreenenter"",""1"",""2040""
""fullscreenexit"",""36"",""388861""
""blur"",""36"",""391225""
""focus"",""36"",""396868""
","""event"",""trial"",""time""
""blur"",""36"",""391225""
","""event"",""trial"",""time""
""focus"",""36"",""396868""
","""event"",""trial"",""time""
""fullscreenenter"",""1"",""2040""
","""event"",""trial"",""time""
""fullscreenexit"",""36"",""388861""
","","","211.90000000596046","","","18","16593","6380","&#9789;","elianto","#f73b6a7A"," "," ","1","0","[1063]","1","0","4","","","","","","","",""
"pit-trial","86","697157","0.0-2.0-17.1-0.1","battery-v0.2","","""event"",""trial"",""time""
""fullscreenenter"",""1"",""2040""
""fullscreenexit"",""36"",""388861""
""blur"",""36"",""391225""
""focus"",""36"",""396868""
","""event"",""trial"",""time""
""blur"",""36"",""391225""
","""event"",""trial"",""time""
""focus"",""36"",""396868""
","""event"",""trial"",""time""
""fullscreenenter"",""1"",""2040""
","""event"",""trial"",""time""
""fullscreenexit"",""36"",""388861""
","","","658.5","","","18","16593","6380","&#9789;","elianto","#f73b6a7A"," "," ","1","0","[1509.0999999940395]","1","0","4","","","","","","","",""
"pit-trial","87","700447","0.0-2.0-17.1-1.1","battery-v0.2","","""event"",""trial"",""time""
""fullscreenenter"",""1"",""2040""
""fullscreenexit"",""36"",""388861""
""blur"",""36"",""391225""
""focus"",""36"",""396868""
","""event"",""trial"",""time""
""blur"",""36"",""391225""
","""event"",""trial"",""time""
""focus"",""36"",""396868""
","""event"",""trial"",""time""
""fullscreenenter"",""1"",""2040""
","""event"",""trial"",""time""
""fullscreenexit"",""36"",""388861""
","","","436.40000000596046","","","18","16593","6380","&#9789;","elianto","#f73b6a7A"," "," ","1","0","[1286.7000000178814]","1","0","4","","","","","","","",""
"pit-trial","88","703825","0.0-2.0-17.1-2.1","battery-v0.2","","""event"",""trial"",""time""
""fullscreenenter"",""1"",""2040""
""fullscreenexit"",""36"",""388861""
""blur"",""36"",""391225""
""focus"",""36"",""396868""
","""event"",""trial"",""time""
""blur"",""36"",""391225""
","""event"",""trial"",""time""
""focus"",""36"",""396868""
","""event"",""trial"",""time""
""fullscreenenter"",""1"",""2040""
","""event"",""trial"",""time""
""fullscreenexit"",""36"",""388861""
","","","522.9000000059605","","","18","16593","6380","&#9789;","elianto","#f73b6a7A"," "," ","1","0","[1373.5999999940395]","1","0","4","","","","","","","",""
"pit-trial","89","707340","0.0-2.0-17.1-3.1","battery-v0.2","","""event"",""trial"",""time""
""fullscreenenter"",""1"",""2040""
""fullscreenexit"",""36"",""388861""
""blur"",""36"",""391225""
""focus"",""36"",""396868""
","""event"",""trial"",""time""
""blur"",""36"",""391225""
","""event"",""trial"",""time""
""focus"",""36"",""396868""
","""event"",""trial"",""time""
""fullscreenenter"",""1"",""2040""
","""event"",""trial"",""time""
""fullscreenexit"",""36"",""388861""
","","","659.0999999940395","","","18","16593","6380","&#9789;","elianto","#f73b6a7A"," "," ","1","-10","[1510]","1","0","4","","","","","","","",""
"pit-trial","90","710709","0.0-2.0-17.1-4.1","battery-v0.2","","""event"",""trial"",""time""
""fullscreenenter"",""1"",""2040""
""fullscreenexit"",""36"",""388861""
""blur"",""36"",""391225""
""focus"",""36"",""396868""
","""event"",""trial"",""time""
""blur"",""36"",""391225""
","""event"",""trial"",""time""
""focus"",""36"",""396868""
","""event"",""trial"",""time""
""fullscreenenter"",""1"",""2040""
","""event"",""trial"",""time""
""fullscreenexit"",""36"",""388861""
","","","512.7999999821186","","","18","16593","6380","&#9789;","elianto","#f73b6a7A"," "," ","1","0","[1363.9000000059605]","1","0","4","","","","","","","",""
"pit-trial","91","714089","0.0-2.0-17.2-0.2","battery-v0.2","","""event"",""trial"",""time""
""fullscreenenter"",""1"",""2040""
""fullscreenexit"",""36"",""388861""
""blur"",""36"",""391225""
""focus"",""36"",""396868""
","""event"",""trial"",""time""
""blur"",""36"",""391225""
","""event"",""trial"",""time""
""focus"",""36"",""396868""
","""event"",""trial"",""time""
""fullscreenenter"",""1"",""2040""
","""event"",""trial"",""time""
""fullscreenexit"",""36"",""388861""
","","","522.5","","","18","16593","6380","&#9789;","elianto","#f73b6a7A"," "," ","1","0","[1374.4000000059605]","1","0","4","","","","","","","",""
"pit-trial","92","717585","0.0-2.0-17.2-1.2","battery-v0.2","","""event"",""trial"",""time""
""fullscreenenter"",""1"",""2040""
""fullscreenexit"",""36"",""388861""
""blur"",""36"",""391225""
""focus"",""36"",""396868""
","""event"",""trial"",""time""
""blur"",""36"",""391225""
","""event"",""trial"",""time""
""focus"",""36"",""396868""
","""event"",""trial"",""time""
""fullscreenenter"",""1"",""2040""
","""event"",""trial"",""time""
""fullscreenexit"",""36"",""388861""
","","","639.9000000059605","","","18","16593","6380","&#9789;","elianto","#f73b6a7A"," "," ","1","0","[1491.9000000059605]","1","0","4","","","","","","","",""
"pit-trial","93","721057","0.0-2.0-17.2-2.2","battery-v0.2","","""event"",""trial"",""time""
""fullscreenenter"",""1"",""2040""
""fullscreenexit"",""36"",""388861""
""blur"",""36"",""391225""
""focus"",""36"",""396868""
","""event"",""trial"",""time""
""blur"",""36"",""391225""
","""event"",""trial"",""time""
""focus"",""36"",""396868""
","""event"",""trial"",""time""
""fullscreenenter"",""1"",""2040""
","""event"",""trial"",""time""
""fullscreenexit"",""36"",""388861""
","","","616.4000000059605","","","18","16593","6380","&#9789;","elianto","#f73b6a7A"," "," ","1","0","[1467.6000000238419]","1","0","4","","","","","","","",""
"pit-trial","94","724448","0.0-2.0-17.2-3.2","battery-v0.2","","""event"",""trial"",""time""
""fullscreenenter"",""1"",""2040""
""fullscreenexit"",""36"",""388861""
""blur"",""36"",""391225""
""focus"",""36"",""396868""
","""event"",""trial"",""time""
""blur"",""36"",""391225""
","""event"",""trial"",""time""
""focus"",""36"",""396868""
","""event"",""trial"",""time""
""fullscreenenter"",""1"",""2040""
","""event"",""trial"",""time""
""fullscreenexit"",""36"",""388861""
","","","536.2999999821186","","","18","16593","6380","&#9789;","elianto","#f73b6a7A"," "," ","1","-10","[1387.4000000059605]","1","0","4","","","","","","","",""
"pit-trial","95","727809","0.0-2.0-17.2-4.2","battery-v0.2","","""event"",""trial"",""time""
""fullscreenenter"",""1"",""2040""
""fullscreenexit"",""36"",""388861""
""blur"",""36"",""391225""
""focus"",""36"",""396868""
","""event"",""trial"",""time""
""blur"",""36"",""391225""
","""event"",""trial"",""time""
""focus"",""36"",""396868""
","""event"",""trial"",""time""
""fullscreenenter"",""1"",""2040""
","""event"",""trial"",""time""
""fullscreenexit"",""36"",""388861""
","","","507","","","18","16593","6380","&#9789;","elianto","#f73b6a7A"," "," ","1","0","[1357.800000011921]","1","0","4","","","","","","","",""
"pit-trial","96","731380","0.0-2.0-17.3-0.3","battery-v0.2","","""event"",""trial"",""time""
""fullscreenenter"",""1"",""2040""
""fullscreenexit"",""36"",""388861""
""blur"",""36"",""391225""
""focus"",""36"",""396868""
","""event"",""trial"",""time""
""blur"",""36"",""391225""
","""event"",""trial"",""time""
""focus"",""36"",""396868""
","""event"",""trial"",""time""
""fullscreenenter"",""1"",""2040""
","""event"",""trial"",""time""
""fullscreenexit"",""36"",""388861""
","","","713.7999999821186","","","18","16593","6380","&#9789;","elianto","#f73b6a7A"," "," ","1","0","[1565.5999999940395]","1","0","4","","","","","","","",""
"pit-trial","97","734717","0.0-2.0-17.3-1.3","battery-v0.2","","""event"",""trial"",""time""
""fullscreenenter"",""1"",""2040""
""fullscreenexit"",""36"",""388861""
""blur"",""36"",""391225""
""focus"",""36"",""396868""
","""event"",""trial"",""time""
""blur"",""36"",""391225""
","""event"",""trial"",""time""
""focus"",""36"",""396868""
","""event"",""trial"",""time""
""fullscreenenter"",""1"",""2040""
","""event"",""trial"",""time""
""fullscreenexit"",""36"",""388861""
","","","482.19999998807907","","","18","16593","6380","&#9789;","elianto","#f73b6a7A"," "," ","1","0","[1332.7000000178814]","1","0","4","","","","","","","",""
"pit-trial","98","738148","0.0-2.0-17.3-2.3","battery-v0.2","","""event"",""trial"",""time""
""fullscreenenter"",""1"",""2040""
""fullscreenexit"",""36"",""388861""
""blur"",""36"",""391225""
""focus"",""36"",""396868""
","""event"",""trial"",""time""
""blur"",""36"",""391225""
","""event"",""trial"",""time""
""focus"",""36"",""396868""
","""event"",""trial"",""time""
""fullscreenenter"",""1"",""2040""
","""event"",""trial"",""time""
""fullscreenexit"",""36"",""388861""
","","","575.5","","","18","16593","6380","&#9789;","elianto","#f73b6a7A"," "," ","1","0","[1427]","1","0","4","","","","","","","",""
"pit-trial","99","741490","0.0-2.0-17.3-3.3","battery-v0.2","","""event"",""trial"",""time""
""fullscreenenter"",""1"",""2040""
""fullscreenexit"",""36"",""388861""
""blur"",""36"",""391225""
""focus"",""36"",""396868""
","""event"",""trial"",""time""
""blur"",""36"",""391225""
","""event"",""trial"",""time""
""focus"",""36"",""396868""
","""event"",""trial"",""time""
""fullscreenenter"",""1"",""2040""
","""event"",""trial"",""time""
""fullscreenexit"",""36"",""388861""
","","","487.69999998807907","","","18","16593","6380","&#9789;","elianto","#f73b6a7A"," "," ","1","-10","[1339.199999988079]","1","0","4","","","","","","","",""
"pit-trial","100","745014","0.0-2.0-17.3-4.3","battery-v0.2","","""event"",""trial"",""time""
""fullscreenenter"",""1"",""2040""
""fullscreenexit"",""36"",""388861""
""blur"",""36"",""391225""
""focus"",""36"",""396868""
","""event"",""trial"",""time""
""blur"",""36"",""391225""
","""event"",""trial"",""time""
""focus"",""36"",""396868""
","""event"",""trial"",""time""
""fullscreenenter"",""1"",""2040""
","""event"",""trial"",""time""
""fullscreenexit"",""36"",""388861""
","","","670.7999999821186","","","18","16593","6380","&#9789;","elianto","#f73b6a7A"," "," ","1","0","[1521.0999999940395]","1","0","4","","","","","","","",""
"call-function","101","745017","0.0-2.0-18.0","battery-v0.2","","""event"",""trial"",""time""
""fullscreenenter"",""1"",""2040""
""fullscreenexit"",""36"",""388861""
""blur"",""36"",""391225""
""focus"",""36"",""396868""
","""event"",""trial"",""time""
""blur"",""36"",""391225""
","""event"",""trial"",""time""
""focus"",""36"",""396868""
","""event"",""trial"",""time""
""fullscreenenter"",""1"",""2040""
","""event"",""trial"",""time""
""fullscreenexit"",""36"",""388861""
","","","","","","","","","","","","","","","","","","","","","","","","","","",""
"pit-instructions","102","819612","0.0-2.0-19.0","battery-v0.2","","""event"",""trial"",""time""
""fullscreenenter"",""1"",""2040""
""fullscreenexit"",""36"",""388861""
""blur"",""36"",""391225""
""focus"",""36"",""396868""
","""event"",""trial"",""time""
""blur"",""36"",""391225""
","""event"",""trial"",""time""
""focus"",""36"",""396868""
","""event"",""trial"",""time""
""fullscreenenter"",""1"",""2040""
","""event"",""trial"",""time""
""fullscreenexit"",""36"",""388861""
","","[{""page_index"":0,""viewing_time"":6520.700000017881},{""page_index"":1,""viewing_time"":6264.199999988079},{""page_index"":2,""viewing_time"":14631.300000011921},{""page_index"":3,""viewing_time"":8867},{""page_index"":4,""viewing_time"":9580.09999999404},{""page_index"":5,""viewing_time"":9470.299999982119},{""page_index"":6,""viewing_time"":8537.100000023842},{""page_index"":7,""viewing_time"":6398.799999982119},{""page_index"":8,""viewing_time"":4329}]","74599.09999999404","","","","","","","","","","","","","","","","","","","","","","","",""
"pit-comprehension","103","824164","0.0-2.0-20.0-0.0","battery-v0.2","","""event"",""trial"",""time""
""fullscreenenter"",""1"",""2040""
""fullscreenexit"",""36"",""388861""
""blur"",""36"",""391225""
""focus"",""36"",""396868""
","""event"",""trial"",""time""
""blur"",""36"",""391225""
","""event"",""trial"",""time""
""focus"",""36"",""396868""
","""event"",""trial"",""time""
""fullscreenenter"",""1"",""2040""
","""event"",""trial"",""time""
""fullscreenexit"",""36"",""388861""
","","","4546.700000017881","[""SPACE""]","0","18","16593","6380","","","","","","","","","","","","","","","","","","",""
"pit-instructions","104","830389","0.0-2.0-20.0-1.0","battery-v0.2","","""event"",""trial"",""time""
""fullscreenenter"",""1"",""2040""
""fullscreenexit"",""36"",""388861""
""blur"",""36"",""391225""
""focus"",""36"",""396868""
","""event"",""trial"",""time""
""blur"",""36"",""391225""
","""event"",""trial"",""time""
""focus"",""36"",""396868""
","""event"",""trial"",""time""
""fullscreenenter"",""1"",""2040""
","""event"",""trial"",""time""
""fullscreenexit"",""36"",""388861""
","","[{""page_index"":0,""viewing_time"":6185.699999988079}]","6186.199999988079","","","","","","","","","","","","","","","","","","","","","","","",""
"pit-comprehension","105","835468","0.0-2.0-21.0-0.0","battery-v0.2","","""event"",""trial"",""time""
""fullscreenenter"",""1"",""2040""
""fullscreenexit"",""36"",""388861""
""blur"",""36"",""391225""
""focus"",""36"",""396868""
","""event"",""trial"",""time""
""blur"",""36"",""391225""
","""event"",""trial"",""time""
""focus"",""36"",""396868""
","""event"",""trial"",""time""
""fullscreenenter"",""1"",""2040""
","""event"",""trial"",""time""
""fullscreenexit"",""36"",""388861""
","","","5074.0999999940395","[""10""]","0","18","16593","6380","","","","","","","","","","","","","","","","","","",""
"pit-instructions","106","839576","0.0-2.0-21.0-1.0","battery-v0.2","","""event"",""trial"",""time""
""fullscreenenter"",""1"",""2040""
""fullscreenexit"",""36"",""388861""
""blur"",""36"",""391225""
""focus"",""36"",""396868""
","""event"",""trial"",""time""
""blur"",""36"",""391225""
","""event"",""trial"",""time""
""focus"",""36"",""396868""
","""event"",""trial"",""time""
""fullscreenenter"",""1"",""2040""
","""event"",""trial"",""time""
""fullscreenexit"",""36"",""388861""
","","[{""page_index"":0,""viewing_time"":4062.300000011921}]","4062.9000000059605","","","","","","","","","","","","","","","","","","","","","","","",""
"pit-comprehension","107","846211","0.0-2.0-22.0-0.0","battery-v0.2","","""event"",""trial"",""time""
""fullscreenenter"",""1"",""2040""
""fullscreenexit"",""36"",""388861""
""blur"",""36"",""391225""
""focus"",""36"",""396868""
","""event"",""trial"",""time""
""blur"",""36"",""391225""
","""event"",""trial"",""time""
""focus"",""36"",""396868""
","""event"",""trial"",""time""
""fullscreenenter"",""1"",""2040""
","""event"",""trial"",""time""
""fullscreenexit"",""36"",""388861""
","","","6629.9000000059605","[""0""]","0","18","16593","6380","","","","","","","","","","","","","","","","","","",""
"pit-instructions","108","848207","0.0-2.0-22.0-1.0","battery-v0.2","","""event"",""trial"",""time""
""fullscreenenter"",""1"",""2040""
""fullscreenexit"",""36"",""388861""
""blur"",""36"",""391225""
""focus"",""36"",""396868""
","""event"",""trial"",""time""
""blur"",""36"",""391225""
","""event"",""trial"",""time""
""focus"",""36"",""396868""
","""event"",""trial"",""time""
""fullscreenenter"",""1"",""2040""
","""event"",""trial"",""time""
""fullscreenexit"",""36"",""388861""
","","[{""page_index"":0,""viewing_time"":1955.300000011921}]","1955.800000011921","","","","","","","","","","","","","","","","","","","","","","","",""
"pit-comprehension","109","857507","0.0-2.0-23.0-0.0","battery-v0.2","","""event"",""trial"",""time""
""fullscreenenter"",""1"",""2040""
""fullscreenexit"",""36"",""388861""
""blur"",""36"",""391225""
""focus"",""36"",""396868""
","""event"",""trial"",""time""
""blur"",""36"",""391225""
","""event"",""trial"",""time""
""focus"",""36"",""396868""
","""event"",""trial"",""time""
""fullscreenenter"",""1"",""2040""
","""event"",""trial"",""time""
""fullscreenexit"",""36"",""388861""
","","","9296.90000000596","[""True""]","0","18","16593","6380","","","","","","","","","","","","","","","","","","",""
"pit-instructions","110","860083","0.0-2.0-23.0-1.0","battery-v0.2","","""event"",""trial"",""time""
""fullscreenenter"",""1"",""2040""
""fullscreenexit"",""36"",""388861""
""blur"",""36"",""391225""
""focus"",""36"",""396868""
","""event"",""trial"",""time""
""blur"",""36"",""391225""
","""event"",""trial"",""time""
""focus"",""36"",""396868""
","""event"",""trial"",""time""
""fullscreenenter"",""1"",""2040""
","""event"",""trial"",""time""
""fullscreenexit"",""36"",""388861""
","","[{""page_index"":0,""viewing_time"":2530.199999988079}]","2531.0999999940395","","","","","","","","","","","","","","","","","","","","","","","",""
"pit-comprehension","111","870460","0.0-2.0-24.0-0.0","battery-v0.2","","""event"",""trial"",""time""
""fullscreenenter"",""1"",""2040""
""fullscreenexit"",""36"",""388861""
""blur"",""36"",""391225""
""focus"",""36"",""396868""
","""event"",""trial"",""time""
""blur"",""36"",""391225""
","""event"",""trial"",""time""
""focus"",""36"",""396868""
","""event"",""trial"",""time""
""fullscreenenter"",""1"",""2040""
","""event"",""trial"",""time""
""fullscreenexit"",""36"",""388861""
","","","10352.299999982119","[""True""]","0","18","16593","6380","","","","","","","","","","","","","","","","","","",""
"pit-instructions","112","874078","0.0-2.0-24.0-1.0","battery-v0.2","","""event"",""trial"",""time""
""fullscreenenter"",""1"",""2040""
""fullscreenexit"",""36"",""388861""
""blur"",""36"",""391225""
""focus"",""36"",""396868""
","""event"",""trial"",""time""
""blur"",""36"",""391225""
","""event"",""trial"",""time""
""focus"",""36"",""396868""
","""event"",""trial"",""time""
""fullscreenenter"",""1"",""2040""
","""event"",""trial"",""time""
""fullscreenexit"",""36"",""388861""
","","[{""page_index"":0,""viewing_time"":3569.4000000059605}]","3569.9000000059605","","","","","","","","","","","","","","","","","","","","","","","",""
"pit-comprehension","113","880630","0.0-2.0-25.0-0.0","battery-v0.2","","""event"",""trial"",""time""
""fullscreenenter"",""1"",""2040""
""fullscreenexit"",""36"",""388861""
""blur"",""36"",""391225""
""focus"",""36"",""396868""
","""event"",""trial"",""time""
""blur"",""36"",""391225""
","""event"",""trial"",""time""
""focus"",""36"",""396868""
","""event"",""trial"",""time""
""fullscreenenter"",""1"",""2040""
","""event"",""trial"",""time""
""fullscreenexit"",""36"",""388861""
","","","6542","[""True""]","0","18","16593","6380","","","","","","","","","","","","","","","","","","",""
"pit-instructions","114","884773","0.0-2.0-25.0-1.0","battery-v0.2","","""event"",""trial"",""time""
""fullscreenenter"",""1"",""2040""
""fullscreenexit"",""36"",""388861""
""blur"",""36"",""391225""
""focus"",""36"",""396868""
","""event"",""trial"",""time""
""blur"",""36"",""391225""
","""event"",""trial"",""time""
""focus"",""36"",""396868""
","""event"",""trial"",""time""
""fullscreenenter"",""1"",""2040""
","""event"",""trial"",""time""
""fullscreenexit"",""36"",""388861""
","","[{""page_index"":0,""viewing_time"":4095.7000000178814}]","4096.4000000059605","","","","","","","","","","","","","","","","","","","","","","","",""
"pit-comprehension","115","889675","0.0-2.0-26.0-0.0","battery-v0.2","","""event"",""trial"",""time""
""fullscreenenter"",""1"",""2040""
""fullscreenexit"",""36"",""388861""
""blur"",""36"",""391225""
""focus"",""36"",""396868""
","""event"",""trial"",""time""
""blur"",""36"",""391225""
","""event"",""trial"",""time""
""focus"",""36"",""396868""
","""event"",""trial"",""time""
""fullscreenenter"",""1"",""2040""
","""event"",""trial"",""time""
""fullscreenexit"",""36"",""388861""
","","","4896","[""False""]","0","18","16593","6380","","","","","","","","","","","","","","","","","","",""
"pit-instructions","116","894079","0.0-2.0-26.0-1.0","battery-v0.2","","""event"",""trial"",""time""
""fullscreenenter"",""1"",""2040""
""fullscreenexit"",""36"",""388861""
""blur"",""36"",""391225""
""focus"",""36"",""396868""
","""event"",""trial"",""time""
""blur"",""36"",""391225""
","""event"",""trial"",""time""
""focus"",""36"",""396868""
","""event"",""trial"",""time""
""fullscreenenter"",""1"",""2040""
","""event"",""trial"",""time""
""fullscreenexit"",""36"",""388861""
","","[{""page_index"":0,""viewing_time"":4357.699999988079}]","4358.0999999940395","","","","","","","","","","","","","","","","","","","","","","","",""
"pit-instructions","117","911389","0.0-3.0","battery-v0.2","","""event"",""trial"",""time""
""fullscreenenter"",""1"",""2040""
""fullscreenexit"",""36"",""388861""
""blur"",""36"",""391225""
""focus"",""36"",""396868""
","""event"",""trial"",""time""
""blur"",""36"",""391225""
","""event"",""trial"",""time""
""focus"",""36"",""396868""
","""event"",""trial"",""time""
""fullscreenenter"",""1"",""2040""
","""event"",""trial"",""time""
""fullscreenexit"",""36"",""388861""
","","[{""page_index"":0,""viewing_time"":5114.4000000059605},{""page_index"":1,""viewing_time"":5234.300000011921},{""page_index"":2,""viewing_time"":6955.699999988079}]","17305","","","","","","","","","","","","","","","","","","","","","","","",""
"pit-trial","118","916107","0.0-4.0","battery-v0.2","","""event"",""trial"",""time""
""fullscreenenter"",""1"",""2040""
""fullscreenexit"",""36"",""388861""
""blur"",""36"",""391225""
""focus"",""36"",""396868""
","""event"",""trial"",""time""
""blur"",""36"",""391225""
","""event"",""trial"",""time""
""focus"",""36"",""396868""
","""event"",""trial"",""time""
""fullscreenenter"",""1"",""2040""
","""event"",""trial"",""time""
""fullscreenexit"",""36"",""388861""
","","","1859.199999988079","","","18","16593","6380","&#9730;","elianto","#3366ff99"," "," ","1","+10","[2710.2999999821186]","1","1","","","16593","1","1","1","win","go","0"
"pit-trial","119","919903","0.0-5.0","battery-v0.2","","""event"",""trial"",""time""
""fullscreenenter"",""1"",""2040""
""fullscreenexit"",""36"",""388861""
""blur"",""36"",""391225""
""focus"",""36"",""396868""
","""event"",""trial"",""time""
""blur"",""36"",""391225""
","""event"",""trial"",""time""
""focus"",""36"",""396868""
","""event"",""trial"",""time""
""fullscreenenter"",""1"",""2040""
","""event"",""trial"",""time""
""fullscreenexit"",""36"",""388861""
","","","940.0999999940395","","","18","16593","6380","&#9728;","elianto","#f73b6a7A","-1"," ","0","-10","[1790.699999988079]","1","1","","","16593","2","0","4","lose","no-go","0"
"pit-trial","120","923364","0.0-6.0","battery-v0.2","","""event"",""trial"",""time""
""fullscreenenter"",""1"",""2040""
""fullscreenexit"",""36"",""388861""
""blur"",""36"",""391225""
""focus"",""36"",""396868""
","""event"",""trial"",""time""
""blur"",""36"",""391225""
","""event"",""trial"",""time""
""focus"",""36"",""396868""
","""event"",""trial"",""time""
""fullscreenenter"",""1"",""2040""
","""event"",""trial"",""time""
""fullscreenexit"",""36"",""388861""
","","","607.1999999880791","","","18","16593","6380","&#9752;","elianto","#f73b6a7A"," "," ","1","0","[1457.2000000178814]","1","1","","","16593","3","3","3","lose","go","0"
"pit-trial","121","927148","0.0-7.0","battery-v0.2","","""event"",""trial"",""time""
""fullscreenenter"",""1"",""2040""
""fullscreenexit"",""36"",""388861""
""blur"",""36"",""391225""
""focus"",""36"",""396868""
","""event"",""trial"",""time""
""blur"",""36"",""391225""
","""event"",""trial"",""time""
""focus"",""36"",""396868""
","""event"",""trial"",""time""
""fullscreenenter"",""1"",""2040""
","""event"",""trial"",""time""
""fullscreenexit"",""36"",""388861""
","","","929","","","18","16593","6380","&#9733;","elianto","#3366ff99","-1"," ","0","+10","[1780]","1","1","","","16593","4","2","2","win","no-go","1"
"pit-trial","122","931125","0.0-8.0","battery-v0.2","","""event"",""trial"",""time""
""fullscreenenter"",""1"",""2040""
""fullscreenexit"",""36"",""388861""
""blur"",""36"",""391225""
""focus"",""36"",""396868""
","""event"",""trial"",""time""
""blur"",""36"",""391225""
","""event"",""trial"",""time""
""focus"",""36"",""396868""
","""event"",""trial"",""time""
""fullscreenenter"",""1"",""2040""
","""event"",""trial"",""time""
""fullscreenexit"",""36"",""388861""
","","","1121.199999988079","","","18","16593","6380","&#9730;","elianto","#3366ff99"," "," ","1","+10","[1971.699999988079]","1","1","","","16593","5","1","1","win","go","0"
"pit-trial","123","935981","0.0-9.0","battery-v0.2","","""event"",""trial"",""time""
""fullscreenenter"",""1"",""2040""
""fullscreenexit"",""36"",""388861""
""blur"",""36"",""391225""
""focus"",""36"",""396868""
","""event"",""trial"",""time""
""blur"",""36"",""391225""
","""event"",""trial"",""time""
""focus"",""36"",""396868""
","""event"",""trial"",""time""
""fullscreenenter"",""1"",""2040""
","""event"",""trial"",""time""
""fullscreenexit"",""36"",""388861""
","","","-1","","","18","16593","6380","&#9733;","elianto","#3366ff99","-1","-1","1","+10","[]","0","1","","","16593","6","2","2","win","no-go","0"
"pit-trial","124","939464","0.0-10.0","battery-v0.2","","""event"",""trial"",""time""
""fullscreenenter"",""1"",""2040""
""fullscreenexit"",""36"",""388861""
""blur"",""36"",""391225""
""focus"",""36"",""396868""
","""event"",""trial"",""time""
""blur"",""36"",""391225""
","""event"",""trial"",""time""
""focus"",""36"",""396868""
","""event"",""trial"",""time""
""fullscreenenter"",""1"",""2040""
","""event"",""trial"",""time""
""fullscreenexit"",""36"",""388861""
","","","627.4000000059605","","","18","16593","6380","&#9728;","elianto","#f73b6a7A","-1"," ","0","-10","[1478.4000000059605]","1","1","","","16593","7","0","4","lose","no-go","0"
"pit-trial","125","944321","0.0-11.0","battery-v0.2","","""event"",""trial"",""time""
""fullscreenenter"",""1"",""2040""
""fullscreenexit"",""36"",""388861""
""blur"",""36"",""391225""
""focus"",""36"",""396868""
","""event"",""trial"",""time""
""blur"",""36"",""391225""
","""event"",""trial"",""time""
""focus"",""36"",""396868""
","""event"",""trial"",""time""
""fullscreenenter"",""1"",""2040""
","""event"",""trial"",""time""
""fullscreenexit"",""36"",""388861""
","","","-1","","","18","16593","6380","&#9752;","elianto","#f73b6a7A"," ","-1","0","-10","[]","0","1","","","16593","8","3","3","lose","go","0"
"pit-trial","126","948015","0.0-12.0","battery-v0.2","","""event"",""trial"",""time""
""fullscreenenter"",""1"",""2040""
""fullscreenexit"",""36"",""388861""
""blur"",""36"",""391225""
""focus"",""36"",""396868""
","""event"",""trial"",""time""
""blur"",""36"",""391225""
","""event"",""trial"",""time""
""focus"",""36"",""396868""
","""event"",""trial"",""time""
""fullscreenenter"",""1"",""2040""
","""event"",""trial"",""time""
""fullscreenexit"",""36"",""388861""
","","","839.8999999761581","","","18","16593","6380","&#9730;","elianto","#3366ff99"," "," ","1","+10","[1690.0999999940395]","1","1","","","16593","9","1","1","win","go","0"
"pit-trial","127","952871","0.0-13.0","battery-v0.2","","""event"",""trial"",""time""
""fullscreenenter"",""1"",""2040""
""fullscreenexit"",""36"",""388861""
""blur"",""36"",""391225""
""focus"",""36"",""396868""
","""event"",""trial"",""time""
""blur"",""36"",""391225""
","""event"",""trial"",""time""
""focus"",""36"",""396868""
","""event"",""trial"",""time""
""fullscreenenter"",""1"",""2040""
","""event"",""trial"",""time""
""fullscreenexit"",""36"",""388861""
","","","-1","","","18","16593","6380","&#9733;","elianto","#3366ff99","-1","-1","1","+10","[]","0","1","","","16593","10","2","2","win","no-go","0"
"pit-trial","128","957728","0.0-14.0","battery-v0.2","","""event"",""trial"",""time""
""fullscreenenter"",""1"",""2040""
""fullscreenexit"",""36"",""388861""
""blur"",""36"",""391225""
""focus"",""36"",""396868""
","""event"",""trial"",""time""
""blur"",""36"",""391225""
","""event"",""trial"",""time""
""focus"",""36"",""396868""
","""event"",""trial"",""time""
""fullscreenenter"",""1"",""2040""
","""event"",""trial"",""time""
""fullscreenexit"",""36"",""388861""
","","","-1","","","18","16593","6380","&#9752;","elianto","#f73b6a7A"," ","-1","0","-10","[]","0","1","","","16593","11","3","3","lose","go","0"
"pit-trial","129","962583","0.0-15.0","battery-v0.2","","""event"",""trial"",""time""
""fullscreenenter"",""1"",""2040""
""fullscreenexit"",""36"",""388861""
""blur"",""36"",""391225""
""focus"",""36"",""396868""
","""event"",""trial"",""time""
""blur"",""36"",""391225""
","""event"",""trial"",""time""
""focus"",""36"",""396868""
","""event"",""trial"",""time""
""fullscreenenter"",""1"",""2040""
","""event"",""trial"",""time""
""fullscreenexit"",""36"",""388861""
","","","-1","","","18","16593","6380","&#9728;","elianto","#f73b6a7A","-1","-1","1","-10","[]","0","1","","","16593","12","0","4","lose","no-go","1"
"pit-trial","130","967439","0.0-16.0","battery-v0.2","","""event"",""trial"",""time""
""fullscreenenter"",""1"",""2040""
""fullscreenexit"",""36"",""388861""
""blur"",""36"",""391225""
""focus"",""36"",""396868""
","""event"",""trial"",""time""
""blur"",""36"",""391225""
","""event"",""trial"",""time""
""focus"",""36"",""396868""
","""event"",""trial"",""time""
""fullscreenenter"",""1"",""2040""
","""event"",""trial"",""time""
""fullscreenexit"",""36"",""388861""
","","","-1","","","18","16593","6380","&#9728;","elianto","#f73b6a7A","-1","-1","1","0","[]","0","1","","","16593","13","0","4","lose","no-go","0"
"pit-trial","131","972295","0.0-17.0","battery-v0.2","","""event"",""trial"",""time""
""fullscreenenter"",""1"",""2040""
""fullscreenexit"",""36"",""388861""
""blur"",""36"",""391225""
""focus"",""36"",""396868""
","""event"",""trial"",""time""
""blur"",""36"",""391225""
","""event"",""trial"",""time""
""focus"",""36"",""396868""
","""event"",""trial"",""time""
""fullscreenenter"",""1"",""2040""
","""event"",""trial"",""time""
""fullscreenexit"",""36"",""388861""
","","","-1","","","18","16593","6380","&#9752;","elianto","#f73b6a7A"," ","-1","0","-10","[]","0","1","","","16593","14","3","3","lose","go","0"
"pit-trial","132","977153","0.0-18.0","battery-v0.2","","""event"",""trial"",""time""
""fullscreenenter"",""1"",""2040""
""fullscreenexit"",""36"",""388861""
""blur"",""36"",""391225""
""focus"",""36"",""396868""
","""event"",""trial"",""time""
""blur"",""36"",""391225""
","""event"",""trial"",""time""
""focus"",""36"",""396868""
","""event"",""trial"",""time""
""fullscreenenter"",""1"",""2040""
","""event"",""trial"",""time""
""fullscreenexit"",""36"",""388861""
","","","-1","","","18","16593","6380","&#9733;","elianto","#3366ff99","-1","-1","1","0","[]","0","1","","","16593","15","2","2","win","no-go","1"
"pit-trial","133","982009","0.0-19.0","battery-v0.2","","""event"",""trial"",""time""
""fullscreenenter"",""1"",""2040""
""fullscreenexit"",""36"",""388861""
""blur"",""36"",""391225""
""focus"",""36"",""396868""
","""event"",""trial"",""time""
""blur"",""36"",""391225""
","""event"",""trial"",""time""
""focus"",""36"",""396868""
","""event"",""trial"",""time""
""fullscreenenter"",""1"",""2040""
","""event"",""trial"",""time""
""fullscreenexit"",""36"",""388861""
","","","-1","","","18","16593","6380","&#9730;","elianto","#3366ff99"," ","-1","0","0","[]","0","1","","","16593","16","1","1","win","go","0"
"pit-trial","134","986864","0.0-20.0","battery-v0.2","","""event"",""trial"",""time""
""fullscreenenter"",""1"",""2040""
""fullscreenexit"",""36"",""388861""
""blur"",""36"",""391225""
""focus"",""36"",""396868""
","""event"",""trial"",""time""
""blur"",""36"",""391225""
","""event"",""trial"",""time""
""focus"",""36"",""396868""
","""event"",""trial"",""time""
""fullscreenenter"",""1"",""2040""
","""event"",""trial"",""time""
""fullscreenexit"",""36"",""388861""
","","","-1","","","18","16593","6380","&#9752;","elianto","#f73b6a7A"," ","-1","0","-10","[]","0","1","","","16593","17","3","3","lose","go","0"
"pit-trial","135","991723","0.0-21.0","battery-v0.2","","""event"",""trial"",""time""
""fullscreenenter"",""1"",""2040""
""fullscreenexit"",""36"",""388861""
""blur"",""36"",""391225""
""focus"",""36"",""396868""
","""event"",""trial"",""time""
""blur"",""36"",""391225""
","""event"",""trial"",""time""
""focus"",""36"",""396868""
","""event"",""trial"",""time""
""fullscreenenter"",""1"",""2040""
","""event"",""trial"",""time""
""fullscreenexit"",""36"",""388861""
","","","-1","","","18","16593","6380","&#9730;","elianto","#3366ff99"," ","-1","0","0","[]","0","1","","","16593","18","1","1","win","go","0"
"pit-trial","136","996578","0.0-22.0","battery-v0.2","","""event"",""trial"",""time""
""fullscreenenter"",""1"",""2040""
""fullscreenexit"",""36"",""388861""
""blur"",""36"",""391225""
""focus"",""36"",""396868""
","""event"",""trial"",""time""
""blur"",""36"",""391225""
","""event"",""trial"",""time""
""focus"",""36"",""396868""
","""event"",""trial"",""time""
""fullscreenenter"",""1"",""2040""
","""event"",""trial"",""time""
""fullscreenexit"",""36"",""388861""
","","","-1","","","18","16593","6380","&#9728;","elianto","#f73b6a7A","-1","-1","1","-10","[]","0","1","","","16593","19","0","4","lose","no-go","1"
"pit-trial","137","1001436","0.0-23.0","battery-v0.2","","""event"",""trial"",""time""
""fullscreenenter"",""1"",""2040""
""fullscreenexit"",""36"",""388861""
""blur"",""36"",""391225""
""focus"",""36"",""396868""
","""event"",""trial"",""time""
""blur"",""36"",""391225""
","""event"",""trial"",""time""
""focus"",""36"",""396868""
","""event"",""trial"",""time""
""fullscreenenter"",""1"",""2040""
","""event"",""trial"",""time""
""fullscreenexit"",""36"",""388861""
","","","-1","","","18","16593","6380","&#9733;","elianto","#3366ff99","-1","-1","1","0","[]","0","1","","","16593","20","2","2","win","no-go","1"
"pit-instructions","138","1025021","0.0-24.0","battery-v0.2","","""event"",""trial"",""time""
""fullscreenenter"",""1"",""2040""
""fullscreenexit"",""36"",""388861""
""blur"",""36"",""391225""
""focus"",""36"",""396868""
","""event"",""trial"",""time""
""blur"",""36"",""391225""
","""event"",""trial"",""time""
""focus"",""36"",""396868""
","""event"",""trial"",""time""
""fullscreenenter"",""1"",""2040""
","""event"",""trial"",""time""
""fullscreenexit"",""36"",""388861""
","","[{""page_index"":0,""viewing_time"":16005.699999988079},{""page_index"":1,""viewing_time"":7576.9000000059605}]","23583.19999998808","","","","","","","","","","","","","","","","","","","","","","","",""
"pit-trial","139","1029878","0.0-25.0","battery-v0.2","","""event"",""trial"",""time""
""fullscreenenter"",""1"",""2040""
""fullscreenexit"",""36"",""388861""
""blur"",""36"",""391225""
""focus"",""36"",""396868""
","""event"",""trial"",""time""
""blur"",""36"",""391225""
","""event"",""trial"",""time""
""focus"",""36"",""396868""
","""event"",""trial"",""time""
""fullscreenenter"",""1"",""2040""
","""event"",""trial"",""time""
""fullscreenexit"",""36"",""388861""
","","","-1","","","18","16593","6380","n","elianto","#f73b6a7A","-1","-1","1","-10","[]","0","2","","","16593","21","0","4","lose","no-go","1"
"pit-trial","140","1034732","0.0-26.0","battery-v0.2","","""event"",""trial"",""time""
""fullscreenenter"",""1"",""2040""
""fullscreenexit"",""36"",""388861""
""blur"",""36"",""391225""
""focus"",""36"",""396868""
","""event"",""trial"",""time""
""blur"",""36"",""391225""
","""event"",""trial"",""time""
""focus"",""36"",""396868""
","""event"",""trial"",""time""
""fullscreenenter"",""1"",""2040""
","""event"",""trial"",""time""
""fullscreenexit"",""36"",""388861""
","","","-1","","","18","16593","6380","b","elianto","#f73b6a7A"," ","-1","0","-10","[]","0","2","","","16593","22","3","3","lose","go","0"
"pit-trial","141","1039588","0.0-27.0","battery-v0.2","","""event"",""trial"",""time""
""fullscreenenter"",""1"",""2040""
""fullscreenexit"",""36"",""388861""
""blur"",""36"",""391225""
""focus"",""36"",""396868""
","""event"",""trial"",""time""
""blur"",""36"",""391225""
","""event"",""trial"",""time""
""focus"",""36"",""396868""
","""event"",""trial"",""time""
""fullscreenenter"",""1"",""2040""
","""event"",""trial"",""time""
""fullscreenexit"",""36"",""388861""
","","","-1","","","18","16593","6380","t","elianto","#f73b6a7A","-1","-1","1","0","[]","0","2","","","16593","23","2","4","lose","no-go","0"
"pit-trial","142","1044443","0.0-28.0","battery-v0.2","","""event"",""trial"",""time""
""fullscreenenter"",""1"",""2040""
""fullscreenexit"",""36"",""388861""
""blur"",""36"",""391225""
""focus"",""36"",""396868""
","""event"",""trial"",""time""
""blur"",""36"",""391225""
","""event"",""trial"",""time""
""focus"",""36"",""396868""
","""event"",""trial"",""time""
""fullscreenenter"",""1"",""2040""
","""event"",""trial"",""time""
""fullscreenexit"",""36"",""388861""
","","","-1","","","18","16593","6380","f","elianto","#3366ff99"," ","-1","0","0","[]","0","2","","","16593","24","1","1","win","go","0"
"pit-trial","143","1049299","0.0-29.0","battery-v0.2","","""event"",""trial"",""time""
""fullscreenenter"",""1"",""2040""
""fullscreenexit"",""36"",""388861""
""blur"",""36"",""391225""
""focus"",""36"",""396868""
","""event"",""trial"",""time""
""blur"",""36"",""391225""
","""event"",""trial"",""time""
""focus"",""36"",""396868""
","""event"",""trial"",""time""
""fullscreenenter"",""1"",""2040""
","""event"",""trial"",""time""
""fullscreenexit"",""36"",""388861""
","","","-1","","","18","16593","6380","t","elianto","#f73b6a7A","-1","-1","1","0","[]","0","2","","","16593","25","2","4","lose","no-go","0"
"pit-trial","144","1054155","0.0-30.0","battery-v0.2","","""event"",""trial"",""time""
""fullscreenenter"",""1"",""2040""
""fullscreenexit"",""36"",""388861""
""blur"",""36"",""391225""
""focus"",""36"",""396868""
","""event"",""trial"",""time""
""blur"",""36"",""391225""
","""event"",""trial"",""time""
""focus"",""36"",""396868""
","""event"",""trial"",""time""
""fullscreenenter"",""1"",""2040""
","""event"",""trial"",""time""
""fullscreenexit"",""36"",""388861""
","","","-1","","","18","16593","6380","b","elianto","#f73b6a7A"," ","-1","0","-10","[]","0","2","","","16593","26","3","3","lose","go","0"
"pit-trial","145","1059011","0.0-31.0","battery-v0.2","","""event"",""trial"",""time""
""fullscreenenter"",""1"",""2040""
""fullscreenexit"",""36"",""388861""
""blur"",""36"",""391225""
""focus"",""36"",""396868""
","""event"",""trial"",""time""
""blur"",""36"",""391225""
","""event"",""trial"",""time""
""focus"",""36"",""396868""
","""event"",""trial"",""time""
""fullscreenenter"",""1"",""2040""
","""event"",""trial"",""time""
""fullscreenexit"",""36"",""388861""
","","","-1","","","18","16593","6380","n","elianto","#f73b6a7A","-1","-1","1","0","[]","0","2","","","16593","27","0","4","lose","no-go","0"
"pit-trial","146","1063867","0.0-32.0","battery-v0.2","","""event"",""trial"",""time""
""fullscreenenter"",""1"",""2040""
""fullscreenexit"",""36"",""388861""
""blur"",""36"",""391225""
""focus"",""36"",""396868""
","""event"",""trial"",""time""
""blur"",""36"",""391225""
","""event"",""trial"",""time""
""focus"",""36"",""396868""
","""event"",""trial"",""time""
""fullscreenenter"",""1"",""2040""
","""event"",""trial"",""time""
""fullscreenexit"",""36"",""388861""
","","","-1","","","18","16593","6380","f","elianto","#3366ff99"," ","-1","0","0","[]","0","2","","","16593","28","1","1","win","go","0"
"pit-trial","147","1068721","0.0-33.0","battery-v0.2","","""event"",""trial"",""time""
""fullscreenenter"",""1"",""2040""
""fullscreenexit"",""36"",""388861""
""blur"",""36"",""391225""
""focus"",""36"",""396868""
","""event"",""trial"",""time""
""blur"",""36"",""391225""
","""event"",""trial"",""time""
""focus"",""36"",""396868""
","""event"",""trial"",""time""
""fullscreenenter"",""1"",""2040""
","""event"",""trial"",""time""
""fullscreenexit"",""36"",""388861""
","","","-1","","","18","16593","6380","n","elianto","#f73b6a7A","-1","-1","1","0","[]","0","2","","","16593","29","0","4","lose","no-go","0"
"pit-trial","148","1073575","0.0-34.0","battery-v0.2","","""event"",""trial"",""time""
""fullscreenenter"",""1"",""2040""
""fullscreenexit"",""36"",""388861""
""blur"",""36"",""391225""
""focus"",""36"",""396868""
","""event"",""trial"",""time""
""blur"",""36"",""391225""
","""event"",""trial"",""time""
""focus"",""36"",""396868""
","""event"",""trial"",""time""
""fullscreenenter"",""1"",""2040""
","""event"",""trial"",""time""
""fullscreenexit"",""36"",""388861""
","","","-1","","","18","16593","6380","t","elianto","#f73b6a7A","-1","-1","1","0","[]","0","2","","","16593","30","2","4","lose","no-go","0"
"pit-trial","149","1078430","0.0-35.0","battery-v0.2","","""event"",""trial"",""time""
""fullscreenenter"",""1"",""2040""
""fullscreenexit"",""36"",""388861""
""blur"",""36"",""391225""
""focus"",""36"",""396868""
","""event"",""trial"",""time""
""blur"",""36"",""391225""
","""event"",""trial"",""time""
""focus"",""36"",""396868""
","""event"",""trial"",""time""
""fullscreenenter"",""1"",""2040""
","""event"",""trial"",""time""
""fullscreenexit"",""36"",""388861""
","","","-1","","","18","16593","6380","f","elianto","#3366ff99"," ","-1","0","0","[]","0","2","","","16593","31","1","1","win","go","0"
"pit-trial","150","1083285","0.0-36.0","battery-v0.2","","""event"",""trial"",""time""
""fullscreenenter"",""1"",""2040""
""fullscreenexit"",""36"",""388861""
""blur"",""36"",""391225""
""focus"",""36"",""396868""
","""event"",""trial"",""time""
""blur"",""36"",""391225""
","""event"",""trial"",""time""
""focus"",""36"",""396868""
","""event"",""trial"",""time""
""fullscreenenter"",""1"",""2040""
","""event"",""trial"",""time""
""fullscreenexit"",""36"",""388861""
","","","-1","","","18","16593","6380","b","elianto","#f73b6a7A"," ","-1","0","-10","[]","0","2","","","16593","32","3","3","lose","go","0"
"pit-trial","151","1088141","0.0-37.0","battery-v0.2","","""event"",""trial"",""time""
""fullscreenenter"",""1"",""2040""
""fullscreenexit"",""36"",""388861""
""blur"",""36"",""391225""
""focus"",""36"",""396868""
","""event"",""trial"",""time""
""blur"",""36"",""391225""
","""event"",""trial"",""time""
""focus"",""36"",""396868""
","""event"",""trial"",""time""
""fullscreenenter"",""1"",""2040""
","""event"",""trial"",""time""
""fullscreenexit"",""36"",""388861""
","","","-1","","","18","16593","6380","b","elianto","#f73b6a7A"," ","-1","0","-10","[]","0","2","","","16593","33","3","3","lose","go","0"
"pit-trial","152","1092996","0.0-38.0","battery-v0.2","","""event"",""trial"",""time""
""fullscreenenter"",""1"",""2040""
""fullscreenexit"",""36"",""388861""
""blur"",""36"",""391225""
""focus"",""36"",""396868""
","""event"",""trial"",""time""
""blur"",""36"",""391225""
","""event"",""trial"",""time""
""focus"",""36"",""396868""
","""event"",""trial"",""time""
""fullscreenenter"",""1"",""2040""
","""event"",""trial"",""time""
""fullscreenexit"",""36"",""388861""
","","","-1","","","18","16593","6380","t","elianto","#f73b6a7A","-1","-1","1","0","[]","0","2","","","16593","34","2","4","lose","no-go","0"
"pit-trial","153","1097852","0.0-39.0","battery-v0.2","","""event"",""trial"",""time""
""fullscreenenter"",""1"",""2040""
""fullscreenexit"",""36"",""388861""
""blur"",""36"",""391225""
""focus"",""36"",""396868""
","""event"",""trial"",""time""
""blur"",""36"",""391225""
","""event"",""trial"",""time""
""focus"",""36"",""396868""
","""event"",""trial"",""time""
""fullscreenenter"",""1"",""2040""
","""event"",""trial"",""time""
""fullscreenexit"",""36"",""388861""
","","","-1","","","18","16593","6380","f","elianto","#3366ff99"," ","-1","0","0","[]","0","2","","","16593","35","1","1","win","go","0"
"pit-trial","154","1102707","0.0-40.0","battery-v0.2","","""event"",""trial"",""time""
""fullscreenenter"",""1"",""2040""
""fullscreenexit"",""36"",""388861""
""blur"",""36"",""391225""
""focus"",""36"",""396868""
","""event"",""trial"",""time""
""blur"",""36"",""391225""
","""event"",""trial"",""time""
""focus"",""36"",""396868""
","""event"",""trial"",""time""
""fullscreenenter"",""1"",""2040""
","""event"",""trial"",""time""
""fullscreenexit"",""36"",""388861""
","","","-1","","","18","16593","6380","n","elianto","#f73b6a7A","-1","-1","1","0","[]","0","2","","","16593","36","0","4","lose","no-go","0"
"pit-trial","155","1107562","0.0-41.0","battery-v0.2","","""event"",""trial"",""time""
""fullscreenenter"",""1"",""2040""
""fullscreenexit"",""36"",""388861""
""blur"",""36"",""391225""
""focus"",""36"",""396868""
","""event"",""trial"",""time""
""blur"",""36"",""391225""
","""event"",""trial"",""time""
""focus"",""36"",""396868""
","""event"",""trial"",""time""
""fullscreenenter"",""1"",""2040""
","""event"",""trial"",""time""
""fullscreenexit"",""36"",""388861""
","","","-1","","","18","16593","6380","n","elianto","#f73b6a7A","-1","-1","1","0","[]","0","2","","","16593","37","0","4","lose","no-go","0"
"pit-trial","156","1112418","0.0-42.0","battery-v0.2","","""event"",""trial"",""time""
""fullscreenenter"",""1"",""2040""
""fullscreenexit"",""36"",""388861""
""blur"",""36"",""391225""
""focus"",""36"",""396868""
","""event"",""trial"",""time""
""blur"",""36"",""391225""
","""event"",""trial"",""time""
""focus"",""36"",""396868""
","""event"",""trial"",""time""
""fullscreenenter"",""1"",""2040""
","""event"",""trial"",""time""
""fullscreenexit"",""36"",""388861""
","","","-1","","","18","16593","6380","t","elianto","#f73b6a7A","-1","-1","1","-10","[]","0","2","","","16593","38","2","4","lose","no-go","1"
"pit-trial","157","1117276","0.0-43.0","battery-v0.2","","""event"",""trial"",""time""
""fullscreenenter"",""1"",""2040""
""fullscreenexit"",""36"",""388861""
""blur"",""36"",""391225""
""focus"",""36"",""396868""
","""event"",""trial"",""time""
""blur"",""36"",""391225""
","""event"",""trial"",""time""
""focus"",""36"",""396868""
","""event"",""trial"",""time""
""fullscreenenter"",""1"",""2040""
","""event"",""trial"",""time""
""fullscreenexit"",""36"",""388861""
","","","-1","","","18","16593","6380","b","elianto","#f73b6a7A"," ","-1","0","-10","[]","0","2","","","16593","39","3","3","lose","go","0"
"pit-trial","158","1122133","0.0-44.0","battery-v0.2","","""event"",""trial"",""time""
""fullscreenenter"",""1"",""2040""
""fullscreenexit"",""36"",""388861""
""blur"",""36"",""391225""
""focus"",""36"",""396868""
","""event"",""trial"",""time""
""blur"",""36"",""391225""
","""event"",""trial"",""time""
""focus"",""36"",""396868""
","""event"",""trial"",""time""
""fullscreenenter"",""1"",""2040""
","""event"",""trial"",""time""
""fullscreenexit"",""36"",""388861""
","","","-1","","","18","16593","6380","f","elianto","#3366ff99"," ","-1","0","0","[]","0","2","","","16593","40","1","1","win","go","0"
"pit-trial","159","1126989","0.0-45.0","battery-v0.2","","""event"",""trial"",""time""
""fullscreenenter"",""1"",""2040""
""fullscreenexit"",""36"",""388861""
""blur"",""36"",""391225""
""focus"",""36"",""396868""
","""event"",""trial"",""time""
""blur"",""36"",""391225""
","""event"",""trial"",""time""
""focus"",""36"",""396868""
","""event"",""trial"",""time""
""fullscreenenter"",""1"",""2040""
","""event"",""trial"",""time""
""fullscreenexit"",""36"",""388861""
","","","-1","","","18","16593","6380","f","elianto","#3366ff99"," ","-1","0","0","[]","0","2","","","16593","41","1","1","win","go","0"
"pit-trial","160","1131844","0.0-46.0","battery-v0.2","","""event"",""trial"",""time""
""fullscreenenter"",""1"",""2040""
""fullscreenexit"",""36"",""388861""
""blur"",""36"",""391225""
""focus"",""36"",""396868""
","""event"",""trial"",""time""
""blur"",""36"",""391225""
","""event"",""trial"",""time""
""focus"",""36"",""396868""
","""event"",""trial"",""time""
""fullscreenenter"",""1"",""2040""
","""event"",""trial"",""time""
""fullscreenexit"",""36"",""388861""
","","","-1","","","18","16593","6380","b","elianto","#f73b6a7A"," ","-1","0","-10","[]","0","2","","","16593","42","3","3","lose","go","0"
"pit-trial","161","1136699","0.0-47.0","battery-v0.2","","""event"",""trial"",""time""
""fullscreenenter"",""1"",""2040""
""fullscreenexit"",""36"",""388861""
""blur"",""36"",""391225""
""focus"",""36"",""396868""
","""event"",""trial"",""time""
""blur"",""36"",""391225""
","""event"",""trial"",""time""
""focus"",""36"",""396868""
","""event"",""trial"",""time""
""fullscreenenter"",""1"",""2040""
","""event"",""trial"",""time""
""fullscreenexit"",""36"",""388861""
","","","-1","","","18","16593","6380","t","elianto","#f73b6a7A","-1","-1","1","0","[]","0","2","","","16593","43","2","4","lose","no-go","0"
"pit-trial","162","1141553","0.0-48.0","battery-v0.2","","""event"",""trial"",""time""
""fullscreenenter"",""1"",""2040""
""fullscreenexit"",""36"",""388861""
""blur"",""36"",""391225""
""focus"",""36"",""396868""
","""event"",""trial"",""time""
""blur"",""36"",""391225""
","""event"",""trial"",""time""
""focus"",""36"",""396868""
","""event"",""trial"",""time""
""fullscreenenter"",""1"",""2040""
","""event"",""trial"",""time""
""fullscreenexit"",""36"",""388861""
","","","-1","","","18","16593","6380","n","elianto","#f73b6a7A","-1","-1","1","0","[]","0","2","","","16593","44","0","4","lose","no-go","0"
"pit-trial","163","1146410","0.0-49.0","battery-v0.2","","""event"",""trial"",""time""
""fullscreenenter"",""1"",""2040""
""fullscreenexit"",""36"",""388861""
""blur"",""36"",""391225""
""focus"",""36"",""396868""
","""event"",""trial"",""time""
""blur"",""36"",""391225""
","""event"",""trial"",""time""
""focus"",""36"",""396868""
","""event"",""trial"",""time""
""fullscreenenter"",""1"",""2040""
","""event"",""trial"",""time""
""fullscreenexit"",""36"",""388861""
","","","-1","","","18","16593","6380","t","elianto","#f73b6a7A","-1","-1","1","-10","[]","0","2","","","16593","45","2","4","lose","no-go","1"
"pit-trial","164","1151265","0.0-50.0","battery-v0.2","","""event"",""trial"",""time""
""fullscreenenter"",""1"",""2040""
""fullscreenexit"",""36"",""388861""
""blur"",""36"",""391225""
""focus"",""36"",""396868""
","""event"",""trial"",""time""
""blur"",""36"",""391225""
","""event"",""trial"",""time""
""focus"",""36"",""396868""
","""event"",""trial"",""time""
""fullscreenenter"",""1"",""2040""
","""event"",""trial"",""time""
""fullscreenexit"",""36"",""388861""
","","","-1","","","18","16593","6380","n","elianto","#f73b6a7A","-1","-1","1","0","[]","0","2","","","16593","46","0","4","lose","no-go","0"
"pit-trial","165","1156120","0.0-51.0","battery-v0.2","","""event"",""trial"",""time""
""fullscreenenter"",""1"",""2040""
""fullscreenexit"",""36"",""388861""
""blur"",""36"",""391225""
""focus"",""36"",""396868""
","""event"",""trial"",""time""
""blur"",""36"",""391225""
","""event"",""trial"",""time""
""focus"",""36"",""396868""
","""event"",""trial"",""time""
""fullscreenenter"",""1"",""2040""
","""event"",""trial"",""time""
""fullscreenexit"",""36"",""388861""
","","","-1","","","18","16593","6380","c","elianto","#3366ff99","-1","-1","1","+10","[]","0","2","","","16593","47","4","2","win","no-go","0"
"pit-trial","166","1160976","0.0-52.0","battery-v0.2","","""event"",""trial"",""time""
""fullscreenenter"",""1"",""2040""
""fullscreenexit"",""36"",""388861""
""blur"",""36"",""391225""
""focus"",""36"",""396868""
","""event"",""trial"",""time""
""blur"",""36"",""391225""
","""event"",""trial"",""time""
""focus"",""36"",""396868""
","""event"",""trial"",""time""
""fullscreenenter"",""1"",""2040""
","""event"",""trial"",""time""
""fullscreenexit"",""36"",""388861""
","","","-1","","","18","16593","6380","b","elianto","#f73b6a7A"," ","-1","0","0","[]","0","2","","","16593","48","3","3","lose","go","1"
"pit-trial","167","1165831","0.0-53.0","battery-v0.2","","""event"",""trial"",""time""
""fullscreenenter"",""1"",""2040""
""fullscreenexit"",""36"",""388861""
""blur"",""36"",""391225""
""focus"",""36"",""396868""
","""event"",""trial"",""time""
""blur"",""36"",""391225""
","""event"",""trial"",""time""
""focus"",""36"",""396868""
","""event"",""trial"",""time""
""fullscreenenter"",""1"",""2040""
","""event"",""trial"",""time""
""fullscreenexit"",""36"",""388861""
","","","-1","","","18","16593","6380","c","elianto","#3366ff99","-1","-1","1","0","[]","0","2","","","16593","49","4","2","win","no-go","1"
"pit-trial","168","1170689","0.0-54.0","battery-v0.2","","""event"",""trial"",""time""
""fullscreenenter"",""1"",""2040""
""fullscreenexit"",""36"",""388861""
""blur"",""36"",""391225""
""focus"",""36"",""396868""
","""event"",""trial"",""time""
""blur"",""36"",""391225""
","""event"",""trial"",""time""
""focus"",""36"",""396868""
","""event"",""trial"",""time""
""fullscreenenter"",""1"",""2040""
