"trial_type","trial_index","time_elapsed","internal_node_id","task_version","subject_id","interactions","blur_events","focus_events","fullscreenenter_events","fullscreenexit_events","success","view_history","rt","responses","num_errors","age","subject","participantId","rune","rune_set","hex","correct","choice","accuracy","outcome","keys","total_keys","block","practice","value","sub","trial","stimulus","robot","valence","action","sham"
"pavlovia","0","13","0.0-0.0","battery-v0.2","","""event"",""trial"",""time""
""fullscreenenter"",""1"",""4429""
","
","
","""event"",""trial"",""time""
""fullscreenenter"",""1"",""4429""
","
","","","","","","","","","","","","","","","","","","","","","","","","","","",""
"fullscreen","1","5407","0.0-1.0","battery-v0.2","","""event"",""trial"",""time""
""fullscreenenter"",""1"",""4429""
","
","
","""event"",""trial"",""time""
""fullscreenenter"",""1"",""4429""
","
","true","","","","","","","","","","","","","","","","","","","","","","","","","",""
"pit-instructions","2","11985","0.0-2.0-0.0","battery-v0.2","","""event"",""trial"",""time""
""fullscreenenter"",""1"",""4429""
","
","
","""event"",""trial"",""time""
""fullscreenenter"",""1"",""4429""
","
","","[{""page_index"":0,""viewing_time"":6572.5999999940395}]","6573","","","","","","","","","","","","","","","","","","","","","","","",""
"pit-comprehension","3","15345","0.0-2.0-1.0-0.0","battery-v0.2","","""event"",""trial"",""time""
""fullscreenenter"",""1"",""4429""
","
","
","""event"",""trial"",""time""
""fullscreenenter"",""1"",""4429""
","
","","","3355.100000023842","[""shark""]","0","11","10387","4078","","","","","","","","","","","","","","","","","","",""
"pit-instructions","4","18229","0.0-2.0-1.0-1.0","battery-v0.2","","""event"",""trial"",""time""
""fullscreenenter"",""1"",""4429""
","
","
","""event"",""trial"",""time""
""fullscreenenter"",""1"",""4429""
","
","","[{""page_index"":0,""viewing_time"":2864.9000000059605}]","2865.2999999821186","","","","","","","","","","","","","","","","","","","","","","","",""
"pit-comprehension","5","21005","0.0-2.0-2.0-0.0","battery-v0.2","","""event"",""trial"",""time""
""fullscreenenter"",""1"",""4429""
","
","
","""event"",""trial"",""time""
""fullscreenenter"",""1"",""4429""
","
","","","2771","[""tiger""]","0","11","10387","4078","","","","","","","","","","","","","","","","","","",""
"pit-instructions","6","25970","0.0-2.0-2.0-1.0","battery-v0.2","","""event"",""trial"",""time""
""fullscreenenter"",""1"",""4429""
","
","
","""event"",""trial"",""time""
""fullscreenenter"",""1"",""4429""
","
","","[{""page_index"":0,""viewing_time"":4960.800000011921}]","4961.199999988079","","","","","","","","","","","","","","","","","","","","","","","",""
"pit-instructions","7","125994","0.0-2.0-3.0","battery-v0.2","","""event"",""trial"",""time""
""fullscreenenter"",""1"",""4429""
","
","
","""event"",""trial"",""time""
""fullscreenenter"",""1"",""4429""
","
","","[{""page_index"":0,""viewing_time"":8382},{""page_index"":1,""viewing_time"":6062.200000017881},{""page_index"":2,""viewing_time"":7899.699999988079},{""page_index"":3,""viewing_time"":5294},{""page_index"":4,""viewing_time"":5765.5},{""page_index"":5,""viewing_time"":5925.4000000059605},{""page_index"":6,""viewing_time"":7819.9000000059605},{""page_index"":7,""viewing_time"":6444.9000000059605},{""page_index"":8,""viewing_time"":8028.899999976158},{""page_index"":9,""viewing_time"":10562.90000000596},{""page_index"":10,""viewing_time"":7093},{""page_index"":11,""viewing_time"":6853},{""page_index"":12,""viewing_time"":7918.0999999940395},{""page_index"":13,""viewing_time"":5968.100000023842}]","100018.30000001192","","","","","","","","","","","","","","","","","","","","","","","",""
"pit-trial","8","129482","0.0-2.0-4.0-0.0","battery-v0.2","","""event"",""trial"",""time""
""fullscreenenter"",""1"",""4429""
","
","
","""event"",""trial"",""time""
""fullscreenenter"",""1"",""4429""
","
","","","631.9000000059605","","","11","10387","4078","&#9784;","elianto","#FFFFF080"," "," ","1","&#10004","[1482.800000011921,3450.5999999940395]","2","0","0","","","","","","","",""
"pit-trial","9","134338","0.0-2.0-4.1-0.1","battery-v0.2","","""event"",""trial"",""time""
""fullscreenenter"",""1"",""4429""
","
","
","""event"",""trial"",""time""
""fullscreenenter"",""1"",""4429""
","
","","","-1","","","11","10387","4078","&#9784;","elianto","#FFFFF080"," ","-1","0","&#10060","[3052.699999988079]","1","0","0","","","","","","","",""
"pit-trial","10","139192","0.0-2.0-4.2-0.2","battery-v0.2","","""event"",""trial"",""time""
""fullscreenenter"",""1"",""4429""
","
","
","""event"",""trial"",""time""
""fullscreenenter"",""1"",""4429""
","
","","","-1","","","11","10387","4078","&#9784;","elianto","#FFFFF080"," ","-1","0","&#10060","[]","0","0","0","","","","","","","",""
"pit-trial","11","144049","0.0-2.0-4.3-0.3","battery-v0.2","","""event"",""trial"",""time""
""fullscreenenter"",""1"",""4429""
","
","
","""event"",""trial"",""time""
""fullscreenenter"",""1"",""4429""
","
","","","-1","","","11","10387","4078","&#9784;","elianto","#FFFFF080"," ","-1","0","&#10060","[]","0","0","0","","","","","","","",""
"pit-trial","12","148907","0.0-2.0-4.4-0.4","battery-v0.2","","""event"",""trial"",""time""
""fullscreenenter"",""1"",""4429""
","
","
","""event"",""trial"",""time""
""fullscreenenter"",""1"",""4429""
","
","","","-1","","","11","10387","4078","&#9784;","elianto","#FFFFF080"," ","-1","0","&#10060","[]","0","0","0","","","","","","","",""
"pit-trial","13","153762","0.0-2.0-4.5-0.5","battery-v0.2","","""event"",""trial"",""time""
""fullscreenenter"",""1"",""4429""
","
","
","""event"",""trial"",""time""
""fullscreenenter"",""1"",""4429""
","
","","","-1","","","11","10387","4078","&#9784;","elianto","#FFFFF080"," ","-1","0","&#10060","[]","0","0","0","","","","","","","",""
"pit-trial","14","157363","0.0-2.0-4.6-0.6","battery-v0.2","","""event"",""trial"",""time""
""fullscreenenter"",""1"",""4429""
","
","
","""event"",""trial"",""time""
""fullscreenenter"",""1"",""4429""
","
","","","735.5999999940395","","","11","10387","4078","&#9784;","elianto","#FFFFF080"," "," ","1","&#10004","[1594.8999999761581]","1","0","0","","","","","","","",""
"pit-instructions","15","173673","0.0-2.0-4.6-1.6-0.6","battery-v0.2","","""event"",""trial"",""time""
""fullscreenenter"",""1"",""4429""
","
","
","""event"",""trial"",""time""
""fullscreenenter"",""1"",""4429""
","
","","[{""page_index"":0,""viewing_time"":7390.0999999940395},{""page_index"":1,""viewing_time"":8917.300000011921}]","16307.800000011921","","","","","","","","","","","","","","","","","","","","","","","",""
"pit-trial","16","177091","0.0-2.0-4.7-0.7","battery-v0.2","","""event"",""trial"",""time""
""fullscreenenter"",""1"",""4429""
","
","
","""event"",""trial"",""time""
""fullscreenenter"",""1"",""4429""
","
","","","561.2000000178814","","","11","10387","4078","&#9784;","elianto","#FFFFF080"," "," ","1","&#10004","[1413]","1","0","0","","","","","","","",""
"pit-trial","17","180411","0.0-2.0-4.8-0.8","battery-v0.2","","""event"",""trial"",""time""
""fullscreenenter"",""1"",""4429""
","
","
","""event"",""trial"",""time""
""fullscreenenter"",""1"",""4429""
","
","","","459.80000001192093","","","11","10387","4078","&#9784;","elianto","#FFFFF080"," "," ","1","&#10004","[130.80000001192093,1314.7000000178814]","2","0","0","","","","","","","",""
"pit-instructions","18","208648","0.0-2.0-5.0","battery-v0.2","","""event"",""trial"",""time""
""fullscreenenter"",""1"",""4429""
","
","
","""event"",""trial"",""time""
""fullscreenenter"",""1"",""4429""
","
","","[{""page_index"":0,""viewing_time"":5727.4000000059605},{""page_index"":1,""viewing_time"":8788},{""page_index"":2,""viewing_time"":6644.9000000059605},{""page_index"":3,""viewing_time"":7068.799999982119}]","28229.40000000596","","","","","","","","","","","","","","","","","","","","","","","",""
"pit-trial","19","213503","0.0-2.0-6.0-0.0","battery-v0.2","","""event"",""trial"",""time""
""fullscreenenter"",""1"",""4429""
","
","
","""event"",""trial"",""time""
""fullscreenenter"",""1"",""4429""
","
","","","-1","","","11","10387","4078","&#9854;","elianto","#FFFFF080","-1","-1","1","&#10004","[]","0","0","1","","","","","","","",""
"pit-trial","20","218357","0.0-2.0-6.1-0.1","battery-v0.2","","""event"",""trial"",""time""
""fullscreenenter"",""1"",""4429""
","
","
","""event"",""trial"",""time""
""fullscreenenter"",""1"",""4429""
","
","","","-1","","","11","10387","4078","&#9854;","elianto","#FFFFF080","-1","-1","1","&#10004","[]","0","0","1","","","","","","","",""
"pit-trial","21","223215","0.0-2.0-6.2-0.2","battery-v0.2","","""event"",""trial"",""time""
""fullscreenenter"",""1"",""4429""
","
","
","""event"",""trial"",""time""
""fullscreenenter"",""1"",""4429""
","
","","","-1","","","11","10387","4078","&#9854;","elianto","#FFFFF080","-1","-1","1","&#10004","[]","0","0","1","","","","","","","",""
"pit-trial","22","228071","0.0-2.0-6.3-0.3","battery-v0.2","","""event"",""trial"",""time""
""fullscreenenter"",""1"",""4429""
","
","
","""event"",""trial"",""time""
""fullscreenenter"",""1"",""4429""
","
","","","-1","","","11","10387","4078","&#9854;","elianto","#FFFFF080","-1","-1","1","&#10004","[]","0","0","1","","","","","","","",""
"pit-trial","23","232926","0.0-2.0-6.4-0.4","battery-v0.2","","""event"",""trial"",""time""
""fullscreenenter"",""1"",""4429""
","
","
","""event"",""trial"",""time""
""fullscreenenter"",""1"",""4429""
","
","","","-1","","","11","10387","4078","&#9854;","elianto","#FFFFF080","-1","-1","1","&#10004","[]","0","0","1","","","","","","","",""
"pit-instructions","24","358933","0.0-2.0-7.0","battery-v0.2","","""event"",""trial"",""time""
""fullscreenenter"",""1"",""4429""
","
","
","""event"",""trial"",""time""
""fullscreenenter"",""1"",""4429""
","
","","[{""page_index"":0,""viewing_time"":6621.800000011921},{""page_index"":1,""viewing_time"":9282.699999988079},{""page_index"":2,""viewing_time"":7196.9000000059605},{""page_index"":3,""viewing_time"":6708.800000011921},{""page_index"":4,""viewing_time"":5734.199999988079},{""page_index"":5,""viewing_time"":5900.699999988079},{""page_index"":6,""viewing_time"":4390.300000011921},{""page_index"":7,""viewing_time"":8340.800000011921},{""page_index"":8,""viewing_time"":7779.899999976158},{""page_index"":9,""viewing_time"":5749.800000011921},{""page_index"":10,""viewing_time"":6485.0999999940395},{""page_index"":11,""viewing_time"":6045},{""page_index"":12,""viewing_time"":6892.800000011921},{""page_index"":13,""viewing_time"":7110},{""page_index"":14,""viewing_time"":9227},{""page_index"":15,""viewing_time"":6957.0999999940395},{""page_index"":16,""viewing_time"":8115.800000011921},{""page_index"":17,""viewing_time"":7461.199999988079}]","126000.40000000596","","","","","","","","","","","","","","","","","","","","","","","",""
"pit-trial","25","362442","0.0-2.0-8.0-0.0","battery-v0.2","","""event"",""trial"",""time""
""fullscreenenter"",""1"",""4429""
","
","
","""event"",""trial"",""time""
""fullscreenenter"",""1"",""4429""
","
","","","652.9000000059605","","","11","10387","4078","&#9776;","elianto","#3366ff99"," "," ","1","+10","[1504]","1","0","1","","","","","","","",""
"pit-trial","26","365881","0.0-2.0-8.0-1.0","battery-v0.2","","""event"",""trial"",""time""
""fullscreenenter"",""1"",""4429""
","
","
","""event"",""trial"",""time""
""fullscreenenter"",""1"",""4429""
","
","","","579.3000000119209","","","11","10387","4078","&#9776;","elianto","#3366ff99"," "," ","1","+10","[1435.7000000178814]","1","0","1","","","","","","","",""
"pit-trial","27","369464","0.0-2.0-8.0-2.0","battery-v0.2","","""event"",""trial"",""time""
""fullscreenenter"",""1"",""4429""
","
","
","""event"",""trial"",""time""
""fullscreenenter"",""1"",""4429""
","
","","","726.6999999880791","","","11","10387","4078","&#9776;","elianto","#3366ff99"," "," ","1","+10","[1579.5]","1","0","1","","","","","","","",""
"pit-trial","28","373042","0.0-2.0-8.0-3.0","battery-v0.2","","""event"",""trial"",""time""
""fullscreenenter"",""1"",""4429""
","
","
","""event"",""trial"",""time""
""fullscreenenter"",""1"",""4429""
","
","","","717.8000000119209","","","11","10387","4078","&#9776;","elianto","#3366ff99"," "," ","1","0","[1570.8999999761581]","1","0","1","","","","","","","",""
"pit-trial","29","376633","0.0-2.0-8.0-4.0","battery-v0.2","","""event"",""trial"",""time""
""fullscreenenter"",""1"",""4429""
","
","
","""event"",""trial"",""time""
""fullscreenenter"",""1"",""4429""
","
","","","736.1999999880791","","","11","10387","4078","&#9776;","elianto","#3366ff99"," "," ","1","+10","[1587.5]","1","0","1","","","","","","","",""
"pit-trial","30","380280","0.0-2.0-8.1-0.1","battery-v0.2","","""event"",""trial"",""time""
""fullscreenenter"",""1"",""4429""
","
","
","""event"",""trial"",""time""
""fullscreenenter"",""1"",""4429""
","
","","","788.2000000178814","","","11","10387","4078","&#9776;","elianto","#3366ff99"," "," ","1","+10","[1641.4000000059605]","1","0","1","","","","","","","",""
"pit-trial","31","383864","0.0-2.0-8.1-1.1","battery-v0.2","","""event"",""trial"",""time""
""fullscreenenter"",""1"",""4429""
","
","
","""event"",""trial"",""time""
""fullscreenenter"",""1"",""4429""
","
","","","721.6000000238419","","","11","10387","4078","&#9776;","elianto","#3366ff99"," "," ","1","+10","[1580]","1","0","1","","","","","","","",""
"pit-trial","32","387496","0.0-2.0-8.1-2.1","battery-v0.2","","""event"",""trial"",""time""
""fullscreenenter"",""1"",""4429""
","
","
","""event"",""trial"",""time""
""fullscreenenter"",""1"",""4429""
","
","","","771.9000000059605","","","11","10387","4078","&#9776;","elianto","#3366ff99"," "," ","1","+10","[1628.699999988079]","1","0","1","","","","","","","",""
"pit-trial","33","391008","0.0-2.0-8.1-3.1","battery-v0.2","","""event"",""trial"",""time""
""fullscreenenter"",""1"",""4429""
","
","
","""event"",""trial"",""time""
""fullscreenenter"",""1"",""4429""
","
","","","656.9000000059605","","","11","10387","4078","&#9776;","elianto","#3366ff99"," "," ","1","0","[1508.199999988079]","1","0","1","","","","","","","",""
"pit-trial","34","394552","0.0-2.0-8.1-4.1","battery-v0.2","","""event"",""trial"",""time""
""fullscreenenter"",""1"",""4429""
","
","
","""event"",""trial"",""time""
""fullscreenenter"",""1"",""4429""
","
","","","689.9000000059605","","","11","10387","4078","&#9776;","elianto","#3366ff99"," "," ","1","+10","[1540.5]","1","0","1","","","","","","","",""
"pit-trial","35","398129","0.0-2.0-8.2-0.2","battery-v0.2","","""event"",""trial"",""time""
""fullscreenenter"",""1"",""4429""
","
","
","""event"",""trial"",""time""
""fullscreenenter"",""1"",""4429""
","
","","","721.5999999940395","","","11","10387","4078","&#9776;","elianto","#3366ff99"," "," ","1","+10","[1572.3999999761581]","1","0","1","","","","","","","",""
"pit-trial","36","401616","0.0-2.0-8.2-1.2","battery-v0.2","","""event"",""trial"",""time""
""fullscreenenter"",""1"",""4429""
","
","
","""event"",""trial"",""time""
""fullscreenenter"",""1"",""4429""
","
","","","632.6999999880791","","","11","10387","4078","&#9776;","elianto","#3366ff99"," "," ","1","+10","[1483.5999999940395]","1","0","1","","","","","","","",""
"pit-trial","37","405056","0.0-2.0-8.2-2.2","battery-v0.2","","""event"",""trial"",""time""
""fullscreenenter"",""1"",""4429""
","
","
","""event"",""trial"",""time""
""fullscreenenter"",""1"",""4429""
","
","","","585.4000000059605","","","11","10387","4078","&#9776;","elianto","#3366ff99"," "," ","1","+10","[1436.4000000059605]","1","0","1","","","","","","","",""
"pit-trial","38","408543","0.0-2.0-8.2-3.2","battery-v0.2","","""event"",""trial"",""time""
""fullscreenenter"",""1"",""4429""
","
","
","""event"",""trial"",""time""
""fullscreenenter"",""1"",""4429""
","
","","","630.5999999940395","","","11","10387","4078","&#9776;","elianto","#3366ff99"," "," ","1","0","[1482.5999999940395]","1","0","1","","","","","","","",""
"pit-trial","39","412064","0.0-2.0-8.2-4.2","battery-v0.2","","""event"",""trial"",""time""
""fullscreenenter"",""1"",""4429""
","
","
","""event"",""trial"",""time""
""fullscreenenter"",""1"",""4429""
","
","","","666.6999999880791","","","11","10387","4078","&#9776;","elianto","#3366ff99"," "," ","1","+10","[1517.5]","1","0","1","","","","","","","",""
"call-function","40","412067","0.0-2.0-9.0","battery-v0.2","","""event"",""trial"",""time""
""fullscreenenter"",""1"",""4429""
","
","
","""event"",""trial"",""time""
""fullscreenenter"",""1"",""4429""
","
","","","","","","","","","","","","","","","","","","","","","","","","","","",""
"pit-instructions","41","452602","0.0-2.0-10.0","battery-v0.2","","""event"",""trial"",""time""
""fullscreenenter"",""1"",""4429""
","
","
","""event"",""trial"",""time""
""fullscreenenter"",""1"",""4429""
","
","","[{""page_index"":0,""viewing_time"":6101.700000017881},{""page_index"":1,""viewing_time"":7467.799999982119},{""page_index"":2,""viewing_time"":9515.90000000596},{""page_index"":3,""viewing_time"":8796},{""page_index"":4,""viewing_time"":8651.90000000596}]","40533.70000001788","","","","","","","","","","","","","","","","","","","","","","","",""
"pit-trial","42","456496","0.0-2.0-11.0-0.0","battery-v0.2","","""event"",""trial"",""time""
""fullscreenenter"",""1"",""4429""
","
","
","""event"",""trial"",""time""
""fullscreenenter"",""1"",""4429""
","
","","","1030.699999988079","","","11","10387","4078","&#9761;","elianto","#3366ff99","-1"," ","0","0","[1890.199999988079]","1","0","2","","","","","","","",""
"pit-trial","43","460071","0.0-2.0-11.0-1.0","battery-v0.2","","""event"",""trial"",""time""
""fullscreenenter"",""1"",""4429""
","
","
","""event"",""trial"",""time""
""fullscreenenter"",""1"",""4429""
","
","","","722","","","11","10387","4078","&#9761;","elianto","#3366ff99","-1"," ","0","0","[1572.1000000238419]","1","0","2","","","","","","","",""
"pit-trial","44","463617","0.0-2.0-11.0-2.0","battery-v0.2","","""event"",""trial"",""time""
""fullscreenenter"",""1"",""4429""
","
","
","""event"",""trial"",""time""
""fullscreenenter"",""1"",""4429""
","
","","","681.9000000059605","","","11","10387","4078","&#9761;","elianto","#3366ff99","-1"," ","0","0","[1541]","1","0","2","","","","","","","",""
"pit-trial","45","467177","0.0-2.0-11.0-3.0","battery-v0.2","","""event"",""trial"",""time""
""fullscreenenter"",""1"",""4429""
","
","
","""event"",""trial"",""time""
""fullscreenenter"",""1"",""4429""
","
","","","701.2000000178814","","","11","10387","4078","&#9761;","elianto","#3366ff99","-1"," ","0","+10","[1555.2999999821186]","1","0","2","","","","","","","",""
"pit-trial","46","470607","0.0-2.0-11.0-4.0","battery-v0.2","","""event"",""trial"",""time""
""fullscreenenter"",""1"",""4429""
","
","
","""event"",""trial"",""time""
""fullscreenenter"",""1"",""4429""
","
","","","574.8000000119209","","","11","10387","4078","&#9761;","elianto","#3366ff99","-1"," ","0","0","[1426.9000000059605]","1","0","2","","","","","","","",""
"pit-trial","47","474064","0.0-2.0-11.1-0.1","battery-v0.2","","""event"",""trial"",""time""
""fullscreenenter"",""1"",""4429""
","
","
","""event"",""trial"",""time""
""fullscreenenter"",""1"",""4429""
","
","","","590.9000000059605","","","11","10387","4078","&#9761;","elianto","#3366ff99","-1"," ","0","0","[1452.800000011921]","1","0","2","","","","","","","",""
"pit-trial","48","477425","0.0-2.0-11.1-1.1","battery-v0.2","","""event"",""trial"",""time""
""fullscreenenter"",""1"",""4429""
","
","
","""event"",""trial"",""time""
""fullscreenenter"",""1"",""4429""
","
","","","499.09999999403954","","","11","10387","4078","&#9761;","elianto","#3366ff99","-1"," ","0","0","[1356.4000000059605]","1","0","2","","","","","","","",""
"pit-trial","49","480688","0.0-2.0-11.1-2.1","battery-v0.2","","""event"",""trial"",""time""
""fullscreenenter"",""1"",""4429""
","
","
","""event"",""trial"",""time""
""fullscreenenter"",""1"",""4429""
","
","","","395.39999997615814","","","11","10387","4078","&#9761;","elianto","#3366ff99","-1"," ","0","0","[1258.0999999940395]","1","0","2","","","","","","","",""
"pit-trial","50","483840","0.0-2.0-11.1-3.1","battery-v0.2","","""event"",""trial"",""time""
""fullscreenenter"",""1"",""4429""
","
","
","""event"",""trial"",""time""
""fullscreenenter"",""1"",""4429""
","
","","","296.19999998807907","","","11","10387","4078","&#9761;","elianto","#3366ff99","-1"," ","0","+10","[1148.5]","1","0","2","","","","","","","",""
"pit-trial","51","487225","0.0-2.0-11.1-4.1","battery-v0.2","","""event"",""trial"",""time""
""fullscreenenter"",""1"",""4429""
","
","
","""event"",""trial"",""time""
""fullscreenenter"",""1"",""4429""
","
","","","527.8999999761581","","","11","10387","4078","&#9761;","elianto","#3366ff99","-1"," ","0","0","[1379.199999988079]","1","0","2","","","","","","","",""
"pit-trial","52","490344","0.0-2.0-11.2-0.2","battery-v0.2","","""event"",""trial"",""time""
""fullscreenenter"",""1"",""4429""
","
","
","""event"",""trial"",""time""
""fullscreenenter"",""1"",""4429""
","
","","","263.90000000596046","","","11","10387","4078","&#9761;","elianto","#3366ff99","-1"," ","0","0","[1114.9000000059605]","1","0","2","","","","","","","",""
"pit-trial","53","493688","0.0-2.0-11.2-1.2","battery-v0.2","","""event"",""trial"",""time""
""fullscreenenter"",""1"",""4429""
","
","
","""event"",""trial"",""time""
""fullscreenenter"",""1"",""4429""
","
","","","490.09999999403954","","","11","10387","4078","&#9761;","elianto","#3366ff99","-1"," ","0","0","[1340.2000000178814]","1","0","2","","","","","","","",""
"pit-trial","54","498440","0.0-2.0-11.2-2.2","battery-v0.2","","""event"",""trial"",""time""
""fullscreenenter"",""1"",""4429""
","
","
","""event"",""trial"",""time""
""fullscreenenter"",""1"",""4429""
","
","","","1897.4000000059605","","","11","10387","4078","&#9761;","elianto","#3366ff99","-1"," ","0","0","[2748.699999988079]","1","0","2","","","","","","","",""
"pit-trial","55","501807","0.0-2.0-11.2-3.2","battery-v0.2","","""event"",""trial"",""time""
""fullscreenenter"",""1"",""4429""
","
","
","""event"",""trial"",""time""
""fullscreenenter"",""1"",""4429""
","
","","","512.9000000059605","","","11","10387","4078","&#9761;","elianto","#3366ff99","-1"," ","0","+10","[1363.9000000059605]","1","0","2","","","","","","","",""
"pit-trial","56","505168","0.0-2.0-11.2-4.2","battery-v0.2","","""event"",""trial"",""time""
""fullscreenenter"",""1"",""4429""
","
","
","""event"",""trial"",""time""
""fullscreenenter"",""1"",""4429""
","
","","","505.80000001192093","","","11","10387","4078","&#9761;","elianto","#3366ff99","-1"," ","0","0","[1356.800000011921]","1","0","2","","","","","","","",""
"pit-trial","57","508328","0.0-2.0-11.3-0.3","battery-v0.2","","""event"",""trial"",""time""
""fullscreenenter"",""1"",""4429""
","
","
","""event"",""trial"",""time""
""fullscreenenter"",""1"",""4429""
","
","","","303.40000000596046","","","11","10387","4078","&#9761;","elianto","#3366ff99","-1"," ","0","0","[1155.5]","1","0","2","","","","","","","",""
"pit-trial","58","511592","0.0-2.0-11.3-1.3","battery-v0.2","","""event"",""trial"",""time""
""fullscreenenter"",""1"",""4429""
","
","
","""event"",""trial"",""time""
""fullscreenenter"",""1"",""4429""
","
","","","410","","","11","10387","4078","&#9761;","elianto","#3366ff99","-1"," ","0","0","[1260.199999988079]","1","0","2","","","","","","","",""
"pit-trial","59","515207","0.0-2.0-11.3-2.3","battery-v0.2","","""event"",""trial"",""time""
""fullscreenenter"",""1"",""4429""
","
","
","""event"",""trial"",""time""
""fullscreenenter"",""1"",""4429""
","
","","","759.7000000178814","","","11","10387","4078","&#9761;","elianto","#3366ff99","-1"," ","0","0","[1611.2000000178814]","1","0","2","","","","","","","",""
"pit-trial","60","518648","0.0-2.0-11.3-3.3","battery-v0.2","","""event"",""trial"",""time""
""fullscreenenter"",""1"",""4429""
","
","
","""event"",""trial"",""time""
""fullscreenenter"",""1"",""4429""
","
","","","583.9000000059605","","","11","10387","4078","&#9761;","elianto","#3366ff99","-1"," ","0","+10","[1435.5]","1","0","2","","","","","","","",""
"pit-trial","61","521656","0.0-2.0-11.3-4.3","battery-v0.2","","""event"",""trial"",""time""
""fullscreenenter"",""1"",""4429""
","
","
","""event"",""trial"",""time""
""fullscreenenter"",""1"",""4429""
","
","","","133.09999999403954","","","11","10387","4078","&#9761;","elianto","#3366ff99","-1"," ","0","0","[1004.4000000059605]","1","0","2","","","","","","","",""
"call-function","62","521661","0.0-2.0-12.0","battery-v0.2","","""event"",""trial"",""time""
""fullscreenenter"",""1"",""4429""
","
","
","""event"",""trial"",""time""
""fullscreenenter"",""1"",""4429""
","
","","","","","","","","","","","","","","","","","","","","","","","","","","",""
"pit-instructions","63","554668","0.0-2.0-13.0","battery-v0.2","","""event"",""trial"",""time""
""fullscreenenter"",""1"",""4429""
","
","
","""event"",""trial"",""time""
""fullscreenenter"",""1"",""4429""
","
","","[{""page_index"":0,""viewing_time"":6162.0999999940395},{""page_index"":1,""viewing_time"":7988.800000011921},{""page_index"":2,""viewing_time"":3550.199999988079},{""page_index"":3,""viewing_time"":10538.700000017881},{""page_index"":4,""viewing_time"":4766}]","33006.09999999404","","","","","","","","","","","","","","","","","","","","","","","",""
"pit-trial","64","559524","0.0-2.0-14.0-0.0","battery-v0.2","","""event"",""trial"",""time""
""fullscreenenter"",""1"",""4429""
","
","
","""event"",""trial"",""time""
""fullscreenenter"",""1"",""4429""
","
","","","-1","","","11","10387","4078","&#9826;","elianto","#f73b6a7A","-1","-1","1","0","[]","0","0","3","","","","","","","",""
"pit-trial","65","564378","0.0-2.0-14.0-1.0","battery-v0.2","","""event"",""trial"",""time""
""fullscreenenter"",""1"",""4429""
","
","
","""event"",""trial"",""time""
""fullscreenenter"",""1"",""4429""
","
","","","-1","","","11","10387","4078","&#9826;","elianto","#f73b6a7A","-1","-1","1","0","[]","0","0","3","","","","","","","",""
"pit-trial","66","569234","0.0-2.0-14.0-2.0","battery-v0.2","","""event"",""trial"",""time""
""fullscreenenter"",""1"",""4429""
","
","
","""event"",""trial"",""time""
""fullscreenenter"",""1"",""4429""
","
","","","-1","","","11","10387","4078","&#9826;","elianto","#f73b6a7A","-1","-1","1","0","[]","0","0","3","","","","","","","",""
"pit-trial","67","574088","0.0-2.0-14.0-3.0","battery-v0.2","","""event"",""trial"",""time""
""fullscreenenter"",""1"",""4429""
","
","
","""event"",""trial"",""time""
""fullscreenenter"",""1"",""4429""
","
","","","-1","","","11","10387","4078","&#9826;","elianto","#f73b6a7A","-1","-1","1","-10","[]","0","0","3","","","","","","","",""
"pit-trial","68","578943","0.0-2.0-14.0-4.0","battery-v0.2","","""event"",""trial"",""time""
""fullscreenenter"",""1"",""4429""
","
","
","""event"",""trial"",""time""
""fullscreenenter"",""1"",""4429""
","
","","","-1","","","11","10387","4078","&#9826;","elianto","#f73b6a7A","-1","-1","1","0","[]","0","0","3","","","","","","","",""
"pit-trial","69","583799","0.0-2.0-14.1-0.1","battery-v0.2","","""event"",""trial"",""time""
""fullscreenenter"",""1"",""4429""
","
","
","""event"",""trial"",""time""
""fullscreenenter"",""1"",""4429""
","
","","","-1","","","11","10387","4078","&#9826;","elianto","#f73b6a7A","-1","-1","1","0","[]","0","0","3","","","","","","","",""
"pit-trial","70","588655","0.0-2.0-14.1-1.1","battery-v0.2","","""event"",""trial"",""time""
""fullscreenenter"",""1"",""4429""
","
","
","""event"",""trial"",""time""
""fullscreenenter"",""1"",""4429""
","
","","","-1","","","11","10387","4078","&#9826;","elianto","#f73b6a7A","-1","-1","1","0","[]","0","0","3","","","","","","","",""
"pit-trial","71","593511","0.0-2.0-14.1-2.1","battery-v0.2","","""event"",""trial"",""time""
""fullscreenenter"",""1"",""4429""
","
","
","""event"",""trial"",""time""
""fullscreenenter"",""1"",""4429""
","
","","","-1","","","11","10387","4078","&#9826;","elianto","#f73b6a7A","-1","-1","1","0","[]","0","0","3","","","","","","","",""
"pit-trial","72","598368","0.0-2.0-14.1-3.1","battery-v0.2","","""event"",""trial"",""time""
""fullscreenenter"",""1"",""4429""
","
","
","""event"",""trial"",""time""
""fullscreenenter"",""1"",""4429""
","
","","","-1","","","11","10387","4078","&#9826;","elianto","#f73b6a7A","-1","-1","1","-10","[]","0","0","3","","","","","","","",""
"pit-trial","73","603223","0.0-2.0-14.1-4.1","battery-v0.2","","""event"",""trial"",""time""
""fullscreenenter"",""1"",""4429""
","
","
","""event"",""trial"",""time""
""fullscreenenter"",""1"",""4429""
","
","","","-1","","","11","10387","4078","&#9826;","elianto","#f73b6a7A","-1","-1","1","0","[]","0","0","3","","","","","","","",""
"pit-trial","74","608079","0.0-2.0-14.2-0.2","battery-v0.2","","""event"",""trial"",""time""
""fullscreenenter"",""1"",""4429""
","
","
","""event"",""trial"",""time""
""fullscreenenter"",""1"",""4429""
","
","","","-1","","","11","10387","4078","&#9826;","elianto","#f73b6a7A","-1","-1","1","0","[]","0","0","3","","","","","","","",""
"pit-trial","75","612935","0.0-2.0-14.2-1.2","battery-v0.2","","""event"",""trial"",""time""
""fullscreenenter"",""1"",""4429""
","
","
","""event"",""trial"",""time""
""fullscreenenter"",""1"",""4429""
","
","","","-1","","","11","10387","4078","&#9826;","elianto","#f73b6a7A","-1","-1","1","0","[]","0","0","3","","","","","","","",""
"pit-trial","76","617790","0.0-2.0-14.2-2.2","battery-v0.2","","""event"",""trial"",""time""
""fullscreenenter"",""1"",""4429""
","
","
","""event"",""trial"",""time""
""fullscreenenter"",""1"",""4429""
","
","","","-1","","","11","10387","4078","&#9826;","elianto","#f73b6a7A","-1","-1","1","0","[]","0","0","3","","","","","","","",""
"pit-trial","77","622647","0.0-2.0-14.2-3.2","battery-v0.2","","""event"",""trial"",""time""
""fullscreenenter"",""1"",""4429""
","
","
","""event"",""trial"",""time""
""fullscreenenter"",""1"",""4429""
","
","","","-1","","","11","10387","4078","&#9826;","elianto","#f73b6a7A","-1","-1","1","-10","[]","0","0","3","","","","","","","",""
"pit-trial","78","627502","0.0-2.0-14.2-4.2","battery-v0.2","","""event"",""trial"",""time""
""fullscreenenter"",""1"",""4429""
","
","
","""event"",""trial"",""time""
""fullscreenenter"",""1"",""4429""
","
","","","-1","","","11","10387","4078","&#9826;","elianto","#f73b6a7A","-1","-1","1","0","[]","0","0","3","","","","","","","",""
"pit-trial","79","632359","0.0-2.0-14.3-0.3","battery-v0.2","","""event"",""trial"",""time""
""fullscreenenter"",""1"",""4429""
","
","
","""event"",""trial"",""time""
""fullscreenenter"",""1"",""4429""
","
","","","-1","","","11","10387","4078","&#9826;","elianto","#f73b6a7A","-1","-1","1","0","[]","0","0","3","","","","","","","",""
"pit-trial","80","637216","0.0-2.0-14.3-1.3","battery-v0.2","","""event"",""trial"",""time""
""fullscreenenter"",""1"",""4429""
","
","
","""event"",""trial"",""time""
""fullscreenenter"",""1"",""4429""
","
","","","-1","","","11","10387","4078","&#9826;","elianto","#f73b6a7A","-1","-1","1","0","[]","0","0","3","","","","","","","",""
"pit-trial","81","642071","0.0-2.0-14.3-2.3","battery-v0.2","","""event"",""trial"",""time""
""fullscreenenter"",""1"",""4429""
","
","
","""event"",""trial"",""time""
""fullscreenenter"",""1"",""4429""
","
","","","-1","","","11","10387","4078","&#9826;","elianto","#f73b6a7A","-1","-1","1","0","[]","0","0","3","","","","","","","",""
"pit-trial","82","646924","0.0-2.0-14.3-3.3","battery-v0.2","","""event"",""trial"",""time""
""fullscreenenter"",""1"",""4429""
","
","
","""event"",""trial"",""time""
""fullscreenenter"",""1"",""4429""
","
","","","-1","","","11","10387","4078","&#9826;","elianto","#f73b6a7A","-1","-1","1","-10","[]","0","0","3","","","","","","","",""
"pit-trial","83","651778","0.0-2.0-14.3-4.3","battery-v0.2","","""event"",""trial"",""time""
""fullscreenenter"",""1"",""4429""
","
","
","""event"",""trial"",""time""
""fullscreenenter"",""1"",""4429""
","
","","","-1","","","11","10387","4078","&#9826;","elianto","#f73b6a7A","-1","-1","1","0","[]","0","0","3","","","","","","","",""
"call-function","84","651781","0.0-2.0-15.0","battery-v0.2","","""event"",""trial"",""time""
""fullscreenenter"",""1"",""4429""
","
","
","""event"",""trial"",""time""
""fullscreenenter"",""1"",""4429""
","
","","","","","","","","","","","","","","","","","","","","","","","","","","",""
"pit-instructions","85","676213","0.0-2.0-16.0","battery-v0.2","","""event"",""trial"",""time""
""fullscreenenter"",""1"",""4429""
","
","
","""event"",""trial"",""time""
""fullscreenenter"",""1"",""4429""
","
","","[{""page_index"":0,""viewing_time"":6767.5999999940395},{""page_index"":1,""viewing_time"":8132.800000011921},{""page_index"":2,""viewing_time"":4526.0999999940395},{""page_index"":3,""viewing_time"":5005}]","24432","","","","","","","","","","","","","","","","","","","","","","","",""
"pit-trial","86","681070","0.0-2.0-17.0-0.0","battery-v0.2","","""event"",""trial"",""time""
""fullscreenenter"",""1"",""4429""
","
","
","""event"",""trial"",""time""
""fullscreenenter"",""1"",""4429""
","
","","","-1","","","11","10387","4078","&#9789;","elianto","#f73b6a7A"," ","-1","0","-10","[]","0","0","4","","","","","","","",""
"pit-trial","87","685926","0.0-2.0-17.0-1.0","battery-v0.2","","""event"",""trial"",""time""
""fullscreenenter"",""1"",""4429""
","
","
","""event"",""trial"",""time""
""fullscreenenter"",""1"",""4429""
","
","","","-1","","","11","10387","4078","&#9789;","elianto","#f73b6a7A"," ","-1","0","-10","[]","0","0","4","","","","","","","",""
"pit-trial","88","690780","0.0-2.0-17.0-2.0","battery-v0.2","","""event"",""trial"",""time""
""fullscreenenter"",""1"",""4429""
","
","
","""event"",""trial"",""time""
""fullscreenenter"",""1"",""4429""
","
","","","-1","","","11","10387","4078","&#9789;","elianto","#f73b6a7A"," ","-1","0","-10","[]","0","0","4","","","","","","","",""
"pit-trial","89","695634","0.0-2.0-17.0-3.0","battery-v0.2","","""event"",""trial"",""time""
""fullscreenenter"",""1"",""4429""
","
","
","""event"",""trial"",""time""
""fullscreenenter"",""1"",""4429""
","
","","","-1","","","11","10387","4078","&#9789;","elianto","#f73b6a7A"," ","-1","0","0","[]","0","0","4","","","","","","","",""
"pit-trial","90","700489","0.0-2.0-17.0-4.0","battery-v0.2","","""event"",""trial"",""time""
""fullscreenenter"",""1"",""4429""
","
","
","""event"",""trial"",""time""
""fullscreenenter"",""1"",""4429""
","
","","","-1","","","11","10387","4078","&#9789;","elianto","#f73b6a7A"," ","-1","0","-10","[]","0","0","4","","","","","","","",""
"pit-trial","91","705345","0.0-2.0-17.1-0.1","battery-v0.2","","""event"",""trial"",""time""
""fullscreenenter"",""1"",""4429""
","
","
","""event"",""trial"",""time""
""fullscreenenter"",""1"",""4429""
","
","","","-1","","","11","10387","4078","&#9789;","elianto","#f73b6a7A"," ","-1","0","-10","[]","0","0","4","","","","","","","",""
"pit-trial","92","710201","0.0-2.0-17.1-1.1","battery-v0.2","","""event"",""trial"",""time""
""fullscreenenter"",""1"",""4429""
","
","
","""event"",""trial"",""time""
""fullscreenenter"",""1"",""4429""
","
","","","-1","","","11","10387","4078","&#9789;","elianto","#f73b6a7A"," ","-1","0","-10","[]","0","0","4","","","","","","","",""
"pit-trial","93","715056","0.0-2.0-17.1-2.1","battery-v0.2","","""event"",""trial"",""time""
""fullscreenenter"",""1"",""4429""
","
","
","""event"",""trial"",""time""
""fullscreenenter"",""1"",""4429""
","
","","","-1","","","11","10387","4078","&#9789;","elianto","#f73b6a7A"," ","-1","0","-10","[]","0","0","4","","","","","","","",""
"pit-trial","94","719911","0.0-2.0-17.1-3.1","battery-v0.2","","""event"",""trial"",""time""
""fullscreenenter"",""1"",""4429""
","
","
","""event"",""trial"",""time""
""fullscreenenter"",""1"",""4429""
","
","","","-1","","","11","10387","4078","&#9789;","elianto","#f73b6a7A"," ","-1","0","0","[]","0","0","4","","","","","","","",""
"pit-trial","95","724766","0.0-2.0-17.1-4.1","battery-v0.2","","""event"",""trial"",""time""
""fullscreenenter"",""1"",""4429""
","
","
","""event"",""trial"",""time""
""fullscreenenter"",""1"",""4429""
","
","","","-1","","","11","10387","4078","&#9789;","elianto","#f73b6a7A"," ","-1","0","-10","[]","0","0","4","","","","","","","",""
"pit-trial","96","729655","0.0-2.0-17.2-0.2","battery-v0.2","","""event"",""trial"",""time""
""fullscreenenter"",""1"",""4429""
","
","
","""event"",""trial"",""time""
""fullscreenenter"",""1"",""4429""
","
","","","-1","","","11","10387","4078","&#9789;","elianto","#f73b6a7A"," ","-1","0","-10","[]","0","0","4","","","","","","","",""
"pit-trial","97","734512","0.0-2.0-17.2-1.2","battery-v0.2","","""event"",""trial"",""time""
""fullscreenenter"",""1"",""4429""
","
","
","""event"",""trial"",""time""
""fullscreenenter"",""1"",""4429""
","
","","","-1","","","11","10387","4078","&#9789;","elianto","#f73b6a7A"," ","-1","0","-10","[]","0","0","4","","","","","","","",""
"pit-trial","98","739368","0.0-2.0-17.2-2.2","battery-v0.2","","""event"",""trial"",""time""
""fullscreenenter"",""1"",""4429""
","
","
","""event"",""trial"",""time""
""fullscreenenter"",""1"",""4429""
","
","","","-1","","","11","10387","4078","&#9789;","elianto","#f73b6a7A"," ","-1","0","-10","[]","0","0","4","","","","","","","",""
"pit-trial","99","744223","0.0-2.0-17.2-3.2","battery-v0.2","","""event"",""trial"",""time""
""fullscreenenter"",""1"",""4429""
","
","
","""event"",""trial"",""time""
""fullscreenenter"",""1"",""4429""
","
","","","-1","","","11","10387","4078","&#9789;","elianto","#f73b6a7A"," ","-1","0","0","[]","0","0","4","","","","","","","",""
"pit-trial","100","749076","0.0-2.0-17.2-4.2","battery-v0.2","","""event"",""trial"",""time""
""fullscreenenter"",""1"",""4429""
","
","
","""event"",""trial"",""time""
""fullscreenenter"",""1"",""4429""
","
","","","-1","","","11","10387","4078","&#9789;","elianto","#f73b6a7A"," ","-1","0","-10","[]","0","0","4","","","","","","","",""
"pit-trial","101","753931","0.0-2.0-17.3-0.3","battery-v0.2","","""event"",""trial"",""time""
""fullscreenenter"",""1"",""4429""
","
","
","""event"",""trial"",""time""
""fullscreenenter"",""1"",""4429""
","
","","","-1","","","11","10387","4078","&#9789;","elianto","#f73b6a7A"," ","-1","0","-10","[]","0","0","4","","","","","","","",""
"pit-trial","102","758786","0.0-2.0-17.3-1.3","battery-v0.2","","""event"",""trial"",""time""
""fullscreenenter"",""1"",""4429""
","
","
","""event"",""trial"",""time""
""fullscreenenter"",""1"",""4429""
","
","","","-1","","","11","10387","4078","&#9789;","elianto","#f73b6a7A"," ","-1","0","-10","[]","0","0","4","","","","","","","",""
"pit-trial","103","763642","0.0-2.0-17.3-2.3","battery-v0.2","","""event"",""trial"",""time""
""fullscreenenter"",""1"",""4429""
","
","
","""event"",""trial"",""time""
""fullscreenenter"",""1"",""4429""
","
","","","-1","","","11","10387","4078","&#9789;","elianto","#f73b6a7A"," ","-1","0","-10","[]","0","0","4","","","","","","","",""
"pit-trial","104","768497","0.0-2.0-17.3-3.3","battery-v0.2","","""event"",""trial"",""time""
""fullscreenenter"",""1"",""4429""
","
","
","""event"",""trial"",""time""
""fullscreenenter"",""1"",""4429""
","
","","","-1","","","11","10387","4078","&#9789;","elianto","#f73b6a7A"," ","-1","0","0","[]","0","0","4","","","","","","","",""
"pit-trial","105","773353","0.0-2.0-17.3-4.3","battery-v0.2","","""event"",""trial"",""time""
""fullscreenenter"",""1"",""4429""
","
","
","""event"",""trial"",""time""
""fullscreenenter"",""1"",""4429""
","
","","","-1","","","11","10387","4078","&#9789;","elianto","#f73b6a7A"," ","-1","0","-10","[]","0","0","4","","","","","","","",""
"call-function","106","773356","0.0-2.0-18.0","battery-v0.2","","""event"",""trial"",""time""
""fullscreenenter"",""1"",""4429""
","
","
","""event"",""trial"",""time""
""fullscreenenter"",""1"",""4429""
","
","","","","","","","","","","","","","","","","","","","","","","","","","","",""
"pit-instructions","107","851038","0.0-2.0-19.0","battery-v0.2","","""event"",""trial"",""time""
""fullscreenenter"",""1"",""4429""
","
","
","""event"",""trial"",""time""
""fullscreenenter"",""1"",""4429""
","
","","[{""page_index"":0,""viewing_time"":10616.5},{""page_index"":1,""viewing_time"":8876.300000011921},{""page_index"":2,""viewing_time"":9915.699999988079},{""page_index"":3,""viewing_time"":7995.800000011921},{""page_index"":4,""viewing_time"":8716},{""page_index"":5,""viewing_time"":11274.899999976158},{""page_index"":6,""viewing_time"":8363.90000000596},{""page_index"":7,""viewing_time"":7541},{""page_index"":8,""viewing_time"":4382}]","77682.5","","","","","","","","","","","","","","","","","","","","","","","",""
"pit-comprehension","108","856181","0.0-2.0-20.0-0.0","battery-v0.2","","""event"",""trial"",""time""
""fullscreenenter"",""1"",""4429""
","
","
","""event"",""trial"",""time""
""fullscreenenter"",""1"",""4429""
","
","","","5137.899999976158","[""SPACE""]","0","11","10387","4078","","","","","","","","","","","","","","","","","","",""
"pit-instructions","109","860075","0.0-2.0-20.0-1.0","battery-v0.2","","""event"",""trial"",""time""
""fullscreenenter"",""1"",""4429""
","
","
","""event"",""trial"",""time""
""fullscreenenter"",""1"",""4429""
","
","","[{""page_index"":0,""viewing_time"":3845.4000000059605}]","3846","","","","","","","","","","","","","","","","","","","","","","","",""
"pit-comprehension","110","867512","0.0-2.0-21.0-0.0","battery-v0.2","","""event"",""trial"",""time""
""fullscreenenter"",""1"",""4429""
","
","
","""event"",""trial"",""time""
""fullscreenenter"",""1"",""4429""
","
","","","7432.700000017881","[""10""]","0","11","10387","4078","","","","","","","","","","","","","","","","","","",""
"pit-instructions","111","876988","0.0-2.0-21.0-1.0","battery-v0.2","","""event"",""trial"",""time""
""fullscreenenter"",""1"",""4429""
","
","
","""event"",""trial"",""time""
""fullscreenenter"",""1"",""4429""
","
","","[{""page_index"":0,""viewing_time"":9428.699999988079}]","9429.09999999404","","","","","","","","","","","","","","","","","","","","","","","",""
"pit-comprehension","112","890446","0.0-2.0-22.0-0.0","battery-v0.2","","""event"",""trial"",""time""
""fullscreenenter"",""1"",""4429""
","
","
","""event"",""trial"",""time""
""fullscreenenter"",""1"",""4429""
","
","","","13453.600000023842","[""0""]","0","11","10387","4078","","","","","","","","","","","","","","","","","","",""
"pit-instructions","113","893851","0.0-2.0-22.0-1.0","battery-v0.2","","""event"",""trial"",""time""
""fullscreenenter"",""1"",""4429""
","
","
","""event"",""trial"",""time""
""fullscreenenter"",""1"",""4429""
","
","","[{""page_index"":0,""viewing_time"":3360.5}]","3360.7999999821186","","","","","","","","","","","","","","","","","","","","","","","",""
"pit-comprehension","114","903896","0.0-2.0-23.0-0.0","battery-v0.2","","""event"",""trial"",""time""
""fullscreenenter"",""1"",""4429""
","
","
","""event"",""trial"",""time""
""fullscreenenter"",""1"",""4429""
","
","","","10040.40000000596","[""False""]","1","11","10387","4078","","","","","","","","","","","","","","","","","","",""
"pit-instructions","115","907733","0.0-2.0-23.0-1.0","battery-v0.2","","""event"",""trial"",""time""
""fullscreenenter"",""1"",""4429""
","
","
","""event"",""trial"",""time""
""fullscreenenter"",""1"",""4429""
","
","","[{""page_index"":0,""viewing_time"":3792.9000000059605}]","3793.199999988079","","","","","","","","","","","","","","","","","","","","","","","",""
"pit-instructions","116","910324","0.0-2.0-23.0-2.0-0.0","battery-v0.2","","""event"",""trial"",""time""
""fullscreenenter"",""1"",""4429""
","
","
","""event"",""trial"",""time""
""fullscreenenter"",""1"",""4429""
","
","","[{""page_index"":0,""viewing_time"":2587.5}]","2587.800000011921","","","","","","","","","","","","","","","","","","","","","","","",""
"pit-comprehension","117","918945","0.0-2.0-23.1-0.1","battery-v0.2","","""event"",""trial"",""time""
""fullscreenenter"",""1"",""4429""
","
","
","""event"",""trial"",""time""
""fullscreenenter"",""1"",""4429""
","
","","","8617.300000011921","[""True""]","0","11","10387","4078","","","","","","","","","","","","","","","","","","",""
"pit-instructions","118","921639","0.0-2.0-23.1-1.1","battery-v0.2","","""event"",""trial"",""time""
""fullscreenenter"",""1"",""4429""
","
","
","""event"",""trial"",""time""
""fullscreenenter"",""1"",""4429""
","
","","[{""page_index"":0,""viewing_time"":2648.0999999940395}]","2648.4000000059605","","","","","","","","","","","","","","","","","","","","","","","",""
"pit-comprehension","119","929373","0.0-2.0-24.0-0.0","battery-v0.2","","""event"",""trial"",""time""
""fullscreenenter"",""1"",""4429""
","
","
","""event"",""trial"",""time""
""fullscreenenter"",""1"",""4429""
","
","","","7729.5999999940395","[""True""]","0","11","10387","4078","","","","","","","","","","","","","","","","","","",""
"pit-instructions","120","931212","0.0-2.0-24.0-1.0","battery-v0.2","","""event"",""trial"",""time""
""fullscreenenter"",""1"",""4429""
","
","
","""event"",""trial"",""time""
""fullscreenenter"",""1"",""4429""
","
","","[{""page_index"":0,""viewing_time"":1792.2000000178814}]","1792.5","","","","","","","","","","","","","","","","","","","","","","","",""
"pit-comprehension","121","938057","0.0-2.0-25.0-0.0","battery-v0.2","","""event"",""trial"",""time""
""fullscreenenter"",""1"",""4429""
","
","
","""event"",""trial"",""time""
""fullscreenenter"",""1"",""4429""
","
","","","6841.299999982119","[""True""]","0","11","10387","4078","","","","","","","","","","","","","","","","","","",""
"pit-instructions","122","940392","0.0-2.0-25.0-1.0","battery-v0.2","","""event"",""trial"",""time""
""fullscreenenter"",""1"",""4429""
","
","
","""event"",""trial"",""time""
""fullscreenenter"",""1"",""4429""
","
","","[{""page_index"":0,""viewing_time"":2288.800000011921}]","2289.2000000178814","","","","","","","","","","","","","","","","","","","","","","","",""
"pit-comprehension","123","946125","0.0-2.0-26.0-0.0","battery-v0.2","","""event"",""trial"",""time""
""fullscreenenter"",""1"",""4429""
","
","
","""event"",""trial"",""time""
""fullscreenenter"",""1"",""4429""
","
","","","5729.5","[""True""]","1","11","10387","4078","","","","","","","","","","","","","","","","","","",""
"pit-instructions","124","953089","0.0-2.0-26.0-1.0","battery-v0.2","","""event"",""trial"",""time""
""fullscreenenter"",""1"",""4429""
","
","
","""event"",""trial"",""time""
""fullscreenenter"",""1"",""4429""
","
","","[{""page_index"":0,""viewing_time"":6920.9000000059605}]","6921.299999982119","","","","","","","","","","","","","","","","","","","","","","","",""
"pit-instructions","125","955280","0.0-2.0-26.0-2.0-0.0","battery-v0.2","","""event"",""trial"",""time""
""fullscreenenter"",""1"",""4429""
","
","
","""event"",""trial"",""time""
""fullscreenenter"",""1"",""4429""
","
","","[{""page_index"":0,""viewing_time"":2187.9000000059605}]","2188.199999988079","","","","","","","","","","","","","","","","","","","","","","","",""
"pit-comprehension","126","959567","0.0-2.0-26.1-0.1","battery-v0.2","","""event"",""trial"",""time""
""fullscreenenter"",""1"",""4429""
","
","
","""event"",""trial"",""time""
""fullscreenenter"",""1"",""4429""
","
","","","4283.5999999940395","[""False""]","0","11","10387","4078","","","","","","","","","","","","","","","","","","",""
"pit-instructions","127","969882","0.0-2.0-26.1-1.1","battery-v0.2","","""event"",""trial"",""time""
""fullscreenenter"",""1"",""4429""
","
","
","""event"",""trial"",""time""
""fullscreenenter"",""1"",""4429""
","
","","[{""page_index"":0,""viewing_time"":10264.200000017881}]","10264.5","","","","","","","","","","","","","","","","","","","","","","","",""
"pit-instructions","128","996478","0.0-3.0","battery-v0.2","","""event"",""trial"",""time""
""fullscreenenter"",""1"",""4429""
","
","
","""event"",""trial"",""time""
""fullscreenenter"",""1"",""4429""
","
","","[{""page_index"":0,""viewing_time"":12678.40000000596},{""page_index"":1,""viewing_time"":6317.0999999940395},{""page_index"":2,""viewing_time"":7596.9000000059605}]","26592.80000001192","","","","","","","","","","","","","","","","","","","","","","","",""
"pit-trial","129","1001336","0.0-4.0","battery-v0.2","","""event"",""trial"",""time""
""fullscreenenter"",""1"",""4429""
","
","
","""event"",""trial"",""time""
""fullscreenenter"",""1"",""4429""
","
","","","-1","","","11","10387","4078","&#9728;","elianto","#f73b6a7A","-1","-1","1","-10","[]","0","1","","","10387","1","0","4","lose","no-go","1"
"pit-trial","130","1006191","0.0-5.0","battery-v0.2","","""event"",""trial"",""time""
""fullscreenenter"",""1"",""4429""
","
","
","""event"",""trial"",""time""
""fullscreenenter"",""1"",""4429""
","
","","","-1","","","11","10387","4078","&#9752;","elianto","#f73b6a7A"," ","-1","0","-10","[]","0","1","","","10387","2","3","3","lose","go","0"
"pit-trial","131","1009725","0.0-6.0","battery-v0.2","","""event"",""trial"",""time""
""fullscreenenter"",""1"",""4429""
","
","
","""event"",""trial"",""time""
""fullscreenenter"",""1"",""4429""
","
","","","673.0999999940395","","","11","10387","4078","&#9730;","elianto","#3366ff99"," "," ","1","+10","[1529.9000000059605]","1","1","","","10387","3","1","1","win","go","0"
"pit-trial","132","1013172","0.0-7.0","battery-v0.2","","""event"",""trial"",""time""
""fullscreenenter"",""1"",""4429""
","
","
","""event"",""trial"",""time""
""fullscreenenter"",""1"",""4429""
","
","","","586.5","","","11","10387","4078","&#9733;","elianto","#3366ff99","-1"," ","0","0","[1443.0999999940395]","1","1","","","10387","4","2","2","win","no-go","0"
"pit-trial","133","1016636","0.0-8.0","battery-v0.2","","""event"",""trial"",""time""
""fullscreenenter"",""1"",""4429""
","
","
","""event"",""trial"",""time""
""fullscreenenter"",""1"",""4429""
","
","","","601.6000000238419","","","11","10387","4078","&#9730;","elianto","#3366ff99"," "," ","1","+10","[1460.0999999940395]","1","1","","","10387","5","1","1","win","go","0"
"pit-trial","134","1021493","0.0-9.0","battery-v0.2","","""event"",""trial"",""time""
""fullscreenenter"",""1"",""4429""
","
","
","""event"",""trial"",""time""
""fullscreenenter"",""1"",""4429""
","
","","","-1","","","11","10387","4078","&#9728;","elianto","#f73b6a7A","-1","-1","1","0","[]","0","1","","","10387","6","0","4","lose","no-go","0"
"pit-trial","135","1024964","0.0-10.0","battery-v0.2","","""event"",""trial"",""time""
""fullscreenenter"",""1"",""4429""
","
","
","""event"",""trial"",""time""
""fullscreenenter"",""1"",""4429""
","
","","","616.0999999940395","","","11","10387","4078","&#9733;","elianto","#3366ff99","-1"," ","0","0","[1467.800000011921]","1","1","","","10387","7","2","2","win","no-go","0"
"pit-trial","136","1029818","0.0-11.0","battery-v0.2","","""event"",""trial"",""time""
""fullscreenenter"",""1"",""4429""
","
","
","""event"",""trial"",""time""
""fullscreenenter"",""1"",""4429""
","
","","","-1","","","11","10387","4078","&#9752;","elianto","#f73b6a7A"," ","-1","0","-10","[]","0","1","","","10387","8","3","3","lose","go","0"
"pit-trial","137","1033356","0.0-12.0","battery-v0.2","","""event"",""trial"",""time""
""fullscreenenter"",""1"",""4429""
","
","
","""event"",""trial"",""time""
""fullscreenenter"",""1"",""4429""
","
","","","683.5","","","11","10387","4078","&#9733;","elianto","#3366ff99","-1"," ","0","0","[1534.7999999821186]","1","1","","","10387","9","2","2","win","no-go","0"
"pit-trial","138","1038210","0.0-13.0","battery-v0.2","","""event"",""trial"",""time""
""fullscreenenter"",""1"",""4429""
","
","
","""event"",""trial"",""time""
""fullscreenenter"",""1"",""4429""
","
","","","-1","","","11","10387","4078","&#9728;","elianto","#f73b6a7A","-1","-1","1","0","[]","0","1","","","10387","10","0","4","lose","no-go","0"
"pit-trial","139","1041564","0.0-14.0","battery-v0.2","","""event"",""trial"",""time""
""fullscreenenter"",""1"",""4429""
","
","
","""event"",""trial"",""time""
""fullscreenenter"",""1"",""4429""
","
","","","499.90000000596046","","","11","10387","4078","&#9730;","elianto","#3366ff99"," "," ","1","+10","[1350.0999999940395]","1","1","","","10387","11","1","1","win","go","0"
"pit-trial","140","1046418","0.0-15.0","battery-v0.2","","""event"",""trial"",""time""
""fullscreenenter"",""1"",""4429""
","
","
","""event"",""trial"",""time""
""fullscreenenter"",""1"",""4429""
","
","","","-1","","","11","10387","4078","&#9752;","elianto","#f73b6a7A"," ","-1","0","-10","[]","0","1","","","10387","12","3","3","lose","go","0"
"pit-trial","141","1049819","0.0-16.0","battery-v0.2","","""event"",""trial"",""time""
""fullscreenenter"",""1"",""4429""
","
","
","""event"",""trial"",""time""
""fullscreenenter"",""1"",""4429""
","
","","","547.0999999940395","","","11","10387","4078","&#9730;","elianto","#3366ff99"," "," ","1","+10","[1397.9000000059605]","1","1","","","10387","13","1","1","win","go","0"
"pit-trial","142","1054674","0.0-17.0","battery-v0.2","","""event"",""trial"",""time""
""fullscreenenter"",""1"",""4429""
","
","
","""event"",""trial"",""time""
""fullscreenenter"",""1"",""4429""
","
","","","-1","","","11","10387","4078","&#9728;","elianto","#f73b6a7A","-1","-1","1","-10","[]","0","1","","","10387","14","0","4","lose","no-go","1"
"pit-trial","143","1058140","0.0-18.0","battery-v0.2","","""event"",""trial"",""time""
""fullscreenenter"",""1"",""4429""
","
","
","""event"",""trial"",""time""
""fullscreenenter"",""1"",""4429""
","
","","","611.5999999940395","","","11","10387","4078","&#9733;","elianto","#3366ff99","-1"," ","0","+10","[1461.7000000178814]","1","1","","","10387","15","2","2","win","no-go","1"
"pit-trial","144","1062996","0.0-19.0","battery-v0.2","","""event"",""trial"",""time""
""fullscreenenter"",""1"",""4429""
","
","
","""event"",""trial"",""time""
""fullscreenenter"",""1"",""4429""
","
","","","-1","","","11","10387","4078","&#9752;","elianto","#f73b6a7A"," ","-1","0","-10","[]","0","1","","","10387","16","3","3","lose","go","0"
"pit-trial","145","1067851","0.0-20.0","battery-v0.2","","""event"",""trial"",""time""
""fullscreenenter"",""1"",""4429""
","
","
","""event"",""trial"",""time""
""fullscreenenter"",""1"",""4429""
","
","","","-1","","","11","10387","4078","&#9728;","elianto","#f73b6a7A","-1","-1","1","0","[]","0","1","","","10387","17","0","4","lose","no-go","0"
"pit-trial","146","1072707","0.0-21.0","battery-v0.2","","""event"",""trial"",""time""
""fullscreenenter"",""1"",""4429""
","
","
","""event"",""trial"",""time""
""fullscreenenter"",""1"",""4429""
","
","","","-1","","","11","10387","4078","&#9752;","elianto","#f73b6a7A"," ","-1","0","-10","[]","0","1","","","10387","18","3","3","lose","go","0"
"pit-trial","147","1076067","0.0-22.0","battery-v0.2","","""event"",""trial"",""time""
""fullscreenenter"",""1"",""4429""
","
","
","""event"",""trial"",""time""
""fullscreenenter"",""1"",""4429""
","
","","","500.80000001192093","","","11","10387","4078","&#9730;","elianto","#3366ff99"," "," ","1","+10","[1352.5999999940395]","1","1","","","10387","19","1","1","win","go","0"
"pit-trial","148","1079427","0.0-23.0","battery-v0.2","","""event"",""trial"",""time""
""fullscreenenter"",""1"",""4429""
","
","
","""event"",""trial"",""time""
""fullscreenenter"",""1"",""4429""
","
","","","504.7999999821186","","","11","10387","4078","&#9733;","elianto","#3366ff99","-1"," ","0","0","[1356]","1","1","","","10387","20","2","2","win","no-go","0"
"pit-instructions","149","1092426","0.0-24.0","battery-v0.2","","""event"",""trial"",""time""
""fullscreenenter"",""1"",""4429""
","
","
","""event"",""trial"",""time""
""fullscreenenter"",""1"",""4429""
","
","","[{""page_index"":0,""viewing_time"":6031.5999999940395},{""page_index"":1,""viewing_time"":6963.9000000059605}]","12996","","","","","","","","","","","","","","","","","","","","","","","",""
"pit-trial","150","1097283","0.0-25.0","battery-v0.2","","""event"",""trial"",""time""
""fullscreenenter"",""1"",""4429""
","
","
","""event"",""trial"",""time""
""fullscreenenter"",""1"",""4429""
","
","","","-1","","","11","10387","4078","u","elianto","#f73b6a7A","-1","-1","1","0","[]","0","2","","","10387","21","0","4","lose","no-go","0"
"pit-trial","151","1102138","0.0-26.0","battery-v0.2","","""event"",""trial"",""time""
""fullscreenenter"",""1"",""4429""
","
","
","""event"",""trial"",""time""
""fullscreenenter"",""1"",""4429""
","
","","","-1","","","11","10387","4078","a","elianto","#f73b6a7A","-1","-1","1","0","[]","0","2","","","10387","22","2","4","lose","no-go","0"
"pit-trial","152","1106993","0.0-27.0","battery-v0.2","","""event"",""trial"",""time""
""fullscreenenter"",""1"",""4429""
","
","
","""event"",""trial"",""time""
""fullscreenenter"",""1"",""4429""
","
","","","-1","","","11","10387","4078","g","elianto","#f73b6a7A"," ","-1","0","-10","[]","0","2","","","10387","23","3","3","lose","go","0"
"pit-trial","153","1110485","0.0-28.0","battery-v0.2","","""event"",""trial"",""time""
""fullscreenenter"",""1"",""4429""
","
","
","""event"",""trial"",""time""
""fullscreenenter"",""1"",""4429""
","
","","","633.2999999821186","","","11","10387","4078","l","elianto","#3366ff99"," "," ","1","+10","[1485.5999999940395]","1","2","","","10387","24","1","1","win","go","0"
"pit-trial","154","1115339","0.0-29.0","battery-v0.2","","""event"",""trial"",""time""
""fullscreenenter"",""1"",""4429""
","
","
","""event"",""trial"",""time""
""fullscreenenter"",""1"",""4429""
","
","","","-1","","","11","10387","4078","g","elianto","#f73b6a7A"," ","-1","0","-10","[]","0","2","","","10387","25","3","3","lose","go","0"
"pit-trial","155","1118747","0.0-30.0","battery-v0.2","","""event"",""trial"",""time""
""fullscreenenter"",""1"",""4429""
","
","
","""event"",""trial"",""time""
""fullscreenenter"",""1"",""4429""
","
","","","545.4000000059605","","","11","10387","4078","l","elianto","#3366ff99"," "," ","1","+10","[1403.800000011921]","1","2","","","10387","26","1","1","win","go","0"
"pit-trial","156","1123602","0.0-31.0","battery-v0.2","","""event"",""trial"",""time""
""fullscreenenter"",""1"",""4429""
","
","
","""event"",""trial"",""time""
""fullscreenenter"",""1"",""4429""
","
","","","-1","","","11","10387","4078","u","elianto","#f73b6a7A","-1","-1","1","0","[]","0","2","","","10387","27","0","4","lose","no-go","0"
"pit-trial","157","1128456","0.0-32.0","battery-v0.2","","""event"",""trial"",""time""
""fullscreenenter"",""1"",""4429""
","
","
","""event"",""trial"",""time""
""fullscreenenter"",""1"",""4429""
","
","","","-1","","","11","10387","4078","a","elianto","#f73b6a7A","-1","-1","1","0","[]","0","2","","","10387","28","2","4","lose","no-go","0"
"pit-trial","158","1133312","0.0-33.0","battery-v0.2","","""event"",""trial"",""time""
""fullscreenenter"",""1"",""4429""
","
","
","""event"",""trial"",""time""
""fullscreenenter"",""1"",""4429""
","
","","","-1","","","11","10387","4078","u","elianto","#f73b6a7A","-1","-1","1","0","[]","0","2","","","10387","29","0","4","lose","no-go","0"
"pit-trial","159","1138168","0.0-34.0","battery-v0.2","","""event"",""trial"",""time""
""fullscreenenter"",""1"",""4429""
","
","
","""event"",""trial"",""time""
""fullscreenenter"",""1"",""4429""
","
","","","-1","","","11","10387","4078","a","elianto","#f73b6a7A","-1","-1","1","0","[]","0","2","","","10387","30","2","4","lose","no-go","0"
"pit-trial","160","1141619","0.0-35.0","battery-v0.2","","""event"",""trial"",""time""
""fullscreenenter"",""1"",""4429""
","
","
","""event"",""trial"",""time""
""fullscreenenter"",""1"",""4429""
","
","","","594.4000000059605","","","11","10387","4078","l","elianto","#3366ff99"," "," ","1","+10","[1446.199999988079]","1","2","","","10387","31","1","1","win","go","0"
"pit-trial","161","1146476","0.0-36.0","battery-v0.2","","""event"",""trial"",""time""
""fullscreenenter"",""1"",""4429""
","
","
","""event"",""trial"",""time""
""fullscreenenter"",""1"",""4429""
","
","","","-1","","","11","10387","4078","g","elianto","#f73b6a7A"," ","-1","0","-10","[]","0","2","","","10387","32","3","3","lose","go","0"
"pit-trial","162","1151333","0.0-37.0","battery-v0.2","","""event"",""trial"",""time""
""fullscreenenter"",""1"",""4429""
","
","
","""event"",""trial"",""time""
""fullscreenenter"",""1"",""4429""
","
","","","-1","","","11","10387","4078","g","elianto","#f73b6a7A"," ","-1","0","-10","[]","0","2","","","10387","33","3","3","lose","go","0"
"pit-trial","163","1156190","0.0-38.0","battery-v0.2","","""event"",""trial"",""time""
""fullscreenenter"",""1"",""4429""
","
","
","""event"",""trial"",""time""
""fullscreenenter"",""1"",""4429""
","
","","","-1","","","11","10387","4078","u","elianto","#f73b6a7A","-1","-1","1","0","[]","0","2","","","10387","34","0","4","lose","no-go","0"
"pit-trial","164","1159683","0.0-39.0","battery-v0.2","","""event"",""trial"",""time""
""fullscreenenter"",""1"",""4429""
","
","
","""event"",""trial"",""time""
""fullscreenenter"",""1"",""4429""
","
","","","637.9000000059605","","","11","10387","4078","l","elianto","#3366ff99"," "," ","1","+10","[1488.9000000059605]","1","2","","","10387","35","1","1","win","go","0"
"pit-trial","165","1164540","0.0-40.0","battery-v0.2","","""event"",""trial"",""time""
""fullscreenenter"",""1"",""4429""
","
","
","""event"",""trial"",""time""
""fullscreenenter"",""1"",""4429""
","
","","","-1","","","11","10387","4078","a","elianto","#f73b6a7A","-1","-1","1","0","[]","0","2","","","10387","36","2","4","lose","no-go","0"
"pit-trial","166","1169395","0.0-41.0","battery-v0.2","","""event"",""trial"",""time""
""fullscreenenter"",""1"",""4429""
","
","
","""event"",""trial"",""time""
""fullscreenenter"",""1"",""4429""
","
","","","-1","","","11","10387","4078","g","elianto","#f73b6a7A"," ","-1","0","-10","[]","0","2","","","10387","37","3","3","lose","go","0"
"pit-trial","167","1172883","0.0-42.0","battery-v0.2","","""event"",""trial"",""time""
""fullscreenenter"",""1"",""4429""
","
","
","""event"",""trial"",""time""
""fullscreenenter"",""1"",""4429""
","
","","","633.5","","","11","10387","4078","l","elianto","#3366ff99"," "," ","1","0","[1484.199999988079]","1","2","","","10387","38","1","1","win","go","1"
"pit-trial","168","1177738","0.0-43.0","battery-v0.2","","""event"",""trial"",""time""
""fullscreenenter"",""1"",""4429""
","
","
","""event"",""trial"",""time""
""fullscreenenter"",""1"",""4429""
","
","","","-1","","","11","10387","4078","a","elianto","#f73b6a7A","-1","-1","1","0","[]","0","2","","","10387","39","2","4","lose","no-go","0"
"pit-trial","169","1182594","0.0-44.0","battery-v0.2","","""event"",""trial"",""time""
""fullscreenenter"",""1"",""4429""
","
","
","""event"",""trial"",""time""
""fullscreenenter"",""1"",""4429""
","
","","","-1","","","11","10387","4078","u","elianto","#f73b6a7A","-1","-1","1","0","[]","0","2","","","10387","40","0","4","lose","no-go","0"
"pit-trial","170","1187450","0.0-45.0","battery-v0.2","","""event"",""trial"",""time""
""fullscreenenter"",""1"",""4429""
","
","
","""event"",""trial"",""time""
""fullscreenenter"",""1"",""4429""
","
","","","-1","","","11","10387","4078","a","elianto","#f73b6a7A","-1","-1","1","0","[]","0","2","","","10387","41","2","4","lose","no-go","0"
"pit-trial","171","1192305","0.0-46.0","battery-v0.2","","""event"",""trial"",""time""
""fullscreenenter"",""1"",""4429""
","
","
","""event"",""trial"",""time""
""fullscreenenter"",""1"",""4429""
","
","","","-1","","","11","10387","4078","g","elianto","#f73b6a7A"," ","-1","0","-10","[]","0","2","","","10387","42","3","3","lose","go","0"
"pit-trial","172","1195747","0.0-47.0","battery-v0.2","","""event"",""trial"",""time""
""fullscreenenter"",""1"",""4429""
","
","
","""event"",""trial"",""time""
""fullscreenenter"",""1"",""4429""
","
","","","584.1999999880791","","","11","10387","4078","l","elianto","#3366ff99"," "," ","1","+10","[1436.7999999821186]","1","2","","","10387","43","1","1","win","go","0"
"pit-trial","173","1200602","0.0-48.0","battery-v0.2","","""event"",""trial"",""time""
""fullscreenenter"",""1"",""4429""
","
","
","""event"",""trial"",""time""
""fullscreenenter"",""1"",""4429""
","
","","","-1","","","11","10387","4078","u","elianto","#f73b6a7A","-1","-1","1","0","[]","0","2","","","10387","44","0","4","lose","no-go","0"
"pit-trial","174","1204074","0.0-49.0","battery-v0.2","","""event"",""trial"",""time""
""fullscreenenter"",""1"",""4429""
","
","
","""event"",""trial"",""time""
""fullscreenenter"",""1"",""4429""
","
","","","616.8000000119209","","","11","10387","4078","p","elianto","#3366ff99","-1"," ","0","+10","[1467.300000011921]","1","2","","","10387","45","4","2","win","no-go","1"
"pit-trial","175","1208929","0.0-50.0","battery-v0.2","","""event"",""trial"",""time""
""fullscreenenter"",""1"",""4429""
","
","
","""event"",""trial"",""time""
""fullscreenenter"",""1"",""4429""
","
","","","-1","","","11","10387","4078","a","elianto","#f73b6a7A","-1","-1","1","0","[]","0","2","","","10387","46","2","4","lose","no-go","0"
"pit-trial","176","1213787","0.0-51.0","battery-v0.2","","""event"",""trial"",""time""
""fullscreenenter"",""1"",""4429""
","
","
","""event"",""trial"",""time""
""fullscreenenter"",""1"",""4429""
","
","","","-1","","","11","10387","4078","g","elianto","#f73b6a7A"," ","-1","0","-10","[]","0","2","","","10387","47","3","3","lose","go","0"
"pit-trial","177","1218644","0.0-52.0","battery-v0.2","","""event"",""trial"",""time""
""fullscreenenter"",""1"",""4429""
","
","
","""event"",""trial"",""time""
""fullscreenenter"",""1"",""4429""
","
","","","-1","","","11","10387","4078","u","elianto","#f73b6a7A","-1","-1","1","0","[]","0","2","","","10387","48","0","4","lose","no-go","0"
"pit-trial","178","1222099","0.0-53.0","battery-v0.2","","""event"",""trial"",""time""
""fullscreenenter"",""1"",""4429""
","
","
","""event"",""trial"",""time""
""fullscreenenter"",""1"",""4429""
","
","","","599.9000000059605","","","11","10387","4078","l","elianto","#3366ff99"," "," ","1","+10","[1450]","1","2","","","10387","49","1","1","win","go","0"
"pit-trial","179","1225572","0.0-54.0","battery-v0.2","","""event"",""trial"",""time""
""fullscreenenter"",""1"",""4429""
","
","
","""event"",""trial"",""time""
""fullscreenenter"",""1"",""4429""
","
","","","618.4000000059605","","","11","10387","4078","p","elianto","#3366ff99","-1"," ","0","0","[1469.0999999940395]","1","2","","","10387","50","4","2","win","no-go","0"
"pit-trial","180","1230430","0.0-55.0","battery-v0.2","","""event"",""trial"",""time""
""fullscreenenter"",""1"",""4429""
","
","
","""event"",""trial"",""time""
""fullscreenenter"",""1"",""4429""
","
","","","-1","","","11","10387","4078","g","elianto","#f73b6a7A"," ","-1","0","-10","[]","0","2","","","10387","51","3","3","lose","go","0"
"pit-trial","181","1235285","0.0-56.0","battery-v0.2","","""event"",""trial"",""time""
""fullscreenenter"",""1"",""4429""
","
","
","""event"",""trial"",""time""
""fullscreenenter"",""1"",""4429""
","
","","","-1","","","11","10387","4078","u","elianto","#f73b6a7A","-1","-1","1","0","[]","0","2","","","10387","52","0","4","lose","no-go","0"
"pit-trial","182","1238813","0.0-57.0","battery-v0.2","","""event"",""trial"",""time""
""fullscreenenter"",""1"",""4429""
","
","
","""event"",""trial"",""time""
""fullscreenenter"",""1"",""4429""
","
","","","670.2999999821186","","","11","10387","4078","p","elianto","#3366ff99","-1"," ","0","0","[1521.5999999940395]","1","2","","","10387","53","4","2","win","no-go","0"
"pit-trial","183","1243666","0.0-58.0","battery-v0.2","","""event"",""trial"",""time""
""fullscreenenter"",""1"",""4429""
","
","
","""event"",""trial"",""time""
""fullscreenenter"",""1"",""4429""
","
","","","-1","","","11","10387","4078","u","elianto","#f73b6a7A","-1","-1","1","-10","[]","0","2","","","10387","54","0","4","lose","no-go","1"
"pit-trial","184","1248523","0.0-59.0","battery-v0.2","","""event"",""trial"",""time""
""fullscreenenter"",""1"",""4429""
","
","
","""event"",""trial"",""time""
""fullscreenenter"",""1"",""4429""
","
","","","-1","","","11","10387","4078","a","elianto","#f73b6a7A","-1","-1","1","-10","[]","0","2","","","10387","55","2","4","lose","no-go","1"
"pit-trial","185","1251917","0.0-60.0","battery-v0.2","","""event"",""trial"",""time""
""fullscreenenter"",""1"",""4429""
","
","
","""event"",""trial"",""time""
""fullscreenenter"",""1"",""4429""
","
","","","537","","","11","10387","4078","l","elianto","#3366ff99"," "," ","1","+10","[1388.199999988079]","1","2","","","10387","56","1","1","win","go","0"
"pit-trial","186","1256771","0.0-61.0","battery-v0.2","","""event"",""trial"",""time""
""fullscreenenter"",""1"",""4429""
","
","
","""event"",""trial"",""time""
""fullscreenenter"",""1"",""4429""
","
","","","-1","","","11","10387","4078","g","elianto","#f73b6a7A"," ","-1","0","-10","[]","0","2","","","10387","57","3","3","lose","go","0"
"pit-trial","187","1260227","0.0-62.0","battery-v0.2","","""event"",""trial"",""time""
""fullscreenenter"",""1"",""4429""
","
","
","""event"",""trial"",""time""
""fullscreenenter"",""1"",""4429""
","
","","","600.8000000119209","","","11","10387","4078","l","elianto","#3366ff99"," "," ","1","0","[1452.4000000059605]","1","2","","","10387","58","1","1","win","go","1"
"pit-trial","188","1263577","0.0-63.0","battery-v0.2","","""event"",""trial"",""time""
""fullscreenenter"",""1"",""4429""
","
","
","""event"",""trial"",""time""
""fullscreenenter"",""1"",""4429""
","
","","","490.59999999403954","","","11","10387","4078","p","elianto","#3366ff99","-1"," ","0","0","[1344]","1","2","","","10387","59","4","2","win","no-go","0"
"pit-trial","189","1268432","0.0-64.0","battery-v0.2","","""event"",""trial"",""time""
""fullscreenenter"",""1"",""4429""
","
","
","""event"",""trial"",""time""
""fullscreenenter"",""1"",""4429""
","
","","","-1","","","11","10387","4078","u","elianto","#f73b6a7A","-1","-1","1","0","[]","0","2","","","10387","60","0","4","lose","no-go","0"
"pit-trial","190","1271779","0.0-65.0","battery-v0.2","","""event"",""trial"",""time""
""fullscreenenter"",""1"",""4429""
","
","
","""event"",""trial"",""time""
""fullscreenenter"",""1"",""4429""
","
","","","491.60000002384186","","","11","10387","4078","p","elianto","#3366ff99","-1"," ","0","0","[1342.300000011921]","1","2","","","10387","61","4","2","win","no-go","0"
"pit-trial","191","1276636","0.0-66.0","battery-v0.2","","""event"",""trial"",""time""
""fullscreenenter"",""1"",""4429""
","
","
","""event"",""trial"",""time""
""fullscreenenter"",""1"",""4429""
","
","","","-1","","","11","10387","4078","g","elianto","#f73b6a7A"," ","-1","0","-10","[]","0","2","","","10387","62","3","3","lose","go","0"
"pit-trial","192","1279994","0.0-67.0","battery-v0.2","","""event"",""trial"",""time""
""fullscreenenter"",""1"",""4429""
","
","
","""event"",""trial"",""time""
""fullscreenenter"",""1"",""4429""
","
","","","503","","","11","10387","4078","l","elianto","#3366ff99"," "," ","1","+10","[1353.5]","1","2","","","10387","63","1","1","win","go","0"
"pit-trial","193","1284849","0.0-68.0","battery-v0.2","","""event"",""trial"",""time""
""fullscreenenter"",""1"",""4429""
","
","
","""event"",""trial"",""time""
""fullscreenenter"",""1"",""4429""
","
","","","-1","","","11","10387","4078","a","elianto","#f73b6a7A","-1","-1","1","0","[]","0","2","","","10387","64","2","4","lose","no-go","0"
"pit-trial","194","1288204","0.0-69.0","battery-v0.2","","""event"",""trial"",""time""
""fullscreenenter"",""1"",""4429""
","
","
","""event"",""trial"",""time""
""fullscreenenter"",""1"",""4429""
","
","","","498.2000000178814","","","11","10387","4078","p","elianto","#3366ff99","-1"," ","0","0","[1348.5]","1","2","","","10387","65","4","2","win","no-go","0"
"pit-trial","195","1293058","0.0-70.0","battery-v0.2","","""event"",""trial"",""time""
""fullscreenenter"",""1"",""4429""
","
","
","""event"",""trial"",""time""
""fullscreenenter"",""1"",""4429""
","
","","","-1","","","11","10387","4078","g","elianto","#f73b6a7A"," ","-1","0","-10","[]","0","2","","","10387","66","3","3","lose","go","0"
"pit-trial","196","1297912","0.0-71.0","battery-v0.2","","""event"",""trial"",""time""
""fullscreenenter"",""1"",""4429""
","
","
","""event"",""trial"",""time""
""fullscreenenter"",""1"",""4429""
","
","","","-1","","","11","10387","4078","a","elianto","#f73b6a7A","-1","-1","1","-10","[]","0","2","","","10387","67","2","4","lose","no-go","1"
"pit-trial","197","1301458","0.0-72.0","battery-v0.2","","""event"",""trial"",""time""
""fullscreenenter"",""1"",""4429""
","
","
","""event"",""trial"",""time""
""fullscreenenter"",""1"",""4429""
","
","","","691","","","11","10387","4078","l","elianto","#3366ff99"," "," ","1","0","[1542.4000000059605]","1","2","","","10387","68","1","1","win","go","1"
"pit-trial","198","1306314","0.0-73.0","battery-v0.2","","""event"",""trial"",""time""
""fullscreenenter"",""1"",""4429""
","
","
","""event"",""trial"",""time""
""fullscreenenter"",""1"",""4429""
","
","","","-1","","","11","10387","4078","g","elianto","#f73b6a7A"," ","-1","0","-10","[]","0","2","","","10387","69","3","3","lose","go","0"
"pit-trial","199","1309706","0.0-74.0","battery-v0.2","","""event"",""trial"",""time""
""fullscreenenter"",""1"",""4429""
","
","
","""event"",""trial"",""time""
""fullscreenenter"",""1"",""4429""
","
","","","532.8999999761581","","","11","10387","4078","l","elianto","#3366ff99"," "," ","1","+10","[1384.5999999940395]","1","2","","","10387","70","1","1","win","go","0"
"pit-trial","200","1313098","0.0-75.0","battery-v0.2","","""event"",""trial"",""time""
""fullscreenenter"",""1"",""4429""
","
","
","""event"",""trial"",""time""
""fullscreenenter"",""1"",""4429""
","
","","","537.7999999821186","","","11","10387","4078","p","elianto","#3366ff99","-1"," ","0","0","[1388.800000011921]","1","2","","","10387","71","4","2","win","no-go","0"
"pit-trial","201","1316499","0.0-76.0","battery-v0.2","","""event"",""trial"",""time""
""fullscreenenter"",""1"",""4429""
","
","
","""event"",""trial"",""time""
""fullscreenenter"",""1"",""4429""
","
","","","546.7999999821186","","","11","10387","4078","s","elianto","#3366ff99"," "," ","1","+10","[1397.199999988079]","1","2","","","10387","72","5","1","win","go","0"
"pit-trial","202","1319850","0.0-77.0","battery-v0.2","","""event"",""trial"",""time""
""fullscreenenter"",""1"",""4429""
","
","
","""event"",""trial"",""time""
""fullscreenenter"",""1"",""4429""
","
","","","496.90000000596046","","","11","10387","4078","l","elianto","#3366ff99"," "," ","1","+10","[1347.199999988079]","1","2","","","10387","73","1","1","win","go","0"
"pit-trial","203","1323233","0.0-78.0","battery-v0.2","","""event"",""trial"",""time""
""fullscreenenter"",""1"",""4429""
","
","
","""event"",""trial"",""time""
""fullscreenenter"",""1"",""4429""
","
","","","529","","","11","10387","4078","s","elianto","#3366ff99"," "," ","1","+10","[1380.199999988079]","1","2","","","10387","74","5","1","win","go","0"
"pit-trial","204","1328173","0.0-79.0","battery-v0.2","","""event"",""trial"",""time""
""fullscreenenter"",""1"",""4429""
","
","
","""event"",""trial"",""time""
""fullscreenenter"",""1"",""4429""
","
","","","-1","","","11","10387","4078","g","elianto","#f73b6a7A"," ","-1","0","-10","[]","0","2","","","10387","75","3","3","lose","go","0"
"pit-trial","205","1331554","0.0-80.0","battery-v0.2","","""event"",""trial"",""time""
""fullscreenenter"",""1"",""4429""
","
","
","""event"",""trial"",""time""
""fullscreenenter"",""1"",""4429""
","
","","","526.2000000178814","","","11","10387","4078","p","elianto","#3366ff99","-1"," ","0","0","[1378.1000000238419]","1","2","","","10387","76","4","2","win","no-go","0"
"pit-trial","206","1336410","0.0-81.0","battery-v0.2","","""event"",""trial"",""time""
""fullscreenenter"",""1"",""4429""
","
","
","""event"",""trial"",""time""
""fullscreenenter"",""1"",""4429""
","
","","","-1","","","11","10387","4078","g","elianto","#f73b6a7A"," ","-1","0","-10","[]","0","2","","","10387","77","3","3","lose","go","0"
"pit-trial","207","1341264","0.0-82.0","battery-v0.2","","""event"",""trial"",""time""
""fullscreenenter"",""1"",""4429""
","
","
","""event"",""trial"",""time""
""fullscreenenter"",""1"",""4429""
","
","","","-1","","","11","10387","4078","w","elianto","#f73b6a7A","-1","-1","1","0","[]","0","2","","","10387","78","6","4","lose","no-go","0"
"pit-trial","208","1344658","0.0-83.0","battery-v0.2","","""event"",""trial"",""time""
""fullscreenenter"",""1"",""4429""
","
","
","""event"",""trial"",""time""
""fullscreenenter"",""1"",""4429""
","
","","","539.1999999880791","","","11","10387","4078","s","elianto","#3366ff99"," "," ","1","+10","[1389.9000000059605]","1","2","","","10387","79","5","1","win","go","0"
"pit-trial","209","1348010","0.0-84.0","battery-v0.2","","""event"",""trial"",""time""
""fullscreenenter"",""1"",""4429""
","
","
","""event"",""trial"",""time""
""fullscreenenter"",""1"",""4429""
","
","","","497","","","11","10387","4078","p","elianto","#3366ff99","-1"," ","0","+10","[1348.5]","1","2","","","10387","80","4","2","win","no-go","1"
"pit-trial","210","1351346","0.0-85.0","battery-v0.2","","""event"",""trial"",""time""
""fullscreenenter"",""1"",""4429""
","
","
","""event"",""trial"",""time""
""fullscreenenter"",""1"",""4429""
","
","","","481.80000001192093","","","11","10387","4078","s","elianto","#3366ff99"," "," ","1","+10","[1331.7999999821186]","1","2","","","10387","81","5","1","win","go","0"
"pit-trial","211","1356200","0.0-86.0","battery-v0.2","","""event"",""trial"",""time""
""fullscreenenter"",""1"",""4429""
","
","
","""event"",""trial"",""time""
""fullscreenenter"",""1"",""4429""
","
","","","-1","","","11","10387","4078","e","elianto","#f73b6a7A"," ","-1","0","-10","[]","0","2","","","10387","82","7","3","lose","go","0"
"pit-trial","212","1361055","0.0-87.0","battery-v0.2","","""event"",""trial"",""time""
""fullscreenenter"",""1"",""4429""
","
","
","""event"",""trial"",""time""
""fullscreenenter"",""1"",""4429""
","
","","","-1","","","11","10387","4078","w","elianto","#f73b6a7A","-1","-1","1","0","[]","0","2","","","10387","83","6","4","lose","no-go","0"
"pit-trial","213","1364409","0.0-88.0","battery-v0.2","","""event"",""trial"",""time""
""fullscreenenter"",""1"",""4429""
","
","
","""event"",""trial"",""time""
""fullscreenenter"",""1"",""4429""
","
","","","501","","","11","10387","4078","p","elianto","#3366ff99","-1"," ","0","+10","[1351.4000000059605]","1","2","","","10387","84","4","2","win","no-go","1"
"pit-trial","214","1369263","0.0-89.0","battery-v0.2","","""event"",""trial"",""time""
""fullscreenenter"",""1"",""4429""
","
","
","""event"",""trial"",""time""
""fullscreenenter"",""1"",""4429""
","
","","","-1","","","11","10387","4078","w","elianto","#f73b6a7A","-1","-1","1","0","[]","0","2","","","10387","85","6","4","lose","no-go","0"
"pit-trial","215","1372619","0.0-90.0","battery-v0.2","","""event"",""trial"",""time""
""fullscreenenter"",""1"",""4429""
","
","
","""event"",""trial"",""time""
""fullscreenenter"",""1"",""4429""
","
","","","499.09999999403954","","","11","10387","4078","p","elianto","#3366ff99","-1"," ","0","0","[1351]","1","2","","","10387","86","4","2","win","no-go","0"
"pit-trial","216","1376002","0.0-91.0","battery-v0.2","","""event"",""trial"",""time""
""fullscreenenter"",""1"",""4429""
","
","
","""event"",""trial"",""time""
""fullscreenenter"",""1"",""4429""
","
","","","529.3000000119209","","","11","10387","4078","s","elianto","#3366ff99"," "," ","1","+10","[1379.800000011921]","1","2","","","10387","87","5","1","win","go","0"
"pit-trial","217","1380856","0.0-92.0","battery-v0.2","","""event"",""trial"",""time""
""fullscreenenter"",""1"",""4429""
","
","
","""event"",""trial"",""time""
""fullscreenenter"",""1"",""4429""
","
","","","-1","","","11","10387","4078","e","elianto","#f73b6a7A"," ","-1","0","-10","[]","0","2","","","10387","88","7","3","lose","go","0"
"pit-trial","218","1384225","0.0-93.0","battery-v0.2","","""event"",""trial"",""time""
""fullscreenenter"",""1"",""4429""
","
","
","""event"",""trial"",""time""
""fullscreenenter"",""1"",""4429""
","
","","","514.7000000178814","","","11","10387","4078","s","elianto","#3366ff99"," "," ","1","+10","[1366.2000000178814]","1","2","","","10387","89","5","1","win","go","0"
"pit-trial","219","1389080","0.0-94.0","battery-v0.2","","""event"",""trial"",""time""
""fullscreenenter"",""1"",""4429""
","
","
","""event"",""trial"",""time""
""fullscreenenter"",""1"",""4429""
","
","","","-1","","","11","10387","4078","w","elianto","#f73b6a7A","-1","-1","1","0","[]","0","2","","","10387","90","6","4","lose","no-go","0"
"pit-trial","220","1393935","0.0-95.0","battery-v0.2","","""event"",""trial"",""time""
""fullscreenenter"",""1"",""4429""
","
","
","""event"",""trial"",""time""
""fullscreenenter"",""1"",""4429""
","
","","","-1","","","11","10387","4078","e","elianto","#f73b6a7A"," ","-1","0","-10","[]","0","2","","","10387","91","7","3","lose","go","0"
"pit-trial","221","1397266","0.0-96.0","battery-v0.2","","""event"",""trial"",""time""
""fullscreenenter"",""1"",""4429""
","
","
","""event"",""trial"",""time""
""fullscreenenter"",""1"",""4429""
","
","","","472.40000000596046","","","11","10387","4078","p","elianto","#3366ff99","-1"," ","0","0","[1327]","1","2","","","10387","92","4","2","win","no-go","0"
"pit-trial","222","1400626","0.0-97.0","battery-v0.2","","""event"",""trial"",""time""
""fullscreenenter"",""1"",""4429""
","
","
","""event"",""trial"",""time""
""fullscreenenter"",""1"",""4429""
","
","","","505.80000001192093","","","11","10387","4078","s","elianto","#3366ff99"," "," ","1","+10","[1356.300000011921]","1","2","","","10387","93","5","1","win","go","0"
"pit-trial","223","1405479","0.0-98.0","battery-v0.2","","""event"",""trial"",""time""
""fullscreenenter"",""1"",""4429""
","
","
","""event"",""trial"",""time""
""fullscreenenter"",""1"",""4429""
","
","","","-1","","","11","10387","4078","e","elianto","#f73b6a7A"," ","-1","0","-10","[]","0","2","","","10387","94","7","3","lose","go","0"
"pit-trial","224","1408825","0.0-99.0","battery-v0.2","","""event"",""trial"",""time""
""fullscreenenter"",""1"",""4429""
","
","
","""event"",""trial"",""time""
""fullscreenenter"",""1"",""4429""
","
","","","490.40000000596046","","","11","10387","4078","d","elianto","#3366ff99","-1"," ","0","0","[1341.5]","1","2","","","10387","95","8","2","win","no-go","0"
"pit-trial","225","1413679","0.0-100.0","battery-v0.2","","""event"",""trial"",""time""
""fullscreenenter"",""1"",""4429""
","
","
","""event"",""trial"",""time""
""fullscreenenter"",""1"",""4429""
","
","","","-1","","","11","10387","4078","w","elianto","#f73b6a7A","-1","-1","1","0","[]","0","2","","","10387","96","6","4","lose","no-go","0"
"pit-trial","226","1418535","0.0-101.0","battery-v0.2","","""event"",""trial"",""time""
""fullscreenenter"",""1"",""4429""
","
","
","""event"",""trial"",""time""
""fullscreenenter"",""1"",""4429""
","
","","","-1","","","11","10387","4078","w","elianto","#f73b6a7A","-1","-1","1","-10","[]","0","2","","","10387","97","6","4","lose","no-go","1"
"pit-trial","227","1421986","0.0-102.0","battery-v0.2","","""event"",""trial"",""time""
""fullscreenenter"",""1"",""4429""
","
","
","""event"",""trial"",""time""
""fullscreenenter"",""1"",""4429""
","
","","","595.9000000059605","","","11","10387","4078","d","elianto","#3366ff99","-1"," ","0","0","[1446.4000000059605]","1","2","","","10387","98","8","2","win","no-go","0"
"pit-trial","228","1426842","0.0-103.0","battery-v0.2","","""event"",""trial"",""time""
""fullscreenenter"",""1"",""4429""
","
","
","""event"",""trial"",""time""
""fullscreenenter"",""1"",""4429""
","
","","","-1","","","11","10387","4078","e","elianto","#f73b6a7A"," ","-1","0","-10","[]","0","2","","","10387","99","7","3","lose","go","0"
"pit-trial","229","1430202","0.0-104.0","battery-v0.2","","""event"",""trial"",""time""
""fullscreenenter"",""1"",""4429""
","
","
","""event"",""trial"",""time""
""fullscreenenter"",""1"",""4429""
","
","","","505.2999999821186","","","11","10387","4078","s","elianto","#3366ff99"," "," ","1","+10","[1355.300000011921]","1","2","","","10387","100","5","1","win","go","0"
"pit-trial","230","1435055","0.0-105.0","battery-v0.2","","""event"",""trial"",""time""
""fullscreenenter"",""1"",""4429""
","
","
","""event"",""trial"",""time""
""fullscreenenter"",""1"",""4429""
","
","","","-1","","","11","10387","4078","w","elianto","#f73b6a7A","-1","-1","1","0","[]","0","2","","","10387","101","6","4","lose","no-go","0"
"pit-trial","231","1438465","0.0-106.0","battery-v0.2","","""event"",""trial"",""time""
""fullscreenenter"",""1"",""4429""
","
","
","""event"",""trial"",""time""
""fullscreenenter"",""1"",""4429""
","
","","","553.3999999761581","","","11","10387","4078","j","elianto","#3366ff99","-1"," ","0","0","[1404.2999999821186]","1","2","","","10387","102","9","2","win","no-go","0"
"pit-trial","232","1441880","0.0-107.0","battery-v0.2","","""event"",""trial"",""time""
""fullscreenenter"",""1"",""4429""
","
","
","""event"",""trial"",""time""
""fullscreenenter"",""1"",""4429""
","
","","","561","","","11","10387","4078","s","elianto","#3366ff99"," "," ","1","0","[1412.0999999940395]","1","2","","","10387","103","5","1","win","go","1"
"pit-trial","233","1445385","0.0-108.0","battery-v0.2","","""event"",""trial"",""time""
""fullscreenenter"",""1"",""4429""
","
","
","""event"",""trial"",""time""
""fullscreenenter"",""1"",""4429""
","
","","","650","","","11","10387","4078","d","elianto","#3366ff99","-1"," ","0","0","[1501.5999999940395]","1","2","","","10387","104","8","2","win","no-go","0"
"pit-trial","234","1448744","0.0-109.0","battery-v0.2","","""event"",""trial"",""time""
""fullscreenenter"",""1"",""4429""
","
","
","""event"",""trial"",""time""
""fullscreenenter"",""1"",""4429""
","
","","","503.7999999821186","","","11","10387","4078","d","elianto","#3366ff99","-1"," ","0","+10","[1354.699999988079]","1","2","","","10387","105","8","2","win","no-go","1"
"pit-trial","235","1452151","0.0-110.0","battery-v0.2","","""event"",""trial"",""time""
""fullscreenenter"",""1"",""4429""
","
","
","""event"",""trial"",""time""
""fullscreenenter"",""1"",""4429""
","
","","","553.2000000178814","","","11","10387","4078","s","elianto","#3366ff99"," "," ","1","+10","[1404.300000011921]","1","2","","","10387","106","5","1","win","go","0"
"pit-trial","236","1455592","0.0-111.0","battery-v0.2","","""event"",""trial"",""time""
""fullscreenenter"",""1"",""4429""
","
","
","""event"",""trial"",""time""
""fullscreenenter"",""1"",""4429""
","
","","","585.8000000119209","","","11","10387","4078","j","elianto","#3366ff99","-1"," ","0","0","[1437.5]","1","2","","","10387","107","9","2","win","no-go","0"
"pit-trial","237","1460447","0.0-112.0","battery-v0.2","","""event"",""trial"",""time""
""fullscreenenter"",""1"",""4429""
","
","
","""event"",""trial"",""time""
""fullscreenenter"",""1"",""4429""
","
","","","-1","","","11","10387","4078","w","elianto","#f73b6a7A","-1","-1","1","0","[]","0","2","","","10387","108","6","4","lose","no-go","0"
"pit-trial","238","1463840","0.0-113.0","battery-v0.2","","""event"",""trial"",""time""
""fullscreenenter"",""1"",""4429""
","
","
","""event"",""trial"",""time""
""fullscreenenter"",""1"",""4429""
","
","","","539","","","11","10387","4078","s","elianto","#3366ff99"," "," ","1","+10","[1389.9000000059605]","1","2","","","10387","109","5","1","win","go","0"
"pit-trial","239","1468695","0.0-114.0","battery-v0.2","","""event"",""trial"",""time""
""fullscreenenter"",""1"",""4429""
","
","
","""event"",""trial"",""time""
""fullscreenenter"",""1"",""4429""
","
","","","-1","","","11","10387","4078","w","elianto","#f73b6a7A","-1","-1","1","0","[]","0","2","","","10387","110","6","4","lose","no-go","0"
"pit-trial","240","1472056","0.0-115.0","battery-v0.2","","""event"",""trial"",""time""
""fullscreenenter"",""1"",""4429""
","
","
","""event"",""trial"",""time""
""fullscreenenter"",""1"",""4429""
","
","","","507.90000000596046","","","11","10387","4078","d","elianto","#3366ff99","-1"," ","0","0","[1358.7000000178814]","1","2","","","10387","111","8","2","win","no-go","0"
"pit-trial","241","1475457","0.0-116.0","battery-v0.2","","""event"",""trial"",""time""
""fullscreenenter"",""1"",""4429""
","
","
","""event"",""trial"",""time""
""fullscreenenter"",""1"",""4429""
","
","","","547.1000000238419","","","11","10387","4078","j","elianto","#3366ff99","-1"," ","0","0","[1397.300000011921]","1","2","","","10387","112","9","2","win","no-go","0"
"pit-trial","242","1478841","0.0-117.0","battery-v0.2","","""event"",""trial"",""time""
""fullscreenenter"",""1"",""4429""
","
","
","""event"",""trial"",""time""
""fullscreenenter"",""1"",""4429""
","
","","","529.8000000119209","","","11","10387","4078","s","elianto","#3366ff99"," "," ","1","0","[1380]","1","2","","","10387","113","5","1","win","go","1"
"pit-trial","243","1483696","0.0-118.0","battery-v0.2","","""event"",""trial"",""time""
""fullscreenenter"",""1"",""4429""
","
","
","""event"",""trial"",""time""
""fullscreenenter"",""1"",""4429""
","
","","","-1","","","11","10387","4078","e","elianto","#f73b6a7A"," ","-1","0","0","[]","0","2","","","10387","114","7","3","lose","go","1"
"pit-trial","244","1487057","0.0-119.0","battery-v0.2","","""event"",""trial"",""time""
""fullscreenenter"",""1"",""4429""
","
","
","""event"",""trial"",""time""
""fullscreenenter"",""1"",""4429""
","
","","","506.40000000596046","","","11","10387","4078","j","elianto","#3366ff99","-1"," ","0","+10","[1357.199999988079]","1","2","","","10387","115","9","2","win","no-go","1"
"pit-trial","245","1490499","0.0-120.0","battery-v0.2","","""event"",""trial"",""time""
""fullscreenenter"",""1"",""4429""
","
","
","""event"",""trial"",""time""
""fullscreenenter"",""1"",""4429""
","
","","","585.9000000059605","","","11","10387","4078","d","elianto","#3366ff99","-1"," ","0","0","[1436.800000011921]","1","2","","","10387","116","8","2","win","no-go","0"
"pit-trial","246","1495354","0.0-121.0","battery-v0.2","","""event"",""trial"",""time""
""fullscreenenter"",""1"",""4429""
","
","
","""event"",""trial"",""time""
""fullscreenenter"",""1"",""4429""
","
","","","-1","","","11","10387","4078","w","elianto","#f73b6a7A","-1","-1","1","0","[]","0","2","","","10387","117","6","4","lose","no-go","0"
"pit-trial","247","1498753","0.0-122.0","battery-v0.2","","""event"",""trial"",""time""
""fullscreenenter"",""1"",""4429""
","
","
","""event"",""trial"",""time""
""fullscreenenter"",""1"",""4429""
","
","","","545.7999999821186","","","11","10387","4078","d","elianto","#3366ff99","-1"," ","0","0","[1396.4000000059605]","1","2","","","10387","118","8","2","win","no-go","0"
"pit-trial","248","1502112","0.0-123.0","battery-v0.2","","""event"",""trial"",""time""
""fullscreenenter"",""1"",""4429""
","
","
","""event"",""trial"",""time""
""fullscreenenter"",""1"",""4429""
","
","","","505","","","11","10387","4078","s","elianto","#3366ff99"," "," ","1","+10","[1355.9000000059605]","1","2","","","10387","119","5","1","win","go","0"
"pit-trial","249","1505432","0.0-124.0","battery-v0.2","","""event"",""trial"",""time""
""fullscreenenter"",""1"",""4429""
","
","
","""event"",""trial"",""time""
""fullscreenenter"",""1"",""4429""
","
","","","464.59999999403954","","","11","10387","4078","j","elianto","#3366ff99","-1"," ","0","0","[1316.699999988079]","1","2","","","10387","120","9","2","win","no-go","0"
"pit-trial","250","1508817","0.0-125.0","battery-v0.2","","""event"",""trial"",""time""
""fullscreenenter"",""1"",""4429""
","
","
","""event"",""trial"",""time""
""fullscreenenter"",""1"",""4429""
","
","","","530","","","11","10387","4078","d","elianto","#3366ff99","-1"," ","0","0","[1381.1000000238419]","1","2","","","10387","121","8","2","win","no-go","0"
"pit-trial","251","1513672","0.0-126.0","battery-v0.2","","""event"",""trial"",""time""
""fullscreenenter"",""1"",""4429""
","
","
","""event"",""trial"",""time""
""fullscreenenter"",""1"",""4429""
","
","","","-1","","","11","10387","4078","e","elianto","#f73b6a7A"," ","-1","0","-10","[]","0","2","","","10387","122","7","3","lose","go","0"
"pit-trial","252","1517089","0.0-127.0","battery-v0.2","","""event"",""trial"",""time""
""fullscreenenter"",""1"",""4429""
","
","
","""event"",""trial"",""time""
""fullscreenenter"",""1"",""4429""
","
","","","562.4000000059605","","","11","10387","4078","s","elianto","#3366ff99"," "," ","1","+10","[1413.2000000178814]","1","2","","","10387","123","5","1","win","go","0"
"pit-trial","253","1520584","0.0-128.0","battery-v0.2","","""event"",""trial"",""time""
""fullscreenenter"",""1"",""4429""
","
","
","""event"",""trial"",""time""
""fullscreenenter"",""1"",""4429""
","
","","","641.2000000178814","","","11","10387","4078","j","elianto","#3366ff99","-1"," ","0","+10","[1492.4000000059605]","1","2","","","10387","124","9","2","win","no-go","1"
"pit-trial","254","1523977","0.0-129.0","battery-v0.2","","""event"",""trial"",""time""
""fullscreenenter"",""1"",""4429""
","
","
","""event"",""trial"",""time""
""fullscreenenter"",""1"",""4429""
","
","","","538.6999999880791","","","11","10387","4078","d","elianto","#3366ff99","-1"," ","0","0","[1388.9000000059605]","1","2","","","10387","125","8","2","win","no-go","0"
"pit-trial","255","1528832","0.0-130.0","battery-v0.2","","""event"",""trial"",""time""
""fullscreenenter"",""1"",""4429""
","
","
","""event"",""trial"",""time""
""fullscreenenter"",""1"",""4429""
","
","","","-1","","","11","10387","4078","w","elianto","#f73b6a7A","-1","-1","1","0","[]","0","2","","","10387","126","6","4","lose","no-go","0"
"pit-trial","256","1532232","0.0-131.0","battery-v0.2","","""event"",""trial"",""time""
""fullscreenenter"",""1"",""4429""
","
","
","""event"",""trial"",""time""
""fullscreenenter"",""1"",""4429""
","
","","","546","","","11","10387","4078","j","elianto","#3366ff99","-1"," ","0","0","[1396.5999999940395]","1","2","","","10387","127","9","2","win","no-go","0"
"pit-trial","257","1537086","0.0-132.0","battery-v0.2","","""event"",""trial"",""time""
""fullscreenenter"",""1"",""4429""
","
","
","""event"",""trial"",""time""
""fullscreenenter"",""1"",""4429""
","
","","","-1","","","11","10387","4078","e","elianto","#f73b6a7A"," ","-1","0","-10","[]","0","2","","","10387","128","7","3","lose","go","0"
"pit-trial","258","1541940","0.0-133.0","battery-v0.2","","""event"",""trial"",""time""
""fullscreenenter"",""1"",""4429""
","
","
","""event"",""trial"",""time""
""fullscreenenter"",""1"",""4429""
","
","","","-1","","","11","10387","4078","e","elianto","#f73b6a7A"," ","-1","0","-10","[]","0","2","","","10387","129","7","3","lose","go","0"
"pit-trial","259","1546795","0.0-134.0","battery-v0.2","","""event"",""trial"",""time""
""fullscreenenter"",""1"",""4429""
","
","
","""event"",""trial"",""time""
""fullscreenenter"",""1"",""4429""
","
","","","-1","","","11","10387","4078","w","elianto","#f73b6a7A","-1","-1","1","0","[]","0","2","","","10387","130","6","4","lose","no-go","0"
"pit-trial","260","1550249","0.0-135.0","battery-v0.2","","""event"",""trial"",""time""
""fullscreenenter"",""1"",""4429""
","
","
","""event"",""trial"",""time""
""fullscreenenter"",""1"",""4429""
","
","","","599.0999999940395","","","11","10387","4078","d","elianto","#3366ff99","-1"," ","0","0","[1449.199999988079]","1","2","","","10387","131","8","2","win","no-go","0"
"pit-trial","261","1553776","0.0-136.0","battery-v0.2","","""event"",""trial"",""time""
""fullscreenenter"",""1"",""4429""
","
","
","""event"",""trial"",""time""
""fullscreenenter"",""1"",""4429""
","
","","","670.4000000059605","","","11","10387","4078","j","elianto","#3366ff99","-1"," ","0","0","[1521.2000000178814]","1","2","","","10387","132","9","2","win","no-go","0"
"pit-trial","262","1558631","0.0-137.0","battery-v0.2","","""event"",""trial"",""time""
""fullscreenenter"",""1"",""4429""
","
","
","""event"",""trial"",""time""
""fullscreenenter"",""1"",""4429""
","
","","","-1","","","11","10387","4078","e","elianto","#f73b6a7A"," ","-1","0","0","[]","0","2","","","10387","133","7","3","lose","go","1"
"pit-trial","263","1562000","0.0-138.0","battery-v0.2","","""event"",""trial"",""time""
""fullscreenenter"",""1"",""4429""
","
","
","""event"",""trial"",""time""
""fullscreenenter"",""1"",""4429""
","
","","","514.2000000178814","","","11","10387","4078","j","elianto","#3366ff99","-1"," ","0","0","[1365.0999999940395]","1","2","","","10387","134","9","2","win","no-go","0"
"pit-trial","264","1566855","0.0-139.0","battery-v0.2","","""event"",""trial"",""time""
""fullscreenenter"",""1"",""4429""
","
","
","""event"",""trial"",""time""
""fullscreenenter"",""1"",""4429""
","
","","","-1","","","11","10387","4078","w","elianto","#f73b6a7A","-1","-1","1","0","[]","0","2","","","10387","135","6","4","lose","no-go","0"
"pit-trial","265","1570232","0.0-140.0","battery-v0.2","","""event"",""trial"",""time""
""fullscreenenter"",""1"",""4429""
","
","
","""event"",""trial"",""time""
""fullscreenenter"",""1"",""4429""
","
","","","521.6999999880791","","","11","10387","4078","d","elianto","#3366ff99","-1"," ","0","0","[1372]","1","2","","","10387","136","8","2","win","no-go","0"
"pit-trial","266","1575087","0.0-141.0","battery-v0.2","","""event"",""trial"",""time""
""fullscreenenter"",""1"",""4429""
","
","
","""event"",""trial"",""time""
""fullscreenenter"",""1"",""4429""
","
","","","-1","","","11","10387","4078","e","elianto","#f73b6a7A"," ","-1","0","-10","[3762.399999976158]","1","2","","","10387","137","7","3","lose","go","0"
"pit-trial","267","1579943","0.0-142.0","battery-v0.2","","""event"",""trial"",""time""
""fullscreenenter"",""1"",""4429""
","
","
","""event"",""trial"",""time""
""fullscreenenter"",""1"",""4429""
","
","","","-1","","","11","10387","4078","w","elianto","#f73b6a7A","-1","-1","1","0","[]","0","2","","","10387","138","6","4","lose","no-go","0"
