"trial_type","trial_index","time_elapsed","internal_node_id","task_version","subject_id","interactions","blur_events","focus_events","fullscreenenter_events","fullscreenexit_events","success","view_history","rt","responses","num_errors","age","subject","participantId","rune","rune_set","hex","correct","choice","accuracy","outcome","keys","total_keys","block","practice","value","sub","trial","stimulus","robot","valence","action","sham"
"pavlovia","0","10","0.0-0.0","battery-v0.2","","""event"",""trial"",""time""
""fullscreenenter"",""1"",""1960""
","
","
","""event"",""trial"",""time""
""fullscreenenter"",""1"",""1960""
","
","","","","","","","","","","","","","","","","","","","","","","","","","","",""
"fullscreen","1","2956","0.0-1.0","battery-v0.2","","""event"",""trial"",""time""
""fullscreenenter"",""1"",""1960""
","
","
","""event"",""trial"",""time""
""fullscreenenter"",""1"",""1960""
","
","true","","","","","","","","","","","","","","","","","","","","","","","","","",""
"pit-instructions","2","7586","0.0-2.0-0.0","battery-v0.2","","""event"",""trial"",""time""
""fullscreenenter"",""1"",""1960""
""blur"",""3"",""12465""
""focus"",""3"",""15073""
","""event"",""trial"",""time""
""blur"",""3"",""12465""
","""event"",""trial"",""time""
""focus"",""3"",""15073""
","""event"",""trial"",""time""
""fullscreenenter"",""1"",""1960""
","
","","[{""page_index"":0,""viewing_time"":4623.699999988079}]","4625.099999964237","","","","","","","","","","","","","","","","","","","","","","","",""
"pit-comprehension","3","16008","0.0-2.0-1.0-0.0","battery-v0.2","","""event"",""trial"",""time""
""fullscreenenter"",""1"",""1960""
""blur"",""3"",""12465""
""focus"",""3"",""15073""
","""event"",""trial"",""time""
""blur"",""3"",""12465""
","""event"",""trial"",""time""
""focus"",""3"",""15073""
","""event"",""trial"",""time""
""fullscreenenter"",""1"",""1960""
","
","","","8414.5","[""shark""]","0","25","3173","877","","","","","","","","","","","","","","","","","","",""
"pit-instructions","4","17105","0.0-2.0-1.0-1.0","battery-v0.2","","""event"",""trial"",""time""
""fullscreenenter"",""1"",""1960""
""blur"",""3"",""12465""
""focus"",""3"",""15073""
","""event"",""trial"",""time""
""blur"",""3"",""12465""
","""event"",""trial"",""time""
""focus"",""3"",""15073""
","""event"",""trial"",""time""
""fullscreenenter"",""1"",""1960""
","
","","[{""page_index"":0,""viewing_time"":1080.8999999761581}]","1081.5999999642372","","","","","","","","","","","","","","","","","","","","","","","",""
"pit-comprehension","5","20642","0.0-2.0-2.0-0.0","battery-v0.2","","""event"",""trial"",""time""
""fullscreenenter"",""1"",""1960""
""blur"",""3"",""12465""
""focus"",""3"",""15073""
","""event"",""trial"",""time""
""blur"",""3"",""12465""
","""event"",""trial"",""time""
""focus"",""3"",""15073""
","""event"",""trial"",""time""
""fullscreenenter"",""1"",""1960""
","
","","","3526.399999976158","[""tiger""]","0","25","3173","877","","","","","","","","","","","","","","","","","","",""
"pit-instructions","6","25394","0.0-2.0-2.0-1.0","battery-v0.2","","""event"",""trial"",""time""
""fullscreenenter"",""1"",""1960""
""blur"",""3"",""12465""
""focus"",""3"",""15073""
","""event"",""trial"",""time""
""blur"",""3"",""12465""
","""event"",""trial"",""time""
""focus"",""3"",""15073""
","""event"",""trial"",""time""
""fullscreenenter"",""1"",""1960""
","
","","[{""page_index"":0,""viewing_time"":4743.400000035763}]","4744.300000011921","","","","","","","","","","","","","","","","","","","","","","","",""
"pit-instructions","7","128721","0.0-2.0-3.0","battery-v0.2","","""event"",""trial"",""time""
""fullscreenenter"",""1"",""1960""
""blur"",""3"",""12465""
""focus"",""3"",""15073""
","""event"",""trial"",""time""
""blur"",""3"",""12465""
","""event"",""trial"",""time""
""focus"",""3"",""15073""
","""event"",""trial"",""time""
""fullscreenenter"",""1"",""1960""
","
","","[{""page_index"":0,""viewing_time"":9011.100000023842},{""page_index"":1,""viewing_time"":6252.5},{""page_index"":2,""viewing_time"":6720.199999988079},{""page_index"":3,""viewing_time"":6403.600000023842},{""page_index"":4,""viewing_time"":6619.199999988079},{""page_index"":5,""viewing_time"":5769.600000023842},{""page_index"":6,""viewing_time"":7136},{""page_index"":7,""viewing_time"":7904.599999964237},{""page_index"":8,""viewing_time"":6936.100000023842},{""page_index"":9,""viewing_time"":9004.300000011921},{""page_index"":10,""viewing_time"":9120.899999976158},{""page_index"":11,""viewing_time"":10038.5},{""page_index"":12,""viewing_time"":6952.699999988079},{""page_index"":13,""viewing_time"":5452.800000011921}]","103323.10000002384","","","","","","","","","","","","","","","","","","","","","","","",""
"pit-trial","8","132184","0.0-2.0-4.0-0.0","battery-v0.2","","""event"",""trial"",""time""
""fullscreenenter"",""1"",""1960""
""blur"",""3"",""12465""
""focus"",""3"",""15073""
","""event"",""trial"",""time""
""blur"",""3"",""12465""
","""event"",""trial"",""time""
""focus"",""3"",""15073""
","""event"",""trial"",""time""
""fullscreenenter"",""1"",""1960""
","
","","","597.1000000238419","","","25","3173","877","&#9784;","elianto","#FFFFF080"," "," ","1","&#10004","[1450.8999999761581]","1","0","0","","","","","","","",""
"pit-trial","9","135738","0.0-2.0-4.1-0.1","battery-v0.2","","""event"",""trial"",""time""
""fullscreenenter"",""1"",""1960""
""blur"",""3"",""12465""
""focus"",""3"",""15073""
","""event"",""trial"",""time""
""blur"",""3"",""12465""
","""event"",""trial"",""time""
""focus"",""3"",""15073""
","""event"",""trial"",""time""
""fullscreenenter"",""1"",""1960""
","
","","","685.3000000119209","","","25","3173","877","&#9784;","elianto","#FFFFF080"," "," ","1","&#10004","[1540.199999988079]","1","0","0","","","","","","","",""
"pit-trial","10","139460","0.0-2.0-4.2-0.2","battery-v0.2","","""event"",""trial"",""time""
""fullscreenenter"",""1"",""1960""
""blur"",""3"",""12465""
""focus"",""3"",""15073""
","""event"",""trial"",""time""
""blur"",""3"",""12465""
","""event"",""trial"",""time""
""focus"",""3"",""15073""
","""event"",""trial"",""time""
""fullscreenenter"",""1"",""1960""
","
","","","852.8999999761581","","","25","3173","877","&#9784;","elianto","#FFFFF080"," "," ","1","&#10004","[1707.6000000238419]","1","0","0","","","","","","","",""
"pit-trial","11","142968","0.0-2.0-4.3-0.3","battery-v0.2","","""event"",""trial"",""time""
""fullscreenenter"",""1"",""1960""
""blur"",""3"",""12465""
""focus"",""3"",""15073""
","""event"",""trial"",""time""
""blur"",""3"",""12465""
","""event"",""trial"",""time""
""focus"",""3"",""15073""
","""event"",""trial"",""time""
""fullscreenenter"",""1"",""1960""
","
","","","643","","","25","3173","877","&#9784;","elianto","#FFFFF080"," "," ","1","&#10004","[1495.6000000238419]","1","0","0","","","","","","","",""
"pit-trial","12","146546","0.0-2.0-4.4-0.4","battery-v0.2","","""event"",""trial"",""time""
""fullscreenenter"",""1"",""1960""
""blur"",""3"",""12465""
""focus"",""3"",""15073""
","""event"",""trial"",""time""
""blur"",""3"",""12465""
","""event"",""trial"",""time""
""focus"",""3"",""15073""
","""event"",""trial"",""time""
""fullscreenenter"",""1"",""1960""
","
","","","712.0999999642372","","","25","3173","877","&#9784;","elianto","#FFFFF080"," "," ","1","&#10004","[1566.6000000238419]","1","0","0","","","","","","","",""
"pit-instructions","13","171139","0.0-2.0-5.0","battery-v0.2","","""event"",""trial"",""time""
""fullscreenenter"",""1"",""1960""
""blur"",""3"",""12465""
""focus"",""3"",""15073""
","""event"",""trial"",""time""
""blur"",""3"",""12465""
","""event"",""trial"",""time""
""focus"",""3"",""15073""
","""event"",""trial"",""time""
""fullscreenenter"",""1"",""1960""
","
","","[{""page_index"":0,""viewing_time"":5361},{""page_index"":1,""viewing_time"":6219.199999988079},{""page_index"":2,""viewing_time"":5602.400000035763},{""page_index"":3,""viewing_time"":7403}]","24586.5","","","","","","","","","","","","","","","","","","","","","","","",""
"pit-trial","14","175996","0.0-2.0-6.0-0.0","battery-v0.2","","""event"",""trial"",""time""
""fullscreenenter"",""1"",""1960""
""blur"",""3"",""12465""
""focus"",""3"",""15073""
","""event"",""trial"",""time""
""blur"",""3"",""12465""
","""event"",""trial"",""time""
""focus"",""3"",""15073""
","""event"",""trial"",""time""
""fullscreenenter"",""1"",""1960""
","
","","","-1","","","25","3173","877","&#9854;","elianto","#FFFFF080","-1","-1","1","&#10004","[]","0","0","1","","","","","","","",""
"pit-trial","15","180862","0.0-2.0-6.1-0.1","battery-v0.2","","""event"",""trial"",""time""
""fullscreenenter"",""1"",""1960""
""blur"",""3"",""12465""
""focus"",""3"",""15073""
","""event"",""trial"",""time""
""blur"",""3"",""12465""
","""event"",""trial"",""time""
""focus"",""3"",""15073""
","""event"",""trial"",""time""
""fullscreenenter"",""1"",""1960""
","
","","","-1","","","25","3173","877","&#9854;","elianto","#FFFFF080","-1","-1","1","&#10004","[]","0","0","1","","","","","","","",""
"pit-trial","16","185723","0.0-2.0-6.2-0.2","battery-v0.2","","""event"",""trial"",""time""
""fullscreenenter"",""1"",""1960""
""blur"",""3"",""12465""
""focus"",""3"",""15073""
","""event"",""trial"",""time""
""blur"",""3"",""12465""
","""event"",""trial"",""time""
""focus"",""3"",""15073""
","""event"",""trial"",""time""
""fullscreenenter"",""1"",""1960""
","
","","","-1","","","25","3173","877","&#9854;","elianto","#FFFFF080","-1","-1","1","&#10004","[]","0","0","1","","","","","","","",""
"pit-trial","17","190586","0.0-2.0-6.3-0.3","battery-v0.2","","""event"",""trial"",""time""
""fullscreenenter"",""1"",""1960""
""blur"",""3"",""12465""
""focus"",""3"",""15073""
","""event"",""trial"",""time""
""blur"",""3"",""12465""
","""event"",""trial"",""time""
""focus"",""3"",""15073""
","""event"",""trial"",""time""
""fullscreenenter"",""1"",""1960""
","
","","","-1","","","25","3173","877","&#9854;","elianto","#FFFFF080","-1","-1","1","&#10004","[]","0","0","1","","","","","","","",""
"pit-trial","18","195453","0.0-2.0-6.4-0.4","battery-v0.2","","""event"",""trial"",""time""
""fullscreenenter"",""1"",""1960""
""blur"",""3"",""12465""
""focus"",""3"",""15073""
","""event"",""trial"",""time""
""blur"",""3"",""12465""
","""event"",""trial"",""time""
""focus"",""3"",""15073""
","""event"",""trial"",""time""
""fullscreenenter"",""1"",""1960""
","
","","","-1","","","25","3173","877","&#9854;","elianto","#FFFFF080","-1","-1","1","&#10004","[]","0","0","1","","","","","","","",""
"pit-instructions","19","345434","0.0-2.0-7.0","battery-v0.2","","""event"",""trial"",""time""
""fullscreenenter"",""1"",""1960""
""blur"",""3"",""12465""
""focus"",""3"",""15073""
","""event"",""trial"",""time""
""blur"",""3"",""12465""
","""event"",""trial"",""time""
""focus"",""3"",""15073""
","""event"",""trial"",""time""
""fullscreenenter"",""1"",""1960""
","
","","[{""page_index"":0,""viewing_time"":6942.200000047684},{""page_index"":1,""viewing_time"":7737.299999952316},{""page_index"":2,""viewing_time"":6670.100000023842},{""page_index"":3,""viewing_time"":8354},{""page_index"":4,""viewing_time"":6135.600000023842},{""page_index"":5,""viewing_time"":28847},{""page_index"":6,""viewing_time"":4969.099999964237},{""page_index"":7,""viewing_time"":8520.800000011921},{""page_index"":8,""viewing_time"":6902.5},{""page_index"":9,""viewing_time"":7274.399999976158},{""page_index"":10,""viewing_time"":7216.5},{""page_index"":11,""viewing_time"":5235.300000011921},{""page_index"":12,""viewing_time"":7437.300000011921},{""page_index"":13,""viewing_time"":7454},{""page_index"":14,""viewing_time"":7452.600000023842},{""page_index"":15,""viewing_time"":7504.399999976158},{""page_index"":16,""viewing_time"":7419.399999976158},{""page_index"":17,""viewing_time"":7903.800000011921}]","149977.90000003576","","","","","","","","","","","","","","","","","","","","","","","",""
"pit-trial","20","348972","0.0-2.0-8.0-0.0","battery-v0.2","","""event"",""trial"",""time""
""fullscreenenter"",""1"",""1960""
""blur"",""3"",""12465""
""focus"",""3"",""15073""
","""event"",""trial"",""time""
""blur"",""3"",""12465""
","""event"",""trial"",""time""
""focus"",""3"",""15073""
","""event"",""trial"",""time""
""fullscreenenter"",""1"",""1960""
","
","","","676.3000000119209","","","25","3173","877","&#9776;","elianto","#3366ff99"," "," ","1","+10","[1528.800000011921]","1","0","1","","","","","","","",""
"pit-trial","21","352427","0.0-2.0-8.0-1.0","battery-v0.2","","""event"",""trial"",""time""
""fullscreenenter"",""1"",""1960""
""blur"",""3"",""12465""
""focus"",""3"",""15073""
","""event"",""trial"",""time""
""blur"",""3"",""12465""
","""event"",""trial"",""time""
""focus"",""3"",""15073""
","""event"",""trial"",""time""
""fullscreenenter"",""1"",""1960""
","
","","","594.3000000119209","","","25","3173","877","&#9776;","elianto","#3366ff99"," "," ","1","+10","[1444.300000011921]","1","0","1","","","","","","","",""
"pit-trial","22","355878","0.0-2.0-8.0-2.0","battery-v0.2","","""event"",""trial"",""time""
""fullscreenenter"",""1"",""1960""
""blur"",""3"",""12465""
""focus"",""3"",""15073""
","""event"",""trial"",""time""
""blur"",""3"",""12465""
","""event"",""trial"",""time""
""focus"",""3"",""15073""
","""event"",""trial"",""time""
""fullscreenenter"",""1"",""1960""
","
","","","591.8000000119209","","","25","3173","877","&#9776;","elianto","#3366ff99"," "," ","1","+10","[1443.300000011921]","1","0","1","","","","","","","",""
"pit-trial","23","360378","0.0-2.0-8.0-3.0","battery-v0.2","","""event"",""trial"",""time""
""fullscreenenter"",""1"",""1960""
""blur"",""3"",""12465""
""focus"",""3"",""15073""
","""event"",""trial"",""time""
""blur"",""3"",""12465""
","""event"",""trial"",""time""
""focus"",""3"",""15073""
","""event"",""trial"",""time""
""fullscreenenter"",""1"",""1960""
","
","","","1638.7000000476837","","","25","3173","877","&#9776;","elianto","#3366ff99"," "," ","1","0","[2490]","1","0","1","","","","","","","",""
"pit-trial","24","363910","0.0-2.0-8.0-4.0","battery-v0.2","","""event"",""trial"",""time""
""fullscreenenter"",""1"",""1960""
""blur"",""3"",""12465""
""focus"",""3"",""15073""
","""event"",""trial"",""time""
""blur"",""3"",""12465""
","""event"",""trial"",""time""
""focus"",""3"",""15073""
","""event"",""trial"",""time""
""fullscreenenter"",""1"",""1960""
","
","","","669.8999999761581","","","25","3173","877","&#9776;","elianto","#3366ff99"," "," ","1","+10","[1520.5]","1","0","1","","","","","","","",""
"call-function","25","363917","0.0-2.0-9.0","battery-v0.2","","""event"",""trial"",""time""
""fullscreenenter"",""1"",""1960""
""blur"",""3"",""12465""
""focus"",""3"",""15073""
","""event"",""trial"",""time""
""blur"",""3"",""12465""
","""event"",""trial"",""time""
""focus"",""3"",""15073""
","""event"",""trial"",""time""
""fullscreenenter"",""1"",""1960""
","
","","","","","","","","","","","","","","","","","","","","","","","","","","",""
"pit-instructions","26","407343","0.0-2.0-10.0","battery-v0.2","","""event"",""trial"",""time""
""fullscreenenter"",""1"",""1960""
""blur"",""3"",""12465""
""focus"",""3"",""15073""
","""event"",""trial"",""time""
""blur"",""3"",""12465""
","""event"",""trial"",""time""
""focus"",""3"",""15073""
","""event"",""trial"",""time""
""fullscreenenter"",""1"",""1960""
","
","","[{""page_index"":0,""viewing_time"":6842.600000023842},{""page_index"":1,""viewing_time"":7654.099999964237},{""page_index"":2,""viewing_time"":10554.600000023842},{""page_index"":3,""viewing_time"":10237.899999976158},{""page_index"":4,""viewing_time"":8136.800000011921}]","43426.90000003576","","","","","","","","","","","","","","","","","","","","","","","",""
"pit-trial","27","412211","0.0-2.0-11.0-0.0","battery-v0.2","","""event"",""trial"",""time""
""fullscreenenter"",""1"",""1960""
""blur"",""3"",""12465""
""focus"",""3"",""15073""
","""event"",""trial"",""time""
""blur"",""3"",""12465""
","""event"",""trial"",""time""
""focus"",""3"",""15073""
","""event"",""trial"",""time""
""fullscreenenter"",""1"",""1960""
","
","","","-1","","","25","3173","877","&#9761;","elianto","#3366ff99","-1","-1","1","+10","[]","0","0","2","","","","","","","",""
"pit-trial","28","417072","0.0-2.0-11.0-1.0","battery-v0.2","","""event"",""trial"",""time""
""fullscreenenter"",""1"",""1960""
""blur"",""3"",""12465""
""focus"",""3"",""15073""
","""event"",""trial"",""time""
""blur"",""3"",""12465""
","""event"",""trial"",""time""
""focus"",""3"",""15073""
","""event"",""trial"",""time""
""fullscreenenter"",""1"",""1960""
","
","","","-1","","","25","3173","877","&#9761;","elianto","#3366ff99","-1","-1","1","+10","[]","0","0","2","","","","","","","",""
"pit-trial","29","421936","0.0-2.0-11.0-2.0","battery-v0.2","","""event"",""trial"",""time""
""fullscreenenter"",""1"",""1960""
""blur"",""3"",""12465""
""focus"",""3"",""15073""
","""event"",""trial"",""time""
""blur"",""3"",""12465""
","""event"",""trial"",""time""
""focus"",""3"",""15073""
","""event"",""trial"",""time""
""fullscreenenter"",""1"",""1960""
","
","","","-1","","","25","3173","877","&#9761;","elianto","#3366ff99","-1","-1","1","+10","[]","0","0","2","","","","","","","",""
"pit-trial","30","426800","0.0-2.0-11.0-3.0","battery-v0.2","","""event"",""trial"",""time""
""fullscreenenter"",""1"",""1960""
""blur"",""3"",""12465""
""focus"",""3"",""15073""
","""event"",""trial"",""time""
""blur"",""3"",""12465""
","""event"",""trial"",""time""
""focus"",""3"",""15073""
","""event"",""trial"",""time""
""fullscreenenter"",""1"",""1960""
","
","","","-1","","","25","3173","877","&#9761;","elianto","#3366ff99","-1","-1","1","0","[]","0","0","2","","","","","","","",""
"pit-trial","31","431666","0.0-2.0-11.0-4.0","battery-v0.2","","""event"",""trial"",""time""
""fullscreenenter"",""1"",""1960""
""blur"",""3"",""12465""
""focus"",""3"",""15073""
","""event"",""trial"",""time""
""blur"",""3"",""12465""
","""event"",""trial"",""time""
""focus"",""3"",""15073""
","""event"",""trial"",""time""
""fullscreenenter"",""1"",""1960""
","
","","","-1","","","25","3173","877","&#9761;","elianto","#3366ff99","-1","-1","1","+10","[]","0","0","2","","","","","","","",""
"call-function","32","431673","0.0-2.0-12.0","battery-v0.2","","""event"",""trial"",""time""
""fullscreenenter"",""1"",""1960""
""blur"",""3"",""12465""
""focus"",""3"",""15073""
""blur"",""33"",""436078""
""focus"",""33"",""494305""
","""event"",""trial"",""time""
""blur"",""3"",""12465""
""blur"",""33"",""436078""
","""event"",""trial"",""time""
""focus"",""3"",""15073""
""focus"",""33"",""494305""
","""event"",""trial"",""time""
""fullscreenenter"",""1"",""1960""
","
","","","","","","","","","","","","","","","","","","","","","","","","","","",""
"pit-instructions","33","523064","0.0-2.0-13.0","battery-v0.2","","""event"",""trial"",""time""
""fullscreenenter"",""1"",""1960""
""blur"",""3"",""12465""
""focus"",""3"",""15073""
""blur"",""33"",""436078""
""focus"",""33"",""494305""
","""event"",""trial"",""time""
""blur"",""3"",""12465""
""blur"",""33"",""436078""
","""event"",""trial"",""time""
""focus"",""3"",""15073""
""focus"",""33"",""494305""
","""event"",""trial"",""time""
""fullscreenenter"",""1"",""1960""
","
","","[{""page_index"":0,""viewing_time"":63459.60000002384},{""page_index"":1,""viewing_time"":8070.800000011921},{""page_index"":2,""viewing_time"":3517.7999999523163},{""page_index"":3,""viewing_time"":10788.700000047684},{""page_index"":4,""viewing_time"":5553}]","91391.69999998808","","","","","","","","","","","","","","","","","","","","","","","",""
"pit-trial","34","526491","0.0-2.0-14.0-0.0","battery-v0.2","","""event"",""trial"",""time""
""fullscreenenter"",""1"",""1960""
""blur"",""3"",""12465""
""focus"",""3"",""15073""
""blur"",""33"",""436078""
""focus"",""33"",""494305""
","""event"",""trial"",""time""
""blur"",""3"",""12465""
""blur"",""33"",""436078""
","""event"",""trial"",""time""
""focus"",""3"",""15073""
""focus"",""33"",""494305""
","""event"",""trial"",""time""
""fullscreenenter"",""1"",""1960""
","
","","","566.3000000119209","","","25","3173","877","&#9826;","elianto","#f73b6a7A","-1"," ","0","-10","[1416.8999999761581]","1","0","3","","","","","","","",""
"pit-trial","35","531359","0.0-2.0-14.0-1.0","battery-v0.2","","""event"",""trial"",""time""
""fullscreenenter"",""1"",""1960""
""blur"",""3"",""12465""
""focus"",""3"",""15073""
""blur"",""33"",""436078""
""focus"",""33"",""494305""
","""event"",""trial"",""time""
""blur"",""3"",""12465""
""blur"",""33"",""436078""
","""event"",""trial"",""time""
""focus"",""3"",""15073""
""focus"",""33"",""494305""
","""event"",""trial"",""time""
""fullscreenenter"",""1"",""1960""
","
","","","-1","","","25","3173","877","&#9826;","elianto","#f73b6a7A","-1","-1","1","0","[]","0","0","3","","","","","","","",""
"pit-trial","36","536224","0.0-2.0-14.0-2.0","battery-v0.2","","""event"",""trial"",""time""
""fullscreenenter"",""1"",""1960""
""blur"",""3"",""12465""
""focus"",""3"",""15073""
""blur"",""33"",""436078""
""focus"",""33"",""494305""
","""event"",""trial"",""time""
""blur"",""3"",""12465""
""blur"",""33"",""436078""
","""event"",""trial"",""time""
""focus"",""3"",""15073""
""focus"",""33"",""494305""
","""event"",""trial"",""time""
""fullscreenenter"",""1"",""1960""
","
","","","-1","","","25","3173","877","&#9826;","elianto","#f73b6a7A","-1","-1","1","0","[]","0","0","3","","","","","","","",""
"pit-trial","37","541084","0.0-2.0-14.0-3.0","battery-v0.2","","""event"",""trial"",""time""
""fullscreenenter"",""1"",""1960""
""blur"",""3"",""12465""
""focus"",""3"",""15073""
""blur"",""33"",""436078""
""focus"",""33"",""494305""
","""event"",""trial"",""time""
""blur"",""3"",""12465""
""blur"",""33"",""436078""
","""event"",""trial"",""time""
""focus"",""3"",""15073""
""focus"",""33"",""494305""
","""event"",""trial"",""time""
""fullscreenenter"",""1"",""1960""
","
","","","-1","","","25","3173","877","&#9826;","elianto","#f73b6a7A","-1","-1","1","-10","[]","0","0","3","","","","","","","",""
"pit-trial","38","545949","0.0-2.0-14.0-4.0","battery-v0.2","","""event"",""trial"",""time""
""fullscreenenter"",""1"",""1960""
""blur"",""3"",""12465""
""focus"",""3"",""15073""
""blur"",""33"",""436078""
""focus"",""33"",""494305""
","""event"",""trial"",""time""
""blur"",""3"",""12465""
""blur"",""33"",""436078""
","""event"",""trial"",""time""
""focus"",""3"",""15073""
""focus"",""33"",""494305""
","""event"",""trial"",""time""
""fullscreenenter"",""1"",""1960""
","
","","","-1","","","25","3173","877","&#9826;","elianto","#f73b6a7A","-1","-1","1","0","[]","0","0","3","","","","","","","",""
"call-function","39","545956","0.0-2.0-15.0","battery-v0.2","","""event"",""trial"",""time""
""fullscreenenter"",""1"",""1960""
""blur"",""3"",""12465""
""focus"",""3"",""15073""
""blur"",""33"",""436078""
""focus"",""33"",""494305""
","""event"",""trial"",""time""
""blur"",""3"",""12465""
""blur"",""33"",""436078""
","""event"",""trial"",""time""
""focus"",""3"",""15073""
""focus"",""33"",""494305""
","""event"",""trial"",""time""
""fullscreenenter"",""1"",""1960""
","
","","","","","","","","","","","","","","","","","","","","","","","","","","",""
"pit-instructions","40","579337","0.0-2.0-16.0","battery-v0.2","","""event"",""trial"",""time""
""fullscreenenter"",""1"",""1960""
""blur"",""3"",""12465""
""focus"",""3"",""15073""
""blur"",""33"",""436078""
""focus"",""33"",""494305""
","""event"",""trial"",""time""
""blur"",""3"",""12465""
""blur"",""33"",""436078""
","""event"",""trial"",""time""
""focus"",""3"",""15073""
""focus"",""33"",""494305""
","""event"",""trial"",""time""
""fullscreenenter"",""1"",""1960""
","
","","[{""page_index"":0,""viewing_time"":6667},{""page_index"":1,""viewing_time"":8887.5},{""page_index"":2,""viewing_time"":12089.300000011921},{""page_index"":3,""viewing_time"":5736}]","33380.60000002384","","","","","","","","","","","","","","","","","","","","","","","",""
"pit-trial","41","582832","0.0-2.0-17.0-0.0","battery-v0.2","","""event"",""trial"",""time""
""fullscreenenter"",""1"",""1960""
""blur"",""3"",""12465""
""focus"",""3"",""15073""
""blur"",""33"",""436078""
""focus"",""33"",""494305""
","""event"",""trial"",""time""
""blur"",""3"",""12465""
""blur"",""33"",""436078""
","""event"",""trial"",""time""
""focus"",""3"",""15073""
""focus"",""33"",""494305""
","""event"",""trial"",""time""
""fullscreenenter"",""1"",""1960""
","
","","","628.7000000476837","","","25","3173","877","&#9789;","elianto","#f73b6a7A"," "," ","1","0","[1483.2000000476837]","1","0","4","","","","","","","",""
"pit-trial","42","586160","0.0-2.0-17.0-1.0","battery-v0.2","","""event"",""trial"",""time""
""fullscreenenter"",""1"",""1960""
""blur"",""3"",""12465""
""focus"",""3"",""15073""
""blur"",""33"",""436078""
""focus"",""33"",""494305""
","""event"",""trial"",""time""
""blur"",""3"",""12465""
""blur"",""33"",""436078""
","""event"",""trial"",""time""
""focus"",""3"",""15073""
""focus"",""33"",""494305""
","""event"",""trial"",""time""
""fullscreenenter"",""1"",""1960""
","
","","","467.2999999523163","","","25","3173","877","&#9789;","elianto","#f73b6a7A"," "," ","1","0","[1318.4000000357628]","1","0","4","","","","","","","",""
"pit-trial","43","589584","0.0-2.0-17.0-2.0","battery-v0.2","","""event"",""trial"",""time""
""fullscreenenter"",""1"",""1960""
""blur"",""3"",""12465""
""focus"",""3"",""15073""
""blur"",""33"",""436078""
""focus"",""33"",""494305""
","""event"",""trial"",""time""
""blur"",""3"",""12465""
""blur"",""33"",""436078""
","""event"",""trial"",""time""
""focus"",""3"",""15073""
""focus"",""33"",""494305""
","""event"",""trial"",""time""
""fullscreenenter"",""1"",""1960""
","
","","","564.1000000238419","","","25","3173","877","&#9789;","elianto","#f73b6a7A"," "," ","1","0","[1415.2000000476837]","1","0","4","","","","","","","",""
"pit-trial","44","592949","0.0-2.0-17.0-3.0","battery-v0.2","","""event"",""trial"",""time""
""fullscreenenter"",""1"",""1960""
""blur"",""3"",""12465""
""focus"",""3"",""15073""
""blur"",""33"",""436078""
""focus"",""33"",""494305""
","""event"",""trial"",""time""
""blur"",""3"",""12465""
""blur"",""33"",""436078""
","""event"",""trial"",""time""
""focus"",""3"",""15073""
""focus"",""33"",""494305""
","""event"",""trial"",""time""
""fullscreenenter"",""1"",""1960""
","
","","","495.60000002384186","","","25","3173","877","&#9789;","elianto","#f73b6a7A"," "," ","1","-10","[1350.5]","1","0","4","","","","","","","",""
"pit-trial","45","596309","0.0-2.0-17.0-4.0","battery-v0.2","","""event"",""trial"",""time""
""fullscreenenter"",""1"",""1960""
""blur"",""3"",""12465""
""focus"",""3"",""15073""
""blur"",""33"",""436078""
""focus"",""33"",""494305""
","""event"",""trial"",""time""
""blur"",""3"",""12465""
""blur"",""33"",""436078""
","""event"",""trial"",""time""
""focus"",""3"",""15073""
""focus"",""33"",""494305""
","""event"",""trial"",""time""
""fullscreenenter"",""1"",""1960""
","
","","","499.9000000357628","","","25","3173","877","&#9789;","elianto","#f73b6a7A"," "," ","1","0","[1350.800000011921]","1","0","4","","","","","","","",""
"call-function","46","596317","0.0-2.0-18.0","battery-v0.2","","""event"",""trial"",""time""
""fullscreenenter"",""1"",""1960""
""blur"",""3"",""12465""
""focus"",""3"",""15073""
""blur"",""33"",""436078""
""focus"",""33"",""494305""
""blur"",""47"",""612069""
""focus"",""47"",""623895""
","""event"",""trial"",""time""
""blur"",""3"",""12465""
""blur"",""33"",""436078""
""blur"",""47"",""612069""
","""event"",""trial"",""time""
""focus"",""3"",""15073""
""focus"",""33"",""494305""
""focus"",""47"",""623895""
","""event"",""trial"",""time""
""fullscreenenter"",""1"",""1960""
","
","","","","","","","","","","","","","","","","","","","","","","","","","","",""
"pit-instructions","47","689903","0.0-2.0-19.0","battery-v0.2","","""event"",""trial"",""time""
""fullscreenenter"",""1"",""1960""
""blur"",""3"",""12465""
""focus"",""3"",""15073""
""blur"",""33"",""436078""
""focus"",""33"",""494305""
""blur"",""47"",""612069""
""focus"",""47"",""623895""
","""event"",""trial"",""time""
""blur"",""3"",""12465""
""blur"",""33"",""436078""
""blur"",""47"",""612069""
","""event"",""trial"",""time""
""focus"",""3"",""15073""
""focus"",""33"",""494305""
""focus"",""47"",""623895""
","""event"",""trial"",""time""
""fullscreenenter"",""1"",""1960""
","
","","[{""page_index"":0,""viewing_time"":9097.100000023842},{""page_index"":1,""viewing_time"":19208.69999998808},{""page_index"":2,""viewing_time"":16441.600000023842},{""page_index"":3,""viewing_time"":9870.5},{""page_index"":4,""viewing_time"":8854.399999976158},{""page_index"":5,""viewing_time"":10505},{""page_index"":6,""viewing_time"":8604.600000023842},{""page_index"":7,""viewing_time"":6586.399999976158},{""page_index"":8,""viewing_time"":4418.300000011921}]","93587.90000003576","","","","","","","","","","","","","","","","","","","","","","","",""
"pit-comprehension","48","694506","0.0-2.0-20.0-0.0","battery-v0.2","","""event"",""trial"",""time""
""fullscreenenter"",""1"",""1960""
""blur"",""3"",""12465""
""focus"",""3"",""15073""
""blur"",""33"",""436078""
""focus"",""33"",""494305""
""blur"",""47"",""612069""
""focus"",""47"",""623895""
","""event"",""trial"",""time""
""blur"",""3"",""12465""
""blur"",""33"",""436078""
""blur"",""47"",""612069""
","""event"",""trial"",""time""
""focus"",""3"",""15073""
""focus"",""33"",""494305""
""focus"",""47"",""623895""
","""event"",""trial"",""time""
""fullscreenenter"",""1"",""1960""
","
","","","4593.400000035763","[""SPACE""]","0","25","3173","877","","","","","","","","","","","","","","","","","","",""
"pit-instructions","49","701241","0.0-2.0-20.0-1.0","battery-v0.2","","""event"",""trial"",""time""
""fullscreenenter"",""1"",""1960""
""blur"",""3"",""12465""
""focus"",""3"",""15073""
""blur"",""33"",""436078""
""focus"",""33"",""494305""
""blur"",""47"",""612069""
""focus"",""47"",""623895""
","""event"",""trial"",""time""
""blur"",""3"",""12465""
""blur"",""33"",""436078""
""blur"",""47"",""612069""
","""event"",""trial"",""time""
""focus"",""3"",""15073""
""focus"",""33"",""494305""
""focus"",""47"",""623895""
","""event"",""trial"",""time""
""fullscreenenter"",""1"",""1960""
","
","","[{""page_index"":0,""viewing_time"":6709.300000011921}]","6709.899999976158","","","","","","","","","","","","","","","","","","","","","","","",""
"pit-comprehension","50","707611","0.0-2.0-21.0-0.0","battery-v0.2","","""event"",""trial"",""time""
""fullscreenenter"",""1"",""1960""
""blur"",""3"",""12465""
""focus"",""3"",""15073""
""blur"",""33"",""436078""
""focus"",""33"",""494305""
""blur"",""47"",""612069""
""focus"",""47"",""623895""
","""event"",""trial"",""time""
""blur"",""3"",""12465""
""blur"",""33"",""436078""
""blur"",""47"",""612069""
","""event"",""trial"",""time""
""focus"",""3"",""15073""
""focus"",""33"",""494305""
""focus"",""47"",""623895""
","""event"",""trial"",""time""
""fullscreenenter"",""1"",""1960""
","
","","","6363.099999964237","[""10""]","0","25","3173","877","","","","","","","","","","","","","","","","","","",""
"pit-instructions","51","709111","0.0-2.0-21.0-1.0","battery-v0.2","","""event"",""trial"",""time""
""fullscreenenter"",""1"",""1960""
""blur"",""3"",""12465""
""focus"",""3"",""15073""
""blur"",""33"",""436078""
""focus"",""33"",""494305""
""blur"",""47"",""612069""
""focus"",""47"",""623895""
","""event"",""trial"",""time""
""blur"",""3"",""12465""
""blur"",""33"",""436078""
""blur"",""47"",""612069""
","""event"",""trial"",""time""
""focus"",""3"",""15073""
""focus"",""33"",""494305""
""focus"",""47"",""623895""
","""event"",""trial"",""time""
""fullscreenenter"",""1"",""1960""
","
","","[{""page_index"":0,""viewing_time"":1476.699999988079}]","1477.5","","","","","","","","","","","","","","","","","","","","","","","",""
"pit-comprehension","52","716415","0.0-2.0-22.0-0.0","battery-v0.2","","""event"",""trial"",""time""
""fullscreenenter"",""1"",""1960""
""blur"",""3"",""12465""
""focus"",""3"",""15073""
""blur"",""33"",""436078""
""focus"",""33"",""494305""
""blur"",""47"",""612069""
""focus"",""47"",""623895""
","""event"",""trial"",""time""
""blur"",""3"",""12465""
""blur"",""33"",""436078""
""blur"",""47"",""612069""
","""event"",""trial"",""time""
""focus"",""3"",""15073""
""focus"",""33"",""494305""
""focus"",""47"",""623895""
","""event"",""trial"",""time""
""fullscreenenter"",""1"",""1960""
","
","","","7296.699999988079","[""0""]","0","25","3173","877","","","","","","","","","","","","","","","","","","",""
"pit-instructions","53","717514","0.0-2.0-22.0-1.0","battery-v0.2","","""event"",""trial"",""time""
""fullscreenenter"",""1"",""1960""
""blur"",""3"",""12465""
""focus"",""3"",""15073""
""blur"",""33"",""436078""
""focus"",""33"",""494305""
""blur"",""47"",""612069""
""focus"",""47"",""623895""
","""event"",""trial"",""time""
""blur"",""3"",""12465""
""blur"",""33"",""436078""
""blur"",""47"",""612069""
","""event"",""trial"",""time""
""focus"",""3"",""15073""
""focus"",""33"",""494305""
""focus"",""47"",""623895""
","""event"",""trial"",""time""
""fullscreenenter"",""1"",""1960""
","
","","[{""page_index"":0,""viewing_time"":1073.699999988079}]","1074.5","","","","","","","","","","","","","","","","","","","","","","","",""
"pit-comprehension","54","730622","0.0-2.0-23.0-0.0","battery-v0.2","","""event"",""trial"",""time""
""fullscreenenter"",""1"",""1960""
""blur"",""3"",""12465""
""focus"",""3"",""15073""
""blur"",""33"",""436078""
""focus"",""33"",""494305""
""blur"",""47"",""612069""
""focus"",""47"",""623895""
","""event"",""trial"",""time""
""blur"",""3"",""12465""
""blur"",""33"",""436078""
""blur"",""47"",""612069""
","""event"",""trial"",""time""
""focus"",""3"",""15073""
""focus"",""33"",""494305""
""focus"",""47"",""623895""
","""event"",""trial"",""time""
""fullscreenenter"",""1"",""1960""
","
","","","13100.100000023842","[""True""]","0","25","3173","877","","","","","","","","","","","","","","","","","","",""
"pit-instructions","55","733739","0.0-2.0-23.0-1.0","battery-v0.2","","""event"",""trial"",""time""
""fullscreenenter"",""1"",""1960""
""blur"",""3"",""12465""
""focus"",""3"",""15073""
""blur"",""33"",""436078""
""focus"",""33"",""494305""
""blur"",""47"",""612069""
""focus"",""47"",""623895""
","""event"",""trial"",""time""
""blur"",""3"",""12465""
""blur"",""33"",""436078""
""blur"",""47"",""612069""
","""event"",""trial"",""time""
""focus"",""3"",""15073""
""focus"",""33"",""494305""
""focus"",""47"",""623895""
","""event"",""trial"",""time""
""fullscreenenter"",""1"",""1960""
","
","","[{""page_index"":0,""viewing_time"":3089.899999976158}]","3091.099999964237","","","","","","","","","","","","","","","","","","","","","","","",""
"pit-comprehension","56","742393","0.0-2.0-24.0-0.0","battery-v0.2","","""event"",""trial"",""time""
""fullscreenenter"",""1"",""1960""
""blur"",""3"",""12465""
""focus"",""3"",""15073""
""blur"",""33"",""436078""
""focus"",""33"",""494305""
""blur"",""47"",""612069""
""focus"",""47"",""623895""
""blur"",""57"",""747539""
""focus"",""57"",""789424""
","""event"",""trial"",""time""
""blur"",""3"",""12465""
""blur"",""33"",""436078""
""blur"",""47"",""612069""
""blur"",""57"",""747539""
","""event"",""trial"",""time""
""focus"",""3"",""15073""
""focus"",""33"",""494305""
""focus"",""47"",""623895""
""focus"",""57"",""789424""
","""event"",""trial"",""time""
""fullscreenenter"",""1"",""1960""
","
","","","8646.699999988079","[""True""]","0","25","3173","877","","","","","","","","","","","","","","","","","","",""
"pit-instructions","57","790231","0.0-2.0-24.0-1.0","battery-v0.2","","""event"",""trial"",""time""
""fullscreenenter"",""1"",""1960""
""blur"",""3"",""12465""
""focus"",""3"",""15073""
""blur"",""33"",""436078""
""focus"",""33"",""494305""
""blur"",""47"",""612069""
""focus"",""47"",""623895""
""blur"",""57"",""747539""
""focus"",""57"",""789424""
","""event"",""trial"",""time""
""blur"",""3"",""12465""
""blur"",""33"",""436078""
""blur"",""47"",""612069""
""blur"",""57"",""747539""
","""event"",""trial"",""time""
""focus"",""3"",""15073""
""focus"",""33"",""494305""
""focus"",""47"",""623895""
""focus"",""57"",""789424""
","""event"",""trial"",""time""
""fullscreenenter"",""1"",""1960""
","
","","[{""page_index"":0,""viewing_time"":47814.19999998808}]","47815.09999996424","","","","","","","","","","","","","","","","","","","","","","","",""
"pit-comprehension","58","797101","0.0-2.0-25.0-0.0","battery-v0.2","","""event"",""trial"",""time""
""fullscreenenter"",""1"",""1960""
""blur"",""3"",""12465""
""focus"",""3"",""15073""
""blur"",""33"",""436078""
""focus"",""33"",""494305""
""blur"",""47"",""612069""
""focus"",""47"",""623895""
""blur"",""57"",""747539""
""focus"",""57"",""789424""
","""event"",""trial"",""time""
""blur"",""3"",""12465""
""blur"",""33"",""436078""
""blur"",""47"",""612069""
""blur"",""57"",""747539""
","""event"",""trial"",""time""
""focus"",""3"",""15073""
""focus"",""33"",""494305""
""focus"",""47"",""623895""
""focus"",""57"",""789424""
","""event"",""trial"",""time""
""fullscreenenter"",""1"",""1960""
","
","","","6853.199999988079","[""True""]","0","25","3173","877","","","","","","","","","","","","","","","","","","",""
"pit-instructions","59","800668","0.0-2.0-25.0-1.0","battery-v0.2","","""event"",""trial"",""time""
""fullscreenenter"",""1"",""1960""
""blur"",""3"",""12465""
""focus"",""3"",""15073""
""blur"",""33"",""436078""
""focus"",""33"",""494305""
""blur"",""47"",""612069""
""focus"",""47"",""623895""
""blur"",""57"",""747539""
""focus"",""57"",""789424""
","""event"",""trial"",""time""
""blur"",""3"",""12465""
""blur"",""33"",""436078""
""blur"",""47"",""612069""
""blur"",""57"",""747539""
","""event"",""trial"",""time""
""focus"",""3"",""15073""
""focus"",""33"",""494305""
""focus"",""47"",""623895""
""focus"",""57"",""789424""
","""event"",""trial"",""time""
""fullscreenenter"",""1"",""1960""
","
","","[{""page_index"":0,""viewing_time"":3541.600000023842}]","3542.300000011921","","","","","","","","","","","","","","","","","","","","","","","",""
"pit-comprehension","60","807389","0.0-2.0-26.0-0.0","battery-v0.2","","""event"",""trial"",""time""
""fullscreenenter"",""1"",""1960""
""blur"",""3"",""12465""
""focus"",""3"",""15073""
""blur"",""33"",""436078""
""focus"",""33"",""494305""
""blur"",""47"",""612069""
""focus"",""47"",""623895""
""blur"",""57"",""747539""
""focus"",""57"",""789424""
","""event"",""trial"",""time""
""blur"",""3"",""12465""
""blur"",""33"",""436078""
""blur"",""47"",""612069""
""blur"",""57"",""747539""
","""event"",""trial"",""time""
""focus"",""3"",""15073""
""focus"",""33"",""494305""
""focus"",""47"",""623895""
""focus"",""57"",""789424""
","""event"",""trial"",""time""
""fullscreenenter"",""1"",""1960""
","
","","","6711.900000035763","[""False""]","0","25","3173","877","","","","","","","","","","","","","","","","","","",""
"pit-instructions","61","812690","0.0-2.0-26.0-1.0","battery-v0.2","","""event"",""trial"",""time""
""fullscreenenter"",""1"",""1960""
""blur"",""3"",""12465""
""focus"",""3"",""15073""
""blur"",""33"",""436078""
""focus"",""33"",""494305""
""blur"",""47"",""612069""
""focus"",""47"",""623895""
""blur"",""57"",""747539""
""focus"",""57"",""789424""
","""event"",""trial"",""time""
""blur"",""3"",""12465""
""blur"",""33"",""436078""
""blur"",""47"",""612069""
""blur"",""57"",""747539""
","""event"",""trial"",""time""
""focus"",""3"",""15073""
""focus"",""33"",""494305""
""focus"",""47"",""623895""
""focus"",""57"",""789424""
","""event"",""trial"",""time""
""fullscreenenter"",""1"",""1960""
","
","","[{""page_index"":0,""viewing_time"":5275.300000011921}]","5276.200000047684","","","","","","","","","","","","","","","","","","","","","","","",""
"pit-instructions","62","832199","0.0-3.0","battery-v0.2","","""event"",""trial"",""time""
""fullscreenenter"",""1"",""1960""
""blur"",""3"",""12465""
""focus"",""3"",""15073""
""blur"",""33"",""436078""
""focus"",""33"",""494305""
""blur"",""47"",""612069""
""focus"",""47"",""623895""
""blur"",""57"",""747539""
""focus"",""57"",""789424""
","""event"",""trial"",""time""
""blur"",""3"",""12465""
""blur"",""33"",""436078""
""blur"",""47"",""612069""
""blur"",""57"",""747539""
","""event"",""trial"",""time""
""focus"",""3"",""15073""
""focus"",""33"",""494305""
""focus"",""47"",""623895""
""focus"",""57"",""789424""
","""event"",""trial"",""time""
""fullscreenenter"",""1"",""1960""
","
","","[{""page_index"":0,""viewing_time"":4894.600000023842},{""page_index"":1,""viewing_time"":6704.199999988079},{""page_index"":2,""viewing_time"":7903.100000023842}]","19503","","","","","","","","","","","","","","","","","","","","","","","",""
"pit-trial","63","836251","0.0-4.0","battery-v0.2","","""event"",""trial"",""time""
""fullscreenenter"",""1"",""1960""
""blur"",""3"",""12465""
""focus"",""3"",""15073""
""blur"",""33"",""436078""
""focus"",""33"",""494305""
""blur"",""47"",""612069""
""focus"",""47"",""623895""
""blur"",""57"",""747539""
""focus"",""57"",""789424""
","""event"",""trial"",""time""
""blur"",""3"",""12465""
""blur"",""33"",""436078""
""blur"",""47"",""612069""
""blur"",""57"",""747539""
","""event"",""trial"",""time""
""focus"",""3"",""15073""
""focus"",""33"",""494305""
""focus"",""47"",""623895""
""focus"",""57"",""789424""
","""event"",""trial"",""time""
""fullscreenenter"",""1"",""1960""
","
","","","1185.5","","","25","3173","877","&#9752;","elianto","#f73b6a7A"," "," ","1","0","[2035.5999999642372]","1","1","","","3173","1","3","3","lose","go","0"
"pit-trial","64","840481","0.0-5.0","battery-v0.2","","""event"",""trial"",""time""
""fullscreenenter"",""1"",""1960""
""blur"",""3"",""12465""
""focus"",""3"",""15073""
""blur"",""33"",""436078""
""focus"",""33"",""494305""
""blur"",""47"",""612069""
""focus"",""47"",""623895""
""blur"",""57"",""747539""
""focus"",""57"",""789424""
","""event"",""trial"",""time""
""blur"",""3"",""12465""
""blur"",""33"",""436078""
""blur"",""47"",""612069""
""blur"",""57"",""747539""
","""event"",""trial"",""time""
""focus"",""3"",""15073""
""focus"",""33"",""494305""
""focus"",""47"",""623895""
""focus"",""57"",""789424""
","""event"",""trial"",""time""
""fullscreenenter"",""1"",""1960""
","
","","","1365","","","25","3173","877","&#9733;","elianto","#3366ff99","-1"," ","0","0","[2218.5]","1","1","","","3173","2","2","2","win","no-go","0"
"pit-trial","65","844920","0.0-6.0","battery-v0.2","","""event"",""trial"",""time""
""fullscreenenter"",""1"",""1960""
""blur"",""3"",""12465""
""focus"",""3"",""15073""
""blur"",""33"",""436078""
""focus"",""33"",""494305""
""blur"",""47"",""612069""
""focus"",""47"",""623895""
""blur"",""57"",""747539""
""focus"",""57"",""789424""
","""event"",""trial"",""time""
""blur"",""3"",""12465""
""blur"",""33"",""436078""
""blur"",""47"",""612069""
""blur"",""57"",""747539""
","""event"",""trial"",""time""
""focus"",""3"",""15073""
""focus"",""33"",""494305""
""focus"",""47"",""623895""
""focus"",""57"",""789424""
","""event"",""trial"",""time""
""fullscreenenter"",""1"",""1960""
","
","","","1573.5","","","25","3173","877","&#9730;","elianto","#3366ff99"," "," ","1","+10","[2427]","1","1","","","3173","3","1","1","win","go","0"
"pit-trial","66","849783","0.0-7.0","battery-v0.2","","""event"",""trial"",""time""
""fullscreenenter"",""1"",""1960""
""blur"",""3"",""12465""
""focus"",""3"",""15073""
""blur"",""33"",""436078""
""focus"",""33"",""494305""
""blur"",""47"",""612069""
""focus"",""47"",""623895""
""blur"",""57"",""747539""
""focus"",""57"",""789424""
","""event"",""trial"",""time""
""blur"",""3"",""12465""
""blur"",""33"",""436078""
""blur"",""47"",""612069""
""blur"",""57"",""747539""
","""event"",""trial"",""time""
""focus"",""3"",""15073""
""focus"",""33"",""494305""
""focus"",""47"",""623895""
""focus"",""57"",""789424""
","""event"",""trial"",""time""
""fullscreenenter"",""1"",""1960""
","
","","","-1","","","25","3173","877","&#9728;","elianto","#f73b6a7A","-1","-1","1","0","[]","0","1","","","3173","4","0","4","lose","no-go","0"
"pit-trial","67","853523","0.0-8.0","battery-v0.2","","""event"",""trial"",""time""
""fullscreenenter"",""1"",""1960""
""blur"",""3"",""12465""
""focus"",""3"",""15073""
""blur"",""33"",""436078""
""focus"",""33"",""494305""
""blur"",""47"",""612069""
""focus"",""47"",""623895""
""blur"",""57"",""747539""
""focus"",""57"",""789424""
","""event"",""trial"",""time""
""blur"",""3"",""12465""
""blur"",""33"",""436078""
""blur"",""47"",""612069""
""blur"",""57"",""747539""
","""event"",""trial"",""time""
""focus"",""3"",""15073""
""focus"",""33"",""494305""
""focus"",""47"",""623895""
""focus"",""57"",""789424""
","""event"",""trial"",""time""
""fullscreenenter"",""1"",""1960""
","
","","","876","","","25","3173","877","&#9730;","elianto","#3366ff99"," "," ","1","+10","[1731]","1","1","","","3173","5","1","1","win","go","0"
"pit-trial","68","858382","0.0-9.0","battery-v0.2","","""event"",""trial"",""time""
""fullscreenenter"",""1"",""1960""
""blur"",""3"",""12465""
""focus"",""3"",""15073""
""blur"",""33"",""436078""
""focus"",""33"",""494305""
""blur"",""47"",""612069""
""focus"",""47"",""623895""
""blur"",""57"",""747539""
""focus"",""57"",""789424""
","""event"",""trial"",""time""
""blur"",""3"",""12465""
""blur"",""33"",""436078""
""blur"",""47"",""612069""
""blur"",""57"",""747539""
","""event"",""trial"",""time""
""focus"",""3"",""15073""
""focus"",""33"",""494305""
""focus"",""47"",""623895""
""focus"",""57"",""789424""
","""event"",""trial"",""time""
""fullscreenenter"",""1"",""1960""
","
","","","-1","","","25","3173","877","&#9733;","elianto","#3366ff99","-1","-1","1","+10","[]","0","1","","","3173","6","2","2","win","no-go","0"
"pit-trial","69","862972","0.0-10.0","battery-v0.2","","""event"",""trial"",""time""
""fullscreenenter"",""1"",""1960""
""blur"",""3"",""12465""
""focus"",""3"",""15073""
""blur"",""33"",""436078""
""focus"",""33"",""494305""
""blur"",""47"",""612069""
""focus"",""47"",""623895""
""blur"",""57"",""747539""
""focus"",""57"",""789424""
","""event"",""trial"",""time""
""blur"",""3"",""12465""
""blur"",""33"",""436078""
""blur"",""47"",""612069""
""blur"",""57"",""747539""
","""event"",""trial"",""time""
""focus"",""3"",""15073""
""focus"",""33"",""494305""
""focus"",""47"",""623895""
""focus"",""57"",""789424""
","""event"",""trial"",""time""
""fullscreenenter"",""1"",""1960""
","
","","","1730.8999999761581","","","25","3173","877","&#9728;","elianto","#f73b6a7A","-1"," ","0","-10","[2583.199999988079]","1","1","","","3173","7","0","4","lose","no-go","0"
"pit-trial","70","867836","0.0-11.0","battery-v0.2","","""event"",""trial"",""time""
""fullscreenenter"",""1"",""1960""
""blur"",""3"",""12465""
""focus"",""3"",""15073""
""blur"",""33"",""436078""
""focus"",""33"",""494305""
""blur"",""47"",""612069""
""focus"",""47"",""623895""
""blur"",""57"",""747539""
""focus"",""57"",""789424""
","""event"",""trial"",""time""
""blur"",""3"",""12465""
""blur"",""33"",""436078""
""blur"",""47"",""612069""
""blur"",""57"",""747539""
","""event"",""trial"",""time""
""focus"",""3"",""15073""
""focus"",""33"",""494305""
""focus"",""47"",""623895""
""focus"",""57"",""789424""
","""event"",""trial"",""time""
""fullscreenenter"",""1"",""1960""
","
","","","-1","","","25","3173","877","&#9752;","elianto","#f73b6a7A"," ","-1","0","-10","[]","0","1","","","3173","8","3","3","lose","go","0"
"pit-trial","71","872701","0.0-12.0","battery-v0.2","","""event"",""trial"",""time""
""fullscreenenter"",""1"",""1960""
""blur"",""3"",""12465""
""focus"",""3"",""15073""
""blur"",""33"",""436078""
""focus"",""33"",""494305""
""blur"",""47"",""612069""
""focus"",""47"",""623895""
""blur"",""57"",""747539""
""focus"",""57"",""789424""
","""event"",""trial"",""time""
""blur"",""3"",""12465""
""blur"",""33"",""436078""
""blur"",""47"",""612069""
""blur"",""57"",""747539""
","""event"",""trial"",""time""
""focus"",""3"",""15073""
""focus"",""33"",""494305""
""focus"",""47"",""623895""
""focus"",""57"",""789424""
","""event"",""trial"",""time""
""fullscreenenter"",""1"",""1960""
","
","","","-1","","","25","3173","877","&#9728;","elianto","#f73b6a7A","-1","-1","1","0","[]","0","1","","","3173","9","0","4","lose","no-go","0"
"pit-trial","72","877565","0.0-13.0","battery-v0.2","","""event"",""trial"",""time""
""fullscreenenter"",""1"",""1960""
""blur"",""3"",""12465""
""focus"",""3"",""15073""
""blur"",""33"",""436078""
""focus"",""33"",""494305""
""blur"",""47"",""612069""
""focus"",""47"",""623895""
""blur"",""57"",""747539""
""focus"",""57"",""789424""
","""event"",""trial"",""time""
""blur"",""3"",""12465""
""blur"",""33"",""436078""
""blur"",""47"",""612069""
""blur"",""57"",""747539""
","""event"",""trial"",""time""
""focus"",""3"",""15073""
""focus"",""33"",""494305""
""focus"",""47"",""623895""
""focus"",""57"",""789424""
","""event"",""trial"",""time""
""fullscreenenter"",""1"",""1960""
","
","","","-1","","","25","3173","877","&#9733;","elianto","#3366ff99","-1","-1","1","+10","[]","0","1","","","3173","10","2","2","win","no-go","0"
"pit-trial","73","881284","0.0-14.0","battery-v0.2","","""event"",""trial"",""time""
""fullscreenenter"",""1"",""1960""
""blur"",""3"",""12465""
""focus"",""3"",""15073""
""blur"",""33"",""436078""
""focus"",""33"",""494305""
""blur"",""47"",""612069""
""focus"",""47"",""623895""
""blur"",""57"",""747539""
""focus"",""57"",""789424""
","""event"",""trial"",""time""
""blur"",""3"",""12465""
""blur"",""33"",""436078""
""blur"",""47"",""612069""
""blur"",""57"",""747539""
","""event"",""trial"",""time""
""focus"",""3"",""15073""
""focus"",""33"",""494305""
""focus"",""47"",""623895""
""focus"",""57"",""789424""
","""event"",""trial"",""time""
""fullscreenenter"",""1"",""1960""
","
","","","851","","","25","3173","877","&#9752;","elianto","#f73b6a7A"," "," ","1","0","[1701.9000000357628]","1","1","","","3173","11","3","3","lose","go","0"
"pit-trial","74","884714","0.0-15.0","battery-v0.2","","""event"",""trial"",""time""
""fullscreenenter"",""1"",""1960""
""blur"",""3"",""12465""
""focus"",""3"",""15073""
""blur"",""33"",""436078""
""focus"",""33"",""494305""
""blur"",""47"",""612069""
""focus"",""47"",""623895""
""blur"",""57"",""747539""
""focus"",""57"",""789424""
","""event"",""trial"",""time""
""blur"",""3"",""12465""
""blur"",""33"",""436078""
""blur"",""47"",""612069""
""blur"",""57"",""747539""
","""event"",""trial"",""time""
""focus"",""3"",""15073""
""focus"",""33"",""494305""
""focus"",""47"",""623895""
""focus"",""57"",""789424""
","""event"",""trial"",""time""
""fullscreenenter"",""1"",""1960""
","
","","","561.2000000476837","","","25","3173","877","&#9730;","elianto","#3366ff99"," "," ","1","+10","[1416.3999999761581]","1","1","","","3173","12","1","1","win","go","0"
"pit-trial","75","889581","0.0-16.0","battery-v0.2","","""event"",""trial"",""time""
""fullscreenenter"",""1"",""1960""
""blur"",""3"",""12465""
""focus"",""3"",""15073""
""blur"",""33"",""436078""
""focus"",""33"",""494305""
""blur"",""47"",""612069""
""focus"",""47"",""623895""
""blur"",""57"",""747539""
""focus"",""57"",""789424""
","""event"",""trial"",""time""
""blur"",""3"",""12465""
""blur"",""33"",""436078""
""blur"",""47"",""612069""
""blur"",""57"",""747539""
","""event"",""trial"",""time""
""focus"",""3"",""15073""
""focus"",""33"",""494305""
""focus"",""47"",""623895""
""focus"",""57"",""789424""
","""event"",""trial"",""time""
""fullscreenenter"",""1"",""1960""
","
","","","-1","","","25","3173","877","&#9733;","elianto","#3366ff99","-1","-1","1","+10","[]","0","1","","","3173","13","2","2","win","no-go","0"
"pit-trial","76","893186","0.0-17.0","battery-v0.2","","""event"",""trial"",""time""
""fullscreenenter"",""1"",""1960""
""blur"",""3"",""12465""
""focus"",""3"",""15073""
""blur"",""33"",""436078""
""focus"",""33"",""494305""
""blur"",""47"",""612069""
""focus"",""47"",""623895""
""blur"",""57"",""747539""
""focus"",""57"",""789424""
","""event"",""trial"",""time""
""blur"",""3"",""12465""
""blur"",""33"",""436078""
""blur"",""47"",""612069""
""blur"",""57"",""747539""
","""event"",""trial"",""time""
""focus"",""3"",""15073""
""focus"",""33"",""494305""
""focus"",""47"",""623895""
""focus"",""57"",""789424""
","""event"",""trial"",""time""
""fullscreenenter"",""1"",""1960""
","
","","","740.1999999880791","","","25","3173","877","&#9752;","elianto","#f73b6a7A"," "," ","1","0","[1594.699999988079]","1","1","","","3173","14","3","3","lose","go","0"
"pit-trial","77","896804","0.0-18.0","battery-v0.2","","""event"",""trial"",""time""
""fullscreenenter"",""1"",""1960""
""blur"",""3"",""12465""
""focus"",""3"",""15073""
""blur"",""33"",""436078""
""focus"",""33"",""494305""
""blur"",""47"",""612069""
""focus"",""47"",""623895""
""blur"",""57"",""747539""
""focus"",""57"",""789424""
","""event"",""trial"",""time""
""blur"",""3"",""12465""
""blur"",""33"",""436078""
""blur"",""47"",""612069""
""blur"",""57"",""747539""
","""event"",""trial"",""time""
""focus"",""3"",""15073""
""focus"",""33"",""494305""
""focus"",""47"",""623895""
""focus"",""57"",""789424""
","""event"",""trial"",""time""
""fullscreenenter"",""1"",""1960""
","
","","","755.6000000238419","","","25","3173","877","&#9730;","elianto","#3366ff99"," "," ","1","+10","[1609.5]","1","1","","","3173","15","1","1","win","go","0"
"pit-trial","78","901667","0.0-19.0","battery-v0.2","","""event"",""trial"",""time""
""fullscreenenter"",""1"",""1960""
""blur"",""3"",""12465""
""focus"",""3"",""15073""
""blur"",""33"",""436078""
""focus"",""33"",""494305""
""blur"",""47"",""612069""
""focus"",""47"",""623895""
""blur"",""57"",""747539""
""focus"",""57"",""789424""
","""event"",""trial"",""time""
""blur"",""3"",""12465""
""blur"",""33"",""436078""
""blur"",""47"",""612069""
""blur"",""57"",""747539""
","""event"",""trial"",""time""
""focus"",""3"",""15073""
""focus"",""33"",""494305""
""focus"",""47"",""623895""
""focus"",""57"",""789424""
","""event"",""trial"",""time""
""fullscreenenter"",""1"",""1960""
","
","","","-1","","","25","3173","877","&#9728;","elianto","#f73b6a7A","-1","-1","1","-10","[]","0","1","","","3173","16","0","4","lose","no-go","1"
"pit-trial","79","906533","0.0-20.0","battery-v0.2","","""event"",""trial"",""time""
""fullscreenenter"",""1"",""1960""
""blur"",""3"",""12465""
""focus"",""3"",""15073""
""blur"",""33"",""436078""
""focus"",""33"",""494305""
""blur"",""47"",""612069""
""focus"",""47"",""623895""
""blur"",""57"",""747539""
""focus"",""57"",""789424""
","""event"",""trial"",""time""
""blur"",""3"",""12465""
""blur"",""33"",""436078""
""blur"",""47"",""612069""
""blur"",""57"",""747539""
","""event"",""trial"",""time""
""focus"",""3"",""15073""
""focus"",""33"",""494305""
""focus"",""47"",""623895""
""focus"",""57"",""789424""
","""event"",""trial"",""time""
""fullscreenenter"",""1"",""1960""
","
","","","-1","","","25","3173","877","&#9728;","elianto","#f73b6a7A","-1","-1","1","0","[]","0","1","","","3173","17","0","4","lose","no-go","0"
"pit-trial","80","911396","0.0-21.0","battery-v0.2","","""event"",""trial"",""time""
""fullscreenenter"",""1"",""1960""
""blur"",""3"",""12465""
""focus"",""3"",""15073""
""blur"",""33"",""436078""
""focus"",""33"",""494305""
""blur"",""47"",""612069""
""focus"",""47"",""623895""
""blur"",""57"",""747539""
""focus"",""57"",""789424""
","""event"",""trial"",""time""
""blur"",""3"",""12465""
""blur"",""33"",""436078""
""blur"",""47"",""612069""
""blur"",""57"",""747539""
","""event"",""trial"",""time""
""focus"",""3"",""15073""
""focus"",""33"",""494305""
""focus"",""47"",""623895""
""focus"",""57"",""789424""
","""event"",""trial"",""time""
""fullscreenenter"",""1"",""1960""
","
","","","-1","","","25","3173","877","&#9733;","elianto","#3366ff99","-1","-1","1","+10","[]","0","1","","","3173","18","2","2","win","no-go","0"
"pit-trial","81","914815","0.0-22.0","battery-v0.2","","""event"",""trial"",""time""
""fullscreenenter"",""1"",""1960""
""blur"",""3"",""12465""
""focus"",""3"",""15073""
""blur"",""33"",""436078""
""focus"",""33"",""494305""
""blur"",""47"",""612069""
""focus"",""47"",""623895""
""blur"",""57"",""747539""
""focus"",""57"",""789424""
","""event"",""trial"",""time""
""blur"",""3"",""12465""
""blur"",""33"",""436078""
""blur"",""47"",""612069""
""blur"",""57"",""747539""
","""event"",""trial"",""time""
""focus"",""3"",""15073""
""focus"",""33"",""494305""
""focus"",""47"",""623895""
""focus"",""57"",""789424""
","""event"",""trial"",""time""
""fullscreenenter"",""1"",""1960""
","
","","","559.8000000119209","","","25","3173","877","&#9752;","elianto","#f73b6a7A"," "," ","1","0","[1412.1000000238419]","1","1","","","3173","19","3","3","lose","go","0"
"pit-trial","82","918310","0.0-23.0","battery-v0.2","","""event"",""trial"",""time""
""fullscreenenter"",""1"",""1960""
""blur"",""3"",""12465""
""focus"",""3"",""15073""
""blur"",""33"",""436078""
""focus"",""33"",""494305""
""blur"",""47"",""612069""
""focus"",""47"",""623895""
""blur"",""57"",""747539""
""focus"",""57"",""789424""
""blur"",""83"",""922678""
""focus"",""83"",""928805""
","""event"",""trial"",""time""
""blur"",""3"",""12465""
""blur"",""33"",""436078""
""blur"",""47"",""612069""
""blur"",""57"",""747539""
""blur"",""83"",""922678""
","""event"",""trial"",""time""
""focus"",""3"",""15073""
""focus"",""33"",""494305""
""focus"",""47"",""623895""
""focus"",""57"",""789424""
""focus"",""83"",""928805""
","""event"",""trial"",""time""
""fullscreenenter"",""1"",""1960""
","
","","","630.0999999642372","","","25","3173","877","&#9730;","elianto","#3366ff99"," "," ","1","+10","[1482.699999988079]","1","1","","","3173","20","1","1","win","go","0"
"pit-instructions","83","937213","0.0-24.0","battery-v0.2","","""event"",""trial"",""time""
""fullscreenenter"",""1"",""1960""
""blur"",""3"",""12465""
""focus"",""3"",""15073""
""blur"",""33"",""436078""
""focus"",""33"",""494305""
""blur"",""47"",""612069""
""focus"",""47"",""623895""
""blur"",""57"",""747539""
""focus"",""57"",""789424""
""blur"",""83"",""922678""
""focus"",""83"",""928805""
","""event"",""trial"",""time""
""blur"",""3"",""12465""
""blur"",""33"",""436078""
""blur"",""47"",""612069""
""blur"",""57"",""747539""
""blur"",""83"",""922678""
","""event"",""trial"",""time""
""focus"",""3"",""15073""
""focus"",""33"",""494305""
""focus"",""47"",""623895""
""focus"",""57"",""789424""
""focus"",""83"",""928805""
","""event"",""trial"",""time""
""fullscreenenter"",""1"",""1960""
","
","","[{""page_index"":0,""viewing_time"":11479.800000011921},{""page_index"":1,""viewing_time"":7415.599999964237}]","18896.69999998808","","","","","","","","","","","","","","","","","","","","","","","",""
"pit-trial","84","941032","0.0-25.0","battery-v0.2","","""event"",""trial"",""time""
""fullscreenenter"",""1"",""1960""
""blur"",""3"",""12465""
""focus"",""3"",""15073""
""blur"",""33"",""436078""
""focus"",""33"",""494305""
""blur"",""47"",""612069""
""focus"",""47"",""623895""
""blur"",""57"",""747539""
""focus"",""57"",""789424""
""blur"",""83"",""922678""
""focus"",""83"",""928805""
","""event"",""trial"",""time""
""blur"",""3"",""12465""
""blur"",""33"",""436078""
""blur"",""47"",""612069""
""blur"",""57"",""747539""
""blur"",""83"",""922678""
","""event"",""trial"",""time""
""focus"",""3"",""15073""
""focus"",""33"",""494305""
""focus"",""47"",""623895""
""focus"",""57"",""789424""
""focus"",""83"",""928805""
","""event"",""trial"",""time""
""fullscreenenter"",""1"",""1960""
","
","","","955.8000000119209","","","25","3173","877","b","elianto","#f73b6a7A","-1"," ","0","-10","[1805.9000000357628]","1","2","","","3173","21","3","4","lose","no-go","0"
"pit-trial","85","945097","0.0-26.0","battery-v0.2","","""event"",""trial"",""time""
""fullscreenenter"",""1"",""1960""
""blur"",""3"",""12465""
""focus"",""3"",""15073""
""blur"",""33"",""436078""
""focus"",""33"",""494305""
""blur"",""47"",""612069""
""focus"",""47"",""623895""
""blur"",""57"",""747539""
""focus"",""57"",""789424""
""blur"",""83"",""922678""
""focus"",""83"",""928805""
","""event"",""trial"",""time""
""blur"",""3"",""12465""
""blur"",""33"",""436078""
""blur"",""47"",""612069""
""blur"",""57"",""747539""
""blur"",""83"",""922678""
","""event"",""trial"",""time""
""focus"",""3"",""15073""
""focus"",""33"",""494305""
""focus"",""47"",""623895""
""focus"",""57"",""789424""
""focus"",""83"",""928805""
","""event"",""trial"",""time""
""fullscreenenter"",""1"",""1960""
","
","","","1201.5","","","25","3173","877","t","elianto","#f73b6a7A"," "," ","1","0","[2053.100000023842]","1","2","","","3173","22","2","3","lose","go","0"
"pit-trial","86","949117","0.0-27.0","battery-v0.2","","""event"",""trial"",""time""
""fullscreenenter"",""1"",""1960""
""blur"",""3"",""12465""
""focus"",""3"",""15073""
""blur"",""33"",""436078""
""focus"",""33"",""494305""
""blur"",""47"",""612069""
""focus"",""47"",""623895""
""blur"",""57"",""747539""
""focus"",""57"",""789424""
""blur"",""83"",""922678""
""focus"",""83"",""928805""
","""event"",""trial"",""time""
""blur"",""3"",""12465""
""blur"",""33"",""436078""
""blur"",""47"",""612069""
""blur"",""57"",""747539""
""blur"",""83"",""922678""
","""event"",""trial"",""time""
""focus"",""3"",""15073""
""focus"",""33"",""494305""
""focus"",""47"",""623895""
""focus"",""57"",""789424""
""focus"",""83"",""928805""
","""event"",""trial"",""time""
""fullscreenenter"",""1"",""1960""
","
","","","1152.7999999523163","","","25","3173","877","f","elianto","#3366ff99","-1"," ","0","0","[2007.6000000238419]","1","2","","","3173","23","1","2","win","no-go","0"
"pit-trial","87","953978","0.0-28.0","battery-v0.2","","""event"",""trial"",""time""
""fullscreenenter"",""1"",""1960""
""blur"",""3"",""12465""
""focus"",""3"",""15073""
""blur"",""33"",""436078""
""focus"",""33"",""494305""
""blur"",""47"",""612069""
""focus"",""47"",""623895""
""blur"",""57"",""747539""
""focus"",""57"",""789424""
""blur"",""83"",""922678""
""focus"",""83"",""928805""
","""event"",""trial"",""time""
""blur"",""3"",""12465""
""blur"",""33"",""436078""
""blur"",""47"",""612069""
""blur"",""57"",""747539""
""blur"",""83"",""922678""
","""event"",""trial"",""time""
""focus"",""3"",""15073""
""focus"",""33"",""494305""
""focus"",""47"",""623895""
""focus"",""57"",""789424""
""focus"",""83"",""928805""
","""event"",""trial"",""time""
""fullscreenenter"",""1"",""1960""
","
","","","-1","","","25","3173","877","n","elianto","#f73b6a7A"," ","-1","0","-10","[]","0","2","","","3173","24","0","3","lose","go","0"
"pit-trial","88","958075","0.0-29.0","battery-v0.2","","""event"",""trial"",""time""
""fullscreenenter"",""1"",""1960""
""blur"",""3"",""12465""
""focus"",""3"",""15073""
""blur"",""33"",""436078""
""focus"",""33"",""494305""
""blur"",""47"",""612069""
""focus"",""47"",""623895""
""blur"",""57"",""747539""
""focus"",""57"",""789424""
""blur"",""83"",""922678""
""focus"",""83"",""928805""
","""event"",""trial"",""time""
""blur"",""3"",""12465""
""blur"",""33"",""436078""
""blur"",""47"",""612069""
""blur"",""57"",""747539""
""blur"",""83"",""922678""
","""event"",""trial"",""time""
""focus"",""3"",""15073""
""focus"",""33"",""494305""
""focus"",""47"",""623895""
""focus"",""57"",""789424""
""focus"",""83"",""928805""
","""event"",""trial"",""time""
""fullscreenenter"",""1"",""1960""
","
","","","1231.699999988079","","","25","3173","877","n","elianto","#f73b6a7A"," "," ","1","-10","[2083.599999964237]","1","2","","","3173","25","0","3","lose","go","1"
"pit-trial","89","961842","0.0-30.0","battery-v0.2","","""event"",""trial"",""time""
""fullscreenenter"",""1"",""1960""
""blur"",""3"",""12465""
""focus"",""3"",""15073""
""blur"",""33"",""436078""
""focus"",""33"",""494305""
""blur"",""47"",""612069""
""focus"",""47"",""623895""
""blur"",""57"",""747539""
""focus"",""57"",""789424""
""blur"",""83"",""922678""
""focus"",""83"",""928805""
","""event"",""trial"",""time""
""blur"",""3"",""12465""
""blur"",""33"",""436078""
""blur"",""47"",""612069""
""blur"",""57"",""747539""
""blur"",""83"",""922678""
","""event"",""trial"",""time""
""focus"",""3"",""15073""
""focus"",""33"",""494305""
""focus"",""47"",""623895""
""focus"",""57"",""789424""
""focus"",""83"",""928805""
","""event"",""trial"",""time""
""fullscreenenter"",""1"",""1960""
","
","","","903.3999999761581","","","25","3173","877","f","elianto","#3366ff99","-1"," ","0","0","[1753.699999988079]","1","2","","","3173","26","1","2","win","no-go","0"
"pit-trial","90","965863","0.0-31.0","battery-v0.2","","""event"",""trial"",""time""
""fullscreenenter"",""1"",""1960""
""blur"",""3"",""12465""
""focus"",""3"",""15073""
""blur"",""33"",""436078""
""focus"",""33"",""494305""
""blur"",""47"",""612069""
""focus"",""47"",""623895""
""blur"",""57"",""747539""
""focus"",""57"",""789424""
""blur"",""83"",""922678""
""focus"",""83"",""928805""
","""event"",""trial"",""time""
""blur"",""3"",""12465""
""blur"",""33"",""436078""
""blur"",""47"",""612069""
""blur"",""57"",""747539""
""blur"",""83"",""922678""
","""event"",""trial"",""time""
""focus"",""3"",""15073""
""focus"",""33"",""494305""
""focus"",""47"",""623895""
""focus"",""57"",""789424""
""focus"",""83"",""928805""
","""event"",""trial"",""time""
""fullscreenenter"",""1"",""1960""
","
","","","1160.199999988079","","","25","3173","877","t","elianto","#f73b6a7A"," "," ","1","0","[2012.5]","1","2","","","3173","27","2","3","lose","go","0"
"pit-trial","91","970723","0.0-32.0","battery-v0.2","","""event"",""trial"",""time""
""fullscreenenter"",""1"",""1960""
""blur"",""3"",""12465""
""focus"",""3"",""15073""
""blur"",""33"",""436078""
""focus"",""33"",""494305""
""blur"",""47"",""612069""
""focus"",""47"",""623895""
""blur"",""57"",""747539""
""focus"",""57"",""789424""
""blur"",""83"",""922678""
""focus"",""83"",""928805""
","""event"",""trial"",""time""
""blur"",""3"",""12465""
""blur"",""33"",""436078""
""blur"",""47"",""612069""
""blur"",""57"",""747539""
""blur"",""83"",""922678""
","""event"",""trial"",""time""
""focus"",""3"",""15073""
""focus"",""33"",""494305""
""focus"",""47"",""623895""
""focus"",""57"",""789424""
""focus"",""83"",""928805""
","""event"",""trial"",""time""
""fullscreenenter"",""1"",""1960""
","
","","","-1","","","25","3173","877","b","elianto","#f73b6a7A","-1","-1","1","0","[]","0","2","","","3173","28","3","4","lose","no-go","0"
"pit-trial","92","974261","0.0-33.0","battery-v0.2","","""event"",""trial"",""time""
""fullscreenenter"",""1"",""1960""
""blur"",""3"",""12465""
""focus"",""3"",""15073""
""blur"",""33"",""436078""
""focus"",""33"",""494305""
""blur"",""47"",""612069""
""focus"",""47"",""623895""
""blur"",""57"",""747539""
""focus"",""57"",""789424""
""blur"",""83"",""922678""
""focus"",""83"",""928805""
","""event"",""trial"",""time""
""blur"",""3"",""12465""
""blur"",""33"",""436078""
""blur"",""47"",""612069""
""blur"",""57"",""747539""
""blur"",""83"",""922678""
","""event"",""trial"",""time""
""focus"",""3"",""15073""
""focus"",""33"",""494305""
""focus"",""47"",""623895""
""focus"",""57"",""789424""
""focus"",""83"",""928805""
","""event"",""trial"",""time""
""fullscreenenter"",""1"",""1960""
","
","","","674.0999999642372","","","25","3173","877","f","elianto","#3366ff99","-1"," ","0","0","[1526.5]","1","2","","","3173","29","1","2","win","no-go","0"
"pit-trial","93","978456","0.0-34.0","battery-v0.2","","""event"",""trial"",""time""
""fullscreenenter"",""1"",""1960""
""blur"",""3"",""12465""
""focus"",""3"",""15073""
""blur"",""33"",""436078""
""focus"",""33"",""494305""
""blur"",""47"",""612069""
""focus"",""47"",""623895""
""blur"",""57"",""747539""
""focus"",""57"",""789424""
""blur"",""83"",""922678""
""focus"",""83"",""928805""
","""event"",""trial"",""time""
""blur"",""3"",""12465""
""blur"",""33"",""436078""
""blur"",""47"",""612069""
""blur"",""57"",""747539""
""blur"",""83"",""922678""
","""event"",""trial"",""time""
""focus"",""3"",""15073""
""focus"",""33"",""494305""
""focus"",""47"",""623895""
""focus"",""57"",""789424""
""focus"",""83"",""928805""
","""event"",""trial"",""time""
""fullscreenenter"",""1"",""1960""
","
","","","1332.800000011921","","","25","3173","877","n","elianto","#f73b6a7A"," "," ","1","-10","[2187.699999988079]","1","2","","","3173","30","0","3","lose","go","1"
"pit-trial","94","983320","0.0-35.0","battery-v0.2","","""event"",""trial"",""time""
""fullscreenenter"",""1"",""1960""
""blur"",""3"",""12465""
""focus"",""3"",""15073""
""blur"",""33"",""436078""
""focus"",""33"",""494305""
""blur"",""47"",""612069""
""focus"",""47"",""623895""
""blur"",""57"",""747539""
""focus"",""57"",""789424""
""blur"",""83"",""922678""
""focus"",""83"",""928805""
","""event"",""trial"",""time""
""blur"",""3"",""12465""
""blur"",""33"",""436078""
""blur"",""47"",""612069""
""blur"",""57"",""747539""
""blur"",""83"",""922678""
","""event"",""trial"",""time""
""focus"",""3"",""15073""
""focus"",""33"",""494305""
""focus"",""47"",""623895""
""focus"",""57"",""789424""
""focus"",""83"",""928805""
","""event"",""trial"",""time""
""fullscreenenter"",""1"",""1960""
","
","","","-1","","","25","3173","877","b","elianto","#f73b6a7A","-1","-1","1","0","[]","0","2","","","3173","31","3","4","lose","no-go","0"
"pit-trial","95","987628","0.0-36.0","battery-v0.2","","""event"",""trial"",""time""
""fullscreenenter"",""1"",""1960""
""blur"",""3"",""12465""
""focus"",""3"",""15073""
""blur"",""33"",""436078""
""focus"",""33"",""494305""
""blur"",""47"",""612069""
""focus"",""47"",""623895""
""blur"",""57"",""747539""
""focus"",""57"",""789424""
""blur"",""83"",""922678""
""focus"",""83"",""928805""
","""event"",""trial"",""time""
""blur"",""3"",""12465""
""blur"",""33"",""436078""
""blur"",""47"",""612069""
""blur"",""57"",""747539""
""blur"",""83"",""922678""
","""event"",""trial"",""time""
""focus"",""3"",""15073""
""focus"",""33"",""494305""
""focus"",""47"",""623895""
""focus"",""57"",""789424""
""focus"",""83"",""928805""
","""event"",""trial"",""time""
""fullscreenenter"",""1"",""1960""
","
","","","1448.300000011921","","","25","3173","877","t","elianto","#f73b6a7A"," "," ","1","0","[2298.699999988079]","1","2","","","3173","32","2","3","lose","go","0"
"pit-trial","96","992494","0.0-37.0","battery-v0.2","","""event"",""trial"",""time""
""fullscreenenter"",""1"",""1960""
""blur"",""3"",""12465""
""focus"",""3"",""15073""
""blur"",""33"",""436078""
""focus"",""33"",""494305""
""blur"",""47"",""612069""
""focus"",""47"",""623895""
""blur"",""57"",""747539""
""focus"",""57"",""789424""
""blur"",""83"",""922678""
""focus"",""83"",""928805""
","""event"",""trial"",""time""
""blur"",""3"",""12465""
""blur"",""33"",""436078""
""blur"",""47"",""612069""
""blur"",""57"",""747539""
""blur"",""83"",""922678""
","""event"",""trial"",""time""
""focus"",""3"",""15073""
""focus"",""33"",""494305""
""focus"",""47"",""623895""
""focus"",""57"",""789424""
""focus"",""83"",""928805""
","""event"",""trial"",""time""
""fullscreenenter"",""1"",""1960""
","
","","","-1","","","25","3173","877","n","elianto","#f73b6a7A"," ","-1","0","-10","[]","0","2","","","3173","33","0","3","lose","go","0"
"pit-trial","97","996051","0.0-38.0","battery-v0.2","","""event"",""trial"",""time""
""fullscreenenter"",""1"",""1960""
""blur"",""3"",""12465""
""focus"",""3"",""15073""
""blur"",""33"",""436078""
""focus"",""33"",""494305""
""blur"",""47"",""612069""
""focus"",""47"",""623895""
""blur"",""57"",""747539""
""focus"",""57"",""789424""
""blur"",""83"",""922678""
""focus"",""83"",""928805""
","""event"",""trial"",""time""
""blur"",""3"",""12465""
""blur"",""33"",""436078""
""blur"",""47"",""612069""
""blur"",""57"",""747539""
""blur"",""83"",""922678""
","""event"",""trial"",""time""
""focus"",""3"",""15073""
""focus"",""33"",""494305""
""focus"",""47"",""623895""
""focus"",""57"",""789424""
""focus"",""83"",""928805""
","""event"",""trial"",""time""
""fullscreenenter"",""1"",""1960""
","
","","","692.8000000119209","","","25","3173","877","f","elianto","#3366ff99","-1"," ","0","0","[1547.4000000357628]","1","2","","","3173","34","1","2","win","no-go","0"
"pit-trial","98","1000003","0.0-39.0","battery-v0.2","","""event"",""trial"",""time""
""fullscreenenter"",""1"",""1960""
""blur"",""3"",""12465""
""focus"",""3"",""15073""
""blur"",""33"",""436078""
""focus"",""33"",""494305""
""blur"",""47"",""612069""
""focus"",""47"",""623895""
""blur"",""57"",""747539""
""focus"",""57"",""789424""
""blur"",""83"",""922678""
""focus"",""83"",""928805""
","""event"",""trial"",""time""
""blur"",""3"",""12465""
""blur"",""33"",""436078""
""blur"",""47"",""612069""
""blur"",""57"",""747539""
""blur"",""83"",""922678""
","""event"",""trial"",""time""
""focus"",""3"",""15073""
""focus"",""33"",""494305""
""focus"",""47"",""623895""
""focus"",""57"",""789424""
""focus"",""83"",""928805""
","""event"",""trial"",""time""
""fullscreenenter"",""1"",""1960""
","
","","","1086.800000011921","","","25","3173","877","t","elianto","#f73b6a7A"," "," ","1","0","[1938.7000000476837]","1","2","","","3173","35","2","3","lose","go","0"
"pit-trial","99","1004868","0.0-40.0","battery-v0.2","","""event"",""trial"",""time""
""fullscreenenter"",""1"",""1960""
""blur"",""3"",""12465""
""focus"",""3"",""15073""
""blur"",""33"",""436078""
""focus"",""33"",""494305""
""blur"",""47"",""612069""
""focus"",""47"",""623895""
""blur"",""57"",""747539""
""focus"",""57"",""789424""
""blur"",""83"",""922678""
""focus"",""83"",""928805""
","""event"",""trial"",""time""
""blur"",""3"",""12465""
""blur"",""33"",""436078""
""blur"",""47"",""612069""
""blur"",""57"",""747539""
""blur"",""83"",""922678""
","""event"",""trial"",""time""
""focus"",""3"",""15073""
""focus"",""33"",""494305""
""focus"",""47"",""623895""
""focus"",""57"",""789424""
""focus"",""83"",""928805""
","""event"",""trial"",""time""
""fullscreenenter"",""1"",""1960""
","
","","","-1","","","25","3173","877","b","elianto","#f73b6a7A","-1","-1","1","0","[]","0","2","","","3173","36","3","4","lose","no-go","0"
"pit-trial","100","1008561","0.0-41.0","battery-v0.2","","""event"",""trial"",""time""
""fullscreenenter"",""1"",""1960""
""blur"",""3"",""12465""
""focus"",""3"",""15073""
""blur"",""33"",""436078""
""focus"",""33"",""494305""
""blur"",""47"",""612069""
""focus"",""47"",""623895""
""blur"",""57"",""747539""
""focus"",""57"",""789424""
""blur"",""83"",""922678""
""focus"",""83"",""928805""
","""event"",""trial"",""time""
""blur"",""3"",""12465""
""blur"",""33"",""436078""
""blur"",""47"",""612069""
""blur"",""57"",""747539""
""blur"",""83"",""922678""
","""event"",""trial"",""time""
""focus"",""3"",""15073""
""focus"",""33"",""494305""
""focus"",""47"",""623895""
""focus"",""57"",""789424""
""focus"",""83"",""928805""
","""event"",""trial"",""time""
""fullscreenenter"",""1"",""1960""
","
","","","827.1999999880791","","","25","3173","877","t","elianto","#f73b6a7A"," "," ","1","0","[1681.800000011921]","1","2","","","3173","37","2","3","lose","go","0"
"pit-trial","101","1013427","0.0-42.0","battery-v0.2","","""event"",""trial"",""time""
""fullscreenenter"",""1"",""1960""
""blur"",""3"",""12465""
""focus"",""3"",""15073""
""blur"",""33"",""436078""
""focus"",""33"",""494305""
""blur"",""47"",""612069""
""focus"",""47"",""623895""
""blur"",""57"",""747539""
""focus"",""57"",""789424""
""blur"",""83"",""922678""
""focus"",""83"",""928805""
","""event"",""trial"",""time""
""blur"",""3"",""12465""
""blur"",""33"",""436078""
""blur"",""47"",""612069""
""blur"",""57"",""747539""
""blur"",""83"",""922678""
","""event"",""trial"",""time""
""focus"",""3"",""15073""
""focus"",""33"",""494305""
""focus"",""47"",""623895""
""focus"",""57"",""789424""
""focus"",""83"",""928805""
","""event"",""trial"",""time""
""fullscreenenter"",""1"",""1960""
","
","","","-1","","","25","3173","877","f","elianto","#3366ff99","-1","-1","1","+10","[]","0","2","","","3173","38","1","2","win","no-go","0"
"pit-trial","102","1018289","0.0-43.0","battery-v0.2","","""event"",""trial"",""time""
""fullscreenenter"",""1"",""1960""
""blur"",""3"",""12465""
""focus"",""3"",""15073""
""blur"",""33"",""436078""
""focus"",""33"",""494305""
""blur"",""47"",""612069""
""focus"",""47"",""623895""
""blur"",""57"",""747539""
""focus"",""57"",""789424""
""blur"",""83"",""922678""
""focus"",""83"",""928805""
","""event"",""trial"",""time""
""blur"",""3"",""12465""
""blur"",""33"",""436078""
""blur"",""47"",""612069""
""blur"",""57"",""747539""
""blur"",""83"",""922678""
","""event"",""trial"",""time""
""focus"",""3"",""15073""
""focus"",""33"",""494305""
""focus"",""47"",""623895""
""focus"",""57"",""789424""
""focus"",""83"",""928805""
","""event"",""trial"",""time""
""fullscreenenter"",""1"",""1960""
","
","","","-1","","","25","3173","877","b","elianto","#f73b6a7A","-1","-1","1","0","[]","0","2","","","3173","39","3","4","lose","no-go","0"
"pit-trial","103","1022099","0.0-44.0","battery-v0.2","","""event"",""trial"",""time""
""fullscreenenter"",""1"",""1960""
""blur"",""3"",""12465""
""focus"",""3"",""15073""
""blur"",""33"",""436078""
""focus"",""33"",""494305""
""blur"",""47"",""612069""
""focus"",""47"",""623895""
""blur"",""57"",""747539""
""focus"",""57"",""789424""
""blur"",""83"",""922678""
""focus"",""83"",""928805""
","""event"",""trial"",""time""
""blur"",""3"",""12465""
""blur"",""33"",""436078""
""blur"",""47"",""612069""
""blur"",""57"",""747539""
""blur"",""83"",""922678""
","""event"",""trial"",""time""
""focus"",""3"",""15073""
""focus"",""33"",""494305""
""focus"",""47"",""623895""
""focus"",""57"",""789424""
""focus"",""83"",""928805""
","""event"",""trial"",""time""
""fullscreenenter"",""1"",""1960""
","
","","","940.6999999880791","","","25","3173","877","n","elianto","#f73b6a7A"," "," ","1","0","[1795]","1","2","","","3173","40","0","3","lose","go","0"
"pit-trial","104","1026961","0.0-45.0","battery-v0.2","","""event"",""trial"",""time""
""fullscreenenter"",""1"",""1960""
""blur"",""3"",""12465""
""focus"",""3"",""15073""
""blur"",""33"",""436078""
""focus"",""33"",""494305""
""blur"",""47"",""612069""
""focus"",""47"",""623895""
""blur"",""57"",""747539""
""focus"",""57"",""789424""
""blur"",""83"",""922678""
""focus"",""83"",""928805""
","""event"",""trial"",""time""
""blur"",""3"",""12465""
""blur"",""33"",""436078""
""blur"",""47"",""612069""
""blur"",""57"",""747539""
""blur"",""83"",""922678""
","""event"",""trial"",""time""
""focus"",""3"",""15073""
""focus"",""33"",""494305""
""focus"",""47"",""623895""
""focus"",""57"",""789424""
""focus"",""83"",""928805""
","""event"",""trial"",""time""
""fullscreenenter"",""1"",""1960""
","
","","","-1","","","25","3173","877","f","elianto","#3366ff99","-1","-1","1","+10","[]","0","2","","","3173","41","1","2","win","no-go","0"
"pit-trial","105","1031199","0.0-46.0","battery-v0.2","","""event"",""trial"",""time""
""fullscreenenter"",""1"",""1960""
""blur"",""3"",""12465""
""focus"",""3"",""15073""
""blur"",""33"",""436078""
""focus"",""33"",""494305""
""blur"",""47"",""612069""
""focus"",""47"",""623895""
""blur"",""57"",""747539""
""focus"",""57"",""789424""
""blur"",""83"",""922678""
""focus"",""83"",""928805""
","""event"",""trial"",""time""
""blur"",""3"",""12465""
""blur"",""33"",""436078""
""blur"",""47"",""612069""
""blur"",""57"",""747539""
""blur"",""83"",""922678""
","""event"",""trial"",""time""
""focus"",""3"",""15073""
""focus"",""33"",""494305""
""focus"",""47"",""623895""
""focus"",""57"",""789424""
""focus"",""83"",""928805""
","""event"",""trial"",""time""
""fullscreenenter"",""1"",""1960""
","
","","","1369.3999999761581","","","25","3173","877","n","elianto","#f73b6a7A"," "," ","1","0","[2220.199999988079]","1","2","","","3173","42","0","3","lose","go","0"
"pit-trial","106","1036069","0.0-47.0","battery-v0.2","","""event"",""trial"",""time""
""fullscreenenter"",""1"",""1960""
""blur"",""3"",""12465""
""focus"",""3"",""15073""
""blur"",""33"",""436078""
""focus"",""33"",""494305""
""blur"",""47"",""612069""
""focus"",""47"",""623895""
""blur"",""57"",""747539""
""focus"",""57"",""789424""
""blur"",""83"",""922678""
""focus"",""83"",""928805""
","""event"",""trial"",""time""
""blur"",""3"",""12465""
""blur"",""33"",""436078""
""blur"",""47"",""612069""
""blur"",""57"",""747539""
""blur"",""83"",""922678""
","""event"",""trial"",""time""
""focus"",""3"",""15073""
""focus"",""33"",""494305""
""focus"",""47"",""623895""
""focus"",""57"",""789424""
""focus"",""83"",""928805""
","""event"",""trial"",""time""
""fullscreenenter"",""1"",""1960""
","
","","","-1","","","25","3173","877","b","elianto","#f73b6a7A","-1","-1","1","-10","[]","0","2","","","3173","43","3","4","lose","no-go","1"
"pit-trial","107","1039691","0.0-48.0","battery-v0.2","","""event"",""trial"",""time""
""fullscreenenter"",""1"",""1960""
""blur"",""3"",""12465""
""focus"",""3"",""15073""
""blur"",""33"",""436078""
""focus"",""33"",""494305""
""blur"",""47"",""612069""
""focus"",""47"",""623895""
""blur"",""57"",""747539""
""focus"",""57"",""789424""
""blur"",""83"",""922678""
""focus"",""83"",""928805""
","""event"",""trial"",""time""
""blur"",""3"",""12465""
""blur"",""33"",""436078""
""blur"",""47"",""612069""
""blur"",""57"",""747539""
""blur"",""83"",""922678""
","""event"",""trial"",""time""
""focus"",""3"",""15073""
""focus"",""33"",""494305""
""focus"",""47"",""623895""
""focus"",""57"",""789424""
""focus"",""83"",""928805""
","""event"",""trial"",""time""
""fullscreenenter"",""1"",""1960""
","
","","","753.4000000357628","","","25","3173","877","t","elianto","#f73b6a7A"," "," ","1","0","[1608.0999999642372]","1","2","","","3173","44","2","3","lose","go","0"
"pit-trial","108","1044555","0.0-49.0","battery-v0.2","","""event"",""trial"",""time""
""fullscreenenter"",""1"",""1960""
""blur"",""3"",""12465""
""focus"",""3"",""15073""
""blur"",""33"",""436078""
""focus"",""33"",""494305""
""blur"",""47"",""612069""
""focus"",""47"",""623895""
""blur"",""57"",""747539""
""focus"",""57"",""789424""
""blur"",""83"",""922678""
""focus"",""83"",""928805""
","""event"",""trial"",""time""
""blur"",""3"",""12465""
""blur"",""33"",""436078""
""blur"",""47"",""612069""
""blur"",""57"",""747539""
""blur"",""83"",""922678""
","""event"",""trial"",""time""
""focus"",""3"",""15073""
""focus"",""33"",""494305""
""focus"",""47"",""623895""
""focus"",""57"",""789424""
""focus"",""83"",""928805""
","""event"",""trial"",""time""
""fullscreenenter"",""1"",""1960""
","
","","","-1","","","25","3173","877","b","elianto","#f73b6a7A","-1","-1","1","0","[]","0","2","","","3173","45","3","4","lose","no-go","0"
"pit-trial","109","1048213","0.0-50.0","battery-v0.2","","""event"",""trial"",""time""
""fullscreenenter"",""1"",""1960""
""blur"",""3"",""12465""
""focus"",""3"",""15073""
""blur"",""33"",""436078""
""focus"",""33"",""494305""
""blur"",""47"",""612069""
""focus"",""47"",""623895""
""blur"",""57"",""747539""
""focus"",""57"",""789424""
""blur"",""83"",""922678""
""focus"",""83"",""928805""
","""event"",""trial"",""time""
""blur"",""3"",""12465""
""blur"",""33"",""436078""
""blur"",""47"",""612069""
""blur"",""57"",""747539""
""blur"",""83"",""922678""
","""event"",""trial"",""time""
""focus"",""3"",""15073""
""focus"",""33"",""494305""
""focus"",""47"",""623895""
""focus"",""57"",""789424""
""focus"",""83"",""928805""
","""event"",""trial"",""time""
""fullscreenenter"",""1"",""1960""
","
","","","798.2000000476837","","","25","3173","877","n","elianto","#f73b6a7A"," "," ","1","0","[1650.2000000476837]","1","2","","","3173","46","0","3","lose","go","0"
"pit-trial","110","1051782","0.0-51.0","battery-v0.2","","""event"",""trial"",""time""
""fullscreenenter"",""1"",""1960""
""blur"",""3"",""12465""
""focus"",""3"",""15073""
""blur"",""33"",""436078""
""focus"",""33"",""494305""
""blur"",""47"",""612069""
""focus"",""47"",""623895""
""blur"",""57"",""747539""
""focus"",""57"",""789424""
""blur"",""83"",""922678""
""focus"",""83"",""928805""
","""event"",""trial"",""time""
""blur"",""3"",""12465""
""blur"",""33"",""436078""
""blur"",""47"",""612069""
""blur"",""57"",""747539""
""blur"",""83"",""922678""
","""event"",""trial"",""time""
""focus"",""3"",""15073""
""focus"",""33"",""494305""
""focus"",""47"",""623895""
""focus"",""57"",""789424""
""focus"",""83"",""928805""
","""event"",""trial"",""time""
""fullscreenenter"",""1"",""1960""
","
","","","709.3000000119209","","","25","3173","877","f","elianto","#3366ff99","-1"," ","0","0","[1559.800000011921]","1","2","","","3173","47","1","2","win","no-go","0"
"pit-trial","111","1055444","0.0-52.0","battery-v0.2","","""event"",""trial"",""time""
""fullscreenenter"",""1"",""1960""
""blur"",""3"",""12465""
""focus"",""3"",""15073""
""blur"",""33"",""436078""
""focus"",""33"",""494305""
""blur"",""47"",""612069""
""focus"",""47"",""623895""
""blur"",""57"",""747539""
""focus"",""57"",""789424""
""blur"",""83"",""922678""
""focus"",""83"",""928805""
","""event"",""trial"",""time""
""blur"",""3"",""12465""
""blur"",""33"",""436078""
""blur"",""47"",""612069""
""blur"",""57"",""747539""
""blur"",""83"",""922678""
","""event"",""trial"",""time""
""focus"",""3"",""15073""
""focus"",""33"",""494305""
""focus"",""47"",""623895""
""focus"",""57"",""789424""
""focus"",""83"",""928805""
","""event"",""trial"",""time""
""fullscreenenter"",""1"",""1960""
","
","","","803.1999999880791","","","25","3173","877","t","elianto","#f73b6a7A"," "," ","1","0","[1654.300000011921]","1","2","","","3173","48","2","3","lose","go","0"
"pit-trial","112","1059329","0.0-53.0","battery-v0.2","","""event"",""trial"",""time""
""fullscreenenter"",""1"",""1960""
""blur"",""3"",""12465""
""focus"",""3"",""15073""
""blur"",""33"",""436078""
""focus"",""33"",""494305""
""blur"",""47"",""612069""
""focus"",""47"",""623895""
""blur"",""57"",""747539""
""focus"",""57"",""789424""
""blur"",""83"",""922678""
""focus"",""83"",""928805""
","""event"",""trial"",""time""
""blur"",""3"",""12465""
""blur"",""33"",""436078""
""blur"",""47"",""612069""
""blur"",""57"",""747539""
""blur"",""83"",""922678""
","""event"",""trial"",""time""
""focus"",""3"",""15073""
""focus"",""33"",""494305""
""focus"",""47"",""623895""
""focus"",""57"",""789424""
""focus"",""83"",""928805""
","""event"",""trial"",""time""
""fullscreenenter"",""1"",""1960""
","
","","","1017.6999999880791","","","25","3173","877","n","elianto","#f73b6a7A"," "," ","1","0","[1871]","1","2","","","3173","49","0","3","lose","go","0"
"pit-trial","113","1064198","0.0-54.0","battery-v0.2","","""event"",""trial"",""time""
""fullscreenenter"",""1"",""1960""
""blur"",""3"",""12465""
""focus"",""3"",""15073""
""blur"",""33"",""436078""
""focus"",""33"",""494305""
""blur"",""47"",""612069""
""focus"",""47"",""623895""
""blur"",""57"",""747539""
""focus"",""57"",""789424""
""blur"",""83"",""922678""
""focus"",""83"",""928805""
","""event"",""trial"",""time""
""blur"",""3"",""12465""
""blur"",""33"",""436078""
""blur"",""47"",""612069""
""blur"",""57"",""747539""
""blur"",""83"",""922678""
","""event"",""trial"",""time""
""focus"",""3"",""15073""
""focus"",""33"",""494305""
""focus"",""47"",""623895""
""focus"",""57"",""789424""
""focus"",""83"",""928805""
","""event"",""trial"",""time""
""fullscreenenter"",""1"",""1960""
","
","","","-1","","","25","3173","877","f","elianto","#3366ff99","-1","-1","1","+10","[]","0","2","","","3173","50","1","2","win","no-go","0"
"pit-trial","114","1067966","0.0-55.0","battery-v0.2","","""event"",""trial"",""time""
""fullscreenenter"",""1"",""1960""
""blur"",""3"",""12465""
""focus"",""3"",""15073""
""blur"",""33"",""436078""
""focus"",""33"",""494305""
""blur"",""47"",""612069""
""focus"",""47"",""623895""
""blur"",""57"",""747539""
""focus"",""57"",""789424""
""blur"",""83"",""922678""
""focus"",""83"",""928805""
","""event"",""trial"",""time""
""blur"",""3"",""12465""
""blur"",""33"",""436078""
""blur"",""47"",""612069""
""blur"",""57"",""747539""
""blur"",""83"",""922678""
","""event"",""trial"",""time""
""focus"",""3"",""15073""
""focus"",""33"",""494305""
""focus"",""47"",""623895""
""focus"",""57"",""789424""
""focus"",""83"",""928805""
","""event"",""trial"",""time""
""fullscreenenter"",""1"",""1960""
","
","","","900.5","","","25","3173","877","t","elianto","#f73b6a7A"," "," ","1","0","[1754.6000000238419]","1","2","","","3173","51","2","3","lose","go","0"
"pit-trial","115","1072832","0.0-56.0","battery-v0.2","","""event"",""trial"",""time""
""fullscreenenter"",""1"",""1960""
""blur"",""3"",""12465""
""focus"",""3"",""15073""
""blur"",""33"",""436078""
""focus"",""33"",""494305""
""blur"",""47"",""612069""
""focus"",""47"",""623895""
""blur"",""57"",""747539""
""focus"",""57"",""789424""
""blur"",""83"",""922678""
""focus"",""83"",""928805""
","""event"",""trial"",""time""
""blur"",""3"",""12465""
""blur"",""33"",""436078""
""blur"",""47"",""612069""
""blur"",""57"",""747539""
""blur"",""83"",""922678""
","""event"",""trial"",""time""
""focus"",""3"",""15073""
""focus"",""33"",""494305""
""focus"",""47"",""623895""
""focus"",""57"",""789424""
""focus"",""83"",""928805""
","""event"",""trial"",""time""
""fullscreenenter"",""1"",""1960""
","
","","","-1","","","25","3173","877","b","elianto","#f73b6a7A","-1","-1","1","0","[]","0","2","","","3173","52","3","4","lose","no-go","0"
"pit-trial","116","1076493","0.0-57.0","battery-v0.2","","""event"",""trial"",""time""
""fullscreenenter"",""1"",""1960""
""blur"",""3"",""12465""
""focus"",""3"",""15073""
""blur"",""33"",""436078""
""focus"",""33"",""494305""
""blur"",""47"",""612069""
""focus"",""47"",""623895""
""blur"",""57"",""747539""
""focus"",""57"",""789424""
""blur"",""83"",""922678""
""focus"",""83"",""928805""
","""event"",""trial"",""time""
""blur"",""3"",""12465""
""blur"",""33"",""436078""
""blur"",""47"",""612069""
""blur"",""57"",""747539""
""blur"",""83"",""922678""
","""event"",""trial"",""time""
""focus"",""3"",""15073""
""focus"",""33"",""494305""
""focus"",""47"",""623895""
""focus"",""57"",""789424""
""focus"",""83"",""928805""
","""event"",""trial"",""time""
""fullscreenenter"",""1"",""1960""
","
","","","795.8999999761581","","","25","3173","877","t","elianto","#f73b6a7A"," "," ","1","-10","[1650.8999999761581]","1","2","","","3173","53","2","3","lose","go","1"
"pit-trial","117","1081359","0.0-58.0","battery-v0.2","","""event"",""trial"",""time""
""fullscreenenter"",""1"",""1960""
""blur"",""3"",""12465""
""focus"",""3"",""15073""
""blur"",""33"",""436078""
""focus"",""33"",""494305""
""blur"",""47"",""612069""
""focus"",""47"",""623895""
""blur"",""57"",""747539""
""focus"",""57"",""789424""
""blur"",""83"",""922678""
""focus"",""83"",""928805""
","""event"",""trial"",""time""
""blur"",""3"",""12465""
""blur"",""33"",""436078""
""blur"",""47"",""612069""
""blur"",""57"",""747539""
""blur"",""83"",""922678""
","""event"",""trial"",""time""
""focus"",""3"",""15073""
""focus"",""33"",""494305""
""focus"",""47"",""623895""
""focus"",""57"",""789424""
""focus"",""83"",""928805""
","""event"",""trial"",""time""
""fullscreenenter"",""1"",""1960""
","
","","","-1","","","25","3173","877","n","elianto","#f73b6a7A"," ","-1","0","-10","[]","0","2","","","3173","54","0","3","lose","go","0"
"pit-trial","118","1086222","0.0-59.0","battery-v0.2","","""event"",""trial"",""time""
""fullscreenenter"",""1"",""1960""
""blur"",""3"",""12465""
""focus"",""3"",""15073""
""blur"",""33"",""436078""
""focus"",""33"",""494305""
""blur"",""47"",""612069""
""focus"",""47"",""623895""
""blur"",""57"",""747539""
""focus"",""57"",""789424""
""blur"",""83"",""922678""
""focus"",""83"",""928805""
","""event"",""trial"",""time""
""blur"",""3"",""12465""
""blur"",""33"",""436078""
""blur"",""47"",""612069""
""blur"",""57"",""747539""
""blur"",""83"",""922678""
","""event"",""trial"",""time""
""focus"",""3"",""15073""
""focus"",""33"",""494305""
""focus"",""47"",""623895""
""focus"",""57"",""789424""
""focus"",""83"",""928805""
","""event"",""trial"",""time""
""fullscreenenter"",""1"",""1960""
","
","","","-1","","","25","3173","877","f","elianto","#3366ff99","-1","-1","1","+10","[]","0","2","","","3173","55","1","2","win","no-go","0"
"pit-trial","119","1091088","0.0-60.0","battery-v0.2","","""event"",""trial"",""time""
""fullscreenenter"",""1"",""1960""
""blur"",""3"",""12465""
""focus"",""3"",""15073""
""blur"",""33"",""436078""
""focus"",""33"",""494305""
""blur"",""47"",""612069""
""focus"",""47"",""623895""
""blur"",""57"",""747539""
""focus"",""57"",""789424""
""blur"",""83"",""922678""
""focus"",""83"",""928805""
","""event"",""trial"",""time""
""blur"",""3"",""12465""
""blur"",""33"",""436078""
""blur"",""47"",""612069""
""blur"",""57"",""747539""
""blur"",""83"",""922678""
","""event"",""trial"",""time""
""focus"",""3"",""15073""
""focus"",""33"",""494305""
""focus"",""47"",""623895""
""focus"",""57"",""789424""
""focus"",""83"",""928805""
","""event"",""trial"",""time""
""fullscreenenter"",""1"",""1960""
","
","","","-1","","","25","3173","877","b","elianto","#f73b6a7A","-1","-1","1","0","[]","0","2","","","3173","56","3","4","lose","no-go","0"
"pit-trial","120","1094917","0.0-61.0","battery-v0.2","","""event"",""trial"",""time""
""fullscreenenter"",""1"",""1960""
""blur"",""3"",""12465""
""focus"",""3"",""15073""
""blur"",""33"",""436078""
""focus"",""33"",""494305""
""blur"",""47"",""612069""
""focus"",""47"",""623895""
""blur"",""57"",""747539""
""focus"",""57"",""789424""
""blur"",""83"",""922678""
""focus"",""83"",""928805""
","""event"",""trial"",""time""
""blur"",""3"",""12465""
""blur"",""33"",""436078""
""blur"",""47"",""612069""
""blur"",""57"",""747539""
""blur"",""83"",""922678""
","""event"",""trial"",""time""
""focus"",""3"",""15073""
""focus"",""33"",""494305""
""focus"",""47"",""623895""
""focus"",""57"",""789424""
""focus"",""83"",""928805""
","""event"",""trial"",""time""
""fullscreenenter"",""1"",""1960""
","
","","","964.0999999642372","","","25","3173","877","t","elianto","#f73b6a7A"," "," ","1","0","[1819.199999988079]","1","2","","","3173","57","2","3","lose","go","0"
"pit-trial","121","1098643","0.0-62.0","battery-v0.2","","""event"",""trial"",""time""
""fullscreenenter"",""1"",""1960""
""blur"",""3"",""12465""
""focus"",""3"",""15073""
""blur"",""33"",""436078""
""focus"",""33"",""494305""
""blur"",""47"",""612069""
""focus"",""47"",""623895""
""blur"",""57"",""747539""
""focus"",""57"",""789424""
""blur"",""83"",""922678""
""focus"",""83"",""928805""
","""event"",""trial"",""time""
""blur"",""3"",""12465""
""blur"",""33"",""436078""
""blur"",""47"",""612069""
""blur"",""57"",""747539""
""blur"",""83"",""922678""
","""event"",""trial"",""time""
""focus"",""3"",""15073""
""focus"",""33"",""494305""
""focus"",""47"",""623895""
""focus"",""57"",""789424""
""focus"",""83"",""928805""
","""event"",""trial"",""time""
""fullscreenenter"",""1"",""1960""
","
","","","861.0999999642372","","","25","3173","877","n","elianto","#f73b6a7A"," "," ","1","0","[1713.9000000357628]","1","2","","","3173","58","0","3","lose","go","0"
"pit-trial","122","1103504","0.0-63.0","battery-v0.2","","""event"",""trial"",""time""
""fullscreenenter"",""1"",""1960""
""blur"",""3"",""12465""
""focus"",""3"",""15073""
""blur"",""33"",""436078""
""focus"",""33"",""494305""
""blur"",""47"",""612069""
""focus"",""47"",""623895""
""blur"",""57"",""747539""
""focus"",""57"",""789424""
""blur"",""83"",""922678""
""focus"",""83"",""928805""
","""event"",""trial"",""time""
""blur"",""3"",""12465""
""blur"",""33"",""436078""
""blur"",""47"",""612069""
""blur"",""57"",""747539""
""blur"",""83"",""922678""
","""event"",""trial"",""time""
""focus"",""3"",""15073""
""focus"",""33"",""494305""
""focus"",""47"",""623895""
""focus"",""57"",""789424""
""focus"",""83"",""928805""
","""event"",""trial"",""time""
""fullscreenenter"",""1"",""1960""
","
","","","-1","","","25","3173","877","b","elianto","#f73b6a7A","-1","-1","1","0","[]","0","2","","","3173","59","3","4","lose","no-go","0"
"pit-trial","123","1107723","0.0-64.0","battery-v0.2","","""event"",""trial"",""time""
""fullscreenenter"",""1"",""1960""
""blur"",""3"",""12465""
""focus"",""3"",""15073""
""blur"",""33"",""436078""
""focus"",""33"",""494305""
""blur"",""47"",""612069""
""focus"",""47"",""623895""
""blur"",""57"",""747539""
""focus"",""57"",""789424""
""blur"",""83"",""922678""
""focus"",""83"",""928805""
","""event"",""trial"",""time""
""blur"",""3"",""12465""
""blur"",""33"",""436078""
""blur"",""47"",""612069""
""blur"",""57"",""747539""
""blur"",""83"",""922678""
","""event"",""trial"",""time""
""focus"",""3"",""15073""
""focus"",""33"",""494305""
""focus"",""47"",""623895""
""focus"",""57"",""789424""
""focus"",""83"",""928805""
","""event"",""trial"",""time""
""fullscreenenter"",""1"",""1960""
","
","","","1356.699999988079","","","25","3173","877","c","elianto","#3366ff99"," "," ","1","+10","[2208.600000023842]","1","2","","","3173","60","4","1","win","go","0"
"pit-trial","124","1111563","0.0-65.0","battery-v0.2","","""event"",""trial"",""time""
""fullscreenenter"",""1"",""1960""
""blur"",""3"",""12465""
""focus"",""3"",""15073""
""blur"",""33"",""436078""
""focus"",""33"",""494305""
""blur"",""47"",""612069""
""focus"",""47"",""623895""
""blur"",""57"",""747539""
""focus"",""57"",""789424""
""blur"",""83"",""922678""
""focus"",""83"",""928805""
","""event"",""trial"",""time""
""blur"",""3"",""12465""
""blur"",""33"",""436078""
""blur"",""47"",""612069""
""blur"",""57"",""747539""
""blur"",""83"",""922678""
","""event"",""trial"",""time""
""focus"",""3"",""15073""
