"trial_type","trial_index","time_elapsed","internal_node_id","task_version","subject_id","interactions","blur_events","focus_events","fullscreenenter_events","fullscreenexit_events","success","view_history","rt","responses","num_errors","age","subject","participantId","rune","rune_set","hex","correct","choice","accuracy","outcome","keys","total_keys","block","practice","value","sub","trial","stimulus","robot","valence","action","sham"
"pavlovia","0","7","0.0-0.0","battery-v0.2","","""event"",""trial"",""time""
""fullscreenenter"",""1"",""2142""
","
","
","""event"",""trial"",""time""
""fullscreenenter"",""1"",""2142""
","
","","","","","","","","","","","","","","","","","","","","","","","","","","",""
"fullscreen","1","3115","0.0-1.0","battery-v0.2","","""event"",""trial"",""time""
""fullscreenenter"",""1"",""2142""
","
","
","""event"",""trial"",""time""
""fullscreenenter"",""1"",""2142""
","
","true","","","","","","","","","","","","","","","","","","","","","","","","","",""
"pit-instructions","2","10679","0.0-2.0-0.0","battery-v0.2","","""event"",""trial"",""time""
""fullscreenenter"",""1"",""2142""
","
","
","""event"",""trial"",""time""
""fullscreenenter"",""1"",""2142""
","
","","[{""page_index"":0,""viewing_time"":7557}]","7558","","","","","","","","","","","","","","","","","","","","","","","",""
"pit-comprehension","3","13488","0.0-2.0-1.0-0.0","battery-v0.2","","""event"",""trial"",""time""
""fullscreenenter"",""1"",""2142""
","
","
","""event"",""trial"",""time""
""fullscreenenter"",""1"",""2142""
","
","","","2768","[""shark""]","0","25","10175","3219","","","","","","","","","","","","","","","","","","",""
"pit-instructions","4","14680","0.0-2.0-1.0-1.0","battery-v0.2","","""event"",""trial"",""time""
""fullscreenenter"",""1"",""2142""
","
","
","""event"",""trial"",""time""
""fullscreenenter"",""1"",""2142""
","
","","[{""page_index"":0,""viewing_time"":1185}]","1186","","","","","","","","","","","","","","","","","","","","","","","",""
"pit-comprehension","5","17109","0.0-2.0-2.0-0.0","battery-v0.2","","""event"",""trial"",""time""
""fullscreenenter"",""1"",""2142""
","
","
","""event"",""trial"",""time""
""fullscreenenter"",""1"",""2142""
","
","","","2424","[""tiger""]","0","25","10175","3219","","","","","","","","","","","","","","","","","","",""
"pit-instructions","6","18441","0.0-2.0-2.0-1.0","battery-v0.2","","""event"",""trial"",""time""
""fullscreenenter"",""1"",""2142""
","
","
","""event"",""trial"",""time""
""fullscreenenter"",""1"",""2142""
","
","","[{""page_index"":0,""viewing_time"":1325}]","1326","","","","","","","","","","","","","","","","","","","","","","","",""
"pit-instructions","7","112363","0.0-2.0-3.0","battery-v0.2","","""event"",""trial"",""time""
""fullscreenenter"",""1"",""2142""
","
","
","""event"",""trial"",""time""
""fullscreenenter"",""1"",""2142""
","
","","[{""page_index"":0,""viewing_time"":9019},{""page_index"":1,""viewing_time"":6782},{""page_index"":2,""viewing_time"":6128},{""page_index"":3,""viewing_time"":6252},{""page_index"":4,""viewing_time"":5919},{""page_index"":5,""viewing_time"":5282},{""page_index"":6,""viewing_time"":7020},{""page_index"":7,""viewing_time"":6344},{""page_index"":8,""viewing_time"":6880},{""page_index"":9,""viewing_time"":7853},{""page_index"":10,""viewing_time"":7502},{""page_index"":11,""viewing_time"":6982},{""page_index"":12,""viewing_time"":7080},{""page_index"":13,""viewing_time"":4873}]","93917","","","","","","","","","","","","","","","","","","","","","","","",""
"pit-trial","8","115931","0.0-2.0-4.0-0.0","battery-v0.2","","""event"",""trial"",""time""
""fullscreenenter"",""1"",""2142""
","
","
","""event"",""trial"",""time""
""fullscreenenter"",""1"",""2142""
","
","","","710","","","25","10175","3219","&#9784;","elianto","#FFFFF080"," "," ","1","&#10004","[1560]","1","0","0","","","","","","","",""
"pit-trial","9","119370","0.0-2.0-4.1-0.1","battery-v0.2","","""event"",""trial"",""time""
""fullscreenenter"",""1"",""2142""
","
","
","""event"",""trial"",""time""
""fullscreenenter"",""1"",""2142""
","
","","","583","","","25","10175","3219","&#9784;","elianto","#FFFFF080"," "," ","1","&#10004","[1432.9999999999854]","1","0","0","","","","","","","",""
"pit-trial","10","122771","0.0-2.0-4.2-0.2","battery-v0.2","","""event"",""trial"",""time""
""fullscreenenter"",""1"",""2142""
","
","
","""event"",""trial"",""time""
""fullscreenenter"",""1"",""2142""
","
","","","543","","","25","10175","3219","&#9784;","elianto","#FFFFF080"," "," ","1","&#10004","[1393]","1","0","0","","","","","","","",""
"pit-trial","11","126182","0.0-2.0-4.3-0.3","battery-v0.2","","""event"",""trial"",""time""
""fullscreenenter"",""1"",""2142""
","
","
","""event"",""trial"",""time""
""fullscreenenter"",""1"",""2142""
","
","","","555","","","25","10175","3219","&#9784;","elianto","#FFFFF080"," "," ","1","&#10004","[1406]","1","0","0","","","","","","","",""
"pit-trial","12","130075","0.0-2.0-4.4-0.4","battery-v0.2","","""event"",""trial"",""time""
""fullscreenenter"",""1"",""2142""
","
","
","""event"",""trial"",""time""
""fullscreenenter"",""1"",""2142""
","
","","","1037","","","25","10175","3219","&#9784;","elianto","#FFFFF080"," "," ","1","&#10004","[1887]","1","0","0","","","","","","","",""
"pit-instructions","13","151080","0.0-2.0-5.0","battery-v0.2","","""event"",""trial"",""time""
""fullscreenenter"",""1"",""2142""
","
","
","""event"",""trial"",""time""
""fullscreenenter"",""1"",""2142""
","
","","[{""page_index"":0,""viewing_time"":4814},{""page_index"":1,""viewing_time"":5033},{""page_index"":2,""viewing_time"":4927.000000000029},{""page_index"":3,""viewing_time"":6222.999999999971}]","20998","","","","","","","","","","","","","","","","","","","","","","","",""
"pit-trial","14","155937","0.0-2.0-6.0-0.0","battery-v0.2","","""event"",""trial"",""time""
""fullscreenenter"",""1"",""2142""
","
","
","""event"",""trial"",""time""
""fullscreenenter"",""1"",""2142""
","
","","","-1","","","25","10175","3219","&#9854;","elianto","#FFFFF080","-1","-1","1","&#10004","[]","0","0","1","","","","","","","",""
"pit-trial","15","160795","0.0-2.0-6.1-0.1","battery-v0.2","","""event"",""trial"",""time""
""fullscreenenter"",""1"",""2142""
","
","
","""event"",""trial"",""time""
""fullscreenenter"",""1"",""2142""
","
","","","-1","","","25","10175","3219","&#9854;","elianto","#FFFFF080","-1","-1","1","&#10004","[]","0","0","1","","","","","","","",""
"pit-trial","16","165652","0.0-2.0-6.2-0.2","battery-v0.2","","""event"",""trial"",""time""
""fullscreenenter"",""1"",""2142""
","
","
","""event"",""trial"",""time""
""fullscreenenter"",""1"",""2142""
","
","","","-1","","","25","10175","3219","&#9854;","elianto","#FFFFF080","-1","-1","1","&#10004","[]","0","0","1","","","","","","","",""
"pit-trial","17","170509","0.0-2.0-6.3-0.3","battery-v0.2","","""event"",""trial"",""time""
""fullscreenenter"",""1"",""2142""
","
","
","""event"",""trial"",""time""
""fullscreenenter"",""1"",""2142""
","
","","","-1","","","25","10175","3219","&#9854;","elianto","#FFFFF080","-1","-1","1","&#10004","[]","0","0","1","","","","","","","",""
"pit-trial","18","175366","0.0-2.0-6.4-0.4","battery-v0.2","","""event"",""trial"",""time""
""fullscreenenter"",""1"",""2142""
","
","
","""event"",""trial"",""time""
""fullscreenenter"",""1"",""2142""
","
","","","-1","","","25","10175","3219","&#9854;","elianto","#FFFFF080","-1","-1","1","&#10004","[]","0","0","1","","","","","","","",""
"pit-instructions","19","288889","0.0-2.0-7.0","battery-v0.2","","""event"",""trial"",""time""
""fullscreenenter"",""1"",""2142""
","
","
","""event"",""trial"",""time""
""fullscreenenter"",""1"",""2142""
","
","","[{""page_index"":0,""viewing_time"":5994},{""page_index"":1,""viewing_time"":6509},{""page_index"":2,""viewing_time"":6581},{""page_index"":3,""viewing_time"":6020},{""page_index"":4,""viewing_time"":5164},{""page_index"":5,""viewing_time"":5337},{""page_index"":6,""viewing_time"":5830},{""page_index"":7,""viewing_time"":7642},{""page_index"":8,""viewing_time"":6132},{""page_index"":9,""viewing_time"":5690},{""page_index"":10,""viewing_time"":6268},{""page_index"":11,""viewing_time"":4403},{""page_index"":12,""viewing_time"":6277},{""page_index"":13,""viewing_time"":7006},{""page_index"":14,""viewing_time"":6823},{""page_index"":15,""viewing_time"":6419},{""page_index"":16,""viewing_time"":8510},{""page_index"":17,""viewing_time"":6912.000000000058}]","113517.00000000006","","","","","","","","","","","","","","","","","","","","","","","",""
"pit-trial","20","292298","0.0-2.0-8.0-0.0","battery-v0.2","","""event"",""trial"",""time""
""fullscreenenter"",""1"",""2142""
","
","
","""event"",""trial"",""time""
""fullscreenenter"",""1"",""2142""
","
","","","552","","","25","10175","3219","&#9776;","elianto","#3366ff99"," "," ","1","+10","[1402]","1","0","1","","","","","","","",""
"pit-trial","21","295539","0.0-2.0-8.0-1.0","battery-v0.2","","""event"",""trial"",""time""
""fullscreenenter"",""1"",""2142""
","
","
","""event"",""trial"",""time""
""fullscreenenter"",""1"",""2142""
","
","","","385.0000000000582","","","25","10175","3219","&#9776;","elianto","#3366ff99"," "," ","1","+10","[1236.0000000000582]","1","0","1","","","","","","","",""
"pit-trial","22","298859","0.0-2.0-8.0-2.0","battery-v0.2","","""event"",""trial"",""time""
""fullscreenenter"",""1"",""2142""
","
","
","""event"",""trial"",""time""
""fullscreenenter"",""1"",""2142""
","
","","","464","","","25","10175","3219","&#9776;","elianto","#3366ff99"," "," ","1","+10","[1315]","1","0","1","","","","","","","",""
"pit-trial","23","302124","0.0-2.0-8.0-3.0","battery-v0.2","","""event"",""trial"",""time""
""fullscreenenter"",""1"",""2142""
","
","
","""event"",""trial"",""time""
""fullscreenenter"",""1"",""2142""
","
","","","408","","","25","10175","3219","&#9776;","elianto","#3366ff99"," "," ","1","0","[1260]","1","0","1","","","","","","","",""
"pit-trial","24","305274","0.0-2.0-8.0-4.0","battery-v0.2","","""event"",""trial"",""time""
""fullscreenenter"",""1"",""2142""
","
","
","""event"",""trial"",""time""
""fullscreenenter"",""1"",""2142""
","
","","","294","","","25","10175","3219","&#9776;","elianto","#3366ff99"," "," ","1","+10","[1145]","1","0","1","","","","","","","",""
"pit-trial","25","308596","0.0-2.0-8.1-0.1","battery-v0.2","","""event"",""trial"",""time""
""fullscreenenter"",""1"",""2142""
","
","
","""event"",""trial"",""time""
""fullscreenenter"",""1"",""2142""
","
","","","465","","","25","10175","3219","&#9776;","elianto","#3366ff99"," "," ","1","+10","[1316]","1","0","1","","","","","","","",""
"pit-trial","26","311835","0.0-2.0-8.1-1.1","battery-v0.2","","""event"",""trial"",""time""
""fullscreenenter"",""1"",""2142""
","
","
","""event"",""trial"",""time""
""fullscreenenter"",""1"",""2142""
","
","","","384","","","25","10175","3219","&#9776;","elianto","#3366ff99"," "," ","1","+10","[1234]","1","0","1","","","","","","","",""
"pit-trial","27","315114","0.0-2.0-8.1-2.1","battery-v0.2","","""event"",""trial"",""time""
""fullscreenenter"",""1"",""2142""
","
","
","""event"",""trial"",""time""
""fullscreenenter"",""1"",""2142""
","
","","","423","","","25","10175","3219","&#9776;","elianto","#3366ff99"," "," ","1","+10","[1274]","1","0","1","","","","","","","",""
"pit-trial","28","318340","0.0-2.0-8.1-3.1","battery-v0.2","","""event"",""trial"",""time""
""fullscreenenter"",""1"",""2142""
","
","
","""event"",""trial"",""time""
""fullscreenenter"",""1"",""2142""
","
","","","367","","","25","10175","3219","&#9776;","elianto","#3366ff99"," "," ","1","0","[1218]","1","0","1","","","","","","","",""
"pit-trial","29","321591","0.0-2.0-8.1-4.1","battery-v0.2","","""event"",""trial"",""time""
""fullscreenenter"",""1"",""2142""
","
","
","""event"",""trial"",""time""
""fullscreenenter"",""1"",""2142""
","
","","","396","","","25","10175","3219","&#9776;","elianto","#3366ff99"," "," ","1","+10","[1246]","1","0","1","","","","","","","",""
"pit-trial","30","324918","0.0-2.0-8.2-0.2","battery-v0.2","","""event"",""trial"",""time""
""fullscreenenter"",""1"",""2142""
","
","
","""event"",""trial"",""time""
""fullscreenenter"",""1"",""2142""
","
","","","467.9999999999418","","","25","10175","3219","&#9776;","elianto","#3366ff99"," "," ","1","+10","[1321]","1","0","1","","","","","","","",""
"pit-trial","31","328153","0.0-2.0-8.2-1.2","battery-v0.2","","""event"",""trial"",""time""
""fullscreenenter"",""1"",""2142""
","
","
","""event"",""trial"",""time""
""fullscreenenter"",""1"",""2142""
","
","","","379","","","25","10175","3219","&#9776;","elianto","#3366ff99"," "," ","1","+10","[1230]","1","0","1","","","","","","","",""
"pit-trial","32","331388","0.0-2.0-8.2-2.2","battery-v0.2","","""event"",""trial"",""time""
""fullscreenenter"",""1"",""2142""
","
","
","""event"",""trial"",""time""
""fullscreenenter"",""1"",""2142""
","
","","","379","","","25","10175","3219","&#9776;","elianto","#3366ff99"," "," ","1","+10","[1230]","1","0","1","","","","","","","",""
"pit-trial","33","334644","0.0-2.0-8.2-3.2","battery-v0.2","","""event"",""trial"",""time""
""fullscreenenter"",""1"",""2142""
","
","
","""event"",""trial"",""time""
""fullscreenenter"",""1"",""2142""
","
","","","400","","","25","10175","3219","&#9776;","elianto","#3366ff99"," "," ","1","0","[1251]","1","0","1","","","","","","","",""
"pit-trial","34","337821","0.0-2.0-8.2-4.2","battery-v0.2","","""event"",""trial"",""time""
""fullscreenenter"",""1"",""2142""
","
","
","""event"",""trial"",""time""
""fullscreenenter"",""1"",""2142""
","
","","","323","","","25","10175","3219","&#9776;","elianto","#3366ff99"," "," ","1","+10","[1173]","1","0","1","","","","","","","",""
"call-function","35","337825","0.0-2.0-9.0","battery-v0.2","","""event"",""trial"",""time""
""fullscreenenter"",""1"",""2142""
","
","
","""event"",""trial"",""time""
""fullscreenenter"",""1"",""2142""
","
","","","","","","","","","","","","","","","","","","","","","","","","","","",""
"pit-instructions","36","375419","0.0-2.0-10.0","battery-v0.2","","""event"",""trial"",""time""
""fullscreenenter"",""1"",""2142""
","
","
","""event"",""trial"",""time""
""fullscreenenter"",""1"",""2142""
","
","","[{""page_index"":0,""viewing_time"":5486},{""page_index"":1,""viewing_time"":6127},{""page_index"":2,""viewing_time"":9879},{""page_index"":3,""viewing_time"":8771},{""page_index"":4,""viewing_time"":7330}]","37594","","","","","","","","","","","","","","","","","","","","","","","",""
"pit-trial","37","380276","0.0-2.0-11.0-0.0","battery-v0.2","","""event"",""trial"",""time""
""fullscreenenter"",""1"",""2142""
","
","
","""event"",""trial"",""time""
""fullscreenenter"",""1"",""2142""
","
","","","-1","","","25","10175","3219","&#9761;","elianto","#3366ff99","-1","-1","1","+10","[]","0","0","2","","","","","","","",""
"pit-trial","38","385133","0.0-2.0-11.0-1.0","battery-v0.2","","""event"",""trial"",""time""
""fullscreenenter"",""1"",""2142""
","
","
","""event"",""trial"",""time""
""fullscreenenter"",""1"",""2142""
","
","","","-1","","","25","10175","3219","&#9761;","elianto","#3366ff99","-1","-1","1","+10","[]","0","0","2","","","","","","","",""
"pit-trial","39","389989","0.0-2.0-11.0-2.0","battery-v0.2","","""event"",""trial"",""time""
""fullscreenenter"",""1"",""2142""
","
","
","""event"",""trial"",""time""
""fullscreenenter"",""1"",""2142""
","
","","","-1","","","25","10175","3219","&#9761;","elianto","#3366ff99","-1","-1","1","+10","[]","0","0","2","","","","","","","",""
"pit-trial","40","394847","0.0-2.0-11.0-3.0","battery-v0.2","","""event"",""trial"",""time""
""fullscreenenter"",""1"",""2142""
","
","
","""event"",""trial"",""time""
""fullscreenenter"",""1"",""2142""
","
","","","-1","","","25","10175","3219","&#9761;","elianto","#3366ff99","-1","-1","1","0","[]","0","0","2","","","","","","","",""
"pit-trial","41","399704","0.0-2.0-11.0-4.0","battery-v0.2","","""event"",""trial"",""time""
""fullscreenenter"",""1"",""2142""
","
","
","""event"",""trial"",""time""
""fullscreenenter"",""1"",""2142""
","
","","","-1","","","25","10175","3219","&#9761;","elianto","#3366ff99","-1","-1","1","+10","[]","0","0","2","","","","","","","",""
"pit-trial","42","404561","0.0-2.0-11.1-0.1","battery-v0.2","","""event"",""trial"",""time""
""fullscreenenter"",""1"",""2142""
","
","
","""event"",""trial"",""time""
""fullscreenenter"",""1"",""2142""
","
","","","-1","","","25","10175","3219","&#9761;","elianto","#3366ff99","-1","-1","1","+10","[]","0","0","2","","","","","","","",""
"pit-trial","43","409417","0.0-2.0-11.1-1.1","battery-v0.2","","""event"",""trial"",""time""
""fullscreenenter"",""1"",""2142""
","
","
","""event"",""trial"",""time""
""fullscreenenter"",""1"",""2142""
","
","","","-1","","","25","10175","3219","&#9761;","elianto","#3366ff99","-1","-1","1","+10","[]","0","0","2","","","","","","","",""
"pit-trial","44","414273","0.0-2.0-11.1-2.1","battery-v0.2","","""event"",""trial"",""time""
""fullscreenenter"",""1"",""2142""
","
","
","""event"",""trial"",""time""
""fullscreenenter"",""1"",""2142""
","
","","","-1","","","25","10175","3219","&#9761;","elianto","#3366ff99","-1","-1","1","+10","[]","0","0","2","","","","","","","",""
"pit-trial","45","419129","0.0-2.0-11.1-3.1","battery-v0.2","","""event"",""trial"",""time""
""fullscreenenter"",""1"",""2142""
","
","
","""event"",""trial"",""time""
""fullscreenenter"",""1"",""2142""
","
","","","-1","","","25","10175","3219","&#9761;","elianto","#3366ff99","-1","-1","1","0","[]","0","0","2","","","","","","","",""
"pit-trial","46","423986","0.0-2.0-11.1-4.1","battery-v0.2","","""event"",""trial"",""time""
""fullscreenenter"",""1"",""2142""
","
","
","""event"",""trial"",""time""
""fullscreenenter"",""1"",""2142""
","
","","","-1","","","25","10175","3219","&#9761;","elianto","#3366ff99","-1","-1","1","+10","[]","0","0","2","","","","","","","",""
"pit-trial","47","428841","0.0-2.0-11.2-0.2","battery-v0.2","","""event"",""trial"",""time""
""fullscreenenter"",""1"",""2142""
","
","
","""event"",""trial"",""time""
""fullscreenenter"",""1"",""2142""
","
","","","-1","","","25","10175","3219","&#9761;","elianto","#3366ff99","-1","-1","1","+10","[]","0","0","2","","","","","","","",""
"pit-trial","48","433697","0.0-2.0-11.2-1.2","battery-v0.2","","""event"",""trial"",""time""
""fullscreenenter"",""1"",""2142""
","
","
","""event"",""trial"",""time""
""fullscreenenter"",""1"",""2142""
","
","","","-1","","","25","10175","3219","&#9761;","elianto","#3366ff99","-1","-1","1","+10","[]","0","0","2","","","","","","","",""
"pit-trial","49","438552","0.0-2.0-11.2-2.2","battery-v0.2","","""event"",""trial"",""time""
""fullscreenenter"",""1"",""2142""
","
","
","""event"",""trial"",""time""
""fullscreenenter"",""1"",""2142""
","
","","","-1","","","25","10175","3219","&#9761;","elianto","#3366ff99","-1","-1","1","+10","[]","0","0","2","","","","","","","",""
"pit-trial","50","443409","0.0-2.0-11.2-3.2","battery-v0.2","","""event"",""trial"",""time""
""fullscreenenter"",""1"",""2142""
","
","
","""event"",""trial"",""time""
""fullscreenenter"",""1"",""2142""
","
","","","-1","","","25","10175","3219","&#9761;","elianto","#3366ff99","-1","-1","1","0","[]","0","0","2","","","","","","","",""
"pit-trial","51","448265","0.0-2.0-11.2-4.2","battery-v0.2","","""event"",""trial"",""time""
""fullscreenenter"",""1"",""2142""
","
","
","""event"",""trial"",""time""
""fullscreenenter"",""1"",""2142""
","
","","","-1","","","25","10175","3219","&#9761;","elianto","#3366ff99","-1","-1","1","+10","[]","0","0","2","","","","","","","",""
"pit-trial","52","453122","0.0-2.0-11.3-0.3","battery-v0.2","","""event"",""trial"",""time""
""fullscreenenter"",""1"",""2142""
","
","
","""event"",""trial"",""time""
""fullscreenenter"",""1"",""2142""
","
","","","-1","","","25","10175","3219","&#9761;","elianto","#3366ff99","-1","-1","1","+10","[]","0","0","2","","","","","","","",""
"pit-trial","53","457978","0.0-2.0-11.3-1.3","battery-v0.2","","""event"",""trial"",""time""
""fullscreenenter"",""1"",""2142""
","
","
","""event"",""trial"",""time""
""fullscreenenter"",""1"",""2142""
","
","","","-1","","","25","10175","3219","&#9761;","elianto","#3366ff99","-1","-1","1","+10","[]","0","0","2","","","","","","","",""
"pit-trial","54","462834","0.0-2.0-11.3-2.3","battery-v0.2","","""event"",""trial"",""time""
""fullscreenenter"",""1"",""2142""
","
","
","""event"",""trial"",""time""
""fullscreenenter"",""1"",""2142""
","
","","","-1","","","25","10175","3219","&#9761;","elianto","#3366ff99","-1","-1","1","+10","[]","0","0","2","","","","","","","",""
"pit-trial","55","467690","0.0-2.0-11.3-3.3","battery-v0.2","","""event"",""trial"",""time""
""fullscreenenter"",""1"",""2142""
","
","
","""event"",""trial"",""time""
""fullscreenenter"",""1"",""2142""
","
","","","-1","","","25","10175","3219","&#9761;","elianto","#3366ff99","-1","-1","1","0","[]","0","0","2","","","","","","","",""
"pit-trial","56","472547","0.0-2.0-11.3-4.3","battery-v0.2","","""event"",""trial"",""time""
""fullscreenenter"",""1"",""2142""
","
","
","""event"",""trial"",""time""
""fullscreenenter"",""1"",""2142""
","
","","","-1","","","25","10175","3219","&#9761;","elianto","#3366ff99","-1","-1","1","+10","[]","0","0","2","","","","","","","",""
"call-function","57","472550","0.0-2.0-12.0","battery-v0.2","","""event"",""trial"",""time""
""fullscreenenter"",""1"",""2142""
","
","
","""event"",""trial"",""time""
""fullscreenenter"",""1"",""2142""
","
","","","","","","","","","","","","","","","","","","","","","","","","","","",""
"pit-instructions","58","503006","0.0-2.0-13.0","battery-v0.2","","""event"",""trial"",""time""
""fullscreenenter"",""1"",""2142""
","
","
","""event"",""trial"",""time""
""fullscreenenter"",""1"",""2142""
","
","","[{""page_index"":0,""viewing_time"":4973.000000000058},{""page_index"":1,""viewing_time"":6839},{""page_index"":2,""viewing_time"":3084.999999999942},{""page_index"":3,""viewing_time"":10919},{""page_index"":4,""viewing_time"":4639}]","30455","","","","","","","","","","","","","","","","","","","","","","","",""
"pit-trial","59","506274","0.0-2.0-14.0-0.0","battery-v0.2","","""event"",""trial"",""time""
""fullscreenenter"",""1"",""2142""
","
","
","""event"",""trial"",""time""
""fullscreenenter"",""1"",""2142""
","
","","","408.9999999999418","","","25","10175","3219","&#9826;","elianto","#f73b6a7A","-1"," ","0","-10","[1259.9999999999418]","1","0","3","","","","","","","",""
"pit-trial","60","511129","0.0-2.0-14.0-1.0","battery-v0.2","","""event"",""trial"",""time""
""fullscreenenter"",""1"",""2142""
","
","
","""event"",""trial"",""time""
""fullscreenenter"",""1"",""2142""
","
","","","-1","","","25","10175","3219","&#9826;","elianto","#f73b6a7A","-1","-1","1","0","[]","0","0","3","","","","","","","",""
"pit-trial","61","515986","0.0-2.0-14.0-2.0","battery-v0.2","","""event"",""trial"",""time""
""fullscreenenter"",""1"",""2142""
","
","
","""event"",""trial"",""time""
""fullscreenenter"",""1"",""2142""
","
","","","-1","","","25","10175","3219","&#9826;","elianto","#f73b6a7A","-1","-1","1","0","[]","0","0","3","","","","","","","",""
"pit-trial","62","520841","0.0-2.0-14.0-3.0","battery-v0.2","","""event"",""trial"",""time""
""fullscreenenter"",""1"",""2142""
","
","
","""event"",""trial"",""time""
""fullscreenenter"",""1"",""2142""
","
","","","-1","","","25","10175","3219","&#9826;","elianto","#f73b6a7A","-1","-1","1","-10","[]","0","0","3","","","","","","","",""
"pit-trial","63","524191","0.0-2.0-14.0-4.0","battery-v0.2","","""event"",""trial"",""time""
""fullscreenenter"",""1"",""2142""
","
","
","""event"",""trial"",""time""
""fullscreenenter"",""1"",""2142""
","
","","","491.9999999999418","","","25","10175","3219","&#9826;","elianto","#f73b6a7A","-1"," ","0","-10","[1343.9999999999418]","1","0","3","","","","","","","",""
"pit-trial","64","529048","0.0-2.0-14.1-0.1","battery-v0.2","","""event"",""trial"",""time""
""fullscreenenter"",""1"",""2142""
","
","
","""event"",""trial"",""time""
""fullscreenenter"",""1"",""2142""
","
","","","-1","","","25","10175","3219","&#9826;","elianto","#f73b6a7A","-1","-1","1","0","[]","0","0","3","","","","","","","",""
"pit-trial","65","533905","0.0-2.0-14.1-1.1","battery-v0.2","","""event"",""trial"",""time""
""fullscreenenter"",""1"",""2142""
","
","
","""event"",""trial"",""time""
""fullscreenenter"",""1"",""2142""
","
","","","-1","","","25","10175","3219","&#9826;","elianto","#f73b6a7A","-1","-1","1","0","[]","0","0","3","","","","","","","",""
"pit-trial","66","538760","0.0-2.0-14.1-2.1","battery-v0.2","","""event"",""trial"",""time""
""fullscreenenter"",""1"",""2142""
","
","
","""event"",""trial"",""time""
""fullscreenenter"",""1"",""2142""
","
","","","-1","","","25","10175","3219","&#9826;","elianto","#f73b6a7A","-1","-1","1","0","[]","0","0","3","","","","","","","",""
"pit-trial","67","543617","0.0-2.0-14.1-3.1","battery-v0.2","","""event"",""trial"",""time""
""fullscreenenter"",""1"",""2142""
","
","
","""event"",""trial"",""time""
""fullscreenenter"",""1"",""2142""
","
","","","-1","","","25","10175","3219","&#9826;","elianto","#f73b6a7A","-1","-1","1","-10","[]","0","0","3","","","","","","","",""
"pit-trial","68","548472","0.0-2.0-14.1-4.1","battery-v0.2","","""event"",""trial"",""time""
""fullscreenenter"",""1"",""2142""
","
","
","""event"",""trial"",""time""
""fullscreenenter"",""1"",""2142""
","
","","","-1","","","25","10175","3219","&#9826;","elianto","#f73b6a7A","-1","-1","1","0","[]","0","0","3","","","","","","","",""
"pit-trial","69","553326","0.0-2.0-14.2-0.2","battery-v0.2","","""event"",""trial"",""time""
""fullscreenenter"",""1"",""2142""
","
","
","""event"",""trial"",""time""
""fullscreenenter"",""1"",""2142""
","
","","","-1","","","25","10175","3219","&#9826;","elianto","#f73b6a7A","-1","-1","1","0","[]","0","0","3","","","","","","","",""
"pit-trial","70","558180","0.0-2.0-14.2-1.2","battery-v0.2","","""event"",""trial"",""time""
""fullscreenenter"",""1"",""2142""
","
","
","""event"",""trial"",""time""
""fullscreenenter"",""1"",""2142""
","
","","","-1","","","25","10175","3219","&#9826;","elianto","#f73b6a7A","-1","-1","1","0","[]","0","0","3","","","","","","","",""
"pit-trial","71","563036","0.0-2.0-14.2-2.2","battery-v0.2","","""event"",""trial"",""time""
""fullscreenenter"",""1"",""2142""
","
","
","""event"",""trial"",""time""
""fullscreenenter"",""1"",""2142""
","
","","","-1","","","25","10175","3219","&#9826;","elianto","#f73b6a7A","-1","-1","1","0","[]","0","0","3","","","","","","","",""
"pit-trial","72","567893","0.0-2.0-14.2-3.2","battery-v0.2","","""event"",""trial"",""time""
""fullscreenenter"",""1"",""2142""
","
","
","""event"",""trial"",""time""
""fullscreenenter"",""1"",""2142""
","
","","","-1","","","25","10175","3219","&#9826;","elianto","#f73b6a7A","-1","-1","1","-10","[]","0","0","3","","","","","","","",""
"pit-trial","73","572750","0.0-2.0-14.2-4.2","battery-v0.2","","""event"",""trial"",""time""
""fullscreenenter"",""1"",""2142""
","
","
","""event"",""trial"",""time""
""fullscreenenter"",""1"",""2142""
","
","","","-1","","","25","10175","3219","&#9826;","elianto","#f73b6a7A","-1","-1","1","0","[]","0","0","3","","","","","","","",""
"pit-trial","74","577607","0.0-2.0-14.3-0.3","battery-v0.2","","""event"",""trial"",""time""
""fullscreenenter"",""1"",""2142""
","
","
","""event"",""trial"",""time""
""fullscreenenter"",""1"",""2142""
","
","","","-1","","","25","10175","3219","&#9826;","elianto","#f73b6a7A","-1","-1","1","0","[]","0","0","3","","","","","","","",""
"pit-trial","75","582462","0.0-2.0-14.3-1.3","battery-v0.2","","""event"",""trial"",""time""
""fullscreenenter"",""1"",""2142""
","
","
","""event"",""trial"",""time""
""fullscreenenter"",""1"",""2142""
","
","","","-1","","","25","10175","3219","&#9826;","elianto","#f73b6a7A","-1","-1","1","0","[]","0","0","3","","","","","","","",""
"pit-trial","76","587318","0.0-2.0-14.3-2.3","battery-v0.2","","""event"",""trial"",""time""
""fullscreenenter"",""1"",""2142""
","
","
","""event"",""trial"",""time""
""fullscreenenter"",""1"",""2142""
","
","","","-1","","","25","10175","3219","&#9826;","elianto","#f73b6a7A","-1","-1","1","0","[]","0","0","3","","","","","","","",""
"pit-trial","77","592175","0.0-2.0-14.3-3.3","battery-v0.2","","""event"",""trial"",""time""
""fullscreenenter"",""1"",""2142""
","
","
","""event"",""trial"",""time""
""fullscreenenter"",""1"",""2142""
","
","","","-1","","","25","10175","3219","&#9826;","elianto","#f73b6a7A","-1","-1","1","-10","[]","0","0","3","","","","","","","",""
"pit-trial","78","597030","0.0-2.0-14.3-4.3","battery-v0.2","","""event"",""trial"",""time""
""fullscreenenter"",""1"",""2142""
","
","
","""event"",""trial"",""time""
""fullscreenenter"",""1"",""2142""
","
","","","-1","","","25","10175","3219","&#9826;","elianto","#f73b6a7A","-1","-1","1","0","[]","0","0","3","","","","","","","",""
"call-function","79","597033","0.0-2.0-15.0","battery-v0.2","","""event"",""trial"",""time""
""fullscreenenter"",""1"",""2142""
","
","
","""event"",""trial"",""time""
""fullscreenenter"",""1"",""2142""
","
","","","","","","","","","","","","","","","","","","","","","","","","","","",""
"pit-instructions","80","621140","0.0-2.0-16.0","battery-v0.2","","""event"",""trial"",""time""
""fullscreenenter"",""1"",""2142""
","
","
","""event"",""trial"",""time""
""fullscreenenter"",""1"",""2142""
","
","","[{""page_index"":0,""viewing_time"":7108.000000000116},{""page_index"":1,""viewing_time"":8056.999999999884},{""page_index"":2,""viewing_time"":4173},{""page_index"":3,""viewing_time"":4767}]","24106","","","","","","","","","","","","","","","","","","","","","","","",""
"pit-trial","81","624343","0.0-2.0-17.0-0.0","battery-v0.2","","""event"",""trial"",""time""
""fullscreenenter"",""1"",""2142""
","
","
","""event"",""trial"",""time""
""fullscreenenter"",""1"",""2142""
","
","","","347","","","25","10175","3219","&#9789;","elianto","#f73b6a7A"," "," ","1","0","[1198]","1","0","4","","","","","","","",""
"pit-trial","82","627532","0.0-2.0-17.0-1.0","battery-v0.2","","""event"",""trial"",""time""
""fullscreenenter"",""1"",""2142""
","
","
","""event"",""trial"",""time""
""fullscreenenter"",""1"",""2142""
","
","","","333","","","25","10175","3219","&#9789;","elianto","#f73b6a7A"," "," ","1","0","[1184]","1","0","4","","","","","","","",""
"pit-trial","83","630720","0.0-2.0-17.0-2.0","battery-v0.2","","""event"",""trial"",""time""
""fullscreenenter"",""1"",""2142""
","
","
","""event"",""trial"",""time""
""fullscreenenter"",""1"",""2142""
","
","","","332","","","25","10175","3219","&#9789;","elianto","#f73b6a7A"," "," ","1","0","[1183]","1","0","4","","","","","","","",""
"pit-trial","84","633976","0.0-2.0-17.0-3.0","battery-v0.2","","""event"",""trial"",""time""
""fullscreenenter"",""1"",""2142""
","
","
","""event"",""trial"",""time""
""fullscreenenter"",""1"",""2142""
","
","","","400","","","25","10175","3219","&#9789;","elianto","#f73b6a7A"," "," ","1","-10","[1250]","1","0","4","","","","","","","",""
"pit-trial","85","636966","0.0-2.0-17.0-4.0","battery-v0.2","","""event"",""trial"",""time""
""fullscreenenter"",""1"",""2142""
","
","
","""event"",""trial"",""time""
""fullscreenenter"",""1"",""2142""
","
","","","134.00000000011642","","","25","10175","3219","&#9789;","elianto","#f73b6a7A"," "," ","1","0","[985.0000000001164]","1","0","4","","","","","","","",""
"pit-trial","86","640158","0.0-2.0-17.1-0.1","battery-v0.2","","""event"",""trial"",""time""
""fullscreenenter"",""1"",""2142""
","
","
","""event"",""trial"",""time""
""fullscreenenter"",""1"",""2142""
","
","","","335","","","25","10175","3219","&#9789;","elianto","#f73b6a7A"," "," ","1","0","[1186]","1","0","4","","","","","","","",""
"pit-trial","87","643388","0.0-2.0-17.1-1.1","battery-v0.2","","""event"",""trial"",""time""
""fullscreenenter"",""1"",""2142""
","
","
","""event"",""trial"",""time""
""fullscreenenter"",""1"",""2142""
","
","","","373.9999999998836","","","25","10175","3219","&#9789;","elianto","#f73b6a7A"," "," ","1","0","[1224]","1","0","4","","","","","","","",""
"pit-trial","88","646577","0.0-2.0-17.1-2.1","battery-v0.2","","""event"",""trial"",""time""
""fullscreenenter"",""1"",""2142""
","
","
","""event"",""trial"",""time""
""fullscreenenter"",""1"",""2142""
","
","","","333","","","25","10175","3219","&#9789;","elianto","#f73b6a7A"," "," ","1","0","[1184]","1","0","4","","","","","","","",""
"pit-trial","89","649622","0.0-2.0-17.1-3.1","battery-v0.2","","""event"",""trial"",""time""
""fullscreenenter"",""1"",""2142""
","
","
","""event"",""trial"",""time""
""fullscreenenter"",""1"",""2142""
","
","","","190.99999999988358","","","25","10175","3219","&#9789;","elianto","#f73b6a7A"," "," ","1","-10","[1040]","1","0","4","","","","","","","",""
"pit-trial","90","652568","0.0-2.0-17.1-4.1","battery-v0.2","","""event"",""trial"",""time""
""fullscreenenter"",""1"",""2142""
","
","
","""event"",""trial"",""time""
""fullscreenenter"",""1"",""2142""
","
","","","89","","","25","10175","3219","&#9789;","elianto","#f73b6a7A"," "," ","1","0","[940]","1","0","4","","","","","","","",""
"pit-trial","91","655773","0.0-2.0-17.2-0.2","battery-v0.2","","""event"",""trial"",""time""
""fullscreenenter"",""1"",""2142""
","
","
","""event"",""trial"",""time""
""fullscreenenter"",""1"",""2142""
","
","","","349","","","25","10175","3219","&#9789;","elianto","#f73b6a7A"," "," ","1","0","[1200]","1","0","4","","","","","","","",""
"pit-trial","92","658811","0.0-2.0-17.2-1.2","battery-v0.2","","""event"",""trial"",""time""
""fullscreenenter"",""1"",""2142""
","
","
","""event"",""trial"",""time""
""fullscreenenter"",""1"",""2142""
","
","","","182.00000000011642","","","25","10175","3219","&#9789;","elianto","#f73b6a7A"," "," ","1","0","[1033.0000000001164]","1","0","4","","","","","","","",""
"pit-trial","93","661918","0.0-2.0-17.2-2.2","battery-v0.2","","""event"",""trial"",""time""
""fullscreenenter"",""1"",""2142""
","
","
","""event"",""trial"",""time""
""fullscreenenter"",""1"",""2142""
","
","","","251.00000000011642","","","25","10175","3219","&#9789;","elianto","#f73b6a7A"," "," ","1","0","[1101]","1","0","4","","","","","","","",""
"pit-trial","94","664977","0.0-2.0-17.2-3.2","battery-v0.2","","""event"",""trial"",""time""
""fullscreenenter"",""1"",""2142""
","
","
","""event"",""trial"",""time""
""fullscreenenter"",""1"",""2142""
","
","","","203","","","25","10175","3219","&#9789;","elianto","#f73b6a7A"," "," ","1","-10","[1054]","1","0","4","","","","","","","",""
"pit-trial","95","667934","0.0-2.0-17.2-4.2","battery-v0.2","","""event"",""trial"",""time""
""fullscreenenter"",""1"",""2142""
","
","
","""event"",""trial"",""time""
""fullscreenenter"",""1"",""2142""
","
","","","99","","","25","10175","3219","&#9789;","elianto","#f73b6a7A"," "," ","1","0","[948.9999999998836]","1","0","4","","","","","","","",""
"pit-trial","96","670892","0.0-2.0-17.3-0.3","battery-v0.2","","""event"",""trial"",""time""
""fullscreenenter"",""1"",""2142""
","
","
","""event"",""trial"",""time""
""fullscreenenter"",""1"",""2142""
","
","","","102.00000000011642","","","25","10175","3219","&#9789;","elianto","#f73b6a7A"," "," ","1","0","[953.0000000001164]","1","0","4","","","","","","","",""
"pit-trial","97","673889","0.0-2.0-17.3-1.3","battery-v0.2","","""event"",""trial"",""time""
""fullscreenenter"",""1"",""2142""
","
","
","""event"",""trial"",""time""
""fullscreenenter"",""1"",""2142""
","
","","","142","","","25","10175","3219","&#9789;","elianto","#f73b6a7A"," "," ","1","0","[992]","1","0","4","","","","","","","",""
"pit-trial","98","676919","0.0-2.0-17.3-2.3","battery-v0.2","","""event"",""trial"",""time""
""fullscreenenter"",""1"",""2142""
","
","
","""event"",""trial"",""time""
""fullscreenenter"",""1"",""2142""
","
","","","175","","","25","10175","3219","&#9789;","elianto","#f73b6a7A"," "," ","1","0","[1025]","1","0","4","","","","","","","",""
"pit-trial","99","680058","0.0-2.0-17.3-3.3","battery-v0.2","","""event"",""trial"",""time""
""fullscreenenter"",""1"",""2142""
","
","
","""event"",""trial"",""time""
""fullscreenenter"",""1"",""2142""
","
","","","282","","","25","10175","3219","&#9789;","elianto","#f73b6a7A"," "," ","1","-10","[1133]","1","0","4","","","","","","","",""
"pit-trial","100","683115","0.0-2.0-17.3-4.3","battery-v0.2","","""event"",""trial"",""time""
""fullscreenenter"",""1"",""2142""
","
","
","""event"",""trial"",""time""
""fullscreenenter"",""1"",""2142""
","
","","","199.00000000011642","","","25","10175","3219","&#9789;","elianto","#f73b6a7A"," "," ","1","0","[1051.0000000001164]","1","0","4","","","","","","","",""
"call-function","101","683118","0.0-2.0-18.0","battery-v0.2","","""event"",""trial"",""time""
""fullscreenenter"",""1"",""2142""
","
","
","""event"",""trial"",""time""
""fullscreenenter"",""1"",""2142""
","
","","","","","","","","","","","","","","","","","","","","","","","","","","",""
"pit-instructions","102","751585","0.0-2.0-19.0","battery-v0.2","","""event"",""trial"",""time""
""fullscreenenter"",""1"",""2142""
","
","
","""event"",""trial"",""time""
""fullscreenenter"",""1"",""2142""
","
","","[{""page_index"":0,""viewing_time"":6456},{""page_index"":1,""viewing_time"":5515},{""page_index"":2,""viewing_time"":13550},{""page_index"":3,""viewing_time"":7648},{""page_index"":4,""viewing_time"":8001},{""page_index"":5,""viewing_time"":8707},{""page_index"":6,""viewing_time"":8347},{""page_index"":7,""viewing_time"":6336},{""page_index"":8,""viewing_time"":3907}]","68467","","","","","","","","","","","","","","","","","","","","","","","",""
"pit-comprehension","103","755630","0.0-2.0-20.0-0.0","battery-v0.2","","""event"",""trial"",""time""
""fullscreenenter"",""1"",""2142""
","
","
","""event"",""trial"",""time""
""fullscreenenter"",""1"",""2142""
","
","","","4039","[""SPACE""]","0","25","10175","3219","","","","","","","","","","","","","","","","","","",""
"pit-instructions","104","760107","0.0-2.0-20.0-1.0","battery-v0.2","","""event"",""trial"",""time""
""fullscreenenter"",""1"",""2142""
","
","
","""event"",""trial"",""time""
""fullscreenenter"",""1"",""2142""
","
","","[{""page_index"":0,""viewing_time"":4442}]","4442.999999999884","","","","","","","","","","","","","","","","","","","","","","","",""
"pit-comprehension","105","764890","0.0-2.0-21.0-0.0","battery-v0.2","","""event"",""trial"",""time""
""fullscreenenter"",""1"",""2142""
","
","
","""event"",""trial"",""time""
""fullscreenenter"",""1"",""2142""
","
","","","4777.999999999884","[""10""]","0","25","10175","3219","","","","","","","","","","","","","","","","","","",""
"pit-instructions","106","767787","0.0-2.0-21.0-1.0","battery-v0.2","","""event"",""trial"",""time""
""fullscreenenter"",""1"",""2142""
","
","
","""event"",""trial"",""time""
""fullscreenenter"",""1"",""2142""
","
","","[{""page_index"":0,""viewing_time"":2865}]","2865","","","","","","","","","","","","","","","","","","","","","","","",""
"pit-comprehension","107","774216","0.0-2.0-22.0-0.0","battery-v0.2","","""event"",""trial"",""time""
""fullscreenenter"",""1"",""2142""
","
","
","""event"",""trial"",""time""
""fullscreenenter"",""1"",""2142""
","
","","","6424","[""0""]","0","25","10175","3219","","","","","","","","","","","","","","","","","","",""
"pit-instructions","108","777434","0.0-2.0-22.0-1.0","battery-v0.2","","""event"",""trial"",""time""
""fullscreenenter"",""1"",""2142""
","
","
","""event"",""trial"",""time""
""fullscreenenter"",""1"",""2142""
","
","","[{""page_index"":0,""viewing_time"":3184.0000000001164}]","3184.0000000001164","","","","","","","","","","","","","","","","","","","","","","","",""
"pit-comprehension","109","785654","0.0-2.0-23.0-0.0","battery-v0.2","","""event"",""trial"",""time""
""fullscreenenter"",""1"",""2142""
","
","
","""event"",""trial"",""time""
""fullscreenenter"",""1"",""2142""
","
","","","8213.999999999884","[""True""]","0","25","10175","3219","","","","","","","","","","","","","","","","","","",""
"pit-instructions","110","787122","0.0-2.0-23.0-1.0","battery-v0.2","","""event"",""trial"",""time""
""fullscreenenter"",""1"",""2142""
","
","
","""event"",""trial"",""time""
""fullscreenenter"",""1"",""2142""
","
","","[{""page_index"":0,""viewing_time"":1433}]","1434","","","","","","","","","","","","","","","","","","","","","","","",""
"pit-comprehension","111","794462","0.0-2.0-24.0-0.0","battery-v0.2","","""event"",""trial"",""time""
""fullscreenenter"",""1"",""2142""
","
","
","""event"",""trial"",""time""
""fullscreenenter"",""1"",""2142""
","
","","","7333","[""True""]","0","25","10175","3219","","","","","","","","","","","","","","","","","","",""
"pit-instructions","112","795986","0.0-2.0-24.0-1.0","battery-v0.2","","""event"",""trial"",""time""
""fullscreenenter"",""1"",""2142""
","
","
","""event"",""trial"",""time""
""fullscreenenter"",""1"",""2142""
","
","","[{""page_index"":0,""viewing_time"":1489}]","1489","","","","","","","","","","","","","","","","","","","","","","","",""
"pit-comprehension","113","802354","0.0-2.0-25.0-0.0","battery-v0.2","","""event"",""trial"",""time""
""fullscreenenter"",""1"",""2142""
","
","
","""event"",""trial"",""time""
""fullscreenenter"",""1"",""2142""
","
","","","6363","[""True""]","0","25","10175","3219","","","","","","","","","","","","","","","","","","",""
"pit-instructions","114","803493","0.0-2.0-25.0-1.0","battery-v0.2","","""event"",""trial"",""time""
""fullscreenenter"",""1"",""2142""
","
","
","""event"",""trial"",""time""
""fullscreenenter"",""1"",""2142""
","
","","[{""page_index"":0,""viewing_time"":1104}]","1105","","","","","","","","","","","","","","","","","","","","","","","",""
"pit-comprehension","115","808017","0.0-2.0-26.0-0.0","battery-v0.2","","""event"",""trial"",""time""
""fullscreenenter"",""1"",""2142""
","
","
","""event"",""trial"",""time""
""fullscreenenter"",""1"",""2142""
","
","","","4517.000000000116","[""False""]","0","25","10175","3219","","","","","","","","","","","","","","","","","","",""
"pit-instructions","116","809444","0.0-2.0-26.0-1.0","battery-v0.2","","""event"",""trial"",""time""
""fullscreenenter"",""1"",""2142""
","
","
","""event"",""trial"",""time""
""fullscreenenter"",""1"",""2142""
","
","","[{""page_index"":0,""viewing_time"":1390.9999999998836}]","1390.9999999998836","","","","","","","","","","","","","","","","","","","","","","","",""
"pit-instructions","117","825998","0.0-3.0","battery-v0.2","","""event"",""trial"",""time""
""fullscreenenter"",""1"",""2142""
","
","
","""event"",""trial"",""time""
""fullscreenenter"",""1"",""2142""
","
","","[{""page_index"":0,""viewing_time"":3509},{""page_index"":1,""viewing_time"":5660},{""page_index"":2,""viewing_time"":7378}]","16547","","","","","","","","","","","","","","","","","","","","","","","",""
"pit-trial","118","829357","0.0-4.0","battery-v0.2","","""event"",""trial"",""time""
""fullscreenenter"",""1"",""2142""
","
","
","""event"",""trial"",""time""
""fullscreenenter"",""1"",""2142""
","
","","","498","","","25","10175","3219","&#9730;","elianto","#3366ff99"," "," ","1","+10","[1349]","1","1","","","10175","1","1","1","win","go","0"
"pit-trial","119","832992","0.0-5.0","battery-v0.2","","""event"",""trial"",""time""
""fullscreenenter"",""1"",""2142""
","
","
","""event"",""trial"",""time""
""fullscreenenter"",""1"",""2142""
","
","","","775","","","25","10175","3219","&#9733;","elianto","#3366ff99","-1"," ","0","0","[1627.9999999998836]","1","1","","","10175","2","2","2","win","no-go","0"
"pit-trial","120","837849","0.0-6.0","battery-v0.2","","""event"",""trial"",""time""
""fullscreenenter"",""1"",""2142""
","
","
","""event"",""trial"",""time""
""fullscreenenter"",""1"",""2142""
","
","","","-1","","","25","10175","3219","&#9728;","elianto","#f73b6a7A","-1","-1","1","0","[]","0","1","","","10175","3","0","4","lose","no-go","0"
"pit-trial","121","842203","0.0-7.0","battery-v0.2","","""event"",""trial"",""time""
""fullscreenenter"",""1"",""2142""
","
","
","""event"",""trial"",""time""
""fullscreenenter"",""1"",""2142""
","
","","","1496","","","25","10175","3219","&#9752;","elianto","#f73b6a7A"," "," ","1","0","[2346]","1","1","","","10175","4","3","3","lose","go","0"
"pit-trial","122","846590","0.0-8.0","battery-v0.2","","""event"",""trial"",""time""
""fullscreenenter"",""1"",""2142""
","
","
","""event"",""trial"",""time""
""fullscreenenter"",""1"",""2142""
","
","","","1530.9999999998836","","","25","10175","3219","&#9728;","elianto","#f73b6a7A","-1"," ","0","-10","[2380.9999999998836]","1","1","","","10175","5","0","4","lose","no-go","0"
"pit-trial","123","850113","0.0-9.0","battery-v0.2","","""event"",""trial"",""time""
""fullscreenenter"",""1"",""2142""
","
","
","""event"",""trial"",""time""
""fullscreenenter"",""1"",""2142""
","
","","","665.0000000001164","","","25","10175","3219","&#9730;","elianto","#3366ff99"," "," ","1","+10","[1516.0000000001164]","1","1","","","10175","6","1","1","win","go","0"
"pit-trial","124","854970","0.0-10.0","battery-v0.2","","""event"",""trial"",""time""
""fullscreenenter"",""1"",""2142""
","
","
","""event"",""trial"",""time""
""fullscreenenter"",""1"",""2142""
","
","","","-1","","","25","10175","3219","&#9733;","elianto","#3366ff99","-1","-1","1","+10","[]","0","1","","","10175","7","2","2","win","no-go","0"
"pit-trial","125","858499","0.0-11.0","battery-v0.2","","""event"",""trial"",""time""
""fullscreenenter"",""1"",""2142""
","
","
","""event"",""trial"",""time""
""fullscreenenter"",""1"",""2142""
","
","","","672","","","25","10175","3219","&#9752;","elianto","#f73b6a7A"," "," ","1","0","[1522]","1","1","","","10175","8","3","3","lose","go","0"
"pit-trial","126","863356","0.0-12.0","battery-v0.2","","""event"",""trial"",""time""
""fullscreenenter"",""1"",""2142""
","
","
","""event"",""trial"",""time""
""fullscreenenter"",""1"",""2142""
","
","","","-1","","","25","10175","3219","&#9733;","elianto","#3366ff99","-1","-1","1","+10","[]","0","1","","","10175","9","2","2","win","no-go","0"
"pit-trial","127","868213","0.0-13.0","battery-v0.2","","""event"",""trial"",""time""
""fullscreenenter"",""1"",""2142""
","
","
","""event"",""trial"",""time""
""fullscreenenter"",""1"",""2142""
","
","","","-1","","","25","10175","3219","&#9728;","elianto","#f73b6a7A","-1","-1","1","0","[]","0","1","","","10175","10","0","4","lose","no-go","0"
"pit-trial","128","871939","0.0-14.0","battery-v0.2","","""event"",""trial"",""time""
""fullscreenenter"",""1"",""2142""
","
","
","""event"",""trial"",""time""
""fullscreenenter"",""1"",""2142""
","
","","","869","","","25","10175","3219","&#9752;","elianto","#f73b6a7A"," "," ","1","0","[1720]","1","1","","","10175","11","3","3","lose","go","0"
"pit-trial","129","875421","0.0-15.0","battery-v0.2","","""event"",""trial"",""time""
""fullscreenenter"",""1"",""2142""
","
","
","""event"",""trial"",""time""
""fullscreenenter"",""1"",""2142""
","
","","","625","","","25","10175","3219","&#9730;","elianto","#3366ff99"," "," ","1","+10","[1476]","1","1","","","10175","12","1","1","win","go","0"
"pit-trial","130","880279","0.0-16.0","battery-v0.2","","""event"",""trial"",""time""
""fullscreenenter"",""1"",""2142""
","
","
","""event"",""trial"",""time""
""fullscreenenter"",""1"",""2142""
","
","","","-1","","","25","10175","3219","&#9728;","elianto","#f73b6a7A","-1","-1","1","0","[]","0","1","","","10175","13","0","4","lose","no-go","0"
"pit-trial","131","883773","0.0-17.0","battery-v0.2","","""event"",""trial"",""time""
""fullscreenenter"",""1"",""2142""
","
","
","""event"",""trial"",""time""
""fullscreenenter"",""1"",""2142""
","
","","","635.9999999998836","","","25","10175","3219","&#9730;","elianto","#3366ff99"," "," ","1","+10","[1486.9999999998836]","1","1","","","10175","14","1","1","win","go","0"
"pit-trial","132","888630","0.0-18.0","battery-v0.2","","""event"",""trial"",""time""
""fullscreenenter"",""1"",""2142""
","
","
","""event"",""trial"",""time""
""fullscreenenter"",""1"",""2142""
","
","","","-1","","","25","10175","3219","&#9733;","elianto","#3366ff99","-1","-1","1","+10","[]","0","1","","","10175","15","2","2","win","no-go","0"
"pit-trial","133","892269","0.0-19.0","battery-v0.2","","""event"",""trial"",""time""
""fullscreenenter"",""1"",""2142""
","
","
","""event"",""trial"",""time""
""fullscreenenter"",""1"",""2142""
","
","","","782","","","25","10175","3219","&#9752;","elianto","#f73b6a7A"," "," ","1","0","[1631.9999999998836]","1","1","","","10175","16","3","3","lose","go","0"
"pit-trial","134","895923","0.0-20.0","battery-v0.2","","""event"",""trial"",""time""
""fullscreenenter"",""1"",""2142""
","
","
","""event"",""trial"",""time""
""fullscreenenter"",""1"",""2142""
","
","","","797","","","25","10175","3219","&#9730;","elianto","#3366ff99"," "," ","1","+10","[1648]","1","1","","","10175","17","1","1","win","go","0"
"pit-trial","135","900780","0.0-21.0","battery-v0.2","","""event"",""trial"",""time""
""fullscreenenter"",""1"",""2142""
","
","
","""event"",""trial"",""time""
""fullscreenenter"",""1"",""2142""
","
","","","-1","","","25","10175","3219","&#9733;","elianto","#3366ff99","-1","-1","1","+10","[]","0","1","","","10175","18","2","2","win","no-go","0"
"pit-trial","136","905636","0.0-22.0","battery-v0.2","","""event"",""trial"",""time""
""fullscreenenter"",""1"",""2142""
","
","
","""event"",""trial"",""time""
""fullscreenenter"",""1"",""2142""
","
","","","-1","","","25","10175","3219","&#9728;","elianto","#f73b6a7A","-1","-1","1","0","[]","0","1","","","10175","19","0","4","lose","no-go","0"
"pit-trial","137","909251","0.0-23.0","battery-v0.2","","""event"",""trial"",""time""
""fullscreenenter"",""1"",""2142""
","
","
","""event"",""trial"",""time""
""fullscreenenter"",""1"",""2142""
","
","","","759","","","25","10175","3219","&#9752;","elianto","#f73b6a7A"," "," ","1","0","[1609]","1","1","","","10175","20","3","3","lose","go","0"
"pit-instructions","138","921649","0.0-24.0","battery-v0.2","","""event"",""trial"",""time""
""fullscreenenter"",""1"",""2142""
","
","
","""event"",""trial"",""time""
""fullscreenenter"",""1"",""2142""
","
","","[{""page_index"":0,""viewing_time"":5552.000000000116},{""page_index"":1,""viewing_time"":6839.999999999884}]","12393.000000000116","","","","","","","","","","","","","","","","","","","","","","","",""
"pit-trial","139","925109","0.0-25.0","battery-v0.2","","""event"",""trial"",""time""
""fullscreenenter"",""1"",""2142""
","
","
","""event"",""trial"",""time""
""fullscreenenter"",""1"",""2142""
","
","","","601","","","25","10175","3219","a","elianto","#f73b6a7A"," "," ","1","0","[1452]","1","2","","","10175","21","2","3","lose","go","0"
"pit-trial","140","929967","0.0-26.0","battery-v0.2","","""event"",""trial"",""time""
""fullscreenenter"",""1"",""2142""
","
","
","""event"",""trial"",""time""
""fullscreenenter"",""1"",""2142""
","
","","","-1","","","25","10175","3219","l","elianto","#3366ff99","-1","-1","1","+10","[]","0","2","","","10175","22","1","2","win","no-go","0"
"pit-trial","141","933398","0.0-27.0","battery-v0.2","","""event"",""trial"",""time""
""fullscreenenter"",""1"",""2142""
","
","
","""event"",""trial"",""time""
""fullscreenenter"",""1"",""2142""
","
","","","574.9999999998836","","","25","10175","3219","u","elianto","#f73b6a7A"," "," ","1","0","[1426]","1","2","","","10175","23","0","3","lose","go","0"
"pit-trial","142","936967","0.0-28.0","battery-v0.2","","""event"",""trial"",""time""
""fullscreenenter"",""1"",""2142""
","
","
","""event"",""trial"",""time""
""fullscreenenter"",""1"",""2142""
","
","","","712","","","25","10175","3219","g","elianto","#f73b6a7A","-1"," ","0","-10","[1563]","1","2","","","10175","24","3","4","lose","no-go","0"
"pit-trial","143","941824","0.0-29.0","battery-v0.2","","""event"",""trial"",""time""
""fullscreenenter"",""1"",""2142""
","
","
","""event"",""trial"",""time""
""fullscreenenter"",""1"",""2142""
","
","","","-1","","","25","10175","3219","g","elianto","#f73b6a7A","-1","-1","1","0","[]","0","2","","","10175","25","3","4","lose","no-go","0"
"pit-trial","144","946681","0.0-30.0","battery-v0.2","","""event"",""trial"",""time""
""fullscreenenter"",""1"",""2142""
","
","
","""event"",""trial"",""time""
""fullscreenenter"",""1"",""2142""
","
","","","-1","","","25","10175","3219","l","elianto","#3366ff99","-1","-1","1","+10","[]","0","2","","","10175","26","1","2","win","no-go","0"
"pit-trial","145","951538","0.0-31.0","battery-v0.2","","""event"",""trial"",""time""
""fullscreenenter"",""1"",""2142""
","
","
","""event"",""trial"",""time""
""fullscreenenter"",""1"",""2142""
","
","","","-1","","","25","10175","3219","a","elianto","#f73b6a7A"," ","-1","0","-10","[]","0","2","","","10175","27","2","3","lose","go","0"
"pit-trial","146","955952","0.0-32.0","battery-v0.2","","""event"",""trial"",""time""
""fullscreenenter"",""1"",""2142""
","
","
","""event"",""trial"",""time""
""fullscreenenter"",""1"",""2142""
","
","","","1558.0000000001164","","","25","10175","3219","u","elianto","#f73b6a7A"," "," ","1","-10","[2409.0000000001164]","1","2","","","10175","28","0","3","lose","go","1"
"pit-trial","147","960810","0.0-33.0","battery-v0.2","","""event"",""trial"",""time""
""fullscreenenter"",""1"",""2142""
","
","
","""event"",""trial"",""time""
""fullscreenenter"",""1"",""2142""
","
","","","-1","","","25","10175","3219","l","elianto","#3366ff99","-1","-1","1","+10","[]","0","2","","","10175","29","1","2","win","no-go","0"
"pit-trial","148","965376","0.0-34.0","battery-v0.2","","""event"",""trial"",""time""
""fullscreenenter"",""1"",""2142""
","
","
","""event"",""trial"",""time""
""fullscreenenter"",""1"",""2142""
","
","","","1710.0000000001164","","","25","10175","3219","a","elianto","#f73b6a7A"," "," ","1","0","[2560.0000000001164]","1","2","","","10175","30","2","3","lose","go","0"
"pit-trial","149","970234","0.0-35.0","battery-v0.2","","""event"",""trial"",""time""
""fullscreenenter"",""1"",""2142""
","
","
","""event"",""trial"",""time""
""fullscreenenter"",""1"",""2142""
","
","","","-1","","","25","10175","3219","g","elianto","#f73b6a7A","-1","-1","1","-10","[]","0","2","","","10175","31","3","4","lose","no-go","1"
"pit-trial","150","973779","0.0-36.0","battery-v0.2","","""event"",""trial"",""time""
""fullscreenenter"",""1"",""2142""
","
","
","""event"",""trial"",""time""
""fullscreenenter"",""1"",""2142""
","
","","","688","","","25","10175","3219","u","elianto","#f73b6a7A"," "," ","1","-10","[1539]","1","2","","","10175","32","0","3","lose","go","1"
"pit-trial","151","978637","0.0-37.0","battery-v0.2","","""event"",""trial"",""time""
""fullscreenenter"",""1"",""2142""
","
","
","""event"",""trial"",""time""
""fullscreenenter"",""1"",""2142""
","
","","","-1","","","25","10175","3219","u","elianto","#f73b6a7A"," ","-1","0","0","[]","0","2","","","10175","33","0","3","lose","go","1"
"pit-trial","152","982156","0.0-38.0","battery-v0.2","","""event"",""trial"",""time""
""fullscreenenter"",""1"",""2142""
","
","
","""event"",""trial"",""time""
""fullscreenenter"",""1"",""2142""
","
","","","662.0000000001164","","","25","10175","3219","a","elianto","#f73b6a7A"," "," ","1","0","[1512.0000000001164]","1","2","","","10175","34","2","3","lose","go","0"
"pit-trial","153","987013","0.0-39.0","battery-v0.2","","""event"",""trial"",""time""
""fullscreenenter"",""1"",""2142""
","
","
","""event"",""trial"",""time""
""fullscreenenter"",""1"",""2142""
","
","","","-1","","","25","10175","3219","l","elianto","#3366ff99","-1","-1","1","0","[]","0","2","","","10175","35","1","2","win","no-go","1"
"pit-trial","154","991096","0.0-40.0","battery-v0.2","","""event"",""trial"",""time""
""fullscreenenter"",""1"",""2142""
","
","
","""event"",""trial"",""time""
""fullscreenenter"",""1"",""2142""
","
","","","1225","","","25","10175","3219","g","elianto","#f73b6a7A","-1"," ","0","-10","[2076]","1","2","","","10175","36","3","4","lose","no-go","0"
"pit-trial","155","995953","0.0-41.0","battery-v0.2","","""event"",""trial"",""time""
""fullscreenenter"",""1"",""2142""
","
","
","""event"",""trial"",""time""
""fullscreenenter"",""1"",""2142""
","
","","","-1","","","25","10175","3219","l","elianto","#3366ff99","-1","-1","1","+10","[]","0","2","","","10175","37","1","2","win","no-go","0"
"pit-trial","156","1000810","0.0-42.0","battery-v0.2","","""event"",""trial"",""time""
""fullscreenenter"",""1"",""2142""
","
","
","""event"",""trial"",""time""
""fullscreenenter"",""1"",""2142""
","
","","","-1","","","25","10175","3219","g","elianto","#f73b6a7A","-1","-1","1","0","[]","0","2","","","10175","38","3","4","lose","no-go","0"
"pit-trial","157","1005667","0.0-43.0","battery-v0.2","","""event"",""trial"",""time""
""fullscreenenter"",""1"",""2142""
","
","
","""event"",""trial"",""time""
""fullscreenenter"",""1"",""2142""
","
","","","-1","","","25","10175","3219","u","elianto","#f73b6a7A"," ","-1","0","-10","[]","0","2","","","10175","39","0","3","lose","go","0"
"pit-trial","158","1009120","0.0-44.0","battery-v0.2","","""event"",""trial"",""time""
""fullscreenenter"",""1"",""2142""
","
","
","""event"",""trial"",""time""
""fullscreenenter"",""1"",""2142""
","
","","","596","","","25","10175","3219","a","elianto","#f73b6a7A"," "," ","1","0","[1447]","1","2","","","10175","40","2","3","lose","go","0"
"pit-trial","159","1013976","0.0-45.0","battery-v0.2","","""event"",""trial"",""time""
""fullscreenenter"",""1"",""2142""
","
","
","""event"",""trial"",""time""
""fullscreenenter"",""1"",""2142""
","
","","","-1","","","25","10175","3219","g","elianto","#f73b6a7A","-1","-1","1","0","[]","0","2","","","10175","41","3","4","lose","no-go","0"
"pit-trial","160","1017454","0.0-46.0","battery-v0.2","","""event"",""trial"",""time""
""fullscreenenter"",""1"",""2142""
","
","
","""event"",""trial"",""time""
""fullscreenenter"",""1"",""2142""
","
","","","620.9999999998836","","","25","10175","3219","l","elianto","#3366ff99","-1"," ","0","0","[1471]","1","2","","","10175","42","1","2","win","no-go","0"
"pit-trial","161","1021585","0.0-47.0","battery-v0.2","","""event"",""trial"",""time""
""fullscreenenter"",""1"",""2142""
","
","
","""event"",""trial"",""time""
""fullscreenenter"",""1"",""2142""
","
","","","1275","","","25","10175","3219","a","elianto","#f73b6a7A"," "," ","1","0","[2126]","1","2","","","10175","43","2","3","lose","go","0"
"pit-trial","162","1026442","0.0-48.0","battery-v0.2","","""event"",""trial"",""time""
""fullscreenenter"",""1"",""2142""
","
","
","""event"",""trial"",""time""
""fullscreenenter"",""1"",""2142""
","
","","","-1","","","25","10175","3219","u","elianto","#f73b6a7A"," ","-1","0","-10","[]","0","2","","","10175","44","0","3","lose","go","0"
"pit-trial","163","1029928","0.0-49.0","battery-v0.2","","""event"",""trial"",""time""
""fullscreenenter"",""1"",""2142""
","
","
","""event"",""trial"",""time""
""fullscreenenter"",""1"",""2142""
","
","","","629","","","25","10175","3219","u","elianto","#f73b6a7A"," "," ","1","0","[1479.0000000001164]","1","2","","","10175","45","0","3","lose","go","0"
"pit-trial","164","1034786","0.0-50.0","battery-v0.2","","""event"",""trial"",""time""
""fullscreenenter"",""1"",""2142""
","
","
","""event"",""trial"",""time""
""fullscreenenter"",""1"",""2142""
","
","","","-1","","","25","10175","3219","g","elianto","#f73b6a7A","-1","-1","1","-10","[]","0","2","","","10175","46","3","4","lose","no-go","1"
"pit-trial","165","1038185","0.0-51.0","battery-v0.2","","""event"",""trial"",""time""
""fullscreenenter"",""1"",""2142""
","
","
","""event"",""trial"",""time""
""fullscreenenter"",""1"",""2142""
","
","","","540.9999999998836","","","25","10175","3219","l","elianto","#3366ff99","-1"," ","0","+10","[1392]","1","2","","","10175","47","1","2","win","no-go","1"
"pit-trial","166","1041832","0.0-52.0","battery-v0.2","","""event"",""trial"",""time""
""fullscreenenter"",""1"",""2142""
","
","
","""event"",""trial"",""time""
""fullscreenenter"",""1"",""2142""
","
","","","790","","","25","10175","3219","a","elianto","#f73b6a7A"," "," ","1","0","[1640.9999999998836]","1","2","","","10175","48","2","3","lose","go","0"
"pit-trial","167","1045894","0.0-53.0","battery-v0.2","","""event"",""trial"",""time""
""fullscreenenter"",""1"",""2142""
","
","
","""event"",""trial"",""time""
""fullscreenenter"",""1"",""2142""
","
","","","1205.0000000001164","","","25","10175","3219","u","elianto","#f73b6a7A"," "," ","1","0","[2055.0000000001164]","1","2","","","10175","49","0","3","lose","go","0"
"pit-trial","168","1050751","0.0-54.0","battery-v0.2","","""event"",""trial"",""time""
""fullscreenenter"",""1"",""2142""
","
","
","""event"",""trial"",""time""
""fullscreenenter"",""1"",""2142""
","
","","","-1","","","25","10175","3219","g","elianto","#f73b6a7A","-1","-1","1","0","[]","0","2","","","10175","50","3","4","lose","no-go","0"
"pit-trial","169","1054356","0.0-55.0","battery-v0.2","","""event"",""trial"",""time""
""fullscreenenter"",""1"",""2142""
","
","
","""event"",""trial"",""time""
""fullscreenenter"",""1"",""2142""
","
","","","748","","","25","10175","3219","a","elianto","#f73b6a7A"," "," ","1","-10","[1598.9999999997672]","1","2","","","10175","51","2","3","lose","go","1"
"pit-trial","170","1059213","0.0-56.0","battery-v0.2","","""event"",""trial"",""time""
""fullscreenenter"",""1"",""2142""
","
","
","""event"",""trial"",""time""
""fullscreenenter"",""1"",""2142""
","
","","","-1","","","25","10175","3219","l","elianto","#3366ff99","-1","-1","1","+10","[]","0","2","","","10175","52","1","2","win","no-go","0"
"pit-trial","171","1064072","0.0-57.0","battery-v0.2","","""event"",""trial"",""time""
""fullscreenenter"",""1"",""2142""
","
","
","""event"",""trial"",""time""
""fullscreenenter"",""1"",""2142""
","
","","","-1","","","25","10175","3219","g","elianto","#f73b6a7A","-1","-1","1","0","[]","0","2","","","10175","53","3","4","lose","no-go","0"
"pit-trial","172","1067768","0.0-58.0","battery-v0.2","","""event"",""trial"",""time""
""fullscreenenter"",""1"",""2142""
","
","
","""event"",""trial"",""time""
""fullscreenenter"",""1"",""2142""
","
","","","837.0000000002328","","","25","10175","3219","u","elianto","#f73b6a7A"," "," ","1","0","[1689.0000000002328]","1","2","","","10175","54","0","3","lose","go","0"
"pit-trial","173","1072624","0.0-59.0","battery-v0.2","","""event"",""trial"",""time""
""fullscreenenter"",""1"",""2142""
","
","
","""event"",""trial"",""time""
""fullscreenenter"",""1"",""2142""
","
","","","-1","","","25","10175","3219","a","elianto","#f73b6a7A"," ","-1","0","0","[]","0","2","","","10175","55","2","3","lose","go","1"
"pit-trial","174","1077481","0.0-60.0","battery-v0.2","","""event"",""trial"",""time""
""fullscreenenter"",""1"",""2142""
","
","
","""event"",""trial"",""time""
""fullscreenenter"",""1"",""2142""
","
","","","-1","","","25","10175","3219","l","elianto","#3366ff99","-1","-1","1","+10","[]","0","2","","","10175","56","1","2","win","no-go","0"
"pit-trial","175","1081582","0.0-61.0","battery-v0.2","","""event"",""trial"",""time""
""fullscreenenter"",""1"",""2142""
","
","
","""event"",""trial"",""time""
""fullscreenenter"",""1"",""2142""
","
","","","1244","","","25","10175","3219","a","elianto","#f73b6a7A"," "," ","1","0","[2095]","1","2","","","10175","57","2","3","lose","go","0"
"pit-trial","176","1085170","0.0-62.0","battery-v0.2","","""event"",""trial"",""time""
""fullscreenenter"",""1"",""2142""
","
","
","""event"",""trial"",""time""
""fullscreenenter"",""1"",""2142""
","
","","","732","","","25","10175","3219","p","elianto","#3366ff99"," "," ","1","0","[1582]","1","2","","","10175","58","4","1","win","go","1"
"pit-trial","177","1089203","0.0-63.0","battery-v0.2","","""event"",""trial"",""time""
""fullscreenenter"",""1"",""2142""
","
","
","""event"",""trial"",""time""
""fullscreenenter"",""1"",""2142""
","
","","","1176","","","25","10175","3219","u","elianto","#f73b6a7A"," "," ","1","-10","[2027]","1","2","","","10175","59","0","3","lose","go","1"
"pit-trial","178","1094061","0.0-64.0","battery-v0.2","","""event"",""trial"",""time""
""fullscreenenter"",""1"",""2142""
","
","
","""event"",""trial"",""time""
""fullscreenenter"",""1"",""2142""
","
","","","-1","","","25","10175","3219","g","elianto","#f73b6a7A","-1","-1","1","0","[]","0","2","","","10175","60","3","4","lose","no-go","0"
"pit-trial","179","1098919","0.0-65.0","battery-v0.2","","""event"",""trial"",""time""
""fullscreenenter"",""1"",""2142""
","
","
","""event"",""trial"",""time""
""fullscreenenter"",""1"",""2142""
","
","","","-1","","","25","10175","3219","l","elianto","#3366ff99","-1","-1","1","0","[]","0","2","","","10175","61","1","2","win","no-go","1"
"pit-trial","180","1102432","0.0-66.0","battery-v0.2","","""event"",""trial"",""time""
""fullscreenenter"",""1"",""2142""
","
","
","""event"",""trial"",""time""
""fullscreenenter"",""1"",""2142""
","
","","","655","","","25","10175","3219","p","elianto","#3366ff99"," "," ","1","+10","[1506]","1","2","","","10175","62","4","1","win","go","0"
"pit-trial","181","1107289","0.0-67.0","battery-v0.2","","""event"",""trial"",""time""
""fullscreenenter"",""1"",""2142""
","
","
","""event"",""trial"",""time""
""fullscreenenter"",""1"",""2142""
","
","","","-1","","","25","10175","3219","a","elianto","#f73b6a7A"," ","-1","0","-10","[]","0","2","","","10175","63","2","3","lose","go","0"
"pit-trial","182","1112146","0.0-68.0","battery-v0.2","","""event"",""trial"",""time""
""fullscreenenter"",""1"",""2142""
","
","
","""event"",""trial"",""time""
""fullscreenenter"",""1"",""2142""
","
","","","-1","","","25","10175","3219","g","elianto","#f73b6a7A","-1","-1","1","0","[]","0","2","","","10175","64","3","4","lose","no-go","0"
"pit-trial","183","1115569","0.0-69.0","battery-v0.2","","""event"",""trial"",""time""
""fullscreenenter"",""1"",""2142""
","
","
","""event"",""trial"",""time""
""fullscreenenter"",""1"",""2142""
","
","","","566","","","25","10175","3219","p","elianto","#3366ff99"," "," ","1","0","[1416]","1","2","","","10175","65","4","1","win","go","1"
"pit-trial","184","1119573","0.0-70.0","battery-v0.2","","""event"",""trial"",""time""
""fullscreenenter"",""1"",""2142""
","
","
","""event"",""trial"",""time""
""fullscreenenter"",""1"",""2142""
","
","","","1147","","","25","10175","3219","g","elianto","#f73b6a7A","-1"," ","0","-10","[1997.9999999997672]","1","2","","","10175","66","3","4","lose","no-go","0"
"pit-trial","185","1123239","0.0-71.0","battery-v0.2","","""event"",""trial"",""time""
""fullscreenenter"",""1"",""2142""
","
","
","""event"",""trial"",""time""
""fullscreenenter"",""1"",""2142""
","
","","","808","","","25","10175","3219","s","elianto","#3366ff99","-1"," ","0","0","[1660]","1","2","","","10175","67","5","2","win","no-go","0"
"pit-trial","186","1128096","0.0-72.0","battery-v0.2","","""event"",""trial"",""time""
""fullscreenenter"",""1"",""2142""
","
","
","""event"",""trial"",""time""
""fullscreenenter"",""1"",""2142""
","
","","","-1","","","25","10175","3219","l","elianto","#3366ff99","-1","-1","1","+10","[]","0","2","","","10175","68","1","2","win","no-go","0"
"pit-trial","187","1131750","0.0-73.0","battery-v0.2","","""event"",""trial"",""time""
""fullscreenenter"",""1"",""2142""
","
","
","""event"",""trial"",""time""
""fullscreenenter"",""1"",""2142""
","
","","","797","","","25","10175","3219","s","elianto","#3366ff99","-1"," ","0","0","[1648]","1","2","","","10175","69","5","2","win","no-go","0"
"pit-trial","188","1136608","0.0-74.0","battery-v0.2","","""event"",""trial"",""time""
""fullscreenenter"",""1"",""2142""
","
","
","""event"",""trial"",""time""
""fullscreenenter"",""1"",""2142""
","
","","","-1","","","25","10175","3219","l","elianto","#3366ff99","-1","-1","1","0","[]","0","2","","","10175","70","1","2","win","no-go","1"
"pit-trial","189","1140602","0.0-75.0","battery-v0.2","","""event"",""trial"",""time""
""fullscreenenter"",""1"",""2142""
","
","
","""event"",""trial"",""time""
""fullscreenenter"",""1"",""2142""
","
","","","1138","","","25","10175","3219","a","elianto","#f73b6a7A"," "," ","1","0","[1988]","1","2","","","10175","71","2","3","lose","go","0"
"pit-trial","190","1144635","0.0-76.0","battery-v0.2","","""event"",""trial"",""time""
""fullscreenenter"",""1"",""2142""
","
","
","""event"",""trial"",""time""
""fullscreenenter"",""1"",""2142""
","
","","","1175.9999999997672","","","25","10175","3219","p","elianto","#3366ff99"," "," ","1","+10","[2027]","1","2","","","10175","72","4","1","win","go","0"
"pit-trial","191","1148263","0.0-77.0","battery-v0.2","","""event"",""trial"",""time""
""fullscreenenter"",""1"",""2142""
","
","
","""event"",""trial"",""time""
""fullscreenenter"",""1"",""2142""
","
","","","772","","","25","10175","3219","s","elianto","#3366ff99","-1"," ","0","0","[1623]","1","2","","","10175","73","5","2","win","no-go","0"
"pit-trial","192","1153121","0.0-78.0","battery-v0.2","","""event"",""trial"",""time""
""fullscreenenter"",""1"",""2142""
","
","
","""event"",""trial"",""time""
""fullscreenenter"",""1"",""2142""
","
","","","-1","","","25","10175","3219","g","elianto","#f73b6a7A","-1","-1","1","-10","[]","0","2","","","10175","74","3","4","lose","no-go","1"
"pit-trial","193","1156640","0.0-79.0","battery-v0.2","","""event"",""trial"",""time""
""fullscreenenter"",""1"",""2142""
","
","
","""event"",""trial"",""time""
""fullscreenenter"",""1"",""2142""
","
","","","662","","","25","10175","3219","p","elianto","#3366ff99"," "," ","1","+10","[1513]","1","2","","","10175","75","4","1","win","go","0"
"pit-trial","194","1161497","0.0-80.0","battery-v0.2","","""event"",""trial"",""time""
""fullscreenenter"",""1"",""2142""
","
","
","""event"",""trial"",""time""
""fullscreenenter"",""1"",""2142""
","
","","","-1","","","25","10175","3219","l","elianto","#3366ff99","-1","-1","1","+10","[]","0","2","","","10175","76","1","2","win","no-go","0"
"pit-trial","195","1165655","0.0-81.0","battery-v0.2","","""event"",""trial"",""time""
""fullscreenenter"",""1"",""2142""
","
","
","""event"",""trial"",""time""
""fullscreenenter"",""1"",""2142""
","
","","","1302","","","25","10175","3219","p","elianto","#3366ff99"," "," ","1","+10","[2153]","1","2","","","10175","77","4","1","win","go","0"
"pit-trial","196","1169796","0.0-82.0","battery-v0.2","","""event"",""trial"",""time""
""fullscreenenter"",""1"",""2142""
","
","
","""event"",""trial"",""time""
""fullscreenenter"",""1"",""2142""
","
","","","1283.0000000002328","","","25","10175","3219","p","elianto","#3366ff99"," "," ","1","0","[2134.000000000233]","1","2","","","10175","78","4","1","win","go","1"
"pit-trial","197","1174653","0.0-83.0","battery-v0.2","","""event"",""trial"",""time""
""fullscreenenter"",""1"",""2142""
","
","
","""event"",""trial"",""time""
""fullscreenenter"",""1"",""2142""
","
","","","-1","","","25","10175","3219","g","elianto","#f73b6a7A","-1","-1","1","0","[]","0","2","","","10175","79","3","4","lose","no-go","0"
"pit-trial","198","1179510","0.0-84.0","battery-v0.2","","""event"",""trial"",""time""
""fullscreenenter"",""1"",""2142""
","
","
","""event"",""trial"",""time""
""fullscreenenter"",""1"",""2142""
","
","","","-1","","","25","10175","3219","s","elianto","#3366ff99","-1","-1","1","+10","[]","0","2","","","10175","80","5","2","win","no-go","0"
"pit-trial","199","1184367","0.0-85.0","battery-v0.2","","""event"",""trial"",""time""
""fullscreenenter"",""1"",""2142""
","
","
","""event"",""trial"",""time""
""fullscreenenter"",""1"",""2142""
","
","","","-1","","","25","10175","3219","s","elianto","#3366ff99","-1","-1","1","0","[]","0","2","","","10175","81","5","2","win","no-go","1"
"pit-trial","200","1188137","0.0-86.0","battery-v0.2","","""event"",""trial"",""time""
""fullscreenenter"",""1"",""2142""
","
","
","""event"",""trial"",""time""
""fullscreenenter"",""1"",""2142""
","
","","","913","","","25","10175","3219","p","elianto","#3366ff99"," "," ","1","+10","[1764]","1","2","","","10175","82","4","1","win","go","0"
"pit-trial","201","1192070","0.0-87.0","battery-v0.2","","""event"",""trial"",""time""
""fullscreenenter"",""1"",""2142""
","
","
","""event"",""trial"",""time""
""fullscreenenter"",""1"",""2142""
","
","","","1076","","","25","10175","3219","e","elianto","#f73b6a7A","-1"," ","0","-10","[1927]","1","2","","","10175","83","7","4","lose","no-go","0"
"pit-trial","202","1196928","0.0-88.0","battery-v0.2","","""event"",""trial"",""time""
""fullscreenenter"",""1"",""2142""
","
","
","""event"",""trial"",""time""
""fullscreenenter"",""1"",""2142""
","
","","","-1","","","25","10175","3219","g","elianto","#f73b6a7A","-1","-1","1","0","[]","0","2","","","10175","84","3","4","lose","no-go","0"
"pit-trial","203","1200457","0.0-89.0","battery-v0.2","","""event"",""trial"",""time""
""fullscreenenter"",""1"",""2142""
","
","
","""event"",""trial"",""time""
""fullscreenenter"",""1"",""2142""
","
","","","673","","","25","10175","3219","p","elianto","#3366ff99"," "," ","1","+10","[1524]","1","2","","","10175","85","4","1","win","go","0"
"pit-trial","204","1205315","0.0-90.0","battery-v0.2","","""event"",""trial"",""time""
""fullscreenenter"",""1"",""2142""
","
","
","""event"",""trial"",""time""
""fullscreenenter"",""1"",""2142""
","
","","","-1","","","25","10175","3219","s","elianto","#3366ff99","-1","-1","1","+10","[]","0","2","","","10175","86","5","2","win","no-go","0"
"pit-trial","205","1209093","0.0-91.0","battery-v0.2","","""event"",""trial"",""time""
""fullscreenenter"",""1"",""2142""
","
","
","""event"",""trial"",""time""
""fullscreenenter"",""1"",""2142""
","
","","","921","","","25","10175","3219","w","elianto","#f73b6a7A"," "," ","1","0","[1772]","1","2","","","10175","87","6","3","lose","go","0"
"pit-trial","206","1213950","0.0-92.0","battery-v0.2","","""event"",""trial"",""time""
""fullscreenenter"",""1"",""2142""
","
","
","""event"",""trial"",""time""
""fullscreenenter"",""1"",""2142""
","
","","","-1","","","25","10175","3219","e","elianto","#f73b6a7A","-1","-1","1","0","[]","0","2","","","10175","88","7","4","lose","no-go","0"
"pit-trial","207","1217460","0.0-93.0","battery-v0.2","","""event"",""trial"",""time""
""fullscreenenter"",""1"",""2142""
","
","
","""event"",""trial"",""time""
""fullscreenenter"",""1"",""2142""
","
","","","652","","","25","10175","3219","p","elianto","#3366ff99"," "," ","1","+10","[1503]","1","2","","","10175","89","4","1","win","go","0"
"pit-trial","208","1221269","0.0-94.0","battery-v0.2","","""event"",""trial"",""time""
""fullscreenenter"",""1"",""2142""
","
","
","""event"",""trial"",""time""
""fullscreenenter"",""1"",""2142""
","
","","","953","","","25","10175","3219","w","elianto","#f73b6a7A"," "," ","1","0","[1804]","1","2","","","10175","90","6","3","lose","go","0"
"pit-trial","209","1226126","0.0-95.0","battery-v0.2","","""event"",""trial"",""time""
""fullscreenenter"",""1"",""2142""
","
","
","""event"",""trial"",""time""
""fullscreenenter"",""1"",""2142""
","
","","","-1","","","25","10175","3219","s","elianto","#3366ff99","-1","-1","1","0","[]","0","2","","","10175","91","5","2","win","no-go","1"
"pit-trial","210","1230983","0.0-96.0","battery-v0.2","","""event"",""trial"",""time""
""fullscreenenter"",""1"",""2142""
","
","
","""event"",""trial"",""time""
""fullscreenenter"",""1"",""2142""
","
","","","-1","","","25","10175","3219","e","elianto","#f73b6a7A","-1","-1","1","0","[]","0","2","","","10175","92","7","4","lose","no-go","0"
"pit-trial","211","1235841","0.0-97.0","battery-v0.2","","""event"",""trial"",""time""
""fullscreenenter"",""1"",""2142""
","
","
","""event"",""trial"",""time""
""fullscreenenter"",""1"",""2142""
","
","","","-1","","","25","10175","3219","e","elianto","#f73b6a7A","-1","-1","1","0","[]","0","2","","","10175","93","7","4","lose","no-go","0"
"pit-trial","212","1240699","0.0-98.0","battery-v0.2","","""event"",""trial"",""time""
""fullscreenenter"",""1"",""2142""
","
","
","""event"",""trial"",""time""
""fullscreenenter"",""1"",""2142""
","
","","","-1","","","25","10175","3219","s","elianto","#3366ff99","-1","-1","1","0","[]","0","2","","","10175","94","5","2","win","no-go","1"
"pit-trial","213","1244596","0.0-99.0","battery-v0.2","","""event"",""trial"",""time""
""fullscreenenter"",""1"",""2142""
","
","
","""event"",""trial"",""time""
""fullscreenenter"",""1"",""2142""
","
","","","1041","","","25","10175","3219","d","elianto","#3366ff99"," "," ","1","+10","[1891]","1","2","","","10175","95","8","1","win","go","0"
"pit-trial","214","1249454","0.0-100.0","battery-v0.2","","""event"",""trial"",""time""
""fullscreenenter"",""1"",""2142""
","
","
","""event"",""trial"",""time""
""fullscreenenter"",""1"",""2142""
","
","","","-1","","","25","10175","3219","w","elianto","#f73b6a7A"," ","-1","0","-10","[3150.999999999767]","1","2","","","10175","96","6","3","lose","go","0"
"pit-trial","215","1254311","0.0-101.0","battery-v0.2","","""event"",""trial"",""time""
""fullscreenenter"",""1"",""2142""
","
","
","""event"",""trial"",""time""
""fullscreenenter"",""1"",""2142""
","
","","","-1","","","25","10175","3219","s","elianto","#3366ff99","-1","-1","1","+10","[]","0","2","","","10175","97","5","2","win","no-go","0"
"pit-trial","216","1258276","0.0-102.0","battery-v0.2","","""event"",""trial"",""time""
""fullscreenenter"",""1"",""2142""
","
","
","""event"",""trial"",""time""
""fullscreenenter"",""1"",""2142""
","
","","","1110","","","25","10175","3219","w","elianto","#f73b6a7A"," "," ","1","0","[1960]","1","2","","","10175","98","6","3","lose","go","0"
"pit-trial","217","1261783","0.0-103.0","battery-v0.2","","""event"",""trial"",""time""
""fullscreenenter"",""1"",""2142""
","
","
","""event"",""trial"",""time""
""fullscreenenter"",""1"",""2142""
","
","","","650","","","25","10175","3219","d","elianto","#3366ff99"," "," ","1","+10","[1500]","1","2","","","10175","99","8","1","win","go","0"
"pit-trial","218","1266641","0.0-104.0","battery-v0.2","","""event"",""trial"",""time""
""fullscreenenter"",""1"",""2142""
","
","
","""event"",""trial"",""time""
""fullscreenenter"",""1"",""2142""
","
","","","-1","","","25","10175","3219","e","elianto","#f73b6a7A","-1","-1","1","0","[]","0","2","","","10175","100","7","4","lose","no-go","0"
"pit-trial","219","1271498","0.0-105.0","battery-v0.2","","""event"",""trial"",""time""
""fullscreenenter"",""1"",""2142""
","
","
","""event"",""trial"",""time""
""fullscreenenter"",""1"",""2142""
","
","","","-1","","","25","10175","3219","s","elianto","#3366ff99","-1","-1","1","+10","[]","0","2","","","10175","101","5","2","win","no-go","0"
"pit-trial","220","1276355","0.0-106.0","battery-v0.2","","""event"",""trial"",""time""
""fullscreenenter"",""1"",""2142""
","
","
","""event"",""trial"",""time""
""fullscreenenter"",""1"",""2142""
","
","","","-1","","","25","10175","3219","e","elianto","#f73b6a7A","-1","-1","1","-10","[]","0","2","","","10175","102","7","4","lose","no-go","1"
"pit-trial","221","1279758","0.0-107.0","battery-v0.2","","""event"",""trial"",""time""
""fullscreenenter"",""1"",""2142""
","
","
","""event"",""trial"",""time""
""fullscreenenter"",""1"",""2142""
","
","","","544","","","25","10175","3219","d","elianto","#3366ff99"," "," ","1","0","[1394.9999999997672]","1","2","","","10175","103","8","1","win","go","1"
"pit-trial","222","1283415","0.0-108.0","battery-v0.2","","""event"",""trial"",""time""
""fullscreenenter"",""1"",""2142""
","
","
","""event"",""trial"",""time""
""fullscreenenter"",""1"",""2142""
","
","","","801","","","25","10175","3219","j","elianto","#3366ff99"," "," ","1","+10","[1651]","1","2","","","10175","104","9","1","win","go","0"
"pit-trial","223","1286850","0.0-109.0","battery-v0.2","","""event"",""trial"",""time""
""fullscreenenter"",""1"",""2142""
","
","
","""event"",""trial"",""time""
""fullscreenenter"",""1"",""2142""
","
","","","578","","","25","10175","3219","j","elianto","#3366ff99"," "," ","1","+10","[1429]","1","2","","","10175","105","9","1","win","go","0"
"pit-trial","224","1290356","0.0-110.0","battery-v0.2","","""event"",""trial"",""time""
""fullscreenenter"",""1"",""2142""
","
","
","""event"",""trial"",""time""
""fullscreenenter"",""1"",""2142""
","
","","","648.9999999997672","","","25","10175","3219","d","elianto","#3366ff99"," "," ","1","+10","[1500]","1","2","","","10175","106","8","1","win","go","0"
"pit-trial","225","1294506","0.0-111.0","battery-v0.2","","""event"",""trial"",""time""
""fullscreenenter"",""1"",""2142""
","
","
","""event"",""trial"",""time""
""fullscreenenter"",""1"",""2142""
","
","","","1292.0000000002328","","","25","10175","3219","p","elianto","#3366ff99"," "," ","1","0","[2143.000000000233]","1","2","","","10175","107","4","1","win","go","1"
"pit-trial","226","1298415","0.0-112.0","battery-v0.2","","""event"",""trial"",""time""
""fullscreenenter"",""1"",""2142""
","
","
","""event"",""trial"",""time""
""fullscreenenter"",""1"",""2142""
","
","","","1051","","","25","10175","3219","w","elianto","#f73b6a7A"," "," ","1","0","[1903]","1","2","","","10175","108","6","3","lose","go","0"
"pit-trial","227","1303269","0.0-113.0","battery-v0.2","","""event"",""trial"",""time""
""fullscreenenter"",""1"",""2142""
","
","
","""event"",""trial"",""time""
""fullscreenenter"",""1"",""2142""
","
","","","-1","","","25","10175","3219","s","elianto","#3366ff99","-1","-1","1","0","[]","0","2","","","10175","109","5","2","win","no-go","1"
"pit-trial","228","1306733","0.0-114.0","battery-v0.2","","""event"",""trial"",""time""
""fullscreenenter"",""1"",""2142""
","
","
","""event"",""trial"",""time""
""fullscreenenter"",""1"",""2142""
","
","","","607","","","25","10175","3219","d","elianto","#3366ff99"," "," ","1","+10","[1458]","1","2","","","10175","110","8","1","win","go","0"
"pit-trial","229","1310176","0.0-115.0","battery-v0.2","","""event"",""trial"",""time""
""fullscreenenter"",""1"",""2142""
","
","
","""event"",""trial"",""time""
""fullscreenenter"",""1"",""2142""
","
","","","587.9999999997672","","","25","10175","3219","j","elianto","#3366ff99"," "," ","1","+10","[1438]","1","2","","","10175","111","9","1","win","go","0"
"pit-trial","230","1313827","0.0-116.0","battery-v0.2","","""event"",""trial"",""time""
""fullscreenenter"",""1"",""2142""
","
","
","""event"",""trial"",""time""
""fullscreenenter"",""1"",""2142""
","
","","","794","","","25","10175","3219","w","elianto","#f73b6a7A"," "," ","1","0","[1645]","1","2","","","10175","112","6","3","lose","go","0"
"pit-trial","231","1317428","0.0-117.0","battery-v0.2","","""event"",""trial"",""time""
""fullscreenenter"",""1"",""2142""
","
","
","""event"",""trial"",""time""
""fullscreenenter"",""1"",""2142""
","
","","","744.9999999997672","","","25","10175","3219","w","elianto","#f73b6a7A"," "," ","1","-10","[1596]","1","2","","","10175","113","6","3","lose","go","1"
"pit-trial","232","1321085","0.0-118.0","battery-v0.2","","""event"",""trial"",""time""
""fullscreenenter"",""1"",""2142""
","
","
","""event"",""trial"",""time""
""fullscreenenter"",""1"",""2142""
","
","","","800","","","25","10175","3219","d","elianto","#3366ff99"," "," ","1","+10","[1651]","1","2","","","10175","114","8","1","win","go","0"
"pit-trial","233","1324475","0.0-119.0","battery-v0.2","","""event"",""trial"",""time""
""fullscreenenter"",""1"",""2142""
","
","
","""event"",""trial"",""time""
""fullscreenenter"",""1"",""2142""
","
","","","533","","","25","10175","3219","s","elianto","#3366ff99","-1"," ","0","0","[1384]","1","2","","","10175","115","5","2","win","no-go","0"
"pit-trial","234","1327977","0.0-120.0","battery-v0.2","","""event"",""trial"",""time""
""fullscreenenter"",""1"",""2142""
","
","
","""event"",""trial"",""time""
""fullscreenenter"",""1"",""2142""
","
","","","646","","","25","10175","3219","j","elianto","#3366ff99"," "," ","1","0","[1496.9999999997672]","1","2","","","10175","116","9","1","win","go","1"
"pit-trial","235","1332834","0.0-121.0","battery-v0.2","","""event"",""trial"",""time""
""fullscreenenter"",""1"",""2142""
","
","
","""event"",""trial"",""time""
""fullscreenenter"",""1"",""2142""
","
","","","-1","","","25","10175","3219","s","elianto","#3366ff99","-1","-1","1","+10","[]","0","2","","","10175","117","5","2","win","no-go","0"
"pit-trial","236","1336366","0.0-122.0","battery-v0.2","","""event"",""trial"",""time""
""fullscreenenter"",""1"",""2142""
","
","
","""event"",""trial"",""time""
""fullscreenenter"",""1"",""2142""
","
","","","676","","","25","10175","3219","w","elianto","#f73b6a7A"," "," ","1","0","[1526]","1","2","","","10175","118","6","3","lose","go","0"
"pit-trial","237","1340124","0.0-123.0","battery-v0.2","","""event"",""trial"",""time""
""fullscreenenter"",""1"",""2142""
","
","
","""event"",""trial"",""time""
""fullscreenenter"",""1"",""2142""
","
","","","900.0000000002328","","","25","10175","3219","d","elianto","#3366ff99"," "," ","1","0","[1752.0000000002328]","1","2","","","10175","119","8","1","win","go","1"
"pit-trial","238","1343958","0.0-124.0","battery-v0.2","","""event"",""trial"",""time""
""fullscreenenter"",""1"",""2142""
","
","
","""event"",""trial"",""time""
""fullscreenenter"",""1"",""2142""
","
","","","977","","","25","10175","3219","j","elianto","#3366ff99"," "," ","1","+10","[1828]","1","2","","","10175","120","9","1","win","go","0"
"pit-trial","239","1348814","0.0-125.0","battery-v0.2","","""event"",""trial"",""time""
""fullscreenenter"",""1"",""2142""
","
","
","""event"",""trial"",""time""
""fullscreenenter"",""1"",""2142""
","
","","","-1","","","25","10175","3219","d","elianto","#3366ff99"," ","-1","0","0","[]","0","2","","","10175","121","8","1","win","go","0"
"pit-trial","240","1352235","0.0-126.0","battery-v0.2","","""event"",""trial"",""time""
""fullscreenenter"",""1"",""2142""
","
","
","""event"",""trial"",""time""
""fullscreenenter"",""1"",""2142""
","
","","","562.9999999997672","","","25","10175","3219","j","elianto","#3366ff99"," "," ","1","+10","[1414]","1","2","","","10175","122","9","1","win","go","0"
"pit-trial","241","1357092","0.0-127.0","battery-v0.2","","""event"",""trial"",""time""
""fullscreenenter"",""1"",""2142""
","
","
","""event"",""trial"",""time""
""fullscreenenter"",""1"",""2142""
","
","","","-1","","","25","10175","3219","e","elianto","#f73b6a7A","-1","-1","1","0","[]","0","2","","","10175","123","7","4","lose","no-go","0"
"pit-trial","242","1361138","0.0-128.0","battery-v0.2","","""event"",""trial"",""time""
""fullscreenenter"",""1"",""2142""
","
","
","""event"",""trial"",""time""
""fullscreenenter"",""1"",""2142""
","
","","","1188","","","25","10175","3219","w","elianto","#f73b6a7A"," "," ","1","0","[2039]","1","2","","","10175","124","6","3","lose","go","0"
"pit-trial","243","1365996","0.0-129.0","battery-v0.2","","""event"",""trial"",""time""
""fullscreenenter"",""1"",""2142""
","
","
","""event"",""trial"",""time""
""fullscreenenter"",""1"",""2142""
","
","","","-1","","","25","10175","3219","e","elianto","#f73b6a7A","-1","-1","1","0","[]","0","2","","","10175","125","7","4","lose","no-go","0"
"pit-trial","244","1369558","0.0-130.0","battery-v0.2","","""event"",""trial"",""time""
""fullscreenenter"",""1"",""2142""
","
","
","""event"",""trial"",""time""
""fullscreenenter"",""1"",""2142""
","
","","","706","","","25","10175","3219","j","elianto","#3366ff99"," "," ","1","0","[1556]","1","2","","","10175","126","9","1","win","go","1"
"pit-trial","245","1373159","0.0-131.0","battery-v0.2","","""event"",""trial"",""time""
""fullscreenenter"",""1"",""2142""
","
","
","""event"",""trial"",""time""
""fullscreenenter"",""1"",""2142""
","
","","","744","","","25","10175","3219","w","elianto","#f73b6a7A"," "," ","1","0","[1595]","1","2","","","10175","127","6","3","lose","go","0"
"pit-trial","246","1376825","0.0-132.0","battery-v0.2","","""event"",""trial"",""time""
""fullscreenenter"",""1"",""2142""
","
","
","""event"",""trial"",""time""
""fullscreenenter"",""1"",""2142""
","
","","","809.0000000002328","","","25","10175","3219","d","elianto","#3366ff99"," "," ","1","0","[1660.0000000002328]","1","2","","","10175","128","8","1","win","go","1"
"pit-trial","247","1380734","0.0-133.0","battery-v0.2","","""event"",""trial"",""time""
""fullscreenenter"",""1"",""2142""
","
","
","""event"",""trial"",""time""
""fullscreenenter"",""1"",""2142""
","
","","","1052","","","25","10175","3219","w","elianto","#f73b6a7A"," "," ","1","0","[1903]","1","2","","","10175","129","6","3","lose","go","0"
"pit-trial","248","1385591","0.0-134.0","battery-v0.2","","""event"",""trial"",""time""
""fullscreenenter"",""1"",""2142""
","
","
","""event"",""trial"",""time""
""fullscreenenter"",""1"",""2142""
","
","","","-1","","","25","10175","3219","d","elianto","#3366ff99"," ","-1","0","0","[]","0","2","","","10175","130","8","1","win","go","0"
"pit-trial","249","1389114","0.0-135.0","battery-v0.2","","""event"",""trial"",""time""
""fullscreenenter"",""1"",""2142""
","
","
","""event"",""trial"",""time""
""fullscreenenter"",""1"",""2142""
","
","","","667.0000000002328","","","25","10175","3219","j","elianto","#3366ff99"," "," ","1","0","[1517.0000000002328]","1","2","","","10175","131","9","1","win","go","1"
"pit-trial","250","1393971","0.0-136.0","battery-v0.2","","""event"",""trial"",""time""
""fullscreenenter"",""1"",""2142""
","
","
","""event"",""trial"",""time""
""fullscreenenter"",""1"",""2142""
","
","","","-1","","","25","10175","3219","e","elianto","#f73b6a7A","-1","-1","1","0","[]","0","2","","","10175","132","7","4","lose","no-go","0"
"pit-trial","251","1397439","0.0-137.0","battery-v0.2","","""event"",""trial"",""time""
""fullscreenenter"",""1"",""2142""
","
","
","""event"",""trial"",""time""
""fullscreenenter"",""1"",""2142""
","
","","","611","","","25","10175","3219","w","elianto","#f73b6a7A"," "," ","1","-10","[1461]","1","2","","","10175","133","6","3","lose","go","1"
"pit-trial","252","1402297","0.0-138.0","battery-v0.2","","""event"",""trial"",""time""
""fullscreenenter"",""1"",""2142""
","
","
","""event"",""trial"",""time""
""fullscreenenter"",""1"",""2142""
","
","","","-1","","","25","10175","3219","e","elianto","#f73b6a7A","-1","-1","1","-10","[]","0","2","","","10175","134","7","4","lose","no-go","1"
"pit-trial","253","1405747","0.0-139.0","battery-v0.2","","""event"",""trial"",""time""
""fullscreenenter"",""1"",""2142""
","
","
","""event"",""trial"",""time""
""fullscreenenter"",""1"",""2142""
","
","","","593","","","25","10175","3219","j","elianto","#3366ff99"," "," ","1","+10","[1444]","1","2","","","10175","135","9","1","win","go","0"
"pit-trial","254","1410604","0.0-140.0","battery-v0.2","","""event"",""trial"",""time""
""fullscreenenter"",""1"",""2142""
","
","
","""event"",""trial"",""time""
""fullscreenenter"",""1"",""2142""
","
","","","-1","","","25","10175","3219","d","elianto","#3366ff99"," ","-1","0","0","[]","0","2","","","10175","136","8","1","win","go","0"
"pit-trial","255","1415461","0.0-141.0","battery-v0.2","","""event"",""trial"",""time""
""fullscreenenter"",""1"",""2142""
","
","
","""event"",""trial"",""time""
""fullscreenenter"",""1"",""2142""
","
","","","-1","","","25","10175","3219","e","elianto","#f73b6a7A","-1","-1","1","0","[]","0","2","","","10175","137","7","4","lose","no-go","0"
"pit-trial","256","1419167","0.0-142.0","battery-v0.2","","""event"",""trial"",""time""
""fullscreenenter"",""1"",""2142""
","
","
","""event"",""trial"",""time""
""fullscreenenter"",""1"",""2142""
","
","","","849","","","25","10175","3219","d","elianto","#3366ff99"," "," ","1","+10","[1699]","1","2","","","10175","138","8","1","win","go","0"
"pit-trial","257","1422763","0.0-143.0","battery-v0.2","","""event"",""trial"",""time""
""fullscreenenter"",""1"",""2142""
","
","
","""event"",""trial"",""time""
""fullscreenenter"",""1"",""2142""
","
","","","739","","","25","10175","3219","w","elianto","#f73b6a7A"," "," ","1","-10","[1590]","1","2","","","10175","139","6","3","lose","go","1"
"pit-trial","258","1426446","0.0-144.0","battery-v0.2","","""event"",""trial"",""time""
""fullscreenenter"",""1"",""2142""
","
","
","""event"",""trial"",""time""
""fullscreenenter"",""1"",""2142""
","
","","","827","","","25","10175","3219","j","elianto","#3366ff99"," "," ","1","+10","[1678]","1","2","","","10175","140","9","1","win","go","0"
"pit-instructions","259","1441266","0.0-145.0","battery-v0.2","","""event"",""trial"",""time""
""fullscreenenter"",""1"",""2142""
","
","
","""event"",""trial"",""time""
""fullscreenenter"",""1"",""2142""
","
","","[{""page_index"":0,""viewing_time"":5464},{""page_index"":1,""viewing_time"":9351}]","14816","","","","","","","","","","","","","","","","","","","","","","","",""
"pit-trial","260","1444982","0.0-146.0","battery-v0.2","","""event"",""trial"",""time""
""fullscreenenter"",""1"",""2142""
","
","
","""event"",""trial"",""time""
""fullscreenenter"",""1"",""2142""
","
","","","856","","","25","10175","3219","h","elianto","#f73b6a7A"," "," ","1","0","[1705.9999999997672]","1","3","","","10175","141","3","3","lose","go","0"
"pit-trial","261","1448388","0.0-147.0","battery-v0.2","","""event"",""trial"",""time""
""fullscreenenter"",""1"",""2142""
","
","
","""event"",""trial"",""time""
""fullscreenenter"",""1"",""2142""
","
","","","548","","","25","10175","3219","y","elianto","#f73b6a7A","-1"," ","0","-10","[1399.9999999997672]","1","3","","","10175","142","2","4","lose","no-go","0"
"pit-trial","262","1451979","0.0-148.0","battery-v0.2","","""event"",""trial"",""time""
""fullscreenenter"",""1"",""2142""
","
","
","""event"",""trial"",""time""
""fullscreenenter"",""1"",""2142""
","
","","","735","","","25","10175","3219","m","elianto","#f73b6a7A","-1"," ","0","-10","[1586]","1","3","","","10175","143","0","4","lose","no-go","0"
"pit-trial","263","1455496","0.0-149.0","battery-v0.2","","""event"",""trial"",""time""
""fullscreenenter"",""1"",""2142""
","
","
","""event"",""trial"",""time""
""fullscreenenter"",""1"",""2142""
","
","","","661","","","25","10175","3219","r","elianto","#3366ff99"," "," ","1","+10","[1511]","1","3","","","10175","144","1","1","win","go","0"
"pit-trial","264","1460353","0.0-150.0","battery-v0.2","","""event"",""trial"",""time""
""fullscreenenter"",""1"",""2142""
","
","
","""event"",""trial"",""time""
""fullscreenenter"",""1"",""2142""
","
","","","-1","","","25","10175","3219","m","elianto","#f73b6a7A","-1","-1","1","0","[]","0","3","","","10175","145","0","4","lose","no-go","0"
"pit-trial","265","1465210","0.0-151.0","battery-v0.2","","""event"",""trial"",""time""
""fullscreenenter"",""1"",""2142""
","
","
","""event"",""trial"",""time""
""fullscreenenter"",""1"",""2142""
","
","","","-1","","","25","10175","3219","y","elianto","#f73b6a7A","-1","-1","1","0","[]","0","3","","","10175","146","2","4","lose","no-go","0"
"pit-trial","266","1468610","0.0-152.0","battery-v0.2","","""event"",""trial"",""time""
""fullscreenenter"",""1"",""2142""
","
","
","""event"",""trial"",""time""
""fullscreenenter"",""1"",""2142""
","
","","","543","","","25","10175","3219","r","elianto","#3366ff99"," "," ","1","+10","[1394]","1","3","","","10175","147","1","1","win","go","0"
"pit-trial","267","1472287","0.0-153.0","battery-v0.2","","""event"",""trial"",""time""
""fullscreenenter"",""1"",""2142""
","
","
","""event"",""trial"",""time""
""fullscreenenter"",""1"",""2142""
","
","","","821","","","25","10175","3219","h","elianto","#f73b6a7A"," "," ","1","-10","[1671]","1","3","","","10175","148","3","3","lose","go","1"
"pit-trial","268","1477144","0.0-154.0","battery-v0.2","","""event"",""trial"",""time""
""fullscreenenter"",""1"",""2142""
","
","
","""event"",""trial"",""time""
""fullscreenenter"",""1"",""2142""
","
","","","-1","","","25","10175","3219","y","elianto","#f73b6a7A","-1","-1","1","-10","[]","0","3","","","10175","149","2","4","lose","no-go","1"
"pit-trial","269","1480746","0.0-155.0","battery-v0.2","","""event"",""trial"",""time""
""fullscreenenter"",""1"",""2142""
","
","
","""event"",""trial"",""time""
""fullscreenenter"",""1"",""2142""
","
","","","746.0000000002328","","","25","10175","3219","r","elianto","#3366ff99"," "," ","1","+10","[1597.0000000002328]","1","3","","","10175","150","1","1","win","go","0"
"pit-trial","270","1485604","0.0-156.0","battery-v0.2","","""event"",""trial"",""time""
""fullscreenenter"",""1"",""2142""
","
","
","""event"",""trial"",""time""
""fullscreenenter"",""1"",""2142""
","
","","","-1","","","25","10175","3219","m","elianto","#f73b6a7A","-1","-1","1","0","[]","0","3","","","10175","151","0","4","lose","no-go","0"
"pit-trial","271","1490461","0.0-157.0","battery-v0.2","","""event"",""trial"",""time""
""fullscreenenter"",""1"",""2142""
","
","
","""event"",""trial"",""time""
""fullscreenenter"",""1"",""2142""
","
","","","-1","","","25","10175","3219","h","elianto","#f73b6a7A"," ","-1","0","-10","[]","0","3","","","10175","152","3","3","lose","go","0"
"pit-trial","272","1495318","0.0-158.0","battery-v0.2","","""event"",""trial"",""time""
""fullscreenenter"",""1"",""2142""
","
","
","""event"",""trial"",""time""
""fullscreenenter"",""1"",""2142""
","
","","","-1","","","25","10175","3219","m","elianto","#f73b6a7A","-1","-1","1","0","[]","0","3","","","10175","153","0","4","lose","no-go","0"
"pit-trial","273","1500174","0.0-159.0","battery-v0.2","","""event"",""trial"",""time""
""fullscreenenter"",""1"",""2142""
","
","
","""event"",""trial"",""time""
""fullscreenenter"",""1"",""2142""
","
","","","-1","","","25","10175","3219","h","elianto","#f73b6a7A"," ","-1","0","-10","[3661.999999999767]","1","3","","","10175","154","3","3","lose","go","0"
"pit-trial","274","1503644","0.0-160.0","battery-v0.2","","""event"",""trial"",""time""
""fullscreenenter"",""1"",""2142""
","
","
","""event"",""trial"",""time""
""fullscreenenter"",""1"",""2142""
","
","","","613","","","25","10175","3219","r","elianto","#3366ff99"," "," ","1","+10","[1463.9999999997672]","1","3","","","10175","155","1","1","win","go","0"
