"trial_type","trial_index","time_elapsed","internal_node_id","task_version","subject_id","interactions","blur_events","focus_events","fullscreenenter_events","fullscreenexit_events","success","view_history","rt","responses","num_errors","age","subject","participantId","rune","rune_set","hex","correct","choice","accuracy","outcome","keys","total_keys","block","practice","value","sub","trial","stimulus","robot","valence","action","sham"
"pavlovia","0","8","0.0-0.0","battery-v0.2","","""event"",""trial"",""time""
""fullscreenenter"",""1"",""3385""
","
","
","""event"",""trial"",""time""
""fullscreenenter"",""1"",""3385""
","
","","","","","","","","","","","","","","","","","","","","","","","","","","",""
"fullscreen","1","4373","0.0-1.0","battery-v0.2","","""event"",""trial"",""time""
""fullscreenenter"",""1"",""3385""
","
","
","""event"",""trial"",""time""
""fullscreenenter"",""1"",""3385""
","
","true","","","","","","","","","","","","","","","","","","","","","","","","","",""
"pit-instructions","2","9012","0.0-2.0-0.0","battery-v0.2","","""event"",""trial"",""time""
""fullscreenenter"",""1"",""3385""
","
","
","""event"",""trial"",""time""
""fullscreenenter"",""1"",""3385""
","
","","[{""page_index"":0,""viewing_time"":4635.60000000149}]","4635.800000000745","","","","","","","","","","","","","","","","","","","","","","","",""
"pit-comprehension","3","11921","0.0-2.0-1.0-0.0","battery-v0.2","","""event"",""trial"",""time""
""fullscreenenter"",""1"",""3385""
","
","
","""event"",""trial"",""time""
""fullscreenenter"",""1"",""3385""
","
","","","2906.599999997765","[""shark""]","0","18","5960","2715","","","","","","","","","","","","","","","","","","",""
"pit-instructions","4","14673","0.0-2.0-1.0-1.0","battery-v0.2","","""event"",""trial"",""time""
""fullscreenenter"",""1"",""3385""
","
","
","""event"",""trial"",""time""
""fullscreenenter"",""1"",""3385""
","
","","[{""page_index"":0,""viewing_time"":2730}]","2730.199999999255","","","","","","","","","","","","","","","","","","","","","","","",""
"pit-comprehension","5","18215","0.0-2.0-2.0-0.0","battery-v0.2","","""event"",""trial"",""time""
""fullscreenenter"",""1"",""3385""
","
","
","""event"",""trial"",""time""
""fullscreenenter"",""1"",""3385""
","
","","","3540.099999997765","[""tiger""]","0","18","5960","2715","","","","","","","","","","","","","","","","","","",""
"pit-instructions","6","18979","0.0-2.0-2.0-1.0","battery-v0.2","","""event"",""trial"",""time""
""fullscreenenter"",""1"",""3385""
","
","
","""event"",""trial"",""time""
""fullscreenenter"",""1"",""3385""
","
","","[{""page_index"":0,""viewing_time"":759.4000000022352}]","759.8000000007451","","","","","","","","","","","","","","","","","","","","","","","",""
"pit-instructions","7","166941","0.0-2.0-3.0","battery-v0.2","","""event"",""trial"",""time""
""fullscreenenter"",""1"",""3385""
","
","
","""event"",""trial"",""time""
""fullscreenenter"",""1"",""3385""
","
","","[{""page_index"":0,""viewing_time"":8575.400000002235},{""page_index"":1,""viewing_time"":7391.89999999851},{""page_index"":2,""viewing_time"":7330.699999999255},{""page_index"":3,""viewing_time"":5163.70000000298},{""page_index"":4,""viewing_time"":7703.699999999255},{""page_index"":5,""viewing_time"":6003.5},{""page_index"":6,""viewing_time"":9928.199999999255},{""page_index"":7,""viewing_time"":7876.39999999851},{""page_index"":8,""viewing_time"":7615.60000000149},{""page_index"":9,""viewing_time"":14295.199999999255},{""page_index"":10,""viewing_time"":32970.400000002235},{""page_index"":11,""viewing_time"":13543},{""page_index"":12,""viewing_time"":6909.699999999255},{""page_index"":13,""viewing_time"":12652.599999997765}]","147960.40000000224","","","","","","","","","","","","","","","","","","","","","","","",""
"pit-trial","8","170565","0.0-2.0-4.0-0.0","battery-v0.2","","""event"",""trial"",""time""
""fullscreenenter"",""1"",""3385""
","
","
","""event"",""trial"",""time""
""fullscreenenter"",""1"",""3385""
","
","","","756.6000000014901","","","18","5960","2715","&#9784;","elianto","#FFFFF080"," "," ","1","&#10004","[1609.5]","1","0","0","","","","","","","",""
"pit-trial","9","174270","0.0-2.0-4.1-0.1","battery-v0.2","","""event"",""trial"",""time""
""fullscreenenter"",""1"",""3385""
","
","
","""event"",""trial"",""time""
""fullscreenenter"",""1"",""3385""
","
","","","833.5","","","18","5960","2715","&#9784;","elianto","#FFFFF080"," "," ","1","&#10004","[1687.5]","1","0","0","","","","","","","",""
"pit-trial","10","177914","0.0-2.0-4.2-0.2","battery-v0.2","","""event"",""trial"",""time""
""fullscreenenter"",""1"",""3385""
","
","
","""event"",""trial"",""time""
""fullscreenenter"",""1"",""3385""
","
","","","776","","","18","5960","2715","&#9784;","elianto","#FFFFF080"," "," ","1","&#10004","[1626.6000000014901]","1","0","0","","","","","","","",""
"pit-trial","11","181624","0.0-2.0-4.3-0.3","battery-v0.2","","""event"",""trial"",""time""
""fullscreenenter"",""1"",""3385""
","
","
","""event"",""trial"",""time""
""fullscreenenter"",""1"",""3385""
","
","","","847.9000000022352","","","18","5960","2715","&#9784;","elianto","#FFFFF080"," "," ","1","&#10004","[1699.5999999977648]","1","0","0","","","","","","","",""
"pit-trial","12","185198","0.0-2.0-4.4-0.4","battery-v0.2","","""event"",""trial"",""time""
""fullscreenenter"",""1"",""3385""
","
","
","""event"",""trial"",""time""
""fullscreenenter"",""1"",""3385""
","
","","","696.6000000014901","","","18","5960","2715","&#9784;","elianto","#FFFFF080"," "," ","1","&#10004","[1551.1000000014901]","1","0","0","","","","","","","",""
"pit-instructions","13","229814","0.0-2.0-5.0","battery-v0.2","","""event"",""trial"",""time""
""fullscreenenter"",""1"",""3385""
","
","
","""event"",""trial"",""time""
""fullscreenenter"",""1"",""3385""
","
","","[{""page_index"":0,""viewing_time"":18000.39999999851},{""page_index"":1,""viewing_time"":12130.5},{""page_index"":2,""viewing_time"":8373.800000000745},{""page_index"":3,""viewing_time"":6106.300000000745}]","44611.5","","","","","","","","","","","","","","","","","","","","","","","",""
"pit-trial","14","234686","0.0-2.0-6.0-0.0","battery-v0.2","","""event"",""trial"",""time""
""fullscreenenter"",""1"",""3385""
","
","
","""event"",""trial"",""time""
""fullscreenenter"",""1"",""3385""
","
","","","-1","","","18","5960","2715","&#9854;","elianto","#FFFFF080","-1","-1","1","&#10004","[]","0","0","1","","","","","","","",""
"pit-trial","15","239553","0.0-2.0-6.1-0.1","battery-v0.2","","""event"",""trial"",""time""
""fullscreenenter"",""1"",""3385""
","
","
","""event"",""trial"",""time""
""fullscreenenter"",""1"",""3385""
","
","","","-1","","","18","5960","2715","&#9854;","elianto","#FFFFF080","-1","-1","1","&#10004","[]","0","0","1","","","","","","","",""
"pit-trial","16","244432","0.0-2.0-6.2-0.2","battery-v0.2","","""event"",""trial"",""time""
""fullscreenenter"",""1"",""3385""
","
","
","""event"",""trial"",""time""
""fullscreenenter"",""1"",""3385""
","
","","","-1","","","18","5960","2715","&#9854;","elianto","#FFFFF080","-1","-1","1","&#10004","[]","0","0","1","","","","","","","",""
"pit-trial","17","249310","0.0-2.0-6.3-0.3","battery-v0.2","","""event"",""trial"",""time""
""fullscreenenter"",""1"",""3385""
","
","
","""event"",""trial"",""time""
""fullscreenenter"",""1"",""3385""
","
","","","-1","","","18","5960","2715","&#9854;","elianto","#FFFFF080","-1","-1","1","&#10004","[]","0","0","1","","","","","","","",""
"pit-trial","18","254185","0.0-2.0-6.4-0.4","battery-v0.2","","""event"",""trial"",""time""
""fullscreenenter"",""1"",""3385""
","
","
","""event"",""trial"",""time""
""fullscreenenter"",""1"",""3385""
","
","","","-1","","","18","5960","2715","&#9854;","elianto","#FFFFF080","-1","-1","1","&#10004","[]","0","0","1","","","","","","","",""
"pit-instructions","19","442083","0.0-2.0-7.0","battery-v0.2","","""event"",""trial"",""time""
""fullscreenenter"",""1"",""3385""
","
","
","""event"",""trial"",""time""
""fullscreenenter"",""1"",""3385""
","
","","[{""page_index"":0,""viewing_time"":6793.199999999255},{""page_index"":1,""viewing_time"":9107.89999999851},{""page_index"":2,""viewing_time"":10912.300000000745},{""page_index"":3,""viewing_time"":8093.10000000149},{""page_index"":4,""viewing_time"":13056.699999999255},{""page_index"":5,""viewing_time"":9552.5},{""page_index"":6,""viewing_time"":6323.39999999851},{""page_index"":7,""viewing_time"":9067.900000002235},{""page_index"":8,""viewing_time"":11884.099999997765},{""page_index"":9,""viewing_time"":9543.900000002235},{""page_index"":10,""viewing_time"":8545.89999999851},{""page_index"":11,""viewing_time"":11286.10000000149},{""page_index"":12,""viewing_time"":17950},{""page_index"":13,""viewing_time"":9434},{""page_index"":14,""viewing_time"":7610.39999999851},{""page_index"":15,""viewing_time"":19367},{""page_index"":16,""viewing_time"":9664.400000002235},{""page_index"":17,""viewing_time"":9700.39999999851}]","187893.69999999925","","","","","","","","","","","","","","","","","","","","","","","",""
"pit-trial","20","445818","0.0-2.0-8.0-0.0","battery-v0.2","","""event"",""trial"",""time""
""fullscreenenter"",""1"",""3385""
","
","
","""event"",""trial"",""time""
""fullscreenenter"",""1"",""3385""
","
","","","861.9000000022352","","","18","5960","2715","&#9776;","elianto","#3366ff99"," "," ","1","+10","[1716.300000000745]","1","0","1","","","","","","","",""
"pit-trial","21","449308","0.0-2.0-8.0-1.0","battery-v0.2","","""event"",""trial"",""time""
""fullscreenenter"",""1"",""3385""
","
","
","""event"",""trial"",""time""
""fullscreenenter"",""1"",""3385""
","
","","","622.1999999992549","","","18","5960","2715","&#9776;","elianto","#3366ff99"," "," ","1","+10","[1473.5]","1","0","1","","","","","","","",""
"pit-trial","22","452833","0.0-2.0-8.0-2.0","battery-v0.2","","""event"",""trial"",""time""
""fullscreenenter"",""1"",""3385""
","
","
","""event"",""trial"",""time""
""fullscreenenter"",""1"",""3385""
","
","","","649.1999999992549","","","18","5960","2715","&#9776;","elianto","#3366ff99"," "," ","1","+10","[1509.3999999985099]","1","0","1","","","","","","","",""
"pit-trial","23","456527","0.0-2.0-8.0-3.0","battery-v0.2","","""event"",""trial"",""time""
""fullscreenenter"",""1"",""3385""
","
","
","""event"",""trial"",""time""
""fullscreenenter"",""1"",""3385""
","
","","","826","","","18","5960","2715","&#9776;","elianto","#3366ff99"," "," ","1","0","[1677.300000000745]","1","0","1","","","","","","","",""
"pit-trial","24","460010","0.0-2.0-8.0-4.0","battery-v0.2","","""event"",""trial"",""time""
""fullscreenenter"",""1"",""3385""
","
","
","""event"",""trial"",""time""
""fullscreenenter"",""1"",""3385""
","
","","","615.5","","","18","5960","2715","&#9776;","elianto","#3366ff99"," "," ","1","+10","[1468.800000000745]","1","0","1","","","","","","","",""
"pit-trial","25","463566","0.0-2.0-8.1-0.1","battery-v0.2","","""event"",""trial"",""time""
""fullscreenenter"",""1"",""3385""
","
","
","""event"",""trial"",""time""
""fullscreenenter"",""1"",""3385""
","
","","","692.0999999977648","","","18","5960","2715","&#9776;","elianto","#3366ff99"," "," ","1","+10","[1543.699999999255]","1","0","1","","","","","","","",""
"pit-trial","26","467169","0.0-2.0-8.1-1.1","battery-v0.2","","""event"",""trial"",""time""
""fullscreenenter"",""1"",""3385""
","
","
","""event"",""trial"",""time""
""fullscreenenter"",""1"",""3385""
","
","","","737","","","18","5960","2715","&#9776;","elianto","#3366ff99"," "," ","1","+10","[1594]","1","0","1","","","","","","","",""
"pit-trial","27","470540","0.0-2.0-8.1-2.1","battery-v0.2","","""event"",""trial"",""time""
""fullscreenenter"",""1"",""3385""
","
","
","""event"",""trial"",""time""
""fullscreenenter"",""1"",""3385""
","
","","","507.3999999985099","","","18","5960","2715","&#9776;","elianto","#3366ff99"," "," ","1","+10","[1364]","1","0","1","","","","","","","",""
"pit-trial","28","473820","0.0-2.0-8.1-3.1","battery-v0.2","","""event"",""trial"",""time""
""fullscreenenter"",""1"",""3385""
","
","
","""event"",""trial"",""time""
""fullscreenenter"",""1"",""3385""
","
","","","417.20000000298023","","","18","5960","2715","&#9776;","elianto","#3366ff99"," "," ","1","0","[1268.699999999255]","1","0","1","","","","","","","",""
"pit-trial","29","478301","0.0-2.0-8.1-4.1","battery-v0.2","","""event"",""trial"",""time""
""fullscreenenter"",""1"",""3385""
","
","
","""event"",""trial"",""time""
""fullscreenenter"",""1"",""3385""
","
","","","1617.5","","","18","5960","2715","&#9776;","elianto","#3366ff99"," "," ","1","+10","[2470.300000000745]","1","0","1","","","","","","","",""
"pit-trial","30","481875","0.0-2.0-8.2-0.2","battery-v0.2","","""event"",""trial"",""time""
""fullscreenenter"",""1"",""3385""
","
","
","""event"",""trial"",""time""
""fullscreenenter"",""1"",""3385""
","
","","","706.5","","","18","5960","2715","&#9776;","elianto","#3366ff99"," "," ","1","+10","[1558]","1","0","1","","","","","","","",""
"pit-trial","31","485380","0.0-2.0-8.2-1.2","battery-v0.2","","""event"",""trial"",""time""
""fullscreenenter"",""1"",""3385""
","
","
","""event"",""trial"",""time""
""fullscreenenter"",""1"",""3385""
","
","","","646.3999999985099","","","18","5960","2715","&#9776;","elianto","#3366ff99"," "," ","1","+10","[1501.800000000745]","1","0","1","","","","","","","",""
"pit-trial","32","488644","0.0-2.0-8.2-2.2","battery-v0.2","","""event"",""trial"",""time""
""fullscreenenter"",""1"",""3385""
","
","
","""event"",""trial"",""time""
""fullscreenenter"",""1"",""3385""
","
","","","403.19999999925494","","","18","5960","2715","&#9776;","elianto","#3366ff99"," "," ","1","+10","[1255.5999999977648]","1","0","1","","","","","","","",""
"pit-trial","33","491924","0.0-2.0-8.2-3.2","battery-v0.2","","""event"",""trial"",""time""
""fullscreenenter"",""1"",""3385""
","
","
","""event"",""trial"",""time""
""fullscreenenter"",""1"",""3385""
","
","","","415.3999999985099","","","18","5960","2715","&#9776;","elianto","#3366ff99"," "," ","1","0","[1270.800000000745]","1","0","1","","","","","","","",""
"pit-trial","34","495181","0.0-2.0-8.2-4.2","battery-v0.2","","""event"",""trial"",""time""
""fullscreenenter"",""1"",""3385""
","
","
","""event"",""trial"",""time""
""fullscreenenter"",""1"",""3385""
","
","","","394.69999999925494","","","18","5960","2715","&#9776;","elianto","#3366ff99"," "," ","1","+10","[1249.300000000745]","1","0","1","","","","","","","",""
"call-function","35","495185","0.0-2.0-9.0","battery-v0.2","","""event"",""trial"",""time""
""fullscreenenter"",""1"",""3385""
","
","
","""event"",""trial"",""time""
""fullscreenenter"",""1"",""3385""
","
","","","","","","","","","","","","","","","","","","","","","","","","","","",""
"pit-instructions","36","541902","0.0-2.0-10.0","battery-v0.2","","""event"",""trial"",""time""
""fullscreenenter"",""1"",""3385""
","
","
","""event"",""trial"",""time""
""fullscreenenter"",""1"",""3385""
","
","","[{""page_index"":0,""viewing_time"":9399.800000000745},{""page_index"":1,""viewing_time"":8632.099999997765},{""page_index"":2,""viewing_time"":9459.900000002235},{""page_index"":3,""viewing_time"":9664.699999999255},{""page_index"":4,""viewing_time"":9559.199999999255}]","46716","","","","","","","","","","","","","","","","","","","","","","","",""
"pit-trial","37","545737","0.0-2.0-11.0-0.0","battery-v0.2","","""event"",""trial"",""time""
""fullscreenenter"",""1"",""3385""
","
","
","""event"",""trial"",""time""
""fullscreenenter"",""1"",""3385""
","
","","","967.3999999985099","","","18","5960","2715","&#9761;","elianto","#3366ff99","-1"," ","0","0","[1821.3999999985099]","1","0","2","","","","","","","",""
"pit-trial","38","549238","0.0-2.0-11.0-1.0","battery-v0.2","","""event"",""trial"",""time""
""fullscreenenter"",""1"",""3385""
","
","
","""event"",""trial"",""time""
""fullscreenenter"",""1"",""3385""
","
","","","636.8000000007451","","","18","5960","2715","&#9761;","elianto","#3366ff99","-1"," ","0","0","[1487.8999999985099]","1","0","2","","","","","","","",""
"pit-trial","39","552783","0.0-2.0-11.0-2.0","battery-v0.2","","""event"",""trial"",""time""
""fullscreenenter"",""1"",""3385""
","
","
","""event"",""trial"",""time""
""fullscreenenter"",""1"",""3385""
","
","","","678.7000000029802","","","18","5960","2715","&#9761;","elianto","#3366ff99","-1"," ","0","0","[1529.2000000029802]","1","0","2","","","","","","","",""
"pit-trial","40","556198","0.0-2.0-11.0-3.0","battery-v0.2","","""event"",""trial"",""time""
""fullscreenenter"",""1"",""3385""
","
","
","""event"",""trial"",""time""
""fullscreenenter"",""1"",""3385""
","
","","","546","","","18","5960","2715","&#9761;","elianto","#3366ff99","-1"," ","0","+10","[1397.199999999255]","1","0","2","","","","","","","",""
"pit-trial","41","559622","0.0-2.0-11.0-4.0","battery-v0.2","","""event"",""trial"",""time""
""fullscreenenter"",""1"",""3385""
","
","
","""event"",""trial"",""time""
""fullscreenenter"",""1"",""3385""
","
","","","566.1999999992549","","","18","5960","2715","&#9761;","elianto","#3366ff99","-1"," ","0","0","[1417.800000000745]","1","0","2","","","","","","","",""
"pit-trial","42","562891","0.0-2.0-11.1-0.1","battery-v0.2","","""event"",""trial"",""time""
""fullscreenenter"",""1"",""3385""
","
","
","""event"",""trial"",""time""
""fullscreenenter"",""1"",""3385""
","
","","","388.9000000022352","","","18","5960","2715","&#9761;","elianto","#3366ff99","-1"," ","0","0","[1244.9000000022352]","1","0","2","","","","","","","",""
"pit-trial","43","566036","0.0-2.0-11.1-1.1","battery-v0.2","","""event"",""trial"",""time""
""fullscreenenter"",""1"",""3385""
","
","
","""event"",""trial"",""time""
""fullscreenenter"",""1"",""3385""
","
","","","284.80000000074506","","","18","5960","2715","&#9761;","elianto","#3366ff99","-1"," ","0","0","[1139]","1","0","2","","","","","","","",""
"pit-trial","44","568933","0.0-2.0-11.1-2.1","battery-v0.2","","""event"",""trial"",""time""
""fullscreenenter"",""1"",""3385""
","
","
","""event"",""trial"",""time""
""fullscreenenter"",""1"",""3385""
","
","","","29.100000001490116","","","18","5960","2715","&#9761;","elianto","#3366ff99","-1"," ","0","0","[886.6000000014901]","1","0","2","","","","","","","",""
"pit-trial","45","572172","0.0-2.0-11.1-3.1","battery-v0.2","","""event"",""trial"",""time""
""fullscreenenter"",""1"",""3385""
","
","
","""event"",""trial"",""time""
""fullscreenenter"",""1"",""3385""
","
","","","376.4000000022352","","","18","5960","2715","&#9761;","elianto","#3366ff99","-1"," ","0","+10","[1230.300000000745]","1","0","2","","","","","","","",""
"pit-trial","46","575445","0.0-2.0-11.1-4.1","battery-v0.2","","""event"",""trial"",""time""
""fullscreenenter"",""1"",""3385""
","
","
","""event"",""trial"",""time""
""fullscreenenter"",""1"",""3385""
","
","","","410","","","18","5960","2715","&#9761;","elianto","#3366ff99","-1"," ","0","0","[1263]","1","0","2","","","","","","","",""
"pit-trial","47","578765","0.0-2.0-11.2-0.2","battery-v0.2","","""event"",""trial"",""time""
""fullscreenenter"",""1"",""3385""
","
","
","""event"",""trial"",""time""
""fullscreenenter"",""1"",""3385""
","
","","","455.8999999985099","","","18","5960","2715","&#9761;","elianto","#3366ff99","-1"," ","0","0","[1307.300000000745]","1","0","2","","","","","","","",""
"pit-trial","48","581836","0.0-2.0-11.2-1.2","battery-v0.2","","""event"",""trial"",""time""
""fullscreenenter"",""1"",""3385""
","
","
","""event"",""trial"",""time""
""fullscreenenter"",""1"",""3385""
","
","","","207.89999999850988","","","18","5960","2715","&#9761;","elianto","#3366ff99","-1"," ","0","0","[1061.800000000745]","1","0","2","","","","","","","",""
"pit-trial","49","584836","0.0-2.0-11.2-2.2","battery-v0.2","","""event"",""trial"",""time""
""fullscreenenter"",""1"",""3385""
","
","
","""event"",""trial"",""time""
""fullscreenenter"",""1"",""3385""
","
","","","140.89999999850988","","","18","5960","2715","&#9761;","elianto","#3366ff99","-1"," ","0","0","[992.0999999977648]","1","0","2","","","","","","","",""
"pit-trial","50","588100","0.0-2.0-11.2-3.2","battery-v0.2","","""event"",""trial"",""time""
""fullscreenenter"",""1"",""3385""
","
","
","""event"",""trial"",""time""
""fullscreenenter"",""1"",""3385""
","
","","","405.4000000022352","","","18","5960","2715","&#9761;","elianto","#3366ff99","-1"," ","0","+10","[1255.8999999985099]","1","0","2","","","","","","","",""
"pit-trial","51","591228","0.0-2.0-11.2-4.2","battery-v0.2","","""event"",""trial"",""time""
""fullscreenenter"",""1"",""3385""
","
","
","""event"",""trial"",""time""
""fullscreenenter"",""1"",""3385""
","
","","","267.8999999985099","","","18","5960","2715","&#9761;","elianto","#3366ff99","-1"," ","0","0","[1118.8999999985099]","1","0","2","","","","","","","",""
"pit-trial","52","594524","0.0-2.0-11.3-0.3","battery-v0.2","","""event"",""trial"",""time""
""fullscreenenter"",""1"",""3385""
","
","
","""event"",""trial"",""time""
""fullscreenenter"",""1"",""3385""
","
","","","438","","","18","5960","2715","&#9761;","elianto","#3366ff99","-1"," ","0","0","[1291.9000000022352]","1","0","2","","","","","","","",""
"pit-trial","53","597772","0.0-2.0-11.3-1.3","battery-v0.2","","""event"",""trial"",""time""
""fullscreenenter"",""1"",""3385""
","
","
","""event"",""trial"",""time""
""fullscreenenter"",""1"",""3385""
","
","","","386.5","","","18","5960","2715","&#9761;","elianto","#3366ff99","-1"," ","0","0","[1241]","1","0","2","","","","","","","",""
"pit-trial","54","601068","0.0-2.0-11.3-2.3","battery-v0.2","","""event"",""trial"",""time""
""fullscreenenter"",""1"",""3385""
","
","
","""event"",""trial"",""time""
""fullscreenenter"",""1"",""3385""
","
","","","434.69999999925494","","","18","5960","2715","&#9761;","elianto","#3366ff99","-1"," ","0","0","[1287.800000000745]","1","0","2","","","","","","","",""
"pit-trial","55","604284","0.0-2.0-11.3-3.3","battery-v0.2","","""event"",""trial"",""time""
""fullscreenenter"",""1"",""3385""
","
","
","""event"",""trial"",""time""
""fullscreenenter"",""1"",""3385""
","
","","","358.20000000298023","","","18","5960","2715","&#9761;","elianto","#3366ff99","-1"," ","0","+10","[1213.2000000029802]","1","0","2","","","","","","","",""
"pit-trial","56","607708","0.0-2.0-11.3-4.3","battery-v0.2","","""event"",""trial"",""time""
""fullscreenenter"",""1"",""3385""
","
","
","""event"",""trial"",""time""
""fullscreenenter"",""1"",""3385""
","
","","","560.6000000014901","","","18","5960","2715","&#9761;","elianto","#3366ff99","-1"," ","0","0","[1413.800000000745]","1","0","2","","","","","","","",""
"call-function","57","607709","0.0-2.0-12.0","battery-v0.2","","""event"",""trial"",""time""
""fullscreenenter"",""1"",""3385""
","
","
","""event"",""trial"",""time""
""fullscreenenter"",""1"",""3385""
","
","","","","","","","","","","","","","","","","","","","","","","","","","","",""
"pit-instructions","58","649156","0.0-2.0-13.0","battery-v0.2","","""event"",""trial"",""time""
""fullscreenenter"",""1"",""3385""
","
","
","""event"",""trial"",""time""
""fullscreenenter"",""1"",""3385""
","
","","[{""page_index"":0,""viewing_time"":11646.39999999851},{""page_index"":1,""viewing_time"":7913.800000000745},{""page_index"":2,""viewing_time"":5615.800000000745},{""page_index"":3,""viewing_time"":10920.099999997765},{""page_index"":4,""viewing_time"":5350}]","41446.599999997765","","","","","","","","","","","","","","","","","","","","","","","",""
"pit-trial","59","654033","0.0-2.0-14.0-0.0","battery-v0.2","","""event"",""trial"",""time""
""fullscreenenter"",""1"",""3385""
","
","
","""event"",""trial"",""time""
""fullscreenenter"",""1"",""3385""
","
","","","-1","","","18","5960","2715","&#9826;","elianto","#f73b6a7A","-1","-1","1","0","[]","0","0","3","","","","","","","",""
"pit-trial","60","658911","0.0-2.0-14.0-1.0","battery-v0.2","","""event"",""trial"",""time""
""fullscreenenter"",""1"",""3385""
","
","
","""event"",""trial"",""time""
""fullscreenenter"",""1"",""3385""
","
","","","-1","","","18","5960","2715","&#9826;","elianto","#f73b6a7A","-1","-1","1","0","[]","0","0","3","","","","","","","",""
"pit-trial","61","663773","0.0-2.0-14.0-2.0","battery-v0.2","","""event"",""trial"",""time""
""fullscreenenter"",""1"",""3385""
","
","
","""event"",""trial"",""time""
""fullscreenenter"",""1"",""3385""
","
","","","-1","","","18","5960","2715","&#9826;","elianto","#f73b6a7A","-1","-1","1","0","[]","0","0","3","","","","","","","",""
"pit-trial","62","668651","0.0-2.0-14.0-3.0","battery-v0.2","","""event"",""trial"",""time""
""fullscreenenter"",""1"",""3385""
","
","
","""event"",""trial"",""time""
""fullscreenenter"",""1"",""3385""
","
","","","-1","","","18","5960","2715","&#9826;","elianto","#f73b6a7A","-1","-1","1","-10","[]","0","0","3","","","","","","","",""
"pit-trial","63","673525","0.0-2.0-14.0-4.0","battery-v0.2","","""event"",""trial"",""time""
""fullscreenenter"",""1"",""3385""
","
","
","""event"",""trial"",""time""
""fullscreenenter"",""1"",""3385""
","
","","","-1","","","18","5960","2715","&#9826;","elianto","#f73b6a7A","-1","-1","1","0","[]","0","0","3","","","","","","","",""
"pit-trial","64","678385","0.0-2.0-14.1-0.1","battery-v0.2","","""event"",""trial"",""time""
""fullscreenenter"",""1"",""3385""
","
","
","""event"",""trial"",""time""
""fullscreenenter"",""1"",""3385""
","
","","","-1","","","18","5960","2715","&#9826;","elianto","#f73b6a7A","-1","-1","1","0","[]","0","0","3","","","","","","","",""
"pit-trial","65","683252","0.0-2.0-14.1-1.1","battery-v0.2","","""event"",""trial"",""time""
""fullscreenenter"",""1"",""3385""
","
","
","""event"",""trial"",""time""
""fullscreenenter"",""1"",""3385""
","
","","","-1","","","18","5960","2715","&#9826;","elianto","#f73b6a7A","-1","-1","1","0","[]","0","0","3","","","","","","","",""
"pit-trial","66","688117","0.0-2.0-14.1-2.1","battery-v0.2","","""event"",""trial"",""time""
""fullscreenenter"",""1"",""3385""
","
","
","""event"",""trial"",""time""
""fullscreenenter"",""1"",""3385""
","
","","","-1","","","18","5960","2715","&#9826;","elianto","#f73b6a7A","-1","-1","1","0","[]","0","0","3","","","","","","","",""
"pit-trial","67","692980","0.0-2.0-14.1-3.1","battery-v0.2","","""event"",""trial"",""time""
""fullscreenenter"",""1"",""3385""
","
","
","""event"",""trial"",""time""
""fullscreenenter"",""1"",""3385""
","
","","","-1","","","18","5960","2715","&#9826;","elianto","#f73b6a7A","-1","-1","1","-10","[]","0","0","3","","","","","","","",""
"pit-trial","68","697844","0.0-2.0-14.1-4.1","battery-v0.2","","""event"",""trial"",""time""
""fullscreenenter"",""1"",""3385""
","
","
","""event"",""trial"",""time""
""fullscreenenter"",""1"",""3385""
","
","","","-1","","","18","5960","2715","&#9826;","elianto","#f73b6a7A","-1","-1","1","0","[]","0","0","3","","","","","","","",""
"pit-trial","69","702708","0.0-2.0-14.2-0.2","battery-v0.2","","""event"",""trial"",""time""
""fullscreenenter"",""1"",""3385""
","
","
","""event"",""trial"",""time""
""fullscreenenter"",""1"",""3385""
","
","","","-1","","","18","5960","2715","&#9826;","elianto","#f73b6a7A","-1","-1","1","0","[]","0","0","3","","","","","","","",""
"pit-trial","70","707573","0.0-2.0-14.2-1.2","battery-v0.2","","""event"",""trial"",""time""
""fullscreenenter"",""1"",""3385""
","
","
","""event"",""trial"",""time""
""fullscreenenter"",""1"",""3385""
","
","","","-1","","","18","5960","2715","&#9826;","elianto","#f73b6a7A","-1","-1","1","0","[]","0","0","3","","","","","","","",""
"pit-trial","71","712446","0.0-2.0-14.2-2.2","battery-v0.2","","""event"",""trial"",""time""
""fullscreenenter"",""1"",""3385""
","
","
","""event"",""trial"",""time""
""fullscreenenter"",""1"",""3385""
","
","","","-1","","","18","5960","2715","&#9826;","elianto","#f73b6a7A","-1","-1","1","0","[]","0","0","3","","","","","","","",""
"pit-trial","72","717309","0.0-2.0-14.2-3.2","battery-v0.2","","""event"",""trial"",""time""
""fullscreenenter"",""1"",""3385""
","
","
","""event"",""trial"",""time""
""fullscreenenter"",""1"",""3385""
","
","","","-1","","","18","5960","2715","&#9826;","elianto","#f73b6a7A","-1","-1","1","-10","[]","0","0","3","","","","","","","",""
"pit-trial","73","722172","0.0-2.0-14.2-4.2","battery-v0.2","","""event"",""trial"",""time""
""fullscreenenter"",""1"",""3385""
","
","
","""event"",""trial"",""time""
""fullscreenenter"",""1"",""3385""
","
","","","-1","","","18","5960","2715","&#9826;","elianto","#f73b6a7A","-1","-1","1","0","[]","0","0","3","","","","","","","",""
"pit-trial","74","727037","0.0-2.0-14.3-0.3","battery-v0.2","","""event"",""trial"",""time""
""fullscreenenter"",""1"",""3385""
","
","
","""event"",""trial"",""time""
""fullscreenenter"",""1"",""3385""
","
","","","-1","","","18","5960","2715","&#9826;","elianto","#f73b6a7A","-1","-1","1","0","[]","0","0","3","","","","","","","",""
"pit-trial","75","731900","0.0-2.0-14.3-1.3","battery-v0.2","","""event"",""trial"",""time""
""fullscreenenter"",""1"",""3385""
","
","
","""event"",""trial"",""time""
""fullscreenenter"",""1"",""3385""
","
","","","-1","","","18","5960","2715","&#9826;","elianto","#f73b6a7A","-1","-1","1","0","[]","0","0","3","","","","","","","",""
"pit-trial","76","736765","0.0-2.0-14.3-2.3","battery-v0.2","","""event"",""trial"",""time""
""fullscreenenter"",""1"",""3385""
","
","
","""event"",""trial"",""time""
""fullscreenenter"",""1"",""3385""
","
","","","-1","","","18","5960","2715","&#9826;","elianto","#f73b6a7A","-1","-1","1","0","[]","0","0","3","","","","","","","",""
"pit-trial","77","741630","0.0-2.0-14.3-3.3","battery-v0.2","","""event"",""trial"",""time""
""fullscreenenter"",""1"",""3385""
","
","
","""event"",""trial"",""time""
""fullscreenenter"",""1"",""3385""
","
","","","-1","","","18","5960","2715","&#9826;","elianto","#f73b6a7A","-1","-1","1","-10","[]","0","0","3","","","","","","","",""
"pit-trial","78","746493","0.0-2.0-14.3-4.3","battery-v0.2","","""event"",""trial"",""time""
""fullscreenenter"",""1"",""3385""
","
","
","""event"",""trial"",""time""
""fullscreenenter"",""1"",""3385""
","
","","","-1","","","18","5960","2715","&#9826;","elianto","#f73b6a7A","-1","-1","1","0","[]","0","0","3","","","","","","","",""
"call-function","79","746497","0.0-2.0-15.0","battery-v0.2","","""event"",""trial"",""time""
""fullscreenenter"",""1"",""3385""
","
","
","""event"",""trial"",""time""
""fullscreenenter"",""1"",""3385""
","
","","","","","","","","","","","","","","","","","","","","","","","","","","",""
"pit-instructions","80","776643","0.0-2.0-16.0","battery-v0.2","","""event"",""trial"",""time""
""fullscreenenter"",""1"",""3385""
","
","
","""event"",""trial"",""time""
""fullscreenenter"",""1"",""3385""
","
","","[{""page_index"":0,""viewing_time"":8264.800000000745},{""page_index"":1,""viewing_time"":10437.60000000149},{""page_index"":2,""viewing_time"":5387.89999999851},{""page_index"":3,""viewing_time"":6054.39999999851}]","30145.199999999255","","","","","","","","","","","","","","","","","","","","","","","",""
"pit-trial","81","781522","0.0-2.0-17.0-0.0","battery-v0.2","","""event"",""trial"",""time""
""fullscreenenter"",""1"",""3385""
","
","
","""event"",""trial"",""time""
""fullscreenenter"",""1"",""3385""
","
","","","-1","","","18","5960","2715","&#9789;","elianto","#f73b6a7A"," ","-1","0","-10","[]","0","0","4","","","","","","","",""
"pit-trial","82","786393","0.0-2.0-17.0-1.0","battery-v0.2","","""event"",""trial"",""time""
""fullscreenenter"",""1"",""3385""
","
","
","""event"",""trial"",""time""
""fullscreenenter"",""1"",""3385""
","
","","","-1","","","18","5960","2715","&#9789;","elianto","#f73b6a7A"," ","-1","0","-10","[]","0","0","4","","","","","","","",""
"pit-trial","83","791271","0.0-2.0-17.0-2.0","battery-v0.2","","""event"",""trial"",""time""
""fullscreenenter"",""1"",""3385""
","
","
","""event"",""trial"",""time""
""fullscreenenter"",""1"",""3385""
","
","","","-1","","","18","5960","2715","&#9789;","elianto","#f73b6a7A"," ","-1","0","-10","[]","0","0","4","","","","","","","",""
"pit-trial","84","795243","0.0-2.0-17.0-3.0","battery-v0.2","","""event"",""trial"",""time""
""fullscreenenter"",""1"",""3385""
","
","
","""event"",""trial"",""time""
""fullscreenenter"",""1"",""3385""
","
","","","1106","","","18","5960","2715","&#9789;","elianto","#f73b6a7A"," "," ","1","-10","[1957.800000000745]","1","0","4","","","","","","","",""
"pit-trial","85","798677","0.0-2.0-17.0-4.0","battery-v0.2","","""event"",""trial"",""time""
""fullscreenenter"",""1"",""3385""
","
","
","""event"",""trial"",""time""
""fullscreenenter"",""1"",""3385""
","
","","","564.6000000014901","","","18","5960","2715","&#9789;","elianto","#f73b6a7A"," "," ","1","0","[1419.9000000022352]","1","0","4","","","","","","","",""
"pit-trial","86","803558","0.0-2.0-17.1-0.1","battery-v0.2","","""event"",""trial"",""time""
""fullscreenenter"",""1"",""3385""
","
","
","""event"",""trial"",""time""
""fullscreenenter"",""1"",""3385""
","
","","","-1","","","18","5960","2715","&#9789;","elianto","#f73b6a7A"," ","-1","0","-10","[]","0","0","4","","","","","","","",""
"pit-trial","87","808420","0.0-2.0-17.1-1.1","battery-v0.2","","""event"",""trial"",""time""
""fullscreenenter"",""1"",""3385""
","
","
","""event"",""trial"",""time""
""fullscreenenter"",""1"",""3385""
","
","","","-1","","","18","5960","2715","&#9789;","elianto","#f73b6a7A"," ","-1","0","-10","[]","0","0","4","","","","","","","",""
"pit-trial","88","811989","0.0-2.0-17.1-2.1","battery-v0.2","","""event"",""trial"",""time""
""fullscreenenter"",""1"",""3385""
","
","
","""event"",""trial"",""time""
""fullscreenenter"",""1"",""3385""
","
","","","710.6000000014901","","","18","5960","2715","&#9789;","elianto","#f73b6a7A"," "," ","1","0","[1564.8999999985099]","1","0","4","","","","","","","",""
"pit-trial","89","815437","0.0-2.0-17.1-3.1","battery-v0.2","","""event"",""trial"",""time""
""fullscreenenter"",""1"",""3385""
","
","
","""event"",""trial"",""time""
""fullscreenenter"",""1"",""3385""
","
","","","588.5","","","18","5960","2715","&#9789;","elianto","#f73b6a7A"," "," ","1","-10","[1439.9000000022352]","1","0","4","","","","","","","",""
"pit-trial","90","818828","0.0-2.0-17.1-4.1","battery-v0.2","","""event"",""trial"",""time""
""fullscreenenter"",""1"",""3385""
","
","
","""event"",""trial"",""time""
""fullscreenenter"",""1"",""3385""
","
","","","529.5","","","18","5960","2715","&#9789;","elianto","#f73b6a7A"," "," ","1","0","[1381]","1","0","4","","","","","","","",""
"pit-trial","91","822805","0.0-2.0-17.2-0.2","battery-v0.2","","""event"",""trial"",""time""
""fullscreenenter"",""1"",""3385""
","
","
","""event"",""trial"",""time""
""fullscreenenter"",""1"",""3385""
","
","","","1112.1000000014901","","","18","5960","2715","&#9789;","elianto","#f73b6a7A"," "," ","1","0","[1966.699999999255]","1","0","4","","","","","","","",""
"pit-trial","92","826261","0.0-2.0-17.2-1.2","battery-v0.2","","""event"",""trial"",""time""
""fullscreenenter"",""1"",""3385""
","
","
","""event"",""trial"",""time""
""fullscreenenter"",""1"",""3385""
","
","","","596.7000000029802","","","18","5960","2715","&#9789;","elianto","#f73b6a7A"," "," ","1","0","[1447.300000000745]","1","0","4","","","","","","","",""
"pit-trial","93","829708","0.0-2.0-17.2-2.2","battery-v0.2","","""event"",""trial"",""time""
""fullscreenenter"",""1"",""3385""
","
","
","""event"",""trial"",""time""
""fullscreenenter"",""1"",""3385""
","
","","","589.6999999992549","","","18","5960","2715","&#9789;","elianto","#f73b6a7A"," "," ","1","0","[1443.5]","1","0","4","","","","","","","",""
"pit-trial","94","833228","0.0-2.0-17.2-3.2","battery-v0.2","","""event"",""trial"",""time""
""fullscreenenter"",""1"",""3385""
","
","
","""event"",""trial"",""time""
""fullscreenenter"",""1"",""3385""
","
","","","661.4000000022352","","","18","5960","2715","&#9789;","elianto","#f73b6a7A"," "," ","1","-10","[1515.800000000745]","1","0","4","","","","","","","",""
"pit-trial","95","836541","0.0-2.0-17.2-4.2","battery-v0.2","","""event"",""trial"",""time""
""fullscreenenter"",""1"",""3385""
","
","
","""event"",""trial"",""time""
""fullscreenenter"",""1"",""3385""
","
","","","455.30000000074506","","","18","5960","2715","&#9789;","elianto","#f73b6a7A"," "," ","1","0","[1308.8999999985099]","1","0","4","","","","","","","",""
"pit-trial","96","840036","0.0-2.0-17.3-0.3","battery-v0.2","","""event"",""trial"",""time""
""fullscreenenter"",""1"",""3385""
","
","
","""event"",""trial"",""time""
""fullscreenenter"",""1"",""3385""
","
","","","630.3000000007451","","","18","5960","2715","&#9789;","elianto","#f73b6a7A"," "," ","1","0","[1484.5]","1","0","4","","","","","","","",""
"pit-trial","97","843477","0.0-2.0-17.3-1.3","battery-v0.2","","""event"",""trial"",""time""
""fullscreenenter"",""1"",""3385""
","
","
","""event"",""trial"",""time""
""fullscreenenter"",""1"",""3385""
","
","","","577","","","18","5960","2715","&#9789;","elianto","#f73b6a7A"," "," ","1","0","[1435.300000000745]","1","0","4","","","","","","","",""
"pit-trial","98","847197","0.0-2.0-17.3-2.3","battery-v0.2","","""event"",""trial"",""time""
""fullscreenenter"",""1"",""3385""
","
","
","""event"",""trial"",""time""
""fullscreenenter"",""1"",""3385""
","
","","","866.3999999985099","","","18","5960","2715","&#9789;","elianto","#f73b6a7A"," "," ","1","0","[1716.699999999255]","1","0","4","","","","","","","",""
"pit-trial","99","851301","0.0-2.0-17.3-3.3","battery-v0.2","","""event"",""trial"",""time""
""fullscreenenter"",""1"",""3385""
","
","
","""event"",""trial"",""time""
""fullscreenenter"",""1"",""3385""
","
","","","1245.9000000022352","","","18","5960","2715","&#9789;","elianto","#f73b6a7A"," "," ","1","-10","[2099.699999999255]","1","0","4","","","","","","","",""
"pit-trial","100","854741","0.0-2.0-17.3-4.3","battery-v0.2","","""event"",""trial"",""time""
""fullscreenenter"",""1"",""3385""
","
","
","""event"",""trial"",""time""
""fullscreenenter"",""1"",""3385""
","
","","","582.0999999977648","","","18","5960","2715","&#9789;","elianto","#f73b6a7A"," "," ","1","0","[1435]","1","0","4","","","","","","","",""
"call-function","101","854743","0.0-2.0-18.0","battery-v0.2","","""event"",""trial"",""time""
""fullscreenenter"",""1"",""3385""
","
","
","""event"",""trial"",""time""
""fullscreenenter"",""1"",""3385""
","
","","","","","","","","","","","","","","","","","","","","","","","","","","",""
"pit-instructions","102","933984","0.0-2.0-19.0","battery-v0.2","","""event"",""trial"",""time""
""fullscreenenter"",""1"",""3385""
","
","
","""event"",""trial"",""time""
""fullscreenenter"",""1"",""3385""
","
","","[{""page_index"":0,""viewing_time"":7040.5},{""page_index"":1,""viewing_time"":8275.199999999255},{""page_index"":2,""viewing_time"":14342.89999999851},{""page_index"":3,""viewing_time"":8360},{""page_index"":4,""viewing_time"":12150.400000002235},{""page_index"":5,""viewing_time"":11182.300000000745},{""page_index"":6,""viewing_time"":8063.89999999851},{""page_index"":7,""viewing_time"":5954.89999999851},{""page_index"":8,""viewing_time"":3868.400000002235}]","79239.59999999776","","","","","","","","","","","","","","","","","","","","","","","",""
"pit-comprehension","103","938580","0.0-2.0-20.0-0.0","battery-v0.2","","""event"",""trial"",""time""
""fullscreenenter"",""1"",""3385""
","
","
","""event"",""trial"",""time""
""fullscreenenter"",""1"",""3385""
","
","","","4589.300000000745","[""SPACE""]","0","18","5960","2715","","","","","","","","","","","","","","","","","","",""
"pit-instructions","104","943361","0.0-2.0-20.0-1.0","battery-v0.2","","""event"",""trial"",""time""
""fullscreenenter"",""1"",""3385""
","
","
","""event"",""trial"",""time""
""fullscreenenter"",""1"",""3385""
","
","","[{""page_index"":0,""viewing_time"":4733.5}]","4733.699999999255","","","","","","","","","","","","","","","","","","","","","","","",""
"pit-comprehension","105","949604","0.0-2.0-21.0-0.0","battery-v0.2","","""event"",""trial"",""time""
""fullscreenenter"",""1"",""3385""
","
","
","""event"",""trial"",""time""
""fullscreenenter"",""1"",""3385""
","
","","","6241.199999999255","[""10""]","0","18","5960","2715","","","","","","","","","","","","","","","","","","",""
"pit-instructions","106","951339","0.0-2.0-21.0-1.0","battery-v0.2","","""event"",""trial"",""time""
""fullscreenenter"",""1"",""3385""
","
","
","""event"",""trial"",""time""
""fullscreenenter"",""1"",""3385""
","
","","[{""page_index"":0,""viewing_time"":1695.5999999977648}]","1695.800000000745","","","","","","","","","","","","","","","","","","","","","","","",""
"pit-comprehension","107","961154","0.0-2.0-22.0-0.0","battery-v0.2","","""event"",""trial"",""time""
""fullscreenenter"",""1"",""3385""
","
","
","""event"",""trial"",""time""
""fullscreenenter"",""1"",""3385""
","
","","","9811.599999997765","[""0""]","0","18","5960","2715","","","","","","","","","","","","","","","","","","",""
"pit-instructions","108","963319","0.0-2.0-22.0-1.0","battery-v0.2","","""event"",""trial"",""time""
""fullscreenenter"",""1"",""3385""
","
","
","""event"",""trial"",""time""
""fullscreenenter"",""1"",""3385""
","
","","[{""page_index"":0,""viewing_time"":2103.5}]","2104.10000000149","","","","","","","","","","","","","","","","","","","","","","","",""
"pit-comprehension","109","971837","0.0-2.0-23.0-0.0","battery-v0.2","","""event"",""trial"",""time""
""fullscreenenter"",""1"",""3385""
","
","
","""event"",""trial"",""time""
""fullscreenenter"",""1"",""3385""
","
","","","8514.599999997765","[""True""]","0","18","5960","2715","","","","","","","","","","","","","","","","","","",""
"pit-instructions","110","976661","0.0-2.0-23.0-1.0","battery-v0.2","","""event"",""trial"",""time""
""fullscreenenter"",""1"",""3385""
","
","
","""event"",""trial"",""time""
""fullscreenenter"",""1"",""3385""
","
","","[{""page_index"":0,""viewing_time"":4786.5}]","4786.699999999255","","","","","","","","","","","","","","","","","","","","","","","",""
"pit-comprehension","111","984166","0.0-2.0-24.0-0.0","battery-v0.2","","""event"",""trial"",""time""
""fullscreenenter"",""1"",""3385""
","
","
","""event"",""trial"",""time""
""fullscreenenter"",""1"",""3385""
","
","","","7502.099999997765","[""True""]","0","18","5960","2715","","","","","","","","","","","","","","","","","","",""
"pit-instructions","112","987704","0.0-2.0-24.0-1.0","battery-v0.2","","""event"",""trial"",""time""
""fullscreenenter"",""1"",""3385""
","
","
","""event"",""trial"",""time""
""fullscreenenter"",""1"",""3385""
","
","","[{""page_index"":0,""viewing_time"":3501.5}]","3501.699999999255","","","","","","","","","","","","","","","","","","","","","","","",""
"pit-comprehension","113","994368","0.0-2.0-25.0-0.0","battery-v0.2","","""event"",""trial"",""time""
""fullscreenenter"",""1"",""3385""
","
","
","""event"",""trial"",""time""
""fullscreenenter"",""1"",""3385""
","
","","","6660.39999999851","[""True""]","0","18","5960","2715","","","","","","","","","","","","","","","","","","",""
"pit-instructions","114","996084","0.0-2.0-25.0-1.0","battery-v0.2","","""event"",""trial"",""time""
""fullscreenenter"",""1"",""3385""
","
","
","""event"",""trial"",""time""
""fullscreenenter"",""1"",""3385""
","
","","[{""page_index"":0,""viewing_time"":1657.6000000014901}]","1658.300000000745","","","","","","","","","","","","","","","","","","","","","","","",""
"pit-comprehension","115","1000949","0.0-2.0-26.0-0.0","battery-v0.2","","""event"",""trial"",""time""
""fullscreenenter"",""1"",""3385""
","
","
","""event"",""trial"",""time""
""fullscreenenter"",""1"",""3385""
","
","","","4859","[""False""]","0","18","5960","2715","","","","","","","","","","","","","","","","","","",""
"pit-instructions","116","1002786","0.0-2.0-26.0-1.0","battery-v0.2","","""event"",""trial"",""time""
""fullscreenenter"",""1"",""3385""
","
","
","""event"",""trial"",""time""
""fullscreenenter"",""1"",""3385""
","
","","[{""page_index"":0,""viewing_time"":1790.3999999985099}]","1790.6000000014901","","","","","","","","","","","","","","","","","","","","","","","",""
"pit-instructions","117","1023727","0.0-3.0","battery-v0.2","","""event"",""trial"",""time""
""fullscreenenter"",""1"",""3385""
","
","
","""event"",""trial"",""time""
""fullscreenenter"",""1"",""3385""
","
","","[{""page_index"":0,""viewing_time"":7973.70000000298},{""page_index"":1,""viewing_time"":5338.39999999851},{""page_index"":2,""viewing_time"":7627.60000000149}]","20940.20000000298","","","","","","","","","","","","","","","","","","","","","","","",""
"pit-trial","118","1028599","0.0-4.0","battery-v0.2","","""event"",""trial"",""time""
""fullscreenenter"",""1"",""3385""
","
","
","""event"",""trial"",""time""
""fullscreenenter"",""1"",""3385""
","
","","","-1","","","18","5960","2715","&#9728;","elianto","#f73b6a7A","-1","-1","1","0","[]","0","1","","","5960","1","0","4","lose","no-go","0"
"pit-trial","119","1032208","0.0-5.0","battery-v0.2","","""event"",""trial"",""time""
""fullscreenenter"",""1"",""3385""
","
","
","""event"",""trial"",""time""
""fullscreenenter"",""1"",""3385""
","
","","","747.4000000022352","","","18","5960","2715","&#9730;","elianto","#3366ff99"," "," ","1","+10","[1598.6000000014901]","1","1","","","5960","2","1","1","win","go","0"
"pit-trial","120","1036366","0.0-6.0","battery-v0.2","","""event"",""trial"",""time""
""fullscreenenter"",""1"",""3385""
","
","
","""event"",""trial"",""time""
""fullscreenenter"",""1"",""3385""
","
","","","1278.7999999970198","","","18","5960","2715","&#9752;","elianto","#f73b6a7A"," "," ","1","0","[2138.199999999255]","1","1","","","5960","3","3","3","lose","go","0"
"pit-trial","121","1040382","0.0-7.0","battery-v0.2","","""event"",""trial"",""time""
""fullscreenenter"",""1"",""3385""
","
","
","""event"",""trial"",""time""
""fullscreenenter"",""1"",""3385""
","
","","","1156.6000000014901","","","18","5960","2715","&#9733;","elianto","#3366ff99","-1"," ","0","0","[2008.5]","1","1","","","5960","4","2","2","win","no-go","0"
"pit-trial","122","1043996","0.0-8.0","battery-v0.2","","""event"",""trial"",""time""
""fullscreenenter"",""1"",""3385""
","
","
","""event"",""trial"",""time""
""fullscreenenter"",""1"",""3385""
","
","","","757.6000000014901","","","18","5960","2715","&#9730;","elianto","#3366ff99"," "," ","1","+10","[1607.9000000022352]","1","1","","","5960","5","1","1","win","go","0"
"pit-trial","123","1048881","0.0-9.0","battery-v0.2","","""event"",""trial"",""time""
""fullscreenenter"",""1"",""3385""
","
","
","""event"",""trial"",""time""
""fullscreenenter"",""1"",""3385""
","
","","","-1","","","18","5960","2715","&#9728;","elianto","#f73b6a7A","-1","-1","1","0","[]","0","1","","","5960","6","0","4","lose","no-go","0"
"pit-trial","124","1052557","0.0-10.0","battery-v0.2","","""event"",""trial"",""time""
""fullscreenenter"",""1"",""3385""
","
","
","""event"",""trial"",""time""
""fullscreenenter"",""1"",""3385""
","
","","","806","","","18","5960","2715","&#9752;","elianto","#f73b6a7A"," "," ","1","0","[1665.699999999255]","1","1","","","5960","7","3","3","lose","go","0"
"pit-trial","125","1057420","0.0-11.0","battery-v0.2","","""event"",""trial"",""time""
""fullscreenenter"",""1"",""3385""
","
","
","""event"",""trial"",""time""
""fullscreenenter"",""1"",""3385""
","
","","","-1","","","18","5960","2715","&#9733;","elianto","#3366ff99","-1","-1","1","+10","[]","0","1","","","5960","8","2","2","win","no-go","0"
"pit-trial","126","1062284","0.0-12.0","battery-v0.2","","""event"",""trial"",""time""
""fullscreenenter"",""1"",""3385""
","
","
","""event"",""trial"",""time""
""fullscreenenter"",""1"",""3385""
","
","","","-1","","","18","5960","2715","&#9728;","elianto","#f73b6a7A","-1","-1","1","0","[]","0","1","","","5960","9","0","4","lose","no-go","0"
"pit-trial","127","1066317","0.0-13.0","battery-v0.2","","""event"",""trial"",""time""
""fullscreenenter"",""1"",""3385""
","
","
","""event"",""trial"",""time""
""fullscreenenter"",""1"",""3385""
","
","","","1174.6000000014901","","","18","5960","2715","&#9730;","elianto","#3366ff99"," "," ","1","+10","[2025.4000000022352]","1","1","","","5960","10","1","1","win","go","0"
"pit-trial","128","1071164","0.0-14.0","battery-v0.2","","""event"",""trial"",""time""
""fullscreenenter"",""1"",""3385""
","
","
","""event"",""trial"",""time""
""fullscreenenter"",""1"",""3385""
","
","","","1990.7999999970198","","","18","5960","2715","&#9752;","elianto","#f73b6a7A"," "," ","1","0","[2842.800000000745]","1","1","","","5960","11","3","3","lose","go","0"
"pit-trial","129","1076037","0.0-15.0","battery-v0.2","","""event"",""trial"",""time""
""fullscreenenter"",""1"",""3385""
","
","
","""event"",""trial"",""time""
""fullscreenenter"",""1"",""3385""
","
","","","-1","","","18","5960","2715","&#9733;","elianto","#3366ff99","-1","-1","1","+10","[]","0","1","","","5960","12","2","2","win","no-go","0"
"pit-trial","130","1080900","0.0-16.0","battery-v0.2","","""event"",""trial"",""time""
""fullscreenenter"",""1"",""3385""
","
","
","""event"",""trial"",""time""
""fullscreenenter"",""1"",""3385""
","
","","","-1","","","18","5960","2715","&#9728;","elianto","#f73b6a7A","-1","-1","1","0","[]","0","1","","","5960","13","0","4","lose","no-go","0"
"pit-trial","131","1085014","0.0-17.0","battery-v0.2","","""event"",""trial"",""time""
""fullscreenenter"",""1"",""3385""
","
","
","""event"",""trial"",""time""
""fullscreenenter"",""1"",""3385""
","
","","","1247.300000000745","","","18","5960","2715","&#9752;","elianto","#f73b6a7A"," "," ","1","0","[2101.60000000149]","1","1","","","5960","14","3","3","lose","go","0"
"pit-trial","132","1088580","0.0-18.0","battery-v0.2","","""event"",""trial"",""time""
""fullscreenenter"",""1"",""3385""
","
","
","""event"",""trial"",""time""
""fullscreenenter"",""1"",""3385""
","
","","","708.4000000022352","","","18","5960","2715","&#9730;","elianto","#3366ff99"," "," ","1","+10","[1560.199999999255]","1","1","","","5960","15","1","1","win","go","0"
"pit-trial","133","1093444","0.0-19.0","battery-v0.2","","""event"",""trial"",""time""
""fullscreenenter"",""1"",""3385""
","
","
","""event"",""trial"",""time""
""fullscreenenter"",""1"",""3385""
","
","","","-1","","","18","5960","2715","&#9733;","elianto","#3366ff99","-1","-1","1","+10","[]","0","1","","","5960","16","2","2","win","no-go","0"
"pit-trial","134","1098309","0.0-20.0","battery-v0.2","","""event"",""trial"",""time""
""fullscreenenter"",""1"",""3385""
","
","
","""event"",""trial"",""time""
""fullscreenenter"",""1"",""3385""
","
","","","-1","","","18","5960","2715","&#9728;","elianto","#f73b6a7A","-1","-1","1","0","[]","0","1","","","5960","17","0","4","lose","no-go","0"
"pit-trial","135","1102092","0.0-21.0","battery-v0.2","","""event"",""trial"",""time""
""fullscreenenter"",""1"",""3385""
","
","
","""event"",""trial"",""time""
""fullscreenenter"",""1"",""3385""
","
","","","922.1000000014901","","","18","5960","2715","&#9730;","elianto","#3366ff99"," "," ","1","+10","[1774.7999999970198]","1","1","","","5960","18","1","1","win","go","0"
"pit-trial","136","1106956","0.0-22.0","battery-v0.2","","""event"",""trial"",""time""
""fullscreenenter"",""1"",""3385""
","
","
","""event"",""trial"",""time""
""fullscreenenter"",""1"",""3385""
","
","","","-1","","","18","5960","2715","&#9733;","elianto","#3366ff99","-1","-1","1","+10","[]","0","1","","","5960","19","2","2","win","no-go","0"
"pit-trial","137","1110509","0.0-23.0","battery-v0.2","","""event"",""trial"",""time""
""fullscreenenter"",""1"",""3385""
","
","
","""event"",""trial"",""time""
""fullscreenenter"",""1"",""3385""
","
","","","688.3999999985099","","","18","5960","2715","&#9752;","elianto","#f73b6a7A"," "," ","1","0","[1544.4000000022352]","1","1","","","5960","20","3","3","lose","go","0"
"pit-instructions","138","1123446","0.0-24.0","battery-v0.2","","""event"",""trial"",""time""
""fullscreenenter"",""1"",""3385""
","
","
","""event"",""trial"",""time""
""fullscreenenter"",""1"",""3385""
","
","","[{""page_index"":0,""viewing_time"":6009.300000000745},{""page_index"":1,""viewing_time"":6926.10000000149}]","12935.60000000149","","","","","","","","","","","","","","","","","","","","","","","",""
"pit-trial","139","1128302","0.0-25.0","battery-v0.2","","""event"",""trial"",""time""
""fullscreenenter"",""1"",""3385""
","
","
","""event"",""trial"",""time""
""fullscreenenter"",""1"",""3385""
","
","","","1983.7999999970198","","","18","5960","2715","f","elianto","#3366ff99"," "," ","1","+10","[2844.199999999255]","1","2","","","5960","21","1","1","win","go","0"
"pit-trial","140","1133178","0.0-26.0","battery-v0.2","","""event"",""trial"",""time""
""fullscreenenter"",""1"",""3385""
","
","
","""event"",""trial"",""time""
""fullscreenenter"",""1"",""3385""
","
","","","2000.300000000745","","","18","5960","2715","t","elianto","#f73b6a7A","-1"," ","0","-10","[2852.699999999255]","1","2","","","5960","22","2","4","lose","no-go","0"
"pit-trial","141","1138062","0.0-27.0","battery-v0.2","","""event"",""trial"",""time""
""fullscreenenter"",""1"",""3385""
","
","
","""event"",""trial"",""time""
""fullscreenenter"",""1"",""3385""
","
","","","-1","","","18","5960","2715","n","elianto","#f73b6a7A","-1","-1","1","0","[3340.699999999255]","1","2","","","5960","23","0","4","lose","no-go","0"
"pit-trial","142","1142073","0.0-28.0","battery-v0.2","","""event"",""trial"",""time""
""fullscreenenter"",""1"",""3385""
","
","
","""event"",""trial"",""time""
""fullscreenenter"",""1"",""3385""
","
","","","1143.9000000022352","","","18","5960","2715","b","elianto","#f73b6a7A"," "," ","1","0","[1996.5]","1","2","","","5960","24","3","3","lose","go","0"
"pit-trial","143","1146948","0.0-29.0","battery-v0.2","","""event"",""trial"",""time""
""fullscreenenter"",""1"",""3385""
","
","
","""event"",""trial"",""time""
""fullscreenenter"",""1"",""3385""
","
","","","-1","","","18","5960","2715","t","elianto","#f73b6a7A","-1","-1","1","0","[]","0","2","","","5960","25","2","4","lose","no-go","0"
"pit-trial","144","1150832","0.0-30.0","battery-v0.2","","""event"",""trial"",""time""
""fullscreenenter"",""1"",""3385""
","
","
","""event"",""trial"",""time""
""fullscreenenter"",""1"",""3385""
","
","","","1019","","","18","5960","2715","f","elianto","#3366ff99"," "," ","1","+10","[1870]","1","2","","","5960","26","1","1","win","go","0"
"pit-trial","145","1154757","0.0-31.0","battery-v0.2","","""event"",""trial"",""time""
""fullscreenenter"",""1"",""3385""
","
","
","""event"",""trial"",""time""
""fullscreenenter"",""1"",""3385""
","
","","","1053.699999999255","","","18","5960","2715","b","elianto","#f73b6a7A"," "," ","1","0","[1914.5999999977648]","1","2","","","5960","27","3","3","lose","go","0"
"pit-trial","146","1158492","0.0-32.0","battery-v0.2","","""event"",""trial"",""time""
""fullscreenenter"",""1"",""3385""
","
","
","""event"",""trial"",""time""
""fullscreenenter"",""1"",""3385""
","
","","","876.7999999970198","","","18","5960","2715","n","elianto","#f73b6a7A","-1"," ","0","-10","[1728.5]","1","2","","","5960","28","0","4","lose","no-go","0"
"pit-trial","147","1162084","0.0-33.0","battery-v0.2","","""event"",""trial"",""time""
""fullscreenenter"",""1"",""3385""
","
","
","""event"",""trial"",""time""
""fullscreenenter"",""1"",""3385""
","
","","","732.5999999977648","","","18","5960","2715","n","elianto","#f73b6a7A","-1"," ","0","0","[1583.0999999977648]","1","2","","","5960","29","0","4","lose","no-go","1"
"pit-trial","148","1165796","0.0-34.0","battery-v0.2","","""event"",""trial"",""time""
""fullscreenenter"",""1"",""3385""
","
","
","""event"",""trial"",""time""
""fullscreenenter"",""1"",""3385""
","
","","","855.9000000022352","","","18","5960","2715","f","elianto","#3366ff99"," "," ","1","+10","[1707.800000000745]","1","2","","","5960","30","1","1","win","go","0"
"pit-trial","149","1170660","0.0-35.0","battery-v0.2","","""event"",""trial"",""time""
""fullscreenenter"",""1"",""3385""
","
","
","""event"",""trial"",""time""
""fullscreenenter"",""1"",""3385""
","
","","","-1","","","18","5960","2715","t","elianto","#f73b6a7A","-1","-1","1","0","[]","0","2","","","5960","31","2","4","lose","no-go","0"
"pit-trial","150","1174092","0.0-36.0","battery-v0.2","","""event"",""trial"",""time""
""fullscreenenter"",""1"",""3385""
","
","
","""event"",""trial"",""time""
""fullscreenenter"",""1"",""3385""
","
","","","568.3000000007451","","","18","5960","2715","b","elianto","#f73b6a7A"," "," ","1","0","[1421.800000000745]","1","2","","","5960","32","3","3","lose","go","0"
"pit-trial","151","1177726","0.0-37.0","battery-v0.2","","""event"",""trial"",""time""
""fullscreenenter"",""1"",""3385""
","
","
","""event"",""trial"",""time""
""fullscreenenter"",""1"",""3385""
","
","","","768.8999999985099","","","18","5960","2715","b","elianto","#f73b6a7A"," "," ","1","0","[1623.800000000745]","1","2","","","5960","33","3","3","lose","go","0"
"pit-trial","152","1181596","0.0-38.0","battery-v0.2","","""event"",""trial"",""time""
""fullscreenenter"",""1"",""3385""
","
","
","""event"",""trial"",""time""
""fullscreenenter"",""1"",""3385""
","
","","","1006.6999999992549","","","18","5960","2715","n","elianto","#f73b6a7A","-1"," ","0","-10","[1858.199999999255]","1","2","","","5960","34","0","4","lose","no-go","0"
"pit-trial","153","1185631","0.0-39.0","battery-v0.2","","""event"",""trial"",""time""
""fullscreenenter"",""1"",""3385""
","
","
","""event"",""trial"",""time""
""fullscreenenter"",""1"",""3385""
","
","","","1171","","","18","5960","2715","f","elianto","#3366ff99"," "," ","1","+10","[2025.300000000745]","1","2","","","5960","35","1","1","win","go","0"
"pit-trial","154","1190501","0.0-40.0","battery-v0.2","","""event"",""trial"",""time""
""fullscreenenter"",""1"",""3385""
","
","
","""event"",""trial"",""time""
""fullscreenenter"",""1"",""3385""
","
","","","-1","","","18","5960","2715","t","elianto","#f73b6a7A","-1","-1","1","0","[]","0","2","","","5960","36","2","4","lose","no-go","0"
"pit-trial","155","1193916","0.0-41.0","battery-v0.2","","""event"",""trial"",""time""
""fullscreenenter"",""1"",""3385""
","
","
","""event"",""trial"",""time""
""fullscreenenter"",""1"",""3385""
","
","","","559.1999999992549","","","18","5960","2715","t","elianto","#f73b6a7A","-1"," ","0","-10","[1409.5]","1","2","","","5960","37","2","4","lose","no-go","0"
"pit-trial","156","1197388","0.0-42.0","battery-v0.2","","""event"",""trial"",""time""
""fullscreenenter"",""1"",""3385""
","
","
","""event"",""trial"",""time""
""fullscreenenter"",""1"",""3385""
","
","","","608.6000000014901","","","18","5960","2715","b","elianto","#f73b6a7A"," "," ","1","0","[1464.0999999977648]","1","2","","","5960","38","3","3","lose","go","0"
"pit-trial","157","1200781","0.0-43.0","battery-v0.2","","""event"",""trial"",""time""
""fullscreenenter"",""1"",""3385""
","
","
","""event"",""trial"",""time""
""fullscreenenter"",""1"",""3385""
","
","","","532","","","18","5960","2715","f","elianto","#3366ff99"," "," ","1","+10","[1385.5999999977648]","1","2","","","5960","39","1","1","win","go","0"
"pit-trial","158","1205645","0.0-44.0","battery-v0.2","","""event"",""trial"",""time""
""fullscreenenter"",""1"",""3385""
","
","
","""event"",""trial"",""time""
""fullscreenenter"",""1"",""3385""
","
","","","-1","","","18","5960","2715","n","elianto","#f73b6a7A","-1","-1","1","0","[]","0","2","","","5960","40","0","4","lose","no-go","0"
"pit-trial","159","1209148","0.0-45.0","battery-v0.2","","""event"",""trial"",""time""
""fullscreenenter"",""1"",""3385""
","
","
","""event"",""trial"",""time""
""fullscreenenter"",""1"",""3385""
","
","","","645.0999999977648","","","18","5960","2715","f","elianto","#3366ff99"," "," ","1","0","[1498.800000000745]","1","2","","","5960","41","1","1","win","go","1"
"pit-trial","160","1214012","0.0-46.0","battery-v0.2","","""event"",""trial"",""time""
""fullscreenenter"",""1"",""3385""
","
","
","""event"",""trial"",""time""
""fullscreenenter"",""1"",""3385""
","
","","","-1","","","18","5960","2715","t","elianto","#f73b6a7A","-1","-1","1","-10","[]","0","2","","","5960","42","2","4","lose","no-go","1"
"pit-trial","161","1217596","0.0-47.0","battery-v0.2","","""event"",""trial"",""time""
""fullscreenenter"",""1"",""3385""
","
","
","""event"",""trial"",""time""
""fullscreenenter"",""1"",""3385""
","
","","","724.0999999977648","","","18","5960","2715","b","elianto","#f73b6a7A"," "," ","1","-10","[1575.0999999977648]","1","2","","","5960","43","3","3","lose","go","1"
"pit-trial","162","1222461","0.0-48.0","battery-v0.2","","""event"",""trial"",""time""
""fullscreenenter"",""1"",""3385""
","
","
","""event"",""trial"",""time""
""fullscreenenter"",""1"",""3385""
","
","","","-1","","","18","5960","2715","n","elianto","#f73b6a7A","-1","-1","1","0","[]","0","2","","","5960","44","0","4","lose","no-go","0"
"pit-trial","163","1226212","0.0-49.0","battery-v0.2","","""event"",""trial"",""time""
""fullscreenenter"",""1"",""3385""
","
","
","""event"",""trial"",""time""
""fullscreenenter"",""1"",""3385""
","
","","","890.8999999985099","","","18","5960","2715","c","elianto","#3366ff99","-1"," ","0","+10","[1743]","1","2","","","5960","45","4","2","win","no-go","1"
"pit-trial","164","1231076","0.0-50.0","battery-v0.2","","""event"",""trial"",""time""
""fullscreenenter"",""1"",""3385""
","
","
","""event"",""trial"",""time""
""fullscreenenter"",""1"",""3385""
","
","","","-1","","","18","5960","2715","t","elianto","#f73b6a7A","-1","-1","1","-10","[]","0","2","","","5960","46","2","4","lose","no-go","1"
"pit-trial","165","1235940","0.0-51.0","battery-v0.2","","""event"",""trial"",""time""
""fullscreenenter"",""1"",""3385""
","
","
","""event"",""trial"",""time""
""fullscreenenter"",""1"",""3385""
","
","","","-1","","","18","5960","2715","n","elianto","#f73b6a7A","-1","-1","1","-10","[]","0","2","","","5960","47","0","4","lose","no-go","1"
"pit-trial","166","1239589","0.0-52.0","battery-v0.2","","""event"",""trial"",""time""
""fullscreenenter"",""1"",""3385""
","
","
","""event"",""trial"",""time""
""fullscreenenter"",""1"",""3385""
","
","","","789.5999999977648","","","18","5960","2715","b","elianto","#f73b6a7A"," "," ","1","0","[1644.0999999977648]","1","2","","","5960","48","3","3","lose","go","0"
"pit-trial","167","1243332","0.0-53.0","battery-v0.2","","""event"",""trial"",""time""
""fullscreenenter"",""1"",""3385""
","
","
","""event"",""trial"",""time""
""fullscreenenter"",""1"",""3385""
","
","","","883.1000000014901","","","18","5960","2715","n","elianto","#f73b6a7A","-1"," ","0","0","[1735.4000000022352]","1","2","","","5960","49","0","4","lose","no-go","1"
"pit-trial","168","1246982","0.0-54.0","battery-v0.2","","""event"",""trial"",""time""
""fullscreenenter"",""1"",""3385""
","
","
","""event"",""trial"",""time""
""fullscreenenter"",""1"",""3385""
","
","","","786","","","18","5960","2715","f","elianto","#3366ff99"," "," ","1","+10","[1638.800000000745]","1","2","","","5960","50","1","1","win","go","0"
"pit-trial","169","1250876","0.0-55.0","battery-v0.2","","""event"",""trial"",""time""
""fullscreenenter"",""1"",""3385""
","
","
","""event"",""trial"",""time""
""fullscreenenter"",""1"",""3385""
","
","","","1024.300000000745","","","18","5960","2715","b","elianto","#f73b6a7A"," "," ","1","0","[1885.4000000022352]","1","2","","","5960","51","3","3","lose","go","0"
"pit-trial","170","1254420","0.0-56.0","battery-v0.2","","""event"",""trial"",""time""
""fullscreenenter"",""1"",""3385""
","
","
","""event"",""trial"",""time""
""fullscreenenter"",""1"",""3385""
","
","","","686.3000000007451","","","18","5960","2715","c","elianto","#3366ff99","-1"," ","0","0","[1538.199999999255]","1","2","","","5960","52","4","2","win","no-go","0"
"pit-trial","171","1258005","0.0-57.0","battery-v0.2","","""event"",""trial"",""time""
""fullscreenenter"",""1"",""3385""
","
","
","""event"",""trial"",""time""
""fullscreenenter"",""1"",""3385""
","
","","","721.6999999992549","","","18","5960","2715","f","elianto","#3366ff99"," "," ","1","+10","[1575.8999999985099]","1","2","","","5960","53","1","1","win","go","0"
"pit-trial","172","1262868","0.0-58.0","battery-v0.2","","""event"",""trial"",""time""
""fullscreenenter"",""1"",""3385""
","
","
","""event"",""trial"",""time""
""fullscreenenter"",""1"",""3385""
","
","","","-1","","","18","5960","2715","c","elianto","#3366ff99","-1","-1","1","+10","[]","0","2","","","5960","54","4","2","win","no-go","0"
"pit-trial","173","1267733","0.0-59.0","battery-v0.2","","""event"",""trial"",""time""
""fullscreenenter"",""1"",""3385""
","
","
","""event"",""trial"",""time""
""fullscreenenter"",""1"",""3385""
","
","","","-1","","","18","5960","2715","n","elianto","#f73b6a7A","-1","-1","1","0","[2897.099999997765]","1","2","","","5960","55","0","4","lose","no-go","0"
"pit-trial","174","1272597","0.0-60.0","battery-v0.2","","""event"",""trial"",""time""
""fullscreenenter"",""1"",""3385""
","
","
","""event"",""trial"",""time""
""fullscreenenter"",""1"",""3385""
","
","","","-1","","","18","5960","2715","t","elianto","#f73b6a7A","-1","-1","1","-10","[]","0","2","","","5960","56","2","4","lose","no-go","1"
"pit-trial","175","1276069","0.0-61.0","battery-v0.2","","""event"",""trial"",""time""
""fullscreenenter"",""1"",""3385""
","
","
","""event"",""trial"",""time""
""fullscreenenter"",""1"",""3385""
","
","","","610.4000000022352","","","18","5960","2715","c","elianto","#3366ff99","-1"," ","0","0","[1462.800000000745]","1","2","","","5960","57","4","2","win","no-go","0"
"pit-trial","176","1280076","0.0-62.0","battery-v0.2","","""event"",""trial"",""time""
""fullscreenenter"",""1"",""3385""
","
","
","""event"",""trial"",""time""
""fullscreenenter"",""1"",""3385""
","
","","","1147.3999999985099","","","18","5960","2715","n","elianto","#f73b6a7A","-1"," ","0","-10","[2000.1000000014901]","1","2","","","5960","58","0","4","lose","no-go","0"
"pit-trial","177","1283636","0.0-63.0","battery-v0.2","","""event"",""trial"",""time""
""fullscreenenter"",""1"",""3385""
","
","
","""event"",""trial"",""time""
""fullscreenenter"",""1"",""3385""
","
","","","700.8000000007451","","","18","5960","2715","b","elianto","#f73b6a7A"," "," ","1","0","[1555.1000000014901]","1","2","","","5960","59","3","3","lose","go","0"
"pit-trial","178","1287180","0.0-64.0","battery-v0.2","","""event"",""trial"",""time""
""fullscreenenter"",""1"",""3385""
","
","
","""event"",""trial"",""time""
""fullscreenenter"",""1"",""3385""
","
","","","684.6999999992549","","","18","5960","2715","f","elianto","#3366ff99"," "," ","1","+10","[1538]","1","2","","","5960","60","1","1","win","go","0"
"pit-trial","179","1290716","0.0-65.0","battery-v0.2","","""event"",""trial"",""time""
""fullscreenenter"",""1"",""3385""
","
","
","""event"",""trial"",""time""
""fullscreenenter"",""1"",""3385""
","
","","","678.8999999985099","","","18","5960","2715","f","elianto","#3366ff99"," "," ","1","+10","[1529.5]","1","2","","","5960","61","1","1","win","go","0"
"pit-trial","180","1295380","0.0-66.0","battery-v0.2","","""event"",""trial"",""time""
""fullscreenenter"",""1"",""3385""
","
","
","""event"",""trial"",""time""
""fullscreenenter"",""1"",""3385""
","
","","","1802.8999999985099","","","18","5960","2715","t","elianto","#f73b6a7A","-1"," ","0","-10","[2658]","1","2","","","5960","62","2","4","lose","no-go","0"
"pit-trial","181","1299261","0.0-67.0","battery-v0.2","","""event"",""trial"",""time""
""fullscreenenter"",""1"",""3385""
","
","
","""event"",""trial"",""time""
""fullscreenenter"",""1"",""3385""
","
","","","1018.9000000022352","","","18","5960","2715","b","elianto","#f73b6a7A"," "," ","1","-10","[1873.0999999977648]","1","2","","","5960","63","3","3","lose","go","1"
"pit-trial","182","1304125","0.0-68.0","battery-v0.2","","""event"",""trial"",""time""
""fullscreenenter"",""1"",""3385""
","
","
","""event"",""trial"",""time""
""fullscreenenter"",""1"",""3385""
","
","","","-1","","","18","5960","2715","c","elianto","#3366ff99","-1","-1","1","0","[]","0","2","","","5960","64","4","2","win","no-go","1"
"pit-trial","183","1307492","0.0-69.0","battery-v0.2","","""event"",""trial"",""time""
""fullscreenenter"",""1"",""3385""
","
","
","""event"",""trial"",""time""
""fullscreenenter"",""1"",""3385""
","
","","","509.1000000014901","","","18","5960","2715","f","elianto","#3366ff99"," "," ","1","0","[1362]","1","2","","","5960","65","1","1","win","go","1"
"pit-trial","184","1311197","0.0-70.0","battery-v0.2","","""event"",""trial"",""time""
""fullscreenenter"",""1"",""3385""
","
","
","""event"",""trial"",""time""
""fullscreenenter"",""1"",""3385""
","
","","","846.1000000014901","","","18","5960","2715","b","elianto","#f73b6a7A"," "," ","1","0","[1701.800000000745]","1","2","","","5960","66","3","3","lose","go","0"
"pit-trial","185","1316061","0.0-71.0","battery-v0.2","","""event"",""trial"",""time""
""fullscreenenter"",""1"",""3385""
","
","
","""event"",""trial"",""time""
""fullscreenenter"",""1"",""3385""
","
","","","-1","","","18","5960","2715","t","elianto","#f73b6a7A","-1","-1","1","0","[]","0","2","","","5960","67","2","4","lose","no-go","0"
"pit-trial","186","1319525","0.0-72.0","battery-v0.2","","""event"",""trial"",""time""
""fullscreenenter"",""1"",""3385""
","
","
","""event"",""trial"",""time""
""fullscreenenter"",""1"",""3385""
","
","","","605","","","18","5960","2715","c","elianto","#3366ff99","-1"," ","0","0","[1457]","1","2","","","5960","68","4","2","win","no-go","0"
"pit-trial","187","1323500","0.0-73.0","battery-v0.2","","""event"",""trial"",""time""
""fullscreenenter"",""1"",""3385""
","
","
","""event"",""trial"",""time""
""fullscreenenter"",""1"",""3385""
","
","","","1114.4000000022352","","","18","5960","2715","z","elianto","#3366ff99"," "," ","1","+10","[1968.300000000745]","1","2","","","5960","69","5","1","win","go","0"
"pit-trial","188","1328364","0.0-74.0","battery-v0.2","","""event"",""trial"",""time""
""fullscreenenter"",""1"",""3385""
","
","
","""event"",""trial"",""time""
""fullscreenenter"",""1"",""3385""
","
","","","-1","","","18","5960","2715","c","elianto","#3366ff99","-1","-1","1","+10","[]","0","2","","","5960","70","4","2","win","no-go","0"
"pit-trial","189","1332132","0.0-75.0","battery-v0.2","","""event"",""trial"",""time""
""fullscreenenter"",""1"",""3385""
","
","
","""event"",""trial"",""time""
""fullscreenenter"",""1"",""3385""
","
","","","902.8000000007451","","","18","5960","2715","f","elianto","#3366ff99"," "," ","1","+10","[1758.5999999977648]","1","2","","","5960","71","1","1","win","go","0"
"pit-trial","190","1335757","0.0-76.0","battery-v0.2","","""event"",""trial"",""time""
""fullscreenenter"",""1"",""3385""
","
","
","""event"",""trial"",""time""
""fullscreenenter"",""1"",""3385""
","
","","","764.3999999985099","","","18","5960","2715","b","elianto","#f73b6a7A"," "," ","1","-10","[1618.3999999985099]","1","2","","","5960","72","3","3","lose","go","1"
"pit-trial","191","1339228","0.0-77.0","battery-v0.2","","""event"",""trial"",""time""
""fullscreenenter"",""1"",""3385""
","
","
","""event"",""trial"",""time""
""fullscreenenter"",""1"",""3385""
","
","","","610.3999999985099","","","18","5960","2715","z","elianto","#3366ff99"," "," ","1","+10","[1463.199999999255]","1","2","","","5960","73","5","1","win","go","0"
"pit-trial","192","1344093","0.0-78.0","battery-v0.2","","""event"",""trial"",""time""
""fullscreenenter"",""1"",""3385""
","
","
","""event"",""trial"",""time""
""fullscreenenter"",""1"",""3385""
","
","","","-1","","","18","5960","2715","c","elianto","#3366ff99","-1","-1","1","+10","[]","0","2","","","5960","74","4","2","win","no-go","0"
"pit-trial","193","1347796","0.0-79.0","battery-v0.2","","""event"",""trial"",""time""
""fullscreenenter"",""1"",""3385""
","
","
","""event"",""trial"",""time""
""fullscreenenter"",""1"",""3385""
","
","","","839.5","","","18","5960","2715","b","elianto","#f73b6a7A"," "," ","1","0","[1691.800000000745]","1","2","","","5960","75","3","3","lose","go","0"
"pit-trial","194","1351428","0.0-80.0","battery-v0.2","","""event"",""trial"",""time""
""fullscreenenter"",""1"",""3385""
","
","
","""event"",""trial"",""time""
""fullscreenenter"",""1"",""3385""
","
","","","771.7999999970198","","","18","5960","2715","f","elianto","#3366ff99"," "," ","1","0","[1622.699999999255]","1","2","","","5960","76","1","1","win","go","1"
"pit-trial","195","1356293","0.0-81.0","battery-v0.2","","""event"",""trial"",""time""
""fullscreenenter"",""1"",""3385""
","
","
","""event"",""trial"",""time""
""fullscreenenter"",""1"",""3385""
","
","","","-1","","","18","5960","2715","c","elianto","#3366ff99","-1","-1","1","+10","[]","0","2","","","5960","77","4","2","win","no-go","0"
"pit-trial","196","1359900","0.0-82.0","battery-v0.2","","""event"",""trial"",""time""
""fullscreenenter"",""1"",""3385""
","
","
","""event"",""trial"",""time""
""fullscreenenter"",""1"",""3385""
","
","","","753","","","18","5960","2715","z","elianto","#3366ff99"," "," ","1","0","[1604.199999999255]","1","2","","","5960","78","5","1","win","go","1"
"pit-trial","197","1364557","0.0-83.0","battery-v0.2","","""event"",""trial"",""time""
""fullscreenenter"",""1"",""3385""
","
","
","""event"",""trial"",""time""
""fullscreenenter"",""1"",""3385""
","
","","","1791.5","","","18","5960","2715","h","elianto","#f73b6a7A","-1"," ","0","-10","[2646.199999999255]","1","2","","","5960","79","6","4","lose","no-go","0"
"pit-trial","198","1368637","0.0-84.0","battery-v0.2","","""event"",""trial"",""time""
""fullscreenenter"",""1"",""3385""
","
","
","""event"",""trial"",""time""
""fullscreenenter"",""1"",""3385""
","
","","","1220.7999999970198","","","18","5960","2715","b","elianto","#f73b6a7A"," "," ","1","-10","[2072.39999999851]","1","2","","","5960","80","3","3","lose","go","1"
"pit-trial","199","1373500","0.0-85.0","battery-v0.2","","""event"",""trial"",""time""
""fullscreenenter"",""1"",""3385""
","
","
","""event"",""trial"",""time""
""fullscreenenter"",""1"",""3385""
","
","","","-1","","","18","5960","2715","h","elianto","#f73b6a7A","-1","-1","1","0","[]","0","2","","","5960","81","6","4","lose","no-go","0"
"pit-trial","200","1377988","0.0-86.0","battery-v0.2","","""event"",""trial"",""time""
""fullscreenenter"",""1"",""3385""
","
","
","""event"",""trial"",""time""
""fullscreenenter"",""1"",""3385""
","
","","","1627.1000000014901","","","18","5960","2715","z","elianto","#3366ff99"," "," ","1","+10","[2478.400000002235]","1","2","","","5960","82","5","1","win","go","0"
"pit-trial","201","1382853","0.0-87.0","battery-v0.2","","""event"",""trial"",""time""
""fullscreenenter"",""1"",""3385""
","
","
","""event"",""trial"",""time""
""fullscreenenter"",""1"",""3385""
","
","","","-1","","","18","5960","2715","y","elianto","#f73b6a7A"," ","-1","0","-10","[]","0","2","","","5960","83","7","3","lose","go","0"
"pit-trial","202","1387716","0.0-88.0","battery-v0.2","","""event"",""trial"",""time""
""fullscreenenter"",""1"",""3385""
","
","
","""event"",""trial"",""time""
""fullscreenenter"",""1"",""3385""
","
","","","-1","","","18","5960","2715","c","elianto","#3366ff99","-1","-1","1","+10","[]","0","2","","","5960","84","4","2","win","no-go","0"
"pit-trial","203","1391565","0.0-89.0","battery-v0.2","","""event"",""trial"",""time""
""fullscreenenter"",""1"",""3385""
","
","
","""event"",""trial"",""time""
""fullscreenenter"",""1"",""3385""
","
","","","988.5","","","18","5960","2715","y","elianto","#f73b6a7A"," "," ","1","-10","[1843.300000000745]","1","2","","","5960","85","7","3","lose","go","1"
"pit-trial","204","1396428","0.0-90.0","battery-v0.2","","""event"",""trial"",""time""
""fullscreenenter"",""1"",""3385""
","
","
","""event"",""trial"",""time""
""fullscreenenter"",""1"",""3385""
","
","","","-1","","","18","5960","2715","h","elianto","#f73b6a7A","-1","-1","1","-10","[]","0","2","","","5960","86","6","4","lose","no-go","1"
"pit-trial","205","1400516","0.0-91.0","battery-v0.2","","""event"",""trial"",""time""
""fullscreenenter"",""1"",""3385""
","
","
","""event"",""trial"",""time""
""fullscreenenter"",""1"",""3385""
","
","","","1230.9000000022352","","","18","5960","2715","z","elianto","#3366ff99"," "," ","1","0","[2085.2000000029802]","1","2","","","5960","87","5","1","win","go","1"
"pit-trial","206","1405380","0.0-92.0","battery-v0.2","","""event"",""trial"",""time""
""fullscreenenter"",""1"",""3385""
","
","
","""event"",""trial"",""time""
""fullscreenenter"",""1"",""3385""
","
","","","-1","","","18","5960","2715","c","elianto","#3366ff99","-1","-1","1","+10","[]","0","2","","","5960","88","4","2","win","no-go","0"
"pit-trial","207","1409660","0.0-93.0","battery-v0.2","","""event"",""trial"",""time""
""fullscreenenter"",""1"",""3385""
","
","
","""event"",""trial"",""time""
""fullscreenenter"",""1"",""3385""
","
","","","1415.7999999970198","","","18","5960","2715","z","elianto","#3366ff99"," "," ","1","+10","[2270.2999999970198]","1","2","","","5960","89","5","1","win","go","0"
"pit-trial","208","1414363","0.0-94.0","battery-v0.2","","""event"",""trial"",""time""
""fullscreenenter"",""1"",""3385""
","
","
","""event"",""trial"",""time""
""fullscreenenter"",""1"",""3385""
","
","","","1840.5","","","18","5960","2715","y","elianto","#f73b6a7A"," "," ","1","-10","[2693.5]","1","2","","","5960","90","7","3","lose","go","1"
"pit-trial","209","1419228","0.0-95.0","battery-v0.2","","""event"",""trial"",""time""
""fullscreenenter"",""1"",""3385""
","
","
","""event"",""trial"",""time""
""fullscreenenter"",""1"",""3385""
","
","","","-1","","","18","5960","2715","h","elianto","#f73b6a7A","-1","-1","1","0","[]","0","2","","","5960","91","6","4","lose","no-go","0"
"pit-trial","210","1424093","0.0-96.0","battery-v0.2","","""event"",""trial"",""time""
""fullscreenenter"",""1"",""3385""
","
","
","""event"",""trial"",""time""
""fullscreenenter"",""1"",""3385""
","
","","","-1","","","18","5960","2715","c","elianto","#3366ff99","-1","-1","1","0","[]","0","2","","","5960","92","4","2","win","no-go","1"
"pit-trial","211","1428956","0.0-97.0","battery-v0.2","","""event"",""trial"",""time""
""fullscreenenter"",""1"",""3385""
","
","
","""event"",""trial"",""time""
""fullscreenenter"",""1"",""3385""
","
","","","-1","","","18","5960","2715","y","elianto","#f73b6a7A"," ","-1","0","0","[]","0","2","","","5960","93","7","3","lose","go","1"
"pit-trial","212","1433821","0.0-98.0","battery-v0.2","","""event"",""trial"",""time""
""fullscreenenter"",""1"",""3385""
","
","
","""event"",""trial"",""time""
""fullscreenenter"",""1"",""3385""
","
","","","-1","","","18","5960","2715","h","elianto","#f73b6a7A","-1","-1","1","0","[]","0","2","","","5960","94","6","4","lose","no-go","0"
"pit-trial","213","1437989","0.0-99.0","battery-v0.2","","""event"",""trial"",""time""
""fullscreenenter"",""1"",""3385""
","
","
","""event"",""trial"",""time""
""fullscreenenter"",""1"",""3385""
","
","","","1306.300000000745","","","18","5960","2715","z","elianto","#3366ff99"," "," ","1","+10","[2157.5]","1","2","","","5960","95","5","1","win","go","0"
"pit-trial","214","1442277","0.0-100.0","battery-v0.2","","""event"",""trial"",""time""
""fullscreenenter"",""1"",""3385""
","
","
","""event"",""trial"",""time""
""fullscreenenter"",""1"",""3385""
","
","","","1422.300000000745","","","18","5960","2715","r","elianto","#3366ff99","-1"," ","0","0","[2280.5]","1","2","","","5960","96","8","2","win","no-go","0"
"pit-trial","215","1446518","0.0-101.0","battery-v0.2","","""event"",""trial"",""time""
""fullscreenenter"",""1"",""3385""
","
","
","""event"",""trial"",""time""
""fullscreenenter"",""1"",""3385""
","
","","","1382.5999999977648","","","18","5960","2715","z","elianto","#3366ff99"," "," ","1","+10","[2233.599999997765]","1","2","","","5960","97","5","1","win","go","0"
"pit-trial","216","1451380","0.0-102.0","battery-v0.2","","""event"",""trial"",""time""
""fullscreenenter"",""1"",""3385""
","
","
","""event"",""trial"",""time""
""fullscreenenter"",""1"",""3385""
","
","","","-1","","","18","5960","2715","r","elianto","#3366ff99","-1","-1","1","+10","[]","0","2","","","5960","98","8","2","win","no-go","0"
"pit-trial","217","1456244","0.0-103.0","battery-v0.2","","""event"",""trial"",""time""
""fullscreenenter"",""1"",""3385""
","
","
","""event"",""trial"",""time""
""fullscreenenter"",""1"",""3385""
","
","","","-1","","","18","5960","2715","y","elianto","#f73b6a7A"," ","-1","0","-10","[]","0","2","","","5960","99","7","3","lose","go","0"
"pit-trial","218","1461108","0.0-104.0","battery-v0.2","","""event"",""trial"",""time""
""fullscreenenter"",""1"",""3385""
","
","
","""event"",""trial"",""time""
""fullscreenenter"",""1"",""3385""
","
","","","-1","","","18","5960","2715","h","elianto","#f73b6a7A","-1","-1","1","0","[]","0","2","","","5960","100","6","4","lose","no-go","0"
"pit-trial","219","1464891","0.0-105.0","battery-v0.2","","""event"",""trial"",""time""
""fullscreenenter"",""1"",""3385""
","
","
","""event"",""trial"",""time""
""fullscreenenter"",""1"",""3385""
","
","","","911.5","","","18","5960","2715","m","elianto","#3366ff99","-1"," ","0","0","[1763]","1","2","","","5960","101","9","2","win","no-go","0"
"pit-trial","220","1469755","0.0-106.0","battery-v0.2","","""event"",""trial"",""time""
""fullscreenenter"",""1"",""3385""
","
","
","""event"",""trial"",""time""
""fullscreenenter"",""1"",""3385""
","
","","","-1","","","18","5960","2715","h","elianto","#f73b6a7A","-1","-1","1","0","[]","0","2","","","5960","102","6","4","lose","no-go","0"
"pit-trial","221","1474236","0.0-107.0","battery-v0.2","","""event"",""trial"",""time""
""fullscreenenter"",""1"",""3385""
","
","
","""event"",""trial"",""time""
""fullscreenenter"",""1"",""3385""
","
","","","1618.5","","","18","5960","2715","z","elianto","#3366ff99"," "," ","1","+10","[2472]","1","2","","","5960","103","5","1","win","go","0"
"pit-trial","222","1479099","0.0-108.0","battery-v0.2","","""event"",""trial"",""time""
""fullscreenenter"",""1"",""3385""
","
","
","""event"",""trial"",""time""
""fullscreenenter"",""1"",""3385""
","
","","","-1","","","18","5960","2715","r","elianto","#3366ff99","-1","-1","1","+10","[]","0","2","","","5960","104","8","2","win","no-go","0"
"pit-trial","223","1483964","0.0-109.0","battery-v0.2","","""event"",""trial"",""time""
""fullscreenenter"",""1"",""3385""
","
","
","""event"",""trial"",""time""
""fullscreenenter"",""1"",""3385""
","
","","","-1","","","18","5960","2715","r","elianto","#3366ff99","-1","-1","1","+10","[]","0","2","","","5960","105","8","2","win","no-go","0"
"pit-trial","224","1487811","0.0-110.0","battery-v0.2","","""event"",""trial"",""time""
""fullscreenenter"",""1"",""3385""
","
","
","""event"",""trial"",""time""
""fullscreenenter"",""1"",""3385""
","
","","","992.6999999992549","","","18","5960","2715","m","elianto","#3366ff99","-1"," ","0","0","[1843.6000000014901]","1","2","","","5960","106","9","2","win","no-go","0"
"pit-trial","225","1492676","0.0-111.0","battery-v0.2","","""event"",""trial"",""time""
""fullscreenenter"",""1"",""3385""
","
","
","""event"",""trial"",""time""
""fullscreenenter"",""1"",""3385""
","
","","","-1","","","18","5960","2715","h","elianto","#f73b6a7A","-1","-1","1","0","[]","0","2","","","5960","107","6","4","lose","no-go","0"
"pit-trial","226","1496812","0.0-112.0","battery-v0.2","","""event"",""trial"",""time""
""fullscreenenter"",""1"",""3385""
","
","
","""event"",""trial"",""time""
""fullscreenenter"",""1"",""3385""
","
","","","1278.199999999255","","","18","5960","2715","z","elianto","#3366ff99"," "," ","1","+10","[2130.10000000149]","1","2","","","5960","108","5","1","win","go","0"
"pit-trial","227","1500692","0.0-113.0","battery-v0.2","","""event"",""trial"",""time""
""fullscreenenter"",""1"",""3385""
","
","
","""event"",""trial"",""time""
""fullscreenenter"",""1"",""3385""
","
","","","1015.4000000022352","","","18","5960","2715","z","elianto","#3366ff99"," "," ","1","+10","[1869.699999999255]","1","2","","","5960","109","5","1","win","go","0"
"pit-trial","228","1505556","0.0-114.0","battery-v0.2","","""event"",""trial"",""time""
""fullscreenenter"",""1"",""3385""
","
","
","""event"",""trial"",""time""
""fullscreenenter"",""1"",""3385""
","
","","","-1","","","18","5960","2715","m","elianto","#3366ff99","-1","-1","1","+10","[]","0","2","","","5960","110","9","2","win","no-go","0"
"pit-trial","229","1510420","0.0-115.0","battery-v0.2","","""event"",""trial"",""time""
""fullscreenenter"",""1"",""3385""
","
","
","""event"",""trial"",""time""
""fullscreenenter"",""1"",""3385""
","
","","","-1","","","18","5960","2715","h","elianto","#f73b6a7A","-1","-1","1","0","[]","0","2","","","5960","111","6","4","lose","no-go","0"
"pit-trial","230","1515285","0.0-116.0","battery-v0.2","","""event"",""trial"",""time""
""fullscreenenter"",""1"",""3385""
","
","
","""event"",""trial"",""time""
""fullscreenenter"",""1"",""3385""
","
","","","-1","","","18","5960","2715","r","elianto","#3366ff99","-1","-1","1","+10","[]","0","2","","","5960","112","8","2","win","no-go","0"
"pit-trial","231","1519260","0.0-117.0","battery-v0.2","","""event"",""trial"",""time""
""fullscreenenter"",""1"",""3385""
","
","
","""event"",""trial"",""time""
""fullscreenenter"",""1"",""3385""
","
","","","1116","","","18","5960","2715","z","elianto","#3366ff99"," "," ","1","+10","[1966.3999999985099]","1","2","","","5960","113","5","1","win","go","0"
"pit-trial","232","1524124","0.0-118.0","battery-v0.2","","""event"",""trial"",""time""
""fullscreenenter"",""1"",""3385""
","
","
","""event"",""trial"",""time""
""fullscreenenter"",""1"",""3385""
","
","","","-1","","","18","5960","2715","m","elianto","#3366ff99","-1","-1","1","+10","[]","0","2","","","5960","114","9","2","win","no-go","0"
"pit-trial","233","1528989","0.0-119.0","battery-v0.2","","""event"",""trial"",""time""
""fullscreenenter"",""1"",""3385""
","
","
","""event"",""trial"",""time""
""fullscreenenter"",""1"",""3385""
","
","","","-1","","","18","5960","2715","r","elianto","#3366ff99","-1","-1","1","+10","[]","0","2","","","5960","115","8","2","win","no-go","0"
"pit-trial","234","1533852","0.0-120.0","battery-v0.2","","""event"",""trial"",""time""
""fullscreenenter"",""1"",""3385""
","
","
","""event"",""trial"",""time""
""fullscreenenter"",""1"",""3385""
","
","","","-1","","","18","5960","2715","y","elianto","#f73b6a7A"," ","-1","0","-10","[]","0","2","","","5960","116","7","3","lose","go","0"
"pit-trial","235","1538579","0.0-121.0","battery-v0.2","","""event"",""trial"",""time""
""fullscreenenter"",""1"",""3385""
","
","
","""event"",""trial"",""time""
""fullscreenenter"",""1"",""3385""
","
","","","1868.9000000022352","","","18","5960","2715","z","elianto","#3366ff99"," "," ","1","0","[2723.400000002235]","1","2","","","5960","117","5","1","win","go","1"
"pit-trial","236","1543453","0.0-122.0","battery-v0.2","","""event"",""trial"",""time""
""fullscreenenter"",""1"",""3385""
","
","
","""event"",""trial"",""time""
""fullscreenenter"",""1"",""3385""
","
","","","-1","","","18","5960","2715","r","elianto","#3366ff99","-1","-1","1","+10","[]","0","2","","","5960","118","8","2","win","no-go","0"
"pit-trial","237","1548316","0.0-123.0","battery-v0.2","","""event"",""trial"",""time""
""fullscreenenter"",""1"",""3385""
","
","
","""event"",""trial"",""time""
""fullscreenenter"",""1"",""3385""
","
","","","-1","","","18","5960","2715","m","elianto","#3366ff99","-1","-1","1","+10","[]","0","2","","","5960","119","9","2","win","no-go","0"
"pit-trial","238","1553181","0.0-124.0","battery-v0.2","","""event"",""trial"",""time""
""fullscreenenter"",""1"",""3385""
","
","
","""event"",""trial"",""time""
""fullscreenenter"",""1"",""3385""
","
","","","-1","","","18","5960","2715","h","elianto","#f73b6a7A","-1","-1","1","0","[]","0","2","","","5960","120","6","4","lose","no-go","0"
"pit-trial","239","1558052","0.0-125.0","battery-v0.2","","""event"",""trial"",""time""
""fullscreenenter"",""1"",""3385""
","
","
","""event"",""trial"",""time""
""fullscreenenter"",""1"",""3385""
","
","","","-1","","","18","5960","2715","m","elianto","#3366ff99","-1","-1","1","+10","[]","0","2","","","5960","121","9","2","win","no-go","0"
"pit-trial","240","1562916","0.0-126.0","battery-v0.2","","""event"",""trial"",""time""
""fullscreenenter"",""1"",""3385""
","
","
","""event"",""trial"",""time""
""fullscreenenter"",""1"",""3385""
","
","","","-1","","","18","5960","2715","r","elianto","#3366ff99","-1","-1","1","+10","[]","0","2","","","5960","122","8","2","win","no-go","0"
"pit-trial","241","1566820","0.0-127.0","battery-v0.2","","""event"",""trial"",""time""
""fullscreenenter"",""1"",""3385""
","
","
","""event"",""trial"",""time""
""fullscreenenter"",""1"",""3385""
","
","","","1044.0999999977648","","","18","5960","2715","z","elianto","#3366ff99"," "," ","1","+10","[1898.6000000014901]","1","2","","","5960","123","5","1","win","go","0"
"pit-trial","242","1571684","0.0-128.0","battery-v0.2","","""event"",""trial"",""time""
""fullscreenenter"",""1"",""3385""
","
","
","""event"",""trial"",""time""
""fullscreenenter"",""1"",""3385""
","
","","","-1","","","18","5960","2715","y","elianto","#f73b6a7A"," ","-1","0","-10","[]","0","2","","","5960","124","7","3","lose","go","0"
"pit-trial","243","1576548","0.0-129.0","battery-v0.2","","""event"",""trial"",""time""
""fullscreenenter"",""1"",""3385""
","
","
","""event"",""trial"",""time""
""fullscreenenter"",""1"",""3385""
","
","","","-1","","","18","5960","2715","r","elianto","#3366ff99","-1","-1","1","+10","[]","0","2","","","5960","125","8","2","win","no-go","0"
"pit-trial","244","1580180","0.0-130.0","battery-v0.2","","""event"",""trial"",""time""
""fullscreenenter"",""1"",""3385""
","
","
","""event"",""trial"",""time""
""fullscreenenter"",""1"",""3385""
","
","","","771.1999999992549","","","18","5960","2715","y","elianto","#f73b6a7A"," "," ","1","-10","[1625.199999999255]","1","2","","","5960","126","7","3","lose","go","1"
"pit-trial","245","1585045","0.0-131.0","battery-v0.2","","""event"",""trial"",""time""
""fullscreenenter"",""1"",""3385""
","
","
","""event"",""trial"",""time""
""fullscreenenter"",""1"",""3385""
","
","","","-1","","","18","5960","2715","m","elianto","#3366ff99","-1","-1","1","0","[]","0","2","","","5960","127","9","2","win","no-go","1"
"pit-trial","246","1589909","0.0-132.0","battery-v0.2","","""event"",""trial"",""time""
""fullscreenenter"",""1"",""3385""
","
","
","""event"",""trial"",""time""
""fullscreenenter"",""1"",""3385""
","
","","","-1","","","18","5960","2715","h","elianto","#f73b6a7A","-1","-1","1","0","[]","0","2","","","5960","128","6","4","lose","no-go","0"
"pit-trial","247","1594772","0.0-133.0","battery-v0.2","","""event"",""trial"",""time""
""fullscreenenter"",""1"",""3385""
","
","
","""event"",""trial"",""time""
""fullscreenenter"",""1"",""3385""
","
","","","-1","","","18","5960","2715","r","elianto","#3366ff99","-1","-1","1","0","[]","0","2","","","5960","129","8","2","win","no-go","1"
"pit-trial","248","1599644","0.0-134.0","battery-v0.2","","""event"",""trial"",""time""
""fullscreenenter"",""1"",""3385""
","
","
","""event"",""trial"",""time""
""fullscreenenter"",""1"",""3385""
","
","","","-1","","","18","5960","2715","y","elianto","#f73b6a7A"," ","-1","0","-10","[3062.89999999851]","1","2","","","5960","130","7","3","lose","go","0"
"pit-trial","249","1604510","0.0-135.0","battery-v0.2","","""event"",""trial"",""time""
""fullscreenenter"",""1"",""3385""
","
","
","""event"",""trial"",""time""
""fullscreenenter"",""1"",""3385""
","
","","","-1","","","18","5960","2715","h","elianto","#f73b6a7A","-1","-1","1","0","[]","0","2","","","5960","131","6","4","lose","no-go","0"
"pit-trial","250","1609372","0.0-136.0","battery-v0.2","","""event"",""trial"",""time""
""fullscreenenter"",""1"",""3385""
","
","
","""event"",""trial"",""time""
""fullscreenenter"",""1"",""3385""
","
","","","-1","","","18","5960","2715","m","elianto","#3366ff99","-1","-1","1","+10","[]","0","2","","","5960","132","9","2","win","no-go","0"
"pit-trial","251","1614244","0.0-137.0","battery-v0.2","","""event"",""trial"",""time""
""fullscreenenter"",""1"",""3385""
","
","
","""event"",""trial"",""time""
""fullscreenenter"",""1"",""3385""
","
","","","-1","","","18","5960","2715","m","elianto","#3366ff99","-1","-1","1","0","[]","0","2","","","5960","133","9","2","win","no-go","1"
"pit-trial","252","1619109","0.0-138.0","battery-v0.2","","""event"",""trial"",""time""
""fullscreenenter"",""1"",""3385""
","
","
","""event"",""trial"",""time""
""fullscreenenter"",""1"",""3385""
","
","","","-1","","","18","5960","2715","y","elianto","#f73b6a7A"," ","-1","0","-10","[]","0","2","","","5960","134","7","3","lose","go","0"
"pit-trial","253","1623973","0.0-139.0","battery-v0.2","","""event"",""trial"",""time""
""fullscreenenter"",""1"",""3385""
","
","
","""event"",""trial"",""time""
""fullscreenenter"",""1"",""3385""
","
","","","-1","","","18","5960","2715","r","elianto","#3366ff99","-1","-1","1","+10","[]","0","2","","","5960","135","8","2","win","no-go","0"
"pit-trial","254","1628837","0.0-140.0","battery-v0.2","","""event"",""trial"",""time""
""fullscreenenter"",""1"",""3385""
","
","
","""event"",""trial"",""time""
""fullscreenenter"",""1"",""3385""
","
","","","-1","","","18","5960","2715","h","elianto","#f73b6a7A","-1","-1","1","0","[]","0","2","","","5960","136","6","4","lose","no-go","0"
"pit-trial","255","1633699","0.0-141.0","battery-v0.2","","""event"",""trial"",""time""
""fullscreenenter"",""1"",""3385""
","
","
","""event"",""trial"",""time""
""fullscreenenter"",""1"",""3385""
","
","","","-1","","","18","5960","2715","r","elianto","#3366ff99","-1","-1","1","+10","[]","0","2","","","5960","137","8","2","win","no-go","0"
"pit-trial","256","1638572","0.0-142.0","battery-v0.2","","""event"",""trial"",""time""
""fullscreenenter"",""1"",""3385""
","
","
","""event"",""trial"",""time""
""fullscreenenter"",""1"",""3385""
","
","","","-1","","","18","5960","2715","h","elianto","#f73b6a7A","-1","-1","1","0","[]","0","2","","","5960","138","6","4","lose","no-go","0"
"pit-trial","257","1643436","0.0-143.0","battery-v0.2","","""event"",""trial"",""time""
""fullscreenenter"",""1"",""3385""
","
","
","""event"",""trial"",""time""
""fullscreenenter"",""1"",""3385""
","
","","","-1","","","18","5960","2715","m","elianto","#3366ff99","-1","-1","1","+10","[]","0","2","","","5960","139","9","2","win","no-go","0"
"pit-trial","258","1648300","0.0-144.0","battery-v0.2","","""event"",""trial"",""time""
""fullscreenenter"",""1"",""3385""
","
","
","""event"",""trial"",""time""
""fullscreenenter"",""1"",""3385""
","
","","","-1","","","18","5960","2715","y","elianto","#f73b6a7A"," ","-1","0","-10","[]","0","2","","","5960","140","7","3","lose","go","0"
"pit-instructions","259","1670202","0.0-145.0","battery-v0.2","","""event"",""trial"",""time""
""fullscreenenter"",""1"",""3385""
","
","
","""event"",""trial"",""time""
""fullscreenenter"",""1"",""3385""
","
","","[{""page_index"":0,""viewing_time"":13591.29999999702},{""page_index"":1,""viewing_time"":8309.10000000149}]","21900.79999999702","","","","","","","","","","","","","","","","","","","","","","","",""
"pit-trial","260","1675074","0.0-146.0","battery-v0.2","","""event"",""trial"",""time""
""fullscreenenter"",""1"",""3385""
","
","
","""event"",""trial"",""time""
""fullscreenenter"",""1"",""3385""
","
","","","-1","","","18","5960","2715","j","elianto","#f73b6a7A"," ","-1","0","-10","[]","0","3","","","5960","141","0","3","lose","go","0"
"pit-trial","261","1679952","0.0-147.0","battery-v0.2","","""event"",""trial"",""time""
""fullscreenenter"",""1"",""3385""
","
","
","""event"",""trial"",""time""
""fullscreenenter"",""1"",""3385""
","
","","","-1","","","18","5960","2715","w","elianto","#f73b6a7A","-1","-1","1","0","[]","0","3","","","5960","142","3","4","lose","no-go","0"
"pit-trial","262","1684823","0.0-148.0","battery-v0.2","","""event"",""trial"",""time""
""fullscreenenter"",""1"",""3385""
","
","
","""event"",""trial"",""time""
""fullscreenenter"",""1"",""3385""
","
","","","-1","","","18","5960","2715","e","elianto","#f73b6a7A"," ","-1","0","-10","[2894.300000000745]","1","3","","","5960","143","2","3","lose","go","0"
"pit-trial","263","1689399","0.0-149.0","battery-v0.2","","""event"",""trial"",""time""
""fullscreenenter"",""1"",""3385""
","
","
","""event"",""trial"",""time""
""fullscreenenter"",""1"",""3385""
","
","","","1710.800000000745","","","18","5960","2715","d","elianto","#3366ff99","-1"," ","0","+10","[2567.099999997765]","1","3","","","5960","144","1","2","win","no-go","1"
"pit-trial","264","1694265","0.0-150.0","battery-v0.2","","""event"",""trial"",""time""
""fullscreenenter"",""1"",""3385""
","
","
","""event"",""trial"",""time""
""fullscreenenter"",""1"",""3385""
","
","","","-1","","","18","5960","2715","w","elianto","#f73b6a7A","-1","-1","1","0","[]","0","3","","","5960","145","3","4","lose","no-go","0"
"pit-trial","265","1699140","0.0-151.0","battery-v0.2","","""event"",""trial"",""time""
""fullscreenenter"",""1"",""3385""
","
","
","""event"",""trial"",""time""
""fullscreenenter"",""1"",""3385""
","
","","","-1","","","18","5960","2715","j","elianto","#f73b6a7A"," ","-1","0","-10","[]","0","3","","","5960","146","0","3","lose","go","0"
"pit-trial","266","1704005","0.0-152.0","battery-v0.2","","""event"",""trial"",""time""
""fullscreenenter"",""1"",""3385""
","
","
","""event"",""trial"",""time""
""fullscreenenter"",""1"",""3385""
","
","","","-1","","","18","5960","2715","e","elianto","#f73b6a7A"," ","-1","0","-10","[]","0","3","","","5960","147","2","3","lose","go","0"
"pit-trial","267","1708437","0.0-153.0","battery-v0.2","","""event"",""trial"",""time""
""fullscreenenter"",""1"",""3385""
","
","
","""event"",""trial"",""time""
""fullscreenenter"",""1"",""3385""
","
","","","1568.7999999970198","","","18","5960","2715","d","elianto","#3366ff99","-1"," ","0","0","[2420.199999999255]","1","3","","","5960","148","1","2","win","no-go","0"
