"trial_type","trial_index","time_elapsed","internal_node_id","task_version","subject_id","interactions","blur_events","focus_events","fullscreenenter_events","fullscreenexit_events","success","view_history","rt","responses","num_errors","age","subject","participantId","rune","rune_set","hex","correct","choice","accuracy","outcome","keys","total_keys","block","practice","value","sub","trial","stimulus","robot","valence","action","sham"
"pavlovia","0","83","0.0-0.0","battery-v0.2","","""event"",""trial"",""time""
""fullscreenenter"",""1"",""3277""
","
","
","""event"",""trial"",""time""
""fullscreenenter"",""1"",""3277""
","
","","","","","","","","","","","","","","","","","","","","","","","","","","",""
"fullscreen","1","4181","0.0-1.0","battery-v0.2","","""event"",""trial"",""time""
""fullscreenenter"",""1"",""3277""
","
","
","""event"",""trial"",""time""
""fullscreenenter"",""1"",""3277""
","
","true","","","","","","","","","","","","","","","","","","","","","","","","","",""
"pit-instructions","2","10660","0.0-2.0-0.0","battery-v0.2","","""event"",""trial"",""time""
""fullscreenenter"",""1"",""3277""
","
","
","""event"",""trial"",""time""
""fullscreenenter"",""1"",""3277""
","
","","[{""page_index"":0,""viewing_time"":6467.900000095367}]","6469","","","","","","","","","","","","","","","","","","","","","","","",""
"pit-comprehension","3","17126","0.0-2.0-1.0-0.0","battery-v0.2","","""event"",""trial"",""time""
""fullscreenenter"",""1"",""3277""
","
","
","""event"",""trial"",""time""
""fullscreenenter"",""1"",""3277""
","
","","","6358.800000190735","[""shark""]","0","10","6344","3633","","","","","","","","","","","","","","","","","","",""
"pit-instructions","4","18886","0.0-2.0-1.0-1.0","battery-v0.2","","""event"",""trial"",""time""
""fullscreenenter"",""1"",""3277""
","
","
","""event"",""trial"",""time""
""fullscreenenter"",""1"",""3277""
","
","","[{""page_index"":0,""viewing_time"":1644.2000000476837}]","1645.3999998569489","","","","","","","","","","","","","","","","","","","","","","","",""
"pit-comprehension","5","22539","0.0-2.0-2.0-0.0","battery-v0.2","","""event"",""trial"",""time""
""fullscreenenter"",""1"",""3277""
","
","
","""event"",""trial"",""time""
""fullscreenenter"",""1"",""3277""
","
","","","3644.5","[""tiger""]","0","10","6344","3633","","","","","","","","","","","","","","","","","","",""
"pit-instructions","6","24043","0.0-2.0-2.0-1.0","battery-v0.2","","""event"",""trial"",""time""
""fullscreenenter"",""1"",""3277""
","
","
","""event"",""trial"",""time""
""fullscreenenter"",""1"",""3277""
","
","","[{""page_index"":0,""viewing_time"":1493.7999999523163}]","1494.9000000953674","","","","","","","","","","","","","","","","","","","","","","","",""
"pit-instructions","7","127168","0.0-2.0-3.0","battery-v0.2","","""event"",""trial"",""time""
""fullscreenenter"",""1"",""3277""
","
","
","""event"",""trial"",""time""
""fullscreenenter"",""1"",""3277""
","
","","[{""page_index"":0,""viewing_time"":9469},{""page_index"":1,""viewing_time"":7359.800000190735},{""page_index"":2,""viewing_time"":7755},{""page_index"":3,""viewing_time"":5651.799999952316},{""page_index"":4,""viewing_time"":5871.799999952316},{""page_index"":5,""viewing_time"":9808.400000095367},{""page_index"":6,""viewing_time"":8698.399999856949},{""page_index"":7,""viewing_time"":6548.400000095367},{""page_index"":8,""viewing_time"":7148.299999952316},{""page_index"":9,""viewing_time"":7974.599999904633},{""page_index"":10,""viewing_time"":7705.600000143051},{""page_index"":11,""viewing_time"":7286.299999952316},{""page_index"":12,""viewing_time"":7006.200000047684},{""page_index"":13,""viewing_time"":4832.200000047684}]","103117","","","","","","","","","","","","","","","","","","","","","","","",""
"pit-trial","8","131017","0.0-2.0-4.0-0.0","battery-v0.2","","""event"",""trial"",""time""
""fullscreenenter"",""1"",""3277""
","
","
","""event"",""trial"",""time""
""fullscreenenter"",""1"",""3277""
","
","","","982.0999999046326","","","10","6344","3633","&#9784;","elianto","#FFFFF080"," "," ","1","&#10004","[1835.4000000953674]","1","0","0","","","","","","","",""
"pit-trial","9","134477","0.0-2.0-4.1-0.1","battery-v0.2","","""event"",""trial"",""time""
""fullscreenenter"",""1"",""3277""
","
","
","""event"",""trial"",""time""
""fullscreenenter"",""1"",""3277""
","
","","","591.8000001907349","","","10","6344","3633","&#9784;","elianto","#FFFFF080"," "," ","1","&#10004","[1448.7999999523163]","1","0","0","","","","","","","",""
"pit-trial","10","138187","0.0-2.0-4.2-0.2","battery-v0.2","","""event"",""trial"",""time""
""fullscreenenter"",""1"",""3277""
","
","
","""event"",""trial"",""time""
""fullscreenenter"",""1"",""3277""
","
","","","687.8999998569489","","","10","6344","3633","&#9784;","elianto","#FFFFF080"," "," ","1","&#10004","[1445.8000001907349]","1","0","0","","","","","","","",""
"pit-trial","11","141616","0.0-2.0-4.3-0.3","battery-v0.2","","""event"",""trial"",""time""
""fullscreenenter"",""1"",""3277""
","
","
","""event"",""trial"",""time""
""fullscreenenter"",""1"",""3277""
","
","","","545.5","","","10","6344","3633","&#9784;","elianto","#FFFFF080"," "," ","1","&#10004","[1401.4000000953674]","1","0","0","","","","","","","",""
"pit-trial","12","145057","0.0-2.0-4.4-0.4","battery-v0.2","","""event"",""trial"",""time""
""fullscreenenter"",""1"",""3277""
","
","
","""event"",""trial"",""time""
""fullscreenenter"",""1"",""3277""
","
","","","558.7999999523163","","","10","6344","3633","&#9784;","elianto","#FFFFF080"," "," ","1","&#10004","[1418.3999998569489]","1","0","0","","","","","","","",""
"pit-instructions","13","168637","0.0-2.0-5.0","battery-v0.2","","""event"",""trial"",""time""
""fullscreenenter"",""1"",""3277""
","
","
","""event"",""trial"",""time""
""fullscreenenter"",""1"",""3277""
","
","","[{""page_index"":0,""viewing_time"":5426.599999904633},{""page_index"":1,""viewing_time"":5517.800000190735},{""page_index"":2,""viewing_time"":5149.299999952316},{""page_index"":3,""viewing_time"":7478.099999904633}]","23572.599999904633","","","","","","","","","","","","","","","","","","","","","","","",""
"pit-trial","14","173517","0.0-2.0-6.0-0.0","battery-v0.2","","""event"",""trial"",""time""
""fullscreenenter"",""1"",""3277""
","
","
","""event"",""trial"",""time""
""fullscreenenter"",""1"",""3277""
","
","","","-1","","","10","6344","3633","&#9854;","elianto","#FFFFF080","-1","-1","1","&#10004","[]","0","0","1","","","","","","","",""
"pit-trial","15","178387","0.0-2.0-6.1-0.1","battery-v0.2","","""event"",""trial"",""time""
""fullscreenenter"",""1"",""3277""
","
","
","""event"",""trial"",""time""
""fullscreenenter"",""1"",""3277""
","
","","","-1","","","10","6344","3633","&#9854;","elianto","#FFFFF080","-1","-1","1","&#10004","[]","0","0","1","","","","","","","",""
"pit-trial","16","183268","0.0-2.0-6.2-0.2","battery-v0.2","","""event"",""trial"",""time""
""fullscreenenter"",""1"",""3277""
","
","
","""event"",""trial"",""time""
""fullscreenenter"",""1"",""3277""
","
","","","-1","","","10","6344","3633","&#9854;","elianto","#FFFFF080","-1","-1","1","&#10004","[]","0","0","1","","","","","","","",""
"pit-trial","17","188137","0.0-2.0-6.3-0.3","battery-v0.2","","""event"",""trial"",""time""
""fullscreenenter"",""1"",""3277""
","
","
","""event"",""trial"",""time""
""fullscreenenter"",""1"",""3277""
","
","","","-1","","","10","6344","3633","&#9854;","elianto","#FFFFF080","-1","-1","1","&#10004","[]","0","0","1","","","","","","","",""
"pit-trial","18","193018","0.0-2.0-6.4-0.4","battery-v0.2","","""event"",""trial"",""time""
""fullscreenenter"",""1"",""3277""
","
","
","""event"",""trial"",""time""
""fullscreenenter"",""1"",""3277""
","
","","","-1","","","10","6344","3633","&#9854;","elianto","#FFFFF080","-1","-1","1","&#10004","[]","0","0","1","","","","","","","",""
"pit-instructions","19","311273","0.0-2.0-7.0","battery-v0.2","","""event"",""trial"",""time""
""fullscreenenter"",""1"",""3277""
","
","
","""event"",""trial"",""time""
""fullscreenenter"",""1"",""3277""
","
","","[{""page_index"":0,""viewing_time"":5597.799999952316},{""page_index"":1,""viewing_time"":10044.900000095367},{""page_index"":2,""viewing_time"":6185.599999904633},{""page_index"":3,""viewing_time"":6383.900000095367},{""page_index"":4,""viewing_time"":5556.900000095367},{""page_index"":5,""viewing_time"":5547.299999952316},{""page_index"":6,""viewing_time"":5424.899999856949},{""page_index"":7,""viewing_time"":7318.400000095367},{""page_index"":8,""viewing_time"":7013.400000095367},{""page_index"":9,""viewing_time"":5878.899999856949},{""page_index"":10,""viewing_time"":6070},{""page_index"":11,""viewing_time"":4706.600000143051},{""page_index"":12,""viewing_time"":8029.199999809265},{""page_index"":13,""viewing_time"":7390.5},{""page_index"":14,""viewing_time"":6839.400000095367},{""page_index"":15,""viewing_time"":7067.900000095367},{""page_index"":16,""viewing_time"":6210.599999904633},{""page_index"":17,""viewing_time"":6980.900000095367}]","118247.79999995232","","","","","","","","","","","","","","","","","","","","","","","",""
"pit-trial","20","314432","0.0-2.0-8.0-0.0","battery-v0.2","","""event"",""trial"",""time""
""fullscreenenter"",""1"",""3277""
","
","
","""event"",""trial"",""time""
""fullscreenenter"",""1"",""3277""
","
","","","284","","","10","6344","3633","&#9776;","elianto","#3366ff99"," "," ","1","+10","[1136.4000000953674]","1","0","1","","","","","","","",""
"pit-trial","21","317667","0.0-2.0-8.0-1.0","battery-v0.2","","""event"",""trial"",""time""
""fullscreenenter"",""1"",""3277""
","
","
","""event"",""trial"",""time""
""fullscreenenter"",""1"",""3277""
","
","","","366.7000000476837","","","10","6344","3633","&#9776;","elianto","#3366ff99"," "," ","1","+10","[1217.6999998092651]","1","0","1","","","","","","","",""
"pit-trial","22","320874","0.0-2.0-8.0-2.0","battery-v0.2","","""event"",""trial"",""time""
""fullscreenenter"",""1"",""3277""
","
","
","""event"",""trial"",""time""
""fullscreenenter"",""1"",""3277""
","
","","","339.39999985694885","","","10","6344","3633","&#9776;","elianto","#3366ff99"," "," ","1","+10","[1198]","1","0","1","","","","","","","",""
"pit-trial","23","324003","0.0-2.0-8.0-3.0","battery-v0.2","","""event"",""trial"",""time""
""fullscreenenter"",""1"",""3277""
","
","
","""event"",""trial"",""time""
""fullscreenenter"",""1"",""3277""
","
","","","259.60000014305115","","","10","6344","3633","&#9776;","elianto","#3366ff99"," "," ","1","0","[1112]","1","0","1","","","","","","","",""
"pit-trial","24","327102","0.0-2.0-8.0-4.0","battery-v0.2","","""event"",""trial"",""time""
""fullscreenenter"",""1"",""3277""
","
","
","""event"",""trial"",""time""
""fullscreenenter"",""1"",""3277""
","
","","","222.90000009536743","","","10","6344","3633","&#9776;","elianto","#3366ff99"," "," ","1","+10","[1078.7999999523163]","1","0","1","","","","","","","",""
"pit-trial","25","330008","0.0-2.0-8.1-0.1","battery-v0.2","","""event"",""trial"",""time""
""fullscreenenter"",""1"",""3277""
","
","
","""event"",""trial"",""time""
""fullscreenenter"",""1"",""3277""
","
","","","43.299999952316284","","","10","6344","3633","&#9776;","elianto","#3366ff99"," "," ","1","+10","[898.2999999523163]","1","0","1","","","","","","","",""
"pit-trial","26","333323","0.0-2.0-8.1-1.1","battery-v0.2","","""event"",""trial"",""time""
""fullscreenenter"",""1"",""3277""
","
","
","""event"",""trial"",""time""
""fullscreenenter"",""1"",""3277""
","
","","","445.7999999523163","","","10","6344","3633","&#9776;","elianto","#3366ff99"," "," ","1","+10","[1298.0999999046326]","1","0","1","","","","","","","",""
"pit-trial","27","336613","0.0-2.0-8.1-2.1","battery-v0.2","","""event"",""trial"",""time""
""fullscreenenter"",""1"",""3277""
","
","
","""event"",""trial"",""time""
""fullscreenenter"",""1"",""3277""
","
","","","424.90000009536743","","","10","6344","3633","&#9776;","elianto","#3366ff99"," "," ","1","+10","[1279.9000000953674]","1","0","1","","","","","","","",""
"pit-trial","28","340433","0.0-2.0-8.1-3.1","battery-v0.2","","""event"",""trial"",""time""
""fullscreenenter"",""1"",""3277""
","
","
","""event"",""trial"",""time""
""fullscreenenter"",""1"",""3277""
","
","","","951.6000001430511","","","10","6344","3633","&#9776;","elianto","#3366ff99"," "," ","1","0","[1806]","1","0","1","","","","","","","",""
"pit-trial","29","343720","0.0-2.0-8.1-4.1","battery-v0.2","","""event"",""trial"",""time""
""fullscreenenter"",""1"",""3277""
","
","
","""event"",""trial"",""time""
""fullscreenenter"",""1"",""3277""
","
","","","428.89999985694885","","","10","6344","3633","&#9776;","elianto","#3366ff99"," "," ","1","+10","[1281.2999999523163]","1","0","1","","","","","","","",""
"pit-trial","30","347039","0.0-2.0-8.2-0.2","battery-v0.2","","""event"",""trial"",""time""
""fullscreenenter"",""1"",""3277""
","
","
","""event"",""trial"",""time""
""fullscreenenter"",""1"",""3277""
","
","","","462.2000000476837","","","10","6344","3633","&#9776;","elianto","#3366ff99"," "," ","1","+10","[1313.3000001907349]","1","0","1","","","","","","","",""
"pit-trial","31","350527","0.0-2.0-8.2-1.2","battery-v0.2","","""event"",""trial"",""time""
""fullscreenenter"",""1"",""3277""
","
","
","""event"",""trial"",""time""
""fullscreenenter"",""1"",""3277""
","
","","","634","","","10","6344","3633","&#9776;","elianto","#3366ff99"," "," ","1","+10","[1484.2000000476837]","1","0","1","","","","","","","",""
"pit-trial","32","354047","0.0-2.0-8.2-2.2","battery-v0.2","","""event"",""trial"",""time""
""fullscreenenter"",""1"",""3277""
","
","
","""event"",""trial"",""time""
""fullscreenenter"",""1"",""3277""
","
","","","664.9000000953674","","","10","6344","3633","&#9776;","elianto","#3366ff99"," "," ","1","+10","[1515.8000001907349]","1","0","1","","","","","","","",""
"pit-trial","33","357530","0.0-2.0-8.2-3.2","battery-v0.2","","""event"",""trial"",""time""
""fullscreenenter"",""1"",""3277""
","
","
","""event"",""trial"",""time""
""fullscreenenter"",""1"",""3277""
","
","","","624","","","10","6344","3633","&#9776;","elianto","#3366ff99"," "," ","1","0","[1476.2999999523163]","1","0","1","","","","","","","",""
"pit-trial","34","361449","0.0-2.0-8.2-4.2","battery-v0.2","","""event"",""trial"",""time""
""fullscreenenter"",""1"",""3277""
","
","
","""event"",""trial"",""time""
""fullscreenenter"",""1"",""3277""
","
","","","1055.1000001430511","","","10","6344","3633","&#9776;","elianto","#3366ff99"," "," ","1","+10","[1914]","1","0","1","","","","","","","",""
"call-function","35","361452","0.0-2.0-9.0","battery-v0.2","","""event"",""trial"",""time""
""fullscreenenter"",""1"",""3277""
","
","
","""event"",""trial"",""time""
""fullscreenenter"",""1"",""3277""
","
","","","","","","","","","","","","","","","","","","","","","","","","","","",""
"pit-instructions","36","403104","0.0-2.0-10.0","battery-v0.2","","""event"",""trial"",""time""
""fullscreenenter"",""1"",""3277""
","
","
","""event"",""trial"",""time""
""fullscreenenter"",""1"",""3277""
","
","","[{""page_index"":0,""viewing_time"":7956.5},{""page_index"":1,""viewing_time"":7652.599999904633},{""page_index"":2,""viewing_time"":9618},{""page_index"":3,""viewing_time"":8910.5},{""page_index"":4,""viewing_time"":7512.100000143051}]","41650.40000009537","","","","","","","","","","","","","","","","","","","","","","","",""
"pit-trial","37","406432","0.0-2.0-11.0-0.0","battery-v0.2","","""event"",""trial"",""time""
""fullscreenenter"",""1"",""3277""
","
","
","""event"",""trial"",""time""
""fullscreenenter"",""1"",""3277""
","
","","","465.5","","","10","6344","3633","&#9761;","elianto","#3366ff99","-1"," ","0","0","[1316.3999998569489]","1","0","2","","","","","","","",""
"pit-trial","38","411303","0.0-2.0-11.0-1.0","battery-v0.2","","""event"",""trial"",""time""
""fullscreenenter"",""1"",""3277""
","
","
","""event"",""trial"",""time""
""fullscreenenter"",""1"",""3277""
","
","","","-1","","","10","6344","3633","&#9761;","elianto","#3366ff99","-1","-1","1","+10","[]","0","0","2","","","","","","","",""
"pit-trial","39","416183","0.0-2.0-11.0-2.0","battery-v0.2","","""event"",""trial"",""time""
""fullscreenenter"",""1"",""3277""
","
","
","""event"",""trial"",""time""
""fullscreenenter"",""1"",""3277""
","
","","","-1","","","10","6344","3633","&#9761;","elianto","#3366ff99","-1","-1","1","+10","[]","0","0","2","","","","","","","",""
"pit-trial","40","421060","0.0-2.0-11.0-3.0","battery-v0.2","","""event"",""trial"",""time""
""fullscreenenter"",""1"",""3277""
","
","
","""event"",""trial"",""time""
""fullscreenenter"",""1"",""3277""
","
","","","-1","","","10","6344","3633","&#9761;","elianto","#3366ff99","-1","-1","1","0","[]","0","0","2","","","","","","","",""
"pit-trial","41","425951","0.0-2.0-11.0-4.0","battery-v0.2","","""event"",""trial"",""time""
""fullscreenenter"",""1"",""3277""
","
","
","""event"",""trial"",""time""
""fullscreenenter"",""1"",""3277""
","
","","","-1","","","10","6344","3633","&#9761;","elianto","#3366ff99","-1","-1","1","+10","[]","0","0","2","","","","","","","",""
"pit-trial","42","430831","0.0-2.0-11.1-0.1","battery-v0.2","","""event"",""trial"",""time""
""fullscreenenter"",""1"",""3277""
","
","
","""event"",""trial"",""time""
""fullscreenenter"",""1"",""3277""
","
","","","-1","","","10","6344","3633","&#9761;","elianto","#3366ff99","-1","-1","1","+10","[]","0","0","2","","","","","","","",""
"pit-trial","43","435686","0.0-2.0-11.1-1.1","battery-v0.2","","""event"",""trial"",""time""
""fullscreenenter"",""1"",""3277""
","
","
","""event"",""trial"",""time""
""fullscreenenter"",""1"",""3277""
","
","","","-1","","","10","6344","3633","&#9761;","elianto","#3366ff99","-1","-1","1","+10","[]","0","0","2","","","","","","","",""
"pit-trial","44","440541","0.0-2.0-11.1-2.1","battery-v0.2","","""event"",""trial"",""time""
""fullscreenenter"",""1"",""3277""
","
","
","""event"",""trial"",""time""
""fullscreenenter"",""1"",""3277""
","
","","","-1","","","10","6344","3633","&#9761;","elianto","#3366ff99","-1","-1","1","+10","[]","0","0","2","","","","","","","",""
"pit-trial","45","445397","0.0-2.0-11.1-3.1","battery-v0.2","","""event"",""trial"",""time""
""fullscreenenter"",""1"",""3277""
","
","
","""event"",""trial"",""time""
""fullscreenenter"",""1"",""3277""
","
","","","-1","","","10","6344","3633","&#9761;","elianto","#3366ff99","-1","-1","1","0","[]","0","0","2","","","","","","","",""
"pit-trial","46","450253","0.0-2.0-11.1-4.1","battery-v0.2","","""event"",""trial"",""time""
""fullscreenenter"",""1"",""3277""
","
","
","""event"",""trial"",""time""
""fullscreenenter"",""1"",""3277""
","
","","","-1","","","10","6344","3633","&#9761;","elianto","#3366ff99","-1","-1","1","+10","[]","0","0","2","","","","","","","",""
"pit-trial","47","455109","0.0-2.0-11.2-0.2","battery-v0.2","","""event"",""trial"",""time""
""fullscreenenter"",""1"",""3277""
","
","
","""event"",""trial"",""time""
""fullscreenenter"",""1"",""3277""
","
","","","-1","","","10","6344","3633","&#9761;","elianto","#3366ff99","-1","-1","1","+10","[]","0","0","2","","","","","","","",""
"pit-trial","48","459964","0.0-2.0-11.2-1.2","battery-v0.2","","""event"",""trial"",""time""
""fullscreenenter"",""1"",""3277""
","
","
","""event"",""trial"",""time""
""fullscreenenter"",""1"",""3277""
","
","","","-1","","","10","6344","3633","&#9761;","elianto","#3366ff99","-1","-1","1","+10","[]","0","0","2","","","","","","","",""
"pit-trial","49","464819","0.0-2.0-11.2-2.2","battery-v0.2","","""event"",""trial"",""time""
""fullscreenenter"",""1"",""3277""
","
","
","""event"",""trial"",""time""
""fullscreenenter"",""1"",""3277""
","
","","","-1","","","10","6344","3633","&#9761;","elianto","#3366ff99","-1","-1","1","+10","[]","0","0","2","","","","","","","",""
"pit-trial","50","469676","0.0-2.0-11.2-3.2","battery-v0.2","","""event"",""trial"",""time""
""fullscreenenter"",""1"",""3277""
","
","
","""event"",""trial"",""time""
""fullscreenenter"",""1"",""3277""
","
","","","-1","","","10","6344","3633","&#9761;","elianto","#3366ff99","-1","-1","1","0","[]","0","0","2","","","","","","","",""
"pit-trial","51","474530","0.0-2.0-11.2-4.2","battery-v0.2","","""event"",""trial"",""time""
""fullscreenenter"",""1"",""3277""
","
","
","""event"",""trial"",""time""
""fullscreenenter"",""1"",""3277""
","
","","","-1","","","10","6344","3633","&#9761;","elianto","#3366ff99","-1","-1","1","+10","[]","0","0","2","","","","","","","",""
"pit-trial","52","479389","0.0-2.0-11.3-0.3","battery-v0.2","","""event"",""trial"",""time""
""fullscreenenter"",""1"",""3277""
","
","
","""event"",""trial"",""time""
""fullscreenenter"",""1"",""3277""
","
","","","-1","","","10","6344","3633","&#9761;","elianto","#3366ff99","-1","-1","1","+10","[]","0","0","2","","","","","","","",""
"pit-trial","53","484243","0.0-2.0-11.3-1.3","battery-v0.2","","""event"",""trial"",""time""
""fullscreenenter"",""1"",""3277""
","
","
","""event"",""trial"",""time""
""fullscreenenter"",""1"",""3277""
","
","","","-1","","","10","6344","3633","&#9761;","elianto","#3366ff99","-1","-1","1","+10","[]","0","0","2","","","","","","","",""
"pit-trial","54","489099","0.0-2.0-11.3-2.3","battery-v0.2","","""event"",""trial"",""time""
""fullscreenenter"",""1"",""3277""
","
","
","""event"",""trial"",""time""
""fullscreenenter"",""1"",""3277""
","
","","","-1","","","10","6344","3633","&#9761;","elianto","#3366ff99","-1","-1","1","+10","[]","0","0","2","","","","","","","",""
"pit-trial","55","493959","0.0-2.0-11.3-3.3","battery-v0.2","","""event"",""trial"",""time""
""fullscreenenter"",""1"",""3277""
","
","
","""event"",""trial"",""time""
""fullscreenenter"",""1"",""3277""
","
","","","-1","","","10","6344","3633","&#9761;","elianto","#3366ff99","-1","-1","1","0","[]","0","0","2","","","","","","","",""
"pit-trial","56","498814","0.0-2.0-11.3-4.3","battery-v0.2","","""event"",""trial"",""time""
""fullscreenenter"",""1"",""3277""
","
","
","""event"",""trial"",""time""
""fullscreenenter"",""1"",""3277""
","
","","","-1","","","10","6344","3633","&#9761;","elianto","#3366ff99","-1","-1","1","+10","[]","0","0","2","","","","","","","",""
"call-function","57","498818","0.0-2.0-12.0","battery-v0.2","","""event"",""trial"",""time""
""fullscreenenter"",""1"",""3277""
","
","
","""event"",""trial"",""time""
""fullscreenenter"",""1"",""3277""
","
","","","","","","","","","","","","","","","","","","","","","","","","","","",""
"pit-instructions","58","535280","0.0-2.0-13.0","battery-v0.2","","""event"",""trial"",""time""
""fullscreenenter"",""1"",""3277""
","
","
","""event"",""trial"",""time""
""fullscreenenter"",""1"",""3277""
","
","","[{""page_index"":0,""viewing_time"":10728.199999809265},{""page_index"":1,""viewing_time"":7507.200000047684},{""page_index"":2,""viewing_time"":3406.5},{""page_index"":3,""viewing_time"":10045},{""page_index"":4,""viewing_time"":4773.600000143051}]","36461.39999985695","","","","","","","","","","","","","","","","","","","","","","","",""
"pit-trial","59","538764","0.0-2.0-14.0-0.0","battery-v0.2","","""event"",""trial"",""time""
""fullscreenenter"",""1"",""3277""
","
","
","""event"",""trial"",""time""
""fullscreenenter"",""1"",""3277""
","
","","","610.8999998569489","","","10","6344","3633","&#9826;","elianto","#f73b6a7A","-1"," ","0","-10","[1464]","1","0","3","","","","","","","",""
"pit-trial","60","543637","0.0-2.0-14.0-1.0","battery-v0.2","","""event"",""trial"",""time""
""fullscreenenter"",""1"",""3277""
","
","
","""event"",""trial"",""time""
""fullscreenenter"",""1"",""3277""
","
","","","-1","","","10","6344","3633","&#9826;","elianto","#f73b6a7A","-1","-1","1","0","[]","0","0","3","","","","","","","",""
"pit-trial","61","548517","0.0-2.0-14.0-2.0","battery-v0.2","","""event"",""trial"",""time""
""fullscreenenter"",""1"",""3277""
","
","
","""event"",""trial"",""time""
""fullscreenenter"",""1"",""3277""
","
","","","-1","","","10","6344","3633","&#9826;","elianto","#f73b6a7A","-1","-1","1","0","[]","0","0","3","","","","","","","",""
"pit-trial","62","553408","0.0-2.0-14.0-3.0","battery-v0.2","","""event"",""trial"",""time""
""fullscreenenter"",""1"",""3277""
","
","
","""event"",""trial"",""time""
""fullscreenenter"",""1"",""3277""
","
","","","-1","","","10","6344","3633","&#9826;","elianto","#f73b6a7A","-1","-1","1","-10","[]","0","0","3","","","","","","","",""
"pit-trial","63","558283","0.0-2.0-14.0-4.0","battery-v0.2","","""event"",""trial"",""time""
""fullscreenenter"",""1"",""3277""
","
","
","""event"",""trial"",""time""
""fullscreenenter"",""1"",""3277""
","
","","","-1","","","10","6344","3633","&#9826;","elianto","#f73b6a7A","-1","-1","1","0","[]","0","0","3","","","","","","","",""
"pit-trial","64","563167","0.0-2.0-14.1-0.1","battery-v0.2","","""event"",""trial"",""time""
""fullscreenenter"",""1"",""3277""
","
","
","""event"",""trial"",""time""
""fullscreenenter"",""1"",""3277""
","
","","","-1","","","10","6344","3633","&#9826;","elianto","#f73b6a7A","-1","-1","1","0","[]","0","0","3","","","","","","","",""
"pit-trial","65","568022","0.0-2.0-14.1-1.1","battery-v0.2","","""event"",""trial"",""time""
""fullscreenenter"",""1"",""3277""
","
","
","""event"",""trial"",""time""
""fullscreenenter"",""1"",""3277""
","
","","","-1","","","10","6344","3633","&#9826;","elianto","#f73b6a7A","-1","-1","1","0","[]","0","0","3","","","","","","","",""
"pit-trial","66","572877","0.0-2.0-14.1-2.1","battery-v0.2","","""event"",""trial"",""time""
""fullscreenenter"",""1"",""3277""
","
","
","""event"",""trial"",""time""
""fullscreenenter"",""1"",""3277""
","
","","","-1","","","10","6344","3633","&#9826;","elianto","#f73b6a7A","-1","-1","1","0","[]","0","0","3","","","","","","","",""
"pit-trial","67","577732","0.0-2.0-14.1-3.1","battery-v0.2","","""event"",""trial"",""time""
""fullscreenenter"",""1"",""3277""
","
","
","""event"",""trial"",""time""
""fullscreenenter"",""1"",""3277""
","
","","","-1","","","10","6344","3633","&#9826;","elianto","#f73b6a7A","-1","-1","1","-10","[]","0","0","3","","","","","","","",""
"pit-trial","68","582588","0.0-2.0-14.1-4.1","battery-v0.2","","""event"",""trial"",""time""
""fullscreenenter"",""1"",""3277""
","
","
","""event"",""trial"",""time""
""fullscreenenter"",""1"",""3277""
","
","","","-1","","","10","6344","3633","&#9826;","elianto","#f73b6a7A","-1","-1","1","0","[]","0","0","3","","","","","","","",""
"pit-trial","69","587459","0.0-2.0-14.2-0.2","battery-v0.2","","""event"",""trial"",""time""
""fullscreenenter"",""1"",""3277""
","
","
","""event"",""trial"",""time""
""fullscreenenter"",""1"",""3277""
","
","","","-1","","","10","6344","3633","&#9826;","elianto","#f73b6a7A","-1","-1","1","0","[]","0","0","3","","","","","","","",""
"pit-trial","70","592315","0.0-2.0-14.2-1.2","battery-v0.2","","""event"",""trial"",""time""
""fullscreenenter"",""1"",""3277""
","
","
","""event"",""trial"",""time""
""fullscreenenter"",""1"",""3277""
","
","","","-1","","","10","6344","3633","&#9826;","elianto","#f73b6a7A","-1","-1","1","0","[]","0","0","3","","","","","","","",""
"pit-trial","71","597171","0.0-2.0-14.2-2.2","battery-v0.2","","""event"",""trial"",""time""
""fullscreenenter"",""1"",""3277""
","
","
","""event"",""trial"",""time""
""fullscreenenter"",""1"",""3277""
","
","","","-1","","","10","6344","3633","&#9826;","elianto","#f73b6a7A","-1","-1","1","0","[]","0","0","3","","","","","","","",""
"pit-trial","72","602034","0.0-2.0-14.2-3.2","battery-v0.2","","""event"",""trial"",""time""
""fullscreenenter"",""1"",""3277""
","
","
","""event"",""trial"",""time""
""fullscreenenter"",""1"",""3277""
","
","","","-1","","","10","6344","3633","&#9826;","elianto","#f73b6a7A","-1","-1","1","-10","[]","0","0","3","","","","","","","",""
"pit-trial","73","606890","0.0-2.0-14.2-4.2","battery-v0.2","","""event"",""trial"",""time""
""fullscreenenter"",""1"",""3277""
","
","
","""event"",""trial"",""time""
""fullscreenenter"",""1"",""3277""
","
","","","-1","","","10","6344","3633","&#9826;","elianto","#f73b6a7A","-1","-1","1","0","[]","0","0","3","","","","","","","",""
"pit-trial","74","611747","0.0-2.0-14.3-0.3","battery-v0.2","","""event"",""trial"",""time""
""fullscreenenter"",""1"",""3277""
","
","
","""event"",""trial"",""time""
""fullscreenenter"",""1"",""3277""
","
","","","-1","","","10","6344","3633","&#9826;","elianto","#f73b6a7A","-1","-1","1","0","[]","0","0","3","","","","","","","",""
"pit-trial","75","616602","0.0-2.0-14.3-1.3","battery-v0.2","","""event"",""trial"",""time""
""fullscreenenter"",""1"",""3277""
","
","
","""event"",""trial"",""time""
""fullscreenenter"",""1"",""3277""
","
","","","-1","","","10","6344","3633","&#9826;","elianto","#f73b6a7A","-1","-1","1","0","[]","0","0","3","","","","","","","",""
"pit-trial","76","621458","0.0-2.0-14.3-2.3","battery-v0.2","","""event"",""trial"",""time""
""fullscreenenter"",""1"",""3277""
","
","
","""event"",""trial"",""time""
""fullscreenenter"",""1"",""3277""
","
","","","-1","","","10","6344","3633","&#9826;","elianto","#f73b6a7A","-1","-1","1","0","[]","0","0","3","","","","","","","",""
"pit-trial","77","626313","0.0-2.0-14.3-3.3","battery-v0.2","","""event"",""trial"",""time""
""fullscreenenter"",""1"",""3277""
","
","
","""event"",""trial"",""time""
""fullscreenenter"",""1"",""3277""
","
","","","-1","","","10","6344","3633","&#9826;","elianto","#f73b6a7A","-1","-1","1","-10","[]","0","0","3","","","","","","","",""
"pit-trial","78","631168","0.0-2.0-14.3-4.3","battery-v0.2","","""event"",""trial"",""time""
""fullscreenenter"",""1"",""3277""
","
","
","""event"",""trial"",""time""
""fullscreenenter"",""1"",""3277""
","
","","","-1","","","10","6344","3633","&#9826;","elianto","#f73b6a7A","-1","-1","1","0","[]","0","0","3","","","","","","","",""
"call-function","79","631172","0.0-2.0-15.0","battery-v0.2","","""event"",""trial"",""time""
""fullscreenenter"",""1"",""3277""
","
","
","""event"",""trial"",""time""
""fullscreenenter"",""1"",""3277""
","
","","","","","","","","","","","","","","","","","","","","","","","","","","",""
"pit-instructions","80","667618","0.0-2.0-16.0","battery-v0.2","","""event"",""trial"",""time""
""fullscreenenter"",""1"",""3277""
","
","
","""event"",""trial"",""time""
""fullscreenenter"",""1"",""3277""
","
","","[{""page_index"":0,""viewing_time"":7326.099999904633},{""page_index"":1,""viewing_time"":8310.599999904633},{""page_index"":2,""viewing_time"":5516.100000143051},{""page_index"":3,""viewing_time"":15290.700000047684}]","36444.39999985695","","","","","","","","","","","","","","","","","","","","","","","",""
"pit-trial","81","670804","0.0-2.0-17.0-0.0","battery-v0.2","","""event"",""trial"",""time""
""fullscreenenter"",""1"",""3277""
","
","
","""event"",""trial"",""time""
""fullscreenenter"",""1"",""3277""
","
","","","327.2999999523163","","","10","6344","3633","&#9789;","elianto","#f73b6a7A"," "," ","1","0","[1180.2999999523163]","1","0","4","","","","","","","",""
"pit-trial","82","673815","0.0-2.0-17.0-1.0","battery-v0.2","","""event"",""trial"",""time""
""fullscreenenter"",""1"",""3277""
","
","
","""event"",""trial"",""time""
""fullscreenenter"",""1"",""3277""
","
","","","148","","","10","6344","3633","&#9789;","elianto","#f73b6a7A"," "," ","1","0","[1000.2999999523163]","1","0","4","","","","","","","",""
"pit-trial","83","676865","0.0-2.0-17.0-2.0","battery-v0.2","","""event"",""trial"",""time""
""fullscreenenter"",""1"",""3277""
","
","
","""event"",""trial"",""time""
""fullscreenenter"",""1"",""3277""
","
","","","179.59999990463257","","","10","6344","3633","&#9789;","elianto","#f73b6a7A"," "," ","1","0","[1038.4000000953674]","1","0","4","","","","","","","",""
"pit-trial","84","679946","0.0-2.0-17.0-3.0","battery-v0.2","","""event"",""trial"",""time""
""fullscreenenter"",""1"",""3277""
","
","
","""event"",""trial"",""time""
""fullscreenenter"",""1"",""3277""
","
","","","202.40000009536743","","","10","6344","3633","&#9789;","elianto","#f73b6a7A"," "," ","1","-10","[1061.3000001907349]","1","0","4","","","","","","","",""
"pit-trial","85","683155","0.0-2.0-17.0-4.0","battery-v0.2","","""event"",""trial"",""time""
""fullscreenenter"",""1"",""3277""
","
","
","""event"",""trial"",""time""
""fullscreenenter"",""1"",""3277""
","
","","","346.59999990463257","","","10","6344","3633","&#9789;","elianto","#f73b6a7A"," "," ","1","0","[1197.0999999046326]","1","0","4","","","","","","","",""
"pit-trial","86","686765","0.0-2.0-17.1-0.1","battery-v0.2","","""event"",""trial"",""time""
""fullscreenenter"",""1"",""3277""
","
","
","""event"",""trial"",""time""
""fullscreenenter"",""1"",""3277""
","
","","","750","","","10","6344","3633","&#9789;","elianto","#f73b6a7A"," "," ","1","0","[1601.5]","1","0","4","","","","","","","",""
"pit-trial","87","690124","0.0-2.0-17.1-1.1","battery-v0.2","","""event"",""trial"",""time""
""fullscreenenter"",""1"",""3277""
","
","
","""event"",""trial"",""time""
""fullscreenenter"",""1"",""3277""
","
","","","504.30000019073486","","","10","6344","3633","&#9789;","elianto","#f73b6a7A"," "," ","1","0","[1354.7999999523163]","1","0","4","","","","","","","",""
"pit-trial","88","693607","0.0-2.0-17.1-2.1","battery-v0.2","","""event"",""trial"",""time""
""fullscreenenter"",""1"",""3277""
","
","
","""event"",""trial"",""time""
""fullscreenenter"",""1"",""3277""
","
","","","625.2999999523163","","","10","6344","3633","&#9789;","elianto","#f73b6a7A"," "," ","1","0","[1475.7000000476837]","1","0","4","","","","","","","",""
"pit-trial","89","697029","0.0-2.0-17.1-3.1","battery-v0.2","","""event"",""trial"",""time""
""fullscreenenter"",""1"",""3277""
","
","
","""event"",""trial"",""time""
""fullscreenenter"",""1"",""3277""
","
","","","565.2999999523163","","","10","6344","3633","&#9789;","elianto","#f73b6a7A"," "," ","1","-10","[1416.3000001907349]","1","0","4","","","","","","","",""
"pit-trial","90","700245","0.0-2.0-17.1-4.1","battery-v0.2","","""event"",""trial"",""time""
""fullscreenenter"",""1"",""3277""
","
","
","""event"",""trial"",""time""
""fullscreenenter"",""1"",""3277""
","
","","","359.39999985694885","","","10","6344","3633","&#9789;","elianto","#f73b6a7A"," "," ","1","0","[1210.7000000476837]","1","0","4","","","","","","","",""
"pit-trial","91","703452","0.0-2.0-17.2-0.2","battery-v0.2","","""event"",""trial"",""time""
""fullscreenenter"",""1"",""3277""
","
","
","""event"",""trial"",""time""
""fullscreenenter"",""1"",""3277""
","
","","","350.10000014305115","","","10","6344","3633","&#9789;","elianto","#f73b6a7A"," "," ","1","0","[1201.8999998569489]","1","0","4","","","","","","","",""
"pit-trial","92","706876","0.0-2.0-17.2-1.2","battery-v0.2","","""event"",""trial"",""time""
""fullscreenenter"",""1"",""3277""
","
","
","""event"",""trial"",""time""
""fullscreenenter"",""1"",""3277""
","
","","","569.5","","","10","6344","3633","&#9789;","elianto","#f73b6a7A"," "," ","1","0","[1420.4000000953674]","1","0","4","","","","","","","",""
"pit-trial","93","710461","0.0-2.0-17.2-2.2","battery-v0.2","","""event"",""trial"",""time""
""fullscreenenter"",""1"",""3277""
","
","
","""event"",""trial"",""time""
""fullscreenenter"",""1"",""3277""
","
","","","725","","","10","6344","3633","&#9789;","elianto","#f73b6a7A"," "," ","1","0","[1580]","1","0","4","","","","","","","",""
"pit-trial","94","713909","0.0-2.0-17.2-3.2","battery-v0.2","","""event"",""trial"",""time""
""fullscreenenter"",""1"",""3277""
","
","
","""event"",""trial"",""time""
""fullscreenenter"",""1"",""3277""
","
","","","588.7000000476837","","","10","6344","3633","&#9789;","elianto","#f73b6a7A"," "," ","1","-10","[1442.7000000476837]","1","0","4","","","","","","","",""
"pit-trial","95","717789","0.0-2.0-17.2-4.2","battery-v0.2","","""event"",""trial"",""time""
""fullscreenenter"",""1"",""3277""
","
","
","""event"",""trial"",""time""
""fullscreenenter"",""1"",""3277""
","
","","","1025.3999998569489","","","10","6344","3633","&#9789;","elianto","#f73b6a7A"," "," ","1","0","[1875.7000000476837]","1","0","4","","","","","","","",""
"pit-trial","96","721286","0.0-2.0-17.3-0.3","battery-v0.2","","""event"",""trial"",""time""
""fullscreenenter"",""1"",""3277""
","
","
","""event"",""trial"",""time""
""fullscreenenter"",""1"",""3277""
","
","","","641.0999999046326","","","10","6344","3633","&#9789;","elianto","#f73b6a7A"," "," ","1","0","[1491.5999999046326]","1","0","4","","","","","","","",""
"pit-trial","97","724620","0.0-2.0-17.3-1.3","battery-v0.2","","""event"",""trial"",""time""
""fullscreenenter"",""1"",""3277""
","
","
","""event"",""trial"",""time""
""fullscreenenter"",""1"",""3277""
","
","","","478.90000009536743","","","10","6344","3633","&#9789;","elianto","#f73b6a7A"," "," ","1","0","[1329.7999999523163]","1","0","4","","","","","","","",""
"pit-trial","98","727708","0.0-2.0-17.3-2.3","battery-v0.2","","""event"",""trial"",""time""
""fullscreenenter"",""1"",""3277""
","
","
","""event"",""trial"",""time""
""fullscreenenter"",""1"",""3277""
","
","","","231.20000004768372","","","10","6344","3633","&#9789;","elianto","#f73b6a7A"," "," ","1","0","[1082.5]","1","0","4","","","","","","","",""
"pit-trial","99","731014","0.0-2.0-17.3-3.3","battery-v0.2","","""event"",""trial"",""time""
""fullscreenenter"",""1"",""3277""
","
","
","""event"",""trial"",""time""
""fullscreenenter"",""1"",""3277""
","
","","","451.09999990463257","","","10","6344","3633","&#9789;","elianto","#f73b6a7A"," "," ","1","-10","[1301.7999999523163]","1","0","4","","","","","","","",""
"pit-trial","100","734270","0.0-2.0-17.3-4.3","battery-v0.2","","""event"",""trial"",""time""
""fullscreenenter"",""1"",""3277""
","
","
","""event"",""trial"",""time""
""fullscreenenter"",""1"",""3277""
","
","","","398","","","10","6344","3633","&#9789;","elianto","#f73b6a7A"," "," ","1","0","[1251.7000000476837]","1","0","4","","","","","","","",""
"call-function","101","734274","0.0-2.0-18.0","battery-v0.2","","""event"",""trial"",""time""
""fullscreenenter"",""1"",""3277""
","
","
","""event"",""trial"",""time""
""fullscreenenter"",""1"",""3277""
","
","","","","","","","","","","","","","","","","","","","","","","","","","","",""
"pit-instructions","102","813800","0.0-2.0-19.0","battery-v0.2","","""event"",""trial"",""time""
""fullscreenenter"",""1"",""3277""
","
","
","""event"",""trial"",""time""
""fullscreenenter"",""1"",""3277""
","
","","[{""page_index"":0,""viewing_time"":7656.600000143051},{""page_index"":1,""viewing_time"":6324.299999952316},{""page_index"":2,""viewing_time"":14910.799999952316},{""page_index"":3,""viewing_time"":9215.099999904633},{""page_index"":4,""viewing_time"":8811.300000190735},{""page_index"":5,""viewing_time"":9017.699999809265},{""page_index"":6,""viewing_time"":8136.800000190735},{""page_index"":7,""viewing_time"":9205.299999952316},{""page_index"":8,""viewing_time"":6246.700000047684}]","79525.5","","","","","","","","","","","","","","","","","","","","","","","",""
"pit-comprehension","103","819413","0.0-2.0-20.0-0.0","battery-v0.2","","""event"",""trial"",""time""
""fullscreenenter"",""1"",""3277""
","
","
","""event"",""trial"",""time""
""fullscreenenter"",""1"",""3277""
","
","","","5604.200000047684","[""SPACE""]","0","10","6344","3633","","","","","","","","","","","","","","","","","","",""
"pit-instructions","104","823179","0.0-2.0-20.0-1.0","battery-v0.2","","""event"",""trial"",""time""
""fullscreenenter"",""1"",""3277""
","
","
","""event"",""trial"",""time""
""fullscreenenter"",""1"",""3277""
","
","","[{""page_index"":0,""viewing_time"":3537}]","3538.0999999046326","","","","","","","","","","","","","","","","","","","","","","","",""
"pit-comprehension","105","830207","0.0-2.0-21.0-0.0","battery-v0.2","","""event"",""trial"",""time""
""fullscreenenter"",""1"",""3277""
","
","
","""event"",""trial"",""time""
""fullscreenenter"",""1"",""3277""
","
","","","7019.200000047684","[""10""]","0","10","6344","3633","","","","","","","","","","","","","","","","","","",""
"pit-instructions","106","832275","0.0-2.0-21.0-1.0","battery-v0.2","","""event"",""trial"",""time""
""fullscreenenter"",""1"",""3277""
","
","
","""event"",""trial"",""time""
""fullscreenenter"",""1"",""3277""
","
","","[{""page_index"":0,""viewing_time"":1927.5999999046326}]","1928.2999999523163","","","","","","","","","","","","","","","","","","","","","","","",""
"pit-comprehension","107","839537","0.0-2.0-22.0-0.0","battery-v0.2","","""event"",""trial"",""time""
""fullscreenenter"",""1"",""3277""
","
","
","""event"",""trial"",""time""
""fullscreenenter"",""1"",""3277""
","
","","","7254.5","[""0""]","0","10","6344","3633","","","","","","","","","","","","","","","","","","",""
"pit-instructions","108","841275","0.0-2.0-22.0-1.0","battery-v0.2","","""event"",""trial"",""time""
""fullscreenenter"",""1"",""3277""
","
","
","""event"",""trial"",""time""
""fullscreenenter"",""1"",""3277""
","
","","[{""page_index"":0,""viewing_time"":1587.4000000953674}]","1588.5","","","","","","","","","","","","","","","","","","","","","","","",""
"pit-comprehension","109","850821","0.0-2.0-23.0-0.0","battery-v0.2","","""event"",""trial"",""time""
""fullscreenenter"",""1"",""3277""
","
","
","""event"",""trial"",""time""
""fullscreenenter"",""1"",""3277""
","
","","","9539.200000047684","[""True""]","0","10","6344","3633","","","","","","","","","","","","","","","","","","",""
"pit-instructions","110","854083","0.0-2.0-23.0-1.0","battery-v0.2","","""event"",""trial"",""time""
""fullscreenenter"",""1"",""3277""
","
","
","""event"",""trial"",""time""
""fullscreenenter"",""1"",""3277""
","
","","[{""page_index"":0,""viewing_time"":3112.399999856949}]","3113.2000000476837","","","","","","","","","","","","","","","","","","","","","","","",""
"pit-comprehension","111","864826","0.0-2.0-24.0-0.0","battery-v0.2","","""event"",""trial"",""time""
""fullscreenenter"",""1"",""3277""
","
","
","""event"",""trial"",""time""
""fullscreenenter"",""1"",""3277""
","
","","","10734.900000095367","[""True""]","0","10","6344","3633","","","","","","","","","","","","","","","","","","",""
"pit-instructions","112","866643","0.0-2.0-24.0-1.0","battery-v0.2","","""event"",""trial"",""time""
""fullscreenenter"",""1"",""3277""
","
","
","""event"",""trial"",""time""
""fullscreenenter"",""1"",""3277""
","
","","[{""page_index"":0,""viewing_time"":1660.8000001907349}]","1661.8000001907349","","","","","","","","","","","","","","","","","","","","","","","",""
"pit-comprehension","113","873119","0.0-2.0-25.0-0.0","battery-v0.2","","""event"",""trial"",""time""
""fullscreenenter"",""1"",""3277""
","
","
","""event"",""trial"",""time""
""fullscreenenter"",""1"",""3277""
","
","","","6469.399999856949","[""True""]","0","10","6344","3633","","","","","","","","","","","","","","","","","","",""
"pit-instructions","114","875076","0.0-2.0-25.0-1.0","battery-v0.2","","""event"",""trial"",""time""
""fullscreenenter"",""1"",""3277""
","
","
","""event"",""trial"",""time""
""fullscreenenter"",""1"",""3277""
","
","","[{""page_index"":0,""viewing_time"":1805.7000000476837}]","1806.2000000476837","","","","","","","","","","","","","","","","","","","","","","","",""
"pit-comprehension","115","880643","0.0-2.0-26.0-0.0","battery-v0.2","","""event"",""trial"",""time""
""fullscreenenter"",""1"",""3277""
","
","
","""event"",""trial"",""time""
""fullscreenenter"",""1"",""3277""
","
","","","5558.200000047684","[""False""]","0","10","6344","3633","","","","","","","","","","","","","","","","","","",""
"pit-instructions","116","882409","0.0-2.0-26.0-1.0","battery-v0.2","","""event"",""trial"",""time""
""fullscreenenter"",""1"",""3277""
","
","
","""event"",""trial"",""time""
""fullscreenenter"",""1"",""3277""
","
","","[{""page_index"":0,""viewing_time"":1608.1999998092651}]","1608.8999998569489","","","","","","","","","","","","","","","","","","","","","","","",""
"pit-instructions","117","902114","0.0-3.0","battery-v0.2","","""event"",""trial"",""time""
""fullscreenenter"",""1"",""3277""
","
","
","""event"",""trial"",""time""
""fullscreenenter"",""1"",""3277""
","
","","[{""page_index"":0,""viewing_time"":4149.799999952316},{""page_index"":1,""viewing_time"":5280.5},{""page_index"":2,""viewing_time"":10267.700000047684}]","19699.89999985695","","","","","","","","","","","","","","","","","","","","","","","",""
"pit-trial","118","905803","0.0-4.0","battery-v0.2","","""event"",""trial"",""time""
""fullscreenenter"",""1"",""3277""
","
","
","""event"",""trial"",""time""
""fullscreenenter"",""1"",""3277""
","
","","","821.5","","","10","6344","3633","&#9733;","elianto","#3366ff99","-1"," ","0","0","[1678.1999998092651]","1","1","","","6344","1","2","2","win","no-go","0"
"pit-trial","119","909324","0.0-5.0","battery-v0.2","","""event"",""trial"",""time""
""fullscreenenter"",""1"",""3277""
","
","
","""event"",""trial"",""time""
""fullscreenenter"",""1"",""3277""
","
","","","650.2000000476837","","","10","6344","3633","&#9728;","elianto","#f73b6a7A","-1"," ","0","0","[1506.8999998569489]","1","1","","","6344","2","0","4","lose","no-go","1"
"pit-trial","120","912924","0.0-6.0","battery-v0.2","","""event"",""trial"",""time""
""fullscreenenter"",""1"",""3277""
","
","
","""event"",""trial"",""time""
""fullscreenenter"",""1"",""3277""
","
","","","724.4000000953674","","","10","6344","3633","&#9752;","elianto","#f73b6a7A"," "," ","1","0","[1578.1999998092651]","1","1","","","6344","3","3","3","lose","go","0"
"pit-trial","121","917795","0.0-7.0","battery-v0.2","","""event"",""trial"",""time""
""fullscreenenter"",""1"",""3277""
","
","
","""event"",""trial"",""time""
""fullscreenenter"",""1"",""3277""
","
","","","-1","","","10","6344","3633","&#9730;","elianto","#3366ff99"," ","-1","0","0","[]","0","1","","","6344","4","1","1","win","go","0"
"pit-trial","122","922674","0.0-8.0","battery-v0.2","","""event"",""trial"",""time""
""fullscreenenter"",""1"",""3277""
","
","
","""event"",""trial"",""time""
""fullscreenenter"",""1"",""3277""
","
","","","-1","","","10","6344","3633","&#9752;","elianto","#f73b6a7A"," ","-1","0","-10","[3139.2000000476837]","1","1","","","6344","5","3","3","lose","go","0"
"pit-trial","123","927555","0.0-9.0","battery-v0.2","","""event"",""trial"",""time""
""fullscreenenter"",""1"",""3277""
","
","
","""event"",""trial"",""time""
""fullscreenenter"",""1"",""3277""
","
","","","-1","","","10","6344","3633","&#9733;","elianto","#3366ff99","-1","-1","1","+10","[]","0","1","","","6344","6","2","2","win","no-go","0"
"pit-trial","124","931988","0.0-10.0","battery-v0.2","","""event"",""trial"",""time""
""fullscreenenter"",""1"",""3277""
","
","
","""event"",""trial"",""time""
""fullscreenenter"",""1"",""3277""
","
","","","1570.5999999046326","","","10","6344","3633","&#9730;","elianto","#3366ff99"," "," ","1","+10","[2428.7999999523163]","1","1","","","6344","7","1","1","win","go","0"
"pit-trial","125","935526","0.0-11.0","battery-v0.2","","""event"",""trial"",""time""
""fullscreenenter"",""1"",""3277""
","
","
","""event"",""trial"",""time""
""fullscreenenter"",""1"",""3277""
","
","","","675","","","10","6344","3633","&#9728;","elianto","#f73b6a7A","-1"," ","0","-10","[1533.2000000476837]","1","1","","","6344","8","0","4","lose","no-go","0"
"pit-trial","126","939468","0.0-12.0","battery-v0.2","","""event"",""trial"",""time""
""fullscreenenter"",""1"",""3277""
","
","
","""event"",""trial"",""time""
""fullscreenenter"",""1"",""3277""
","
","","","1077.9000000953674","","","10","6344","3633","&#9733;","elianto","#3366ff99","-1"," ","0","0","[1929.6000001430511]","1","1","","","6344","9","2","2","win","no-go","0"
"pit-trial","127","943101","0.0-13.0","battery-v0.2","","""event"",""trial"",""time""
""fullscreenenter"",""1"",""3277""
","
","
","""event"",""trial"",""time""
""fullscreenenter"",""1"",""3277""
","
","","","777.5","","","10","6344","3633","&#9752;","elianto","#f73b6a7A"," "," ","1","0","[1628.6000001430511]","1","1","","","6344","10","3","3","lose","go","0"
"pit-trial","128","946854","0.0-14.0","battery-v0.2","","""event"",""trial"",""time""
""fullscreenenter"",""1"",""3277""
","
","
","""event"",""trial"",""time""
""fullscreenenter"",""1"",""3277""
","
","","","896.7000000476837","","","10","6344","3633","&#9728;","elianto","#f73b6a7A","-1"," ","0","-10","[1747.5]","1","1","","","6344","11","0","4","lose","no-go","0"
"pit-trial","129","950325","0.0-15.0","battery-v0.2","","""event"",""trial"",""time""
""fullscreenenter"",""1"",""3277""
","
","
","""event"",""trial"",""time""
""fullscreenenter"",""1"",""3277""
","
","","","616.0999999046326","","","10","6344","3633","&#9730;","elianto","#3366ff99"," "," ","1","+10","[1467]","1","1","","","6344","12","1","1","win","go","0"
"pit-trial","130","953700","0.0-16.0","battery-v0.2","","""event"",""trial"",""time""
""fullscreenenter"",""1"",""3277""
","
","
","""event"",""trial"",""time""
""fullscreenenter"",""1"",""3277""
","
","","","518.7999999523163","","","10","6344","3633","&#9730;","elianto","#3366ff99"," "," ","1","0","[1370.5999999046326]","1","1","","","6344","13","1","1","win","go","1"
"pit-trial","131","957213","0.0-17.0","battery-v0.2","","""event"",""trial"",""time""
""fullscreenenter"",""1"",""3277""
","
","
","""event"",""trial"",""time""
""fullscreenenter"",""1"",""3277""
","
","","","655.5999999046326","","","10","6344","3633","&#9728;","elianto","#f73b6a7A","-1"," ","0","-10","[1508]","1","1","","","6344","14","0","4","lose","no-go","0"
"pit-trial","132","960750","0.0-18.0","battery-v0.2","","""event"",""trial"",""time""
""fullscreenenter"",""1"",""3277""
","
","
","""event"",""trial"",""time""
""fullscreenenter"",""1"",""3277""
","
","","","681.2000000476837","","","10","6344","3633","&#9752;","elianto","#f73b6a7A"," "," ","1","0","[1531.5]","1","1","","","6344","15","3","3","lose","go","0"
"pit-trial","133","964213","0.0-19.0","battery-v0.2","","""event"",""trial"",""time""
""fullscreenenter"",""1"",""3277""
","
","
","""event"",""trial"",""time""
""fullscreenenter"",""1"",""3277""
","
","","","605.1000001430511","","","10","6344","3633","&#9733;","elianto","#3366ff99","-1"," ","0","0","[1458.4000000953674]","1","1","","","6344","16","2","2","win","no-go","0"
"pit-trial","134","967909","0.0-20.0","battery-v0.2","","""event"",""trial"",""time""
""fullscreenenter"",""1"",""3277""
","
","
","""event"",""trial"",""time""
""fullscreenenter"",""1"",""3277""
","
","","","841.5","","","10","6344","3633","&#9728;","elianto","#f73b6a7A","-1"," ","0","-10","[1691.5]","1","1","","","6344","17","0","4","lose","no-go","0"
"pit-trial","135","971389","0.0-21.0","battery-v0.2","","""event"",""trial"",""time""
""fullscreenenter"",""1"",""3277""
","
","
","""event"",""trial"",""time""
""fullscreenenter"",""1"",""3277""
","
","","","624.6000001430511","","","10","6344","3633","&#9733;","elianto","#3366ff99","-1"," ","0","+10","[1475.9000000953674]","1","1","","","6344","18","2","2","win","no-go","1"
"pit-trial","136","975239","0.0-22.0","battery-v0.2","","""event"",""trial"",""time""
""fullscreenenter"",""1"",""3277""
","
","
","""event"",""trial"",""time""
""fullscreenenter"",""1"",""3277""
","
","","","993.5","","","10","6344","3633","&#9752;","elianto","#f73b6a7A"," "," ","1","0","[1844.0999999046326]","1","1","","","6344","19","3","3","lose","go","0"
"pit-trial","137","979070","0.0-23.0","battery-v0.2","","""event"",""trial"",""time""
""fullscreenenter"",""1"",""3277""
","
","
","""event"",""trial"",""time""
""fullscreenenter"",""1"",""3277""
","
","","","975.8999998569489","","","10","6344","3633","&#9730;","elianto","#3366ff99"," "," ","1","+10","[1827.0999999046326]","1","1","","","6344","20","1","1","win","go","0"
"pit-instructions","138","996795","0.0-24.0","battery-v0.2","","""event"",""trial"",""time""
""fullscreenenter"",""1"",""3277""
","
","
","""event"",""trial"",""time""
""fullscreenenter"",""1"",""3277""
","
","","[{""page_index"":0,""viewing_time"":7335.099999904633},{""page_index"":1,""viewing_time"":10386.400000095367}]","17722.099999904633","","","","","","","","","","","","","","","","","","","","","","","",""
"pit-trial","139","1000047","0.0-25.0","battery-v0.2","","""event"",""trial"",""time""
""fullscreenenter"",""1"",""3277""
","
","
","""event"",""trial"",""time""
""fullscreenenter"",""1"",""3277""
","
","","","380.7000000476837","","","10","6344","3633","b","elianto","#f73b6a7A"," "," ","1","-10","[1235.2000000476837]","1","2","","","6344","21","3","3","lose","go","1"
"pit-trial","140","1003397","0.0-26.0","battery-v0.2","","""event"",""trial"",""time""
""fullscreenenter"",""1"",""3277""
","
","
","""event"",""trial"",""time""
""fullscreenenter"",""1"",""3277""
","
","","","473.90000009536743","","","10","6344","3633","f","elianto","#3366ff99"," "," ","1","0","[1329.5]","1","2","","","6344","22","1","1","win","go","1"
"pit-trial","141","1008278","0.0-27.0","battery-v0.2","","""event"",""trial"",""time""
""fullscreenenter"",""1"",""3277""
","
","
","""event"",""trial"",""time""
""fullscreenenter"",""1"",""3277""
","
","","","-1","","","10","6344","3633","n","elianto","#f73b6a7A","-1","-1","1","0","[]","0","2","","","6344","23","0","4","lose","no-go","0"
"pit-trial","142","1012687","0.0-28.0","battery-v0.2","","""event"",""trial"",""time""
""fullscreenenter"",""1"",""3277""
","
","
","""event"",""trial"",""time""
""fullscreenenter"",""1"",""3277""
","
","","","1546","","","10","6344","3633","t","elianto","#f73b6a7A","-1"," ","0","-10","[2405]","1","2","","","6344","24","2","4","lose","no-go","0"
"pit-trial","143","1016728","0.0-29.0","battery-v0.2","","""event"",""trial"",""time""
""fullscreenenter"",""1"",""3277""
","
","
","""event"",""trial"",""time""
""fullscreenenter"",""1"",""3277""
","
","","","1179.5","","","10","6344","3633","b","elianto","#f73b6a7A"," "," ","1","0","[2034.3999998569489]","1","2","","","6344","25","3","3","lose","go","0"
"pit-trial","144","1021603","0.0-30.0","battery-v0.2","","""event"",""trial"",""time""
""fullscreenenter"",""1"",""3277""
","
","
","""event"",""trial"",""time""
""fullscreenenter"",""1"",""3277""
","
","","","-1","","","10","6344","3633","n","elianto","#f73b6a7A","-1","-1","1","0","[]","0","2","","","6344","26","0","4","lose","no-go","0"
"pit-trial","145","1026459","0.0-31.0","battery-v0.2","","""event"",""trial"",""time""
""fullscreenenter"",""1"",""3277""
","
","
","""event"",""trial"",""time""
""fullscreenenter"",""1"",""3277""
","
","","","-1","","","10","6344","3633","f","elianto","#3366ff99"," ","-1","0","0","[2862.5]","1","2","","","6344","27","1","1","win","go","0"
"pit-trial","146","1030416","0.0-32.0","battery-v0.2","","""event"",""trial"",""time""
""fullscreenenter"",""1"",""3277""
","
","
","""event"",""trial"",""time""
""fullscreenenter"",""1"",""3277""
","
","","","1101.6000001430511","","","10","6344","3633","t","elianto","#f73b6a7A","-1"," ","0","-10","[1952,2848.199999809265,3384.0999999046326]","3","2","","","6344","28","2","4","lose","no-go","0"
"pit-trial","147","1033776","0.0-33.0","battery-v0.2","","""event"",""trial"",""time""
""fullscreenenter"",""1"",""3277""
","
","
","""event"",""trial"",""time""
""fullscreenenter"",""1"",""3277""
","
","","","505","","","10","6344","3633","f","elianto","#3366ff99"," "," ","1","+10","[44.89999985694885,1355.0999999046326]","2","2","","","6344","29","1","1","win","go","0"
"pit-trial","148","1038631","0.0-34.0","battery-v0.2","","""event"",""trial"",""time""
""fullscreenenter"",""1"",""3277""
","
","
","""event"",""trial"",""time""
""fullscreenenter"",""1"",""3277""
","
","","","-1","","","10","6344","3633","b","elianto","#f73b6a7A"," ","-1","0","-10","[]","0","2","","","6344","30","3","3","lose","go","0"
"pit-trial","149","1043486","0.0-35.0","battery-v0.2","","""event"",""trial"",""time""
""fullscreenenter"",""1"",""3277""
","
","
","""event"",""trial"",""time""
""fullscreenenter"",""1"",""3277""
","
","","","-1","","","10","6344","3633","n","elianto","#f73b6a7A","-1","-1","1","0","[]","0","2","","","6344","31","0","4","lose","no-go","0"
"pit-trial","150","1046872","0.0-36.0","battery-v0.2","","""event"",""trial"",""time""
""fullscreenenter"",""1"",""3277""
","
","
","""event"",""trial"",""time""
""fullscreenenter"",""1"",""3277""
","
","","","529.5","","","10","6344","3633","t","elianto","#f73b6a7A","-1"," ","0","0","[1381]","1","2","","","6344","32","2","4","lose","no-go","1"
"pit-trial","151","1050342","0.0-37.0","battery-v0.2","","""event"",""trial"",""time""
""fullscreenenter"",""1"",""3277""
","
","
","""event"",""trial"",""time""
""fullscreenenter"",""1"",""3277""
","
","","","614.0999999046326","","","10","6344","3633","t","elianto","#f73b6a7A","-1"," ","0","0","[1465.1999998092651]","1","2","","","6344","33","2","4","lose","no-go","1"
"pit-trial","152","1054663","0.0-38.0","battery-v0.2","","""event"",""trial"",""time""
""fullscreenenter"",""1"",""3277""
","
","
","""event"",""trial"",""time""
""fullscreenenter"",""1"",""3277""
","
","","","1461","","","10","6344","3633","f","elianto","#3366ff99"," "," ","1","+10","[2315.7999999523163]","1","2","","","6344","34","1","1","win","go","0"
"pit-trial","153","1059518","0.0-39.0","battery-v0.2","","""event"",""trial"",""time""
""fullscreenenter"",""1"",""3277""
","
","
","""event"",""trial"",""time""
""fullscreenenter"",""1"",""3277""
","
","","","-1","","","10","6344","3633","b","elianto","#f73b6a7A"," ","-1","0","-10","[]","0","2","","","6344","35","3","3","lose","go","0"
"pit-trial","154","1063418","0.0-40.0","battery-v0.2","","""event"",""trial"",""time""
""fullscreenenter"",""1"",""3277""
","
","
","""event"",""trial"",""time""
""fullscreenenter"",""1"",""3277""
","
","","","1044.2000000476837","","","10","6344","3633","n","elianto","#f73b6a7A","-1"," ","0","0","[1894.7999999523163]","1","2","","","6344","36","0","4","lose","no-go","1"
"pit-trial","155","1067713","0.0-41.0","battery-v0.2","","""event"",""trial"",""time""
""fullscreenenter"",""1"",""3277""
","
","
","""event"",""trial"",""time""
""fullscreenenter"",""1"",""3277""
","
","","","1439.5","","","10","6344","3633","b","elianto","#f73b6a7A"," "," ","1","0","[2290.399999856949]","1","2","","","6344","37","3","3","lose","go","0"
"pit-trial","156","1071848","0.0-42.0","battery-v0.2","","""event"",""trial"",""time""
""fullscreenenter"",""1"",""3277""
","
","
","""event"",""trial"",""time""
""fullscreenenter"",""1"",""3277""
","
","","","1279.5","","","10","6344","3633","n","elianto","#f73b6a7A","-1"," ","0","-10","[2131.5,2308]","2","2","","","6344","38","0","4","lose","no-go","0"
"pit-trial","157","1075545","0.0-43.0","battery-v0.2","","""event"",""trial"",""time""
""fullscreenenter"",""1"",""3277""
","
","
","""event"",""trial"",""time""
""fullscreenenter"",""1"",""3277""
","
","","","841","","","10","6344","3633","f","elianto","#3366ff99"," "," ","1","+10","[1691.2999999523163]","1","2","","","6344","39","1","1","win","go","0"
"pit-trial","158","1079920","0.0-44.0","battery-v0.2","","""event"",""trial"",""time""
""fullscreenenter"",""1"",""3277""
","
","
","""event"",""trial"",""time""
""fullscreenenter"",""1"",""3277""
","
","","","1519.2000000476837","","","10","6344","3633","t","elianto","#f73b6a7A","-1"," ","0","-10","[2370.600000143051]","1","2","","","6344","40","2","4","lose","no-go","0"
"pit-trial","159","1083403","0.0-45.0","battery-v0.2","","""event"",""trial"",""time""
""fullscreenenter"",""1"",""3277""
","
","
","""event"",""trial"",""time""
""fullscreenenter"",""1"",""3277""
","
","","","625.6999998092651","","","10","6344","3633","f","elianto","#3366ff99"," "," ","1","+10","[1476]","1","2","","","6344","41","1","1","win","go","0"
"pit-trial","160","1087914","0.0-46.0","battery-v0.2","","""event"",""trial"",""time""
""fullscreenenter"",""1"",""3277""
","
","
","""event"",""trial"",""time""
""fullscreenenter"",""1"",""3277""
","
","","","1656.2999999523163","","","10","6344","3633","t","elianto","#f73b6a7A","-1"," ","0","-10","[2506.4000000953674]","1","2","","","6344","42","2","4","lose","no-go","0"
"pit-trial","161","1091978","0.0-47.0","battery-v0.2","","""event"",""trial"",""time""
""fullscreenenter"",""1"",""3277""
","
","
","""event"",""trial"",""time""
""fullscreenenter"",""1"",""3277""
","
","","","1207.5","","","10","6344","3633","b","elianto","#f73b6a7A"," "," ","1","0","[2059.2999999523163]","1","2","","","6344","43","3","3","lose","go","0"
"pit-trial","162","1096481","0.0-48.0","battery-v0.2","","""event"",""trial"",""time""
""fullscreenenter"",""1"",""3277""
","
","
","""event"",""trial"",""time""
""fullscreenenter"",""1"",""3277""
","
","","","1643.2999999523163","","","10","6344","3633","n","elianto","#f73b6a7A","-1"," ","0","0","[2497.2000000476837]","1","2","","","6344","44","0","4","lose","no-go","1"
"pit-trial","163","1101337","0.0-49.0","battery-v0.2","","""event"",""trial"",""time""
""fullscreenenter"",""1"",""3277""
","
","
","""event"",""trial"",""time""
""fullscreenenter"",""1"",""3277""
","
","","","-1","","","10","6344","3633","t","elianto","#f73b6a7A","-1","-1","1","0","[]","0","2","","","6344","45","2","4","lose","no-go","0"
"pit-trial","164","1105283","0.0-50.0","battery-v0.2","","""event"",""trial"",""time""
""fullscreenenter"",""1"",""3277""
","
","
","""event"",""trial"",""time""
""fullscreenenter"",""1"",""3277""
","
","","","1089.3000001907349","","","10","6344","3633","n","elianto","#f73b6a7A","-1"," ","0","-10","[1940.5]","1","2","","","6344","46","0","4","lose","no-go","0"
"pit-trial","165","1109146","0.0-51.0","battery-v0.2","","""event"",""trial"",""time""
""fullscreenenter"",""1"",""3277""
","
","
","""event"",""trial"",""time""
""fullscreenenter"",""1"",""3277""
","
","","","1006.5999999046326","","","10","6344","3633","b","elianto","#f73b6a7A"," "," ","1","0","[1858.2999999523163]","1","2","","","6344","47","3","3","lose","go","0"
"pit-trial","166","1112746","0.0-52.0","battery-v0.2","","""event"",""trial"",""time""
""fullscreenenter"",""1"",""3277""
","
","
","""event"",""trial"",""time""
""fullscreenenter"",""1"",""3277""
","
","","","740.5999999046326","","","10","6344","3633","c","elianto","#3366ff99","-1"," ","0","0","[1594.1999998092651]","1","2","","","6344","48","4","2","win","no-go","0"
"pit-trial","167","1116986","0.0-53.0","battery-v0.2","","""event"",""trial"",""time""
""fullscreenenter"",""1"",""3277""
","
","
","""event"",""trial"",""time""
""fullscreenenter"",""1"",""3277""
","
","","","1380.8999998569489","","","10","6344","3633","n","elianto","#f73b6a7A","-1"," ","0","-10","[2235.9000000953674]","1","2","","","6344","49","0","4","lose","no-go","0"
"pit-trial","168","1121842","0.0-54.0","battery-v0.2","","""event"",""trial"",""time""
""fullscreenenter"",""1"",""3277""
","
","
","""event"",""trial"",""time""
""fullscreenenter"",""1"",""3277""
","
","","","-1","","","10","6344","3633","c","elianto","#3366ff99","-1","-1","1","+10","[]","0","2","","","6344","50","4","2","win","no-go","0"
"pit-trial","169","1126139","0.0-55.0","battery-v0.2","","""event"",""trial"",""time""
""fullscreenenter"",""1"",""3277""
","
","
","""event"",""trial"",""time""
""fullscreenenter"",""1"",""3277""
","
","","","1441.7999999523163","","","10","6344","3633","f","elianto","#3366ff99"," "," ","1","+10","[2292.199999809265]","1","2","","","6344","51","1","1","win","go","0"
"pit-trial","170","1129811","0.0-56.0","battery-v0.2","","""event"",""trial"",""time""
""fullscreenenter"",""1"",""3277""
","
","
","""event"",""trial"",""time""
""fullscreenenter"",""1"",""3277""
","
","","","817","","","10","6344","3633","b","elianto","#f73b6a7A"," "," ","1","0","[1667.4000000953674]","1","2","","","6344","52","3","3","lose","go","0"
"pit-trial","171","1133283","0.0-57.0","battery-v0.2","","""event"",""trial"",""time""
""fullscreenenter"",""1"",""3277""
","
","
","""event"",""trial"",""time""
""fullscreenenter"",""1"",""3277""
","
","","","616.5","","","10","6344","3633","t","elianto","#f73b6a7A","-1"," ","0","-10","[1467.4000000953674]","1","2","","","6344","53","2","4","lose","no-go","0"
"pit-trial","172","1136707","0.0-58.0","battery-v0.2","","""event"",""trial"",""time""
""fullscreenenter"",""1"",""3277""
","
","
","""event"",""trial"",""time""
""fullscreenenter"",""1"",""3277""
","
","","","566.5999999046326","","","10","6344","3633","c","elianto","#3366ff99","-1"," ","0","0","[1418.7000000476837]","1","2","","","6344","54","4","2","win","no-go","0"
"pit-trial","173","1140157","0.0-59.0","battery-v0.2","","""event"",""trial"",""time""
""fullscreenenter"",""1"",""3277""
","
","
","""event"",""trial"",""time""
""fullscreenenter"",""1"",""3277""
","
","","","592.5999999046326","","","10","6344","3633","f","elianto","#3366ff99"," "," ","1","0","[1444.2999999523163]","1","2","","","6344","55","1","1","win","go","1"
"pit-trial","174","1145012","0.0-60.0","battery-v0.2","","""event"",""trial"",""time""
""fullscreenenter"",""1"",""3277""
","
","
","""event"",""trial"",""time""
""fullscreenenter"",""1"",""3277""
","
","","","-1","","","10","6344","3633","n","elianto","#f73b6a7A","-1","-1","1","0","[]","0","2","","","6344","56","0","4","lose","no-go","0"
"pit-trial","175","1148875","0.0-61.0","battery-v0.2","","""event"",""trial"",""time""
""fullscreenenter"",""1"",""3277""
","
","
","""event"",""trial"",""time""
""fullscreenenter"",""1"",""3277""
","
","","","1007.6999998092651","","","10","6344","3633","n","elianto","#f73b6a7A","-1"," ","0","-10","[1858.3999998569489]","1","2","","","6344","57","0","4","lose","no-go","0"
"pit-trial","176","1152372","0.0-62.0","battery-v0.2","","""event"",""trial"",""time""
""fullscreenenter"",""1"",""3277""
","
","
","""event"",""trial"",""time""
""fullscreenenter"",""1"",""3277""
","
","","","641","","","10","6344","3633","c","elianto","#3366ff99","-1"," ","0","+10","[1491.2000000476837]","1","2","","","6344","58","4","2","win","no-go","1"
"pit-trial","177","1156371","0.0-63.0","battery-v0.2","","""event"",""trial"",""time""
""fullscreenenter"",""1"",""3277""
","
","
","""event"",""trial"",""time""
""fullscreenenter"",""1"",""3277""
","
","","","1143.6000001430511","","","10","6344","3633","f","elianto","#3366ff99"," "," ","1","+10","[1994.1000001430511]","1","2","","","6344","59","1","1","win","go","0"
"pit-trial","178","1159964","0.0-64.0","battery-v0.2","","""event"",""trial"",""time""
""fullscreenenter"",""1"",""3277""
","
","
","""event"",""trial"",""time""
""fullscreenenter"",""1"",""3277""
","
","","","736.5","","","10","6344","3633","b","elianto","#f73b6a7A"," "," ","1","0","[1587.5]","1","2","","","6344","60","3","3","lose","go","0"
"pit-trial","179","1163572","0.0-65.0","battery-v0.2","","""event"",""trial"",""time""
""fullscreenenter"",""1"",""3277""
","
","
","""event"",""trial"",""time""
""fullscreenenter"",""1"",""3277""
","
","","","752.5999999046326","","","10","6344","3633","b","elianto","#f73b6a7A"," "," ","1","0","[1603.2999999523163]","1","2","","","6344","61","3","3","lose","go","0"
"pit-trial","180","1166941","0.0-66.0","battery-v0.2","","""event"",""trial"",""time""
""fullscreenenter"",""1"",""3277""
","
","
","""event"",""trial"",""time""
""fullscreenenter"",""1"",""3277""
","
","","","513","","","10","6344","3633","c","elianto","#3366ff99","-1"," ","0","+10","[1363.6000001430511]","1","2","","","6344","62","4","2","win","no-go","1"
"pit-trial","181","1170324","0.0-67.0","battery-v0.2","","""event"",""trial"",""time""
""fullscreenenter"",""1"",""3277""
","
","
","""event"",""trial"",""time""
""fullscreenenter"",""1"",""3277""
","
","","","527.7000000476837","","","10","6344","3633","f","elianto","#3366ff99"," "," ","1","+10","[1378]","1","2","","","6344","63","1","1","win","go","0"
"pit-trial","182","1173902","0.0-68.0","battery-v0.2","","""event"",""trial"",""time""
""fullscreenenter"",""1"",""3277""
","
","
","""event"",""trial"",""time""
""fullscreenenter"",""1"",""3277""
","
","","","720.4000000953674","","","10","6344","3633","t","elianto","#f73b6a7A","-1"," ","0","-10","[1571.7999999523163]","1","2","","","6344","64","2","4","lose","no-go","0"
"pit-trial","183","1177563","0.0-69.0","battery-v0.2","","""event"",""trial"",""time""
""fullscreenenter"",""1"",""3277""
","
","
","""event"",""trial"",""time""
""fullscreenenter"",""1"",""3277""
","
","","","802.5","","","10","6344","3633","c","elianto","#3366ff99","-1"," ","0","0","[1656.5]","1","2","","","6344","65","4","2","win","no-go","0"
"pit-trial","184","1181388","0.0-70.0","battery-v0.2","","""event"",""trial"",""time""
""fullscreenenter"",""1"",""3277""
","
","
","""event"",""trial"",""time""
""fullscreenenter"",""1"",""3277""
","
","","","970.1999998092651","","","10","6344","3633","t","elianto","#f73b6a7A","-1"," ","0","-10","[1820.7999999523163]","1","2","","","6344","66","2","4","lose","no-go","0"
"pit-trial","185","1185484","0.0-71.0","battery-v0.2","","""event"",""trial"",""time""
""fullscreenenter"",""1"",""3277""
","
","
","""event"",""trial"",""time""
""fullscreenenter"",""1"",""3277""
","
","","","1241.2000000476837","","","10","6344","3633","b","elianto","#f73b6a7A"," "," ","1","-10","[2091.7999999523163]","1","2","","","6344","67","3","3","lose","go","1"
"pit-trial","186","1190012","0.0-72.0","battery-v0.2","","""event"",""trial"",""time""
""fullscreenenter"",""1"",""3277""
","
","
","""event"",""trial"",""time""
""fullscreenenter"",""1"",""3277""
","
","","","1672.5","","","10","6344","3633","f","elianto","#3366ff99"," "," ","1","+10","[2522.7000000476837]","1","2","","","6344","68","1","1","win","go","0"
"pit-trial","187","1193516","0.0-73.0","battery-v0.2","","""event"",""trial"",""time""
""fullscreenenter"",""1"",""3277""
","
","
","""event"",""trial"",""time""
""fullscreenenter"",""1"",""3277""
","
","","","648.0999999046326","","","10","6344","3633","z","elianto","#3366ff99"," "," ","1","+10","[1499.0999999046326]","1","2","","","6344","69","5","1","win","go","0"
"pit-trial","188","1198062","0.0-74.0","battery-v0.2","","""event"",""trial"",""time""
""fullscreenenter"",""1"",""3277""
","
","
","""event"",""trial"",""time""
""fullscreenenter"",""1"",""3277""
","
","","","1682.2999999523163","","","10","6344","3633","b","elianto","#f73b6a7A"," "," ","1","0","[2532.4000000953674]","1","2","","","6344","70","3","3","lose","go","0"
"pit-trial","189","1201756","0.0-75.0","battery-v0.2","","""event"",""trial"",""time""
""fullscreenenter"",""1"",""3277""
","
","
","""event"",""trial"",""time""
""fullscreenenter"",""1"",""3277""
","
","","","838.7000000476837","","","10","6344","3633","c","elianto","#3366ff99","-1"," ","0","0","[1690.2000000476837,2042.1000001430511]","2","2","","","6344","71","4","2","win","no-go","0"
"pit-trial","190","1205484","0.0-76.0","battery-v0.2","","""event"",""trial"",""time""
""fullscreenenter"",""1"",""3277""
","
","
","""event"",""trial"",""time""
""fullscreenenter"",""1"",""3277""
","
","","","872.9000000953674","","","10","6344","3633","f","elianto","#3366ff99"," "," ","1","+10","[1724.1000001430511]","1","2","","","6344","72","1","1","win","go","0"
"pit-trial","191","1209229","0.0-77.0","battery-v0.2","","""event"",""trial"",""time""
""fullscreenenter"",""1"",""3277""
","
","
","""event"",""trial"",""time""
""fullscreenenter"",""1"",""3277""
","
","","","889.3999998569489","","","10","6344","3633","z","elianto","#3366ff99"," "," ","1","+10","[1740.2000000476837]","1","2","","","6344","73","5","1","win","go","0"
"pit-trial","192","1212661","0.0-78.0","battery-v0.2","","""event"",""trial"",""time""
""fullscreenenter"",""1"",""3277""
","
","
","""event"",""trial"",""time""
""fullscreenenter"",""1"",""3277""
","
","","","575.7999999523163","","","10","6344","3633","f","elianto","#3366ff99"," "," ","1","+10","[1426.1000001430511]","1","2","","","6344","74","1","1","win","go","0"
"pit-trial","193","1216582","0.0-79.0","battery-v0.2","","""event"",""trial"",""time""
""fullscreenenter"",""1"",""3277""
","
","
","""event"",""trial"",""time""
""fullscreenenter"",""1"",""3277""
","
","","","1064.7999999523163","","","10","6344","3633","b","elianto","#f73b6a7A"," "," ","1","0","[1916.4000000953674]","1","2","","","6344","75","3","3","lose","go","0"
"pit-trial","194","1220230","0.0-80.0","battery-v0.2","","""event"",""trial"",""time""
""fullscreenenter"",""1"",""3277""
","
","
","""event"",""trial"",""time""
""fullscreenenter"",""1"",""3277""
","
","","","793.0999999046326","","","10","6344","3633","c","elianto","#3366ff99","-1"," ","0","+10","[1644]","1","2","","","6344","76","4","2","win","no-go","1"
"pit-trial","195","1223765","0.0-81.0","battery-v0.2","","""event"",""trial"",""time""
""fullscreenenter"",""1"",""3277""
","
","
","""event"",""trial"",""time""
""fullscreenenter"",""1"",""3277""
","
","","","679","","","10","6344","3633","h","elianto","#f73b6a7A","-1"," ","0","-10","[1530,1987.1999998092651]","2","2","","","6344","77","6","4","lose","no-go","0"
"pit-trial","196","1227406","0.0-82.0","battery-v0.2","","""event"",""trial"",""time""
""fullscreenenter"",""1"",""3277""
","
","
","""event"",""trial"",""time""
""fullscreenenter"",""1"",""3277""
","
","","","785.3999998569489","","","10","6344","3633","z","elianto","#3366ff99"," "," ","1","+10","[1636.1000001430511]","1","2","","","6344","78","5","1","win","go","0"
"pit-trial","197","1230919","0.0-83.0","battery-v0.2","","""event"",""trial"",""time""
""fullscreenenter"",""1"",""3277""
","
","
","""event"",""trial"",""time""
""fullscreenenter"",""1"",""3277""
","
","","","652.7999999523163","","","10","6344","3633","c","elianto","#3366ff99","-1"," ","0","+10","[1508]","1","2","","","6344","79","4","2","win","no-go","1"
"pit-trial","198","1235774","0.0-84.0","battery-v0.2","","""event"",""trial"",""time""
""fullscreenenter"",""1"",""3277""
","
","
","""event"",""trial"",""time""
""fullscreenenter"",""1"",""3277""
","
","","","-1","","","10","6344","3633","b","elianto","#f73b6a7A"," ","-1","0","-10","[]","0","2","","","6344","80","3","3","lose","go","0"
"pit-trial","199","1239246","0.0-85.0","battery-v0.2","","""event"",""trial"",""time""
""fullscreenenter"",""1"",""3277""
","
","
","""event"",""trial"",""time""
""fullscreenenter"",""1"",""3277""
","
","","","613.0999999046326","","","10","6344","3633","y","elianto","#f73b6a7A"," "," ","1","0","[1466.7000000476837]","1","2","","","6344","81","7","3","lose","go","0"
"pit-trial","200","1242703","0.0-86.0","battery-v0.2","","""event"",""trial"",""time""
""fullscreenenter"",""1"",""3277""
","
","
","""event"",""trial"",""time""
""fullscreenenter"",""1"",""3277""
","
","","","601.3999998569489","","","10","6344","3633","c","elianto","#3366ff99","-1"," ","0","+10","[1451.7999999523163]","1","2","","","6344","82","4","2","win","no-go","1"
"pit-trial","201","1246231","0.0-87.0","battery-v0.2","","""event"",""trial"",""time""
""fullscreenenter"",""1"",""3277""
","
","
","""event"",""trial"",""time""
""fullscreenenter"",""1"",""3277""
","
","","","672.0999999046326","","","10","6344","3633","h","elianto","#f73b6a7A","-1"," ","0","-10","[1522.2000000476837]","1","2","","","6344","83","6","4","lose","no-go","0"
"pit-trial","202","1249654","0.0-88.0","battery-v0.2","","""event"",""trial"",""time""
""fullscreenenter"",""1"",""3277""
","
","
","""event"",""trial"",""time""
""fullscreenenter"",""1"",""3277""
","
","","","566.7999999523163","","","10","6344","3633","z","elianto","#3366ff99"," "," ","1","0","[1417.5]","1","2","","","6344","84","5","1","win","go","1"
"pit-trial","203","1253175","0.0-89.0","battery-v0.2","","""event"",""trial"",""time""
""fullscreenenter"",""1"",""3277""
","
","
","""event"",""trial"",""time""
""fullscreenenter"",""1"",""3277""
","
","","","664.4000000953674","","","10","6344","3633","c","elianto","#3366ff99","-1"," ","0","0","[1515.2000000476837]","1","2","","","6344","85","4","2","win","no-go","0"
"pit-trial","204","1256710","0.0-90.0","battery-v0.2","","""event"",""trial"",""time""
""fullscreenenter"",""1"",""3277""
","
","
","""event"",""trial"",""time""
""fullscreenenter"",""1"",""3277""
","
","","","675.9000000953674","","","10","6344","3633","z","elianto","#3366ff99"," "," ","1","+10","[1530.3999998569489]","1","2","","","6344","86","5","1","win","go","0"
"pit-trial","205","1261565","0.0-91.0","battery-v0.2","","""event"",""trial"",""time""
""fullscreenenter"",""1"",""3277""
","
","
","""event"",""trial"",""time""
""fullscreenenter"",""1"",""3277""
","
","","","-1","","","10","6344","3633","h","elianto","#f73b6a7A","-1","-1","1","0","[]","0","2","","","6344","87","6","4","lose","no-go","0"
"pit-trial","206","1266421","0.0-92.0","battery-v0.2","","""event"",""trial"",""time""
""fullscreenenter"",""1"",""3277""
","
","
","""event"",""trial"",""time""
""fullscreenenter"",""1"",""3277""
","
","","","-1","","","10","6344","3633","y","elianto","#f73b6a7A"," ","-1","0","-10","[]","0","2","","","6344","88","7","3","lose","go","0"
"pit-trial","207","1269920","0.0-93.0","battery-v0.2","","""event"",""trial"",""time""
""fullscreenenter"",""1"",""3277""
","
","
","""event"",""trial"",""time""
""fullscreenenter"",""1"",""3277""
","
","","","643.7999999523163","","","10","6344","3633","c","elianto","#3366ff99","-1"," ","0","0","[1494.3000001907349]","1","2","","","6344","89","4","2","win","no-go","0"
"pit-trial","208","1274775","0.0-94.0","battery-v0.2","","""event"",""trial"",""time""
""fullscreenenter"",""1"",""3277""
","
","
","""event"",""trial"",""time""
""fullscreenenter"",""1"",""3277""
","
","","","-1","","","10","6344","3633","h","elianto","#f73b6a7A","-1","-1","1","0","[]","0","2","","","6344","90","6","4","lose","no-go","0"
"pit-trial","209","1278664","0.0-95.0","battery-v0.2","","""event"",""trial"",""time""
""fullscreenenter"",""1"",""3277""
","
","
","""event"",""trial"",""time""
""fullscreenenter"",""1"",""3277""
","
","","","1033.5","","","10","6344","3633","y","elianto","#f73b6a7A"," "," ","1","0","[1884.1000001430511]","1","2","","","6344","91","7","3","lose","go","0"
"pit-trial","210","1282289","0.0-96.0","battery-v0.2","","""event"",""trial"",""time""
""fullscreenenter"",""1"",""3277""
","
","
","""event"",""trial"",""time""
""fullscreenenter"",""1"",""3277""
","
","","","769.7000000476837","","","10","6344","3633","z","elianto","#3366ff99"," "," ","1","+10","[1620.2000000476837]","1","2","","","6344","92","5","1","win","go","0"
"pit-trial","211","1287145","0.0-97.0","battery-v0.2","","""event"",""trial"",""time""
""fullscreenenter"",""1"",""3277""
","
","
","""event"",""trial"",""time""
""fullscreenenter"",""1"",""3277""
","
","","","-1","","","10","6344","3633","h","elianto","#f73b6a7A","-1","-1","1","0","[]","0","2","","","6344","93","6","4","lose","no-go","0"
"pit-trial","212","1290753","0.0-98.0","battery-v0.2","","""event"",""trial"",""time""
""fullscreenenter"",""1"",""3277""
","
","
","""event"",""trial"",""time""
""fullscreenenter"",""1"",""3277""
","
","","","747.8999998569489","","","10","6344","3633","r","elianto","#3366ff99","-1"," ","0","0","[1602.2000000476837]","1","2","","","6344","94","8","2","win","no-go","0"
"pit-trial","213","1294384","0.0-99.0","battery-v0.2","","""event"",""trial"",""time""
""fullscreenenter"",""1"",""3277""
","
","
","""event"",""trial"",""time""
""fullscreenenter"",""1"",""3277""
","
","","","775.2000000476837","","","10","6344","3633","z","elianto","#3366ff99"," "," ","1","+10","[1627.2000000476837]","1","2","","","6344","95","5","1","win","go","0"
"pit-trial","214","1298241","0.0-100.0","battery-v0.2","","""event"",""trial"",""time""
""fullscreenenter"",""1"",""3277""
","
","
","""event"",""trial"",""time""
""fullscreenenter"",""1"",""3277""
","
","","","1001.1000001430511","","","10","6344","3633","y","elianto","#f73b6a7A"," "," ","1","0","[1852]","1","2","","","6344","96","7","3","lose","go","0"
"pit-trial","215","1303096","0.0-101.0","battery-v0.2","","""event"",""trial"",""time""
""fullscreenenter"",""1"",""3277""
","
","
","""event"",""trial"",""time""
""fullscreenenter"",""1"",""3277""
","
","","","-1","","","10","6344","3633","h","elianto","#f73b6a7A","-1","-1","1","0","[]","0","2","","","6344","97","6","4","lose","no-go","0"
"pit-trial","216","1306721","0.0-102.0","battery-v0.2","","""event"",""trial"",""time""
""fullscreenenter"",""1"",""3277""
","
","
","""event"",""trial"",""time""
""fullscreenenter"",""1"",""3277""
","
","","","765.7000000476837","","","10","6344","3633","r","elianto","#3366ff99","-1"," ","0","+10","[1619.7000000476837]","1","2","","","6344","98","8","2","win","no-go","1"
"pit-trial","217","1310624","0.0-103.0","battery-v0.2","","""event"",""trial"",""time""
""fullscreenenter"",""1"",""3277""
","
","
","""event"",""trial"",""time""
""fullscreenenter"",""1"",""3277""
","
","","","1048.7000000476837","","","10","6344","3633","y","elianto","#f73b6a7A"," "," ","1","0","[1899.0999999046326]","1","2","","","6344","99","7","3","lose","go","0"
"pit-trial","218","1314095","0.0-104.0","battery-v0.2","","""event"",""trial"",""time""
""fullscreenenter"",""1"",""3277""
","
","
","""event"",""trial"",""time""
""fullscreenenter"",""1"",""3277""
","
","","","605.5999999046326","","","10","6344","3633","z","elianto","#3366ff99"," "," ","1","+10","[1460.3999998569489]","1","2","","","6344","100","5","1","win","go","0"
"pit-trial","219","1318138","0.0-105.0","battery-v0.2","","""event"",""trial"",""time""
""fullscreenenter"",""1"",""3277""
","
","
","""event"",""trial"",""time""
""fullscreenenter"",""1"",""3277""
","
","","","1187.4000000953674","","","10","6344","3633","m","elianto","#3366ff99","-1"," ","0","0","[2038.1000001430511]","1","2","","","6344","101","9","2","win","no-go","0"
"pit-trial","220","1321904","0.0-106.0","battery-v0.2","","""event"",""trial"",""time""
""fullscreenenter"",""1"",""3277""
","
","
","""event"",""trial"",""time""
""fullscreenenter"",""1"",""3277""
","
","","","912.0999999046326","","","10","6344","3633","z","elianto","#3366ff99"," "," ","1","0","[1762.6999998092651]","1","2","","","6344","102","5","1","win","go","1"
"pit-trial","221","1326759","0.0-107.0","battery-v0.2","","""event"",""trial"",""time""
""fullscreenenter"",""1"",""3277""
","
","
","""event"",""trial"",""time""
""fullscreenenter"",""1"",""3277""
","
","","","-1","","","10","6344","3633","h","elianto","#f73b6a7A","-1","-1","1","0","[]","0","2","","","6344","103","6","4","lose","no-go","0"
"pit-trial","222","1330323","0.0-108.0","battery-v0.2","","""event"",""trial"",""time""
""fullscreenenter"",""1"",""3277""
","
","
","""event"",""trial"",""time""
""fullscreenenter"",""1"",""3277""
","
","","","707","","","10","6344","3633","r","elianto","#3366ff99","-1"," ","0","0","[1557.9000000953674]","1","2","","","6344","104","8","2","win","no-go","0"
"pit-trial","223","1335177","0.0-109.0","battery-v0.2","","""event"",""trial"",""time""
""fullscreenenter"",""1"",""3277""
","
","
","""event"",""trial"",""time""
""fullscreenenter"",""1"",""3277""
","
","","","-1","","","10","6344","3633","h","elianto","#f73b6a7A","-1","-1","1","0","[]","0","2","","","6344","105","6","4","lose","no-go","0"
"pit-trial","224","1338841","0.0-110.0","battery-v0.2","","""event"",""trial"",""time""
""fullscreenenter"",""1"",""3277""
","
","
","""event"",""trial"",""time""
""fullscreenenter"",""1"",""3277""
","
","","","808","","","10","6344","3633","z","elianto","#3366ff99"," "," ","1","+10","[1658.5]","1","2","","","6344","106","5","1","win","go","0"
"pit-trial","225","1342505","0.0-111.0","battery-v0.2","","""event"",""trial"",""time""
""fullscreenenter"",""1"",""3277""
","
","
","""event"",""trial"",""time""
""fullscreenenter"",""1"",""3277""
","
","","","808.9000000953674","","","10","6344","3633","m","elianto","#3366ff99","-1"," ","0","0","[1659.6999998092651]","1","2","","","6344","107","9","2","win","no-go","0"
"pit-trial","226","1347362","0.0-112.0","battery-v0.2","","""event"",""trial"",""time""
""fullscreenenter"",""1"",""3277""
","
","
","""event"",""trial"",""time""
""fullscreenenter"",""1"",""3277""
","
","","","-1","","","10","6344","3633","r","elianto","#3366ff99","-1","-1","1","+10","[]","0","2","","","6344","108","8","2","win","no-go","0"
"pit-trial","227","1352217","0.0-113.0","battery-v0.2","","""event"",""trial"",""time""
""fullscreenenter"",""1"",""3277""
","
","
","""event"",""trial"",""time""
""fullscreenenter"",""1"",""3277""
","
","","","-1","","","10","6344","3633","h","elianto","#f73b6a7A","-1","-1","1","0","[]","0","2","","","6344","109","6","4","lose","no-go","0"
"pit-trial","228","1355843","0.0-114.0","battery-v0.2","","""event"",""trial"",""time""
""fullscreenenter"",""1"",""3277""
","
","
","""event"",""trial"",""time""
""fullscreenenter"",""1"",""3277""
","
","","","767.2999999523163","","","10","6344","3633","z","elianto","#3366ff99"," "," ","1","0","[1619.7999999523163]","1","2","","","6344","110","5","1","win","go","1"
"pit-trial","229","1360697","0.0-115.0","battery-v0.2","","""event"",""trial"",""time""
""fullscreenenter"",""1"",""3277""
","
","
","""event"",""trial"",""time""
""fullscreenenter"",""1"",""3277""
","
","","","-1","","","10","6344","3633","m","elianto","#3366ff99","-1","-1","1","+10","[]","0","2","","","6344","111","9","2","win","no-go","0"
"pit-trial","230","1365553","0.0-116.0","battery-v0.2","","""event"",""trial"",""time""
""fullscreenenter"",""1"",""3277""
","
","
","""event"",""trial"",""time""
""fullscreenenter"",""1"",""3277""
","
","","","-1","","","10","6344","3633","r","elianto","#3366ff99","-1","-1","1","+10","[]","0","2","","","6344","112","8","2","win","no-go","0"
"pit-trial","231","1370123","0.0-117.0","battery-v0.2","","""event"",""trial"",""time""
""fullscreenenter"",""1"",""3277""
","
","
","""event"",""trial"",""time""
""fullscreenenter"",""1"",""3277""
","
","","","1713.2999999523163","","","10","6344","3633","z","elianto","#3366ff99"," "," ","1","+10","[2565]","1","2","","","6344","113","5","1","win","go","0"
"pit-trial","232","1374978","0.0-118.0","battery-v0.2","","""event"",""trial"",""time""
""fullscreenenter"",""1"",""3277""
","
","
","""event"",""trial"",""time""
""fullscreenenter"",""1"",""3277""
","
","","","-1","","","10","6344","3633","m","elianto","#3366ff99","-1","-1","1","+10","[]","0","2","","","6344","114","9","2","win","no-go","0"
"pit-trial","233","1379832","0.0-119.0","battery-v0.2","","""event"",""trial"",""time""
""fullscreenenter"",""1"",""3277""
","
","
","""event"",""trial"",""time""
""fullscreenenter"",""1"",""3277""
","
","","","-1","","","10","6344","3633","y","elianto","#f73b6a7A"," ","-1","0","-10","[]","0","2","","","6344","115","7","3","lose","go","0"
"pit-trial","234","1383379","0.0-120.0","battery-v0.2","","""event"",""trial"",""time""
""fullscreenenter"",""1"",""3277""
","
","
","""event"",""trial"",""time""
""fullscreenenter"",""1"",""3277""
","
","","","690.9000000953674","","","10","6344","3633","r","elianto","#3366ff99","-1"," ","0","0","[1541.5999999046326]","1","2","","","6344","116","8","2","win","no-go","0"
"pit-trial","235","1388234","0.0-121.0","battery-v0.2","","""event"",""trial"",""time""
""fullscreenenter"",""1"",""3277""
","
","
","""event"",""trial"",""time""
""fullscreenenter"",""1"",""3277""
","
","","","-1","","","10","6344","3633","m","elianto","#3366ff99","-1","-1","1","+10","[]","0","2","","","6344","117","9","2","win","no-go","0"
"pit-trial","236","1392052","0.0-122.0","battery-v0.2","","""event"",""trial"",""time""
""fullscreenenter"",""1"",""3277""
","
","
","""event"",""trial"",""time""
""fullscreenenter"",""1"",""3277""
","
","","","961.1999998092651","","","10","6344","3633","z","elianto","#3366ff99"," "," ","1","+10","[1811.5]","1","2","","","6344","118","5","1","win","go","0"
"pit-trial","237","1396908","0.0-123.0","battery-v0.2","","""event"",""trial"",""time""
""fullscreenenter"",""1"",""3277""
","
","
","""event"",""trial"",""time""
""fullscreenenter"",""1"",""3277""
","
","","","-1","","","10","6344","3633","r","elianto","#3366ff99","-1","-1","1","+10","[]","0","2","","","6344","119","8","2","win","no-go","0"
"pit-trial","238","1401765","0.0-124.0","battery-v0.2","","""event"",""trial"",""time""
""fullscreenenter"",""1"",""3277""
","
","
","""event"",""trial"",""time""
""fullscreenenter"",""1"",""3277""
","
","","","-1","","","10","6344","3633","h","elianto","#f73b6a7A","-1","-1","1","-10","[]","0","2","","","6344","120","6","4","lose","no-go","1"
"pit-trial","239","1405653","0.0-125.0","battery-v0.2","","""event"",""trial"",""time""
""fullscreenenter"",""1"",""3277""
","
","
","""event"",""trial"",""time""
""fullscreenenter"",""1"",""3277""
","
","","","1031.2000000476837","","","10","6344","3633","y","elianto","#f73b6a7A"," "," ","1","0","[1882.6000001430511]","1","2","","","6344","121","7","3","lose","go","0"
"pit-trial","240","1410508","0.0-126.0","battery-v0.2","","""event"",""trial"",""time""
""fullscreenenter"",""1"",""3277""
","
","
","""event"",""trial"",""time""
""fullscreenenter"",""1"",""3277""
","
","","","-1","","","10","6344","3633","r","elianto","#3366ff99","-1","-1","1","0","[]","0","2","","","6344","122","8","2","win","no-go","1"
"pit-trial","241","1415364","0.0-127.0","battery-v0.2","","""event"",""trial"",""time""
""fullscreenenter"",""1"",""3277""
","
","
","""event"",""trial"",""time""
""fullscreenenter"",""1"",""3277""
","
","","","-1","","","10","6344","3633","m","elianto","#3366ff99","-1","-1","1","0","[]","0","2","","","6344","123","9","2","win","no-go","1"
"pit-trial","242","1419365","0.0-128.0","battery-v0.2","","""event"",""trial"",""time""
""fullscreenenter"",""1"",""3277""
","
","
","""event"",""trial"",""time""
""fullscreenenter"",""1"",""3277""
","
","","","1145.2999999523163","","","10","6344","3633","z","elianto","#3366ff99"," "," ","1","+10","[1996.2000000476837]","1","2","","","6344","124","5","1","win","go","0"
"pit-trial","243","1423309","0.0-129.0","battery-v0.2","","""event"",""trial"",""time""
""fullscreenenter"",""1"",""3277""
","
","
","""event"",""trial"",""time""
""fullscreenenter"",""1"",""3277""
","
","","","1087.6999998092651","","","10","6344","3633","y","elianto","#f73b6a7A"," "," ","1","0","[1938.7999999523163]","1","2","","","6344","125","7","3","lose","go","0"
"pit-trial","244","1428164","0.0-130.0","battery-v0.2","","""event"",""trial"",""time""
""fullscreenenter"",""1"",""3277""
","
","
","""event"",""trial"",""time""
""fullscreenenter"",""1"",""3277""
","
","","","-1","","","10","6344","3633","r","elianto","#3366ff99","-1","-1","1","+10","[]","0","2","","","6344","126","8","2","win","no-go","0"
"pit-trial","245","1433019","0.0-131.0","battery-v0.2","","""event"",""trial"",""time""
""fullscreenenter"",""1"",""3277""
","
","
","""event"",""trial"",""time""
""fullscreenenter"",""1"",""3277""
","
","","","-1","","","10","6344","3633","m","elianto","#3366ff99","-1","-1","1","+10","[]","0","2","","","6344","127","9","2","win","no-go","0"
"pit-trial","246","1437877","0.0-132.0","battery-v0.2","","""event"",""trial"",""time""
""fullscreenenter"",""1"",""3277""
","
","
","""event"",""trial"",""time""
""fullscreenenter"",""1"",""3277""
","
","","","-1","","","10","6344","3633","h","elianto","#f73b6a7A","-1","-1","1","0","[]","0","2","","","6344","128","6","4","lose","no-go","0"
"pit-trial","247","1442732","0.0-133.0","battery-v0.2","","""event"",""trial"",""time""
""fullscreenenter"",""1"",""3277""
","
","
","""event"",""trial"",""time""
""fullscreenenter"",""1"",""3277""
","
","","","-1","","","10","6344","3633","y","elianto","#f73b6a7A"," ","-1","0","0","[]","0","2","","","6344","129","7","3","lose","go","1"
"pit-trial","248","1446053","0.0-134.0","battery-v0.2","","""event"",""trial"",""time""
""fullscreenenter"",""1"",""3277""
","
","
","""event"",""trial"",""time""
""fullscreenenter"",""1"",""3277""
","
","","","464.90000009536743","","","10","6344","3633","h","elianto","#f73b6a7A","-1"," ","0","-10","[1315.7000000476837,3315.2000000476837]","2","2","","","6344","130","6","4","lose","no-go","0"
"pit-trial","249","1450919","0.0-135.0","battery-v0.2","","""event"",""trial"",""time""
""fullscreenenter"",""1"",""3277""
","
","
","""event"",""trial"",""time""
""fullscreenenter"",""1"",""3277""
","
","","","-1","","","10","6344","3633","r","elianto","#3366ff99","-1","-1","1","+10","[]","0","2","","","6344","131","8","2","win","no-go","0"
"pit-trial","250","1455775","0.0-136.0","battery-v0.2","","""event"",""trial"",""time""
""fullscreenenter"",""1"",""3277""
","
","
","""event"",""trial"",""time""
""fullscreenenter"",""1"",""3277""
","
","","","-1","","","10","6344","3633","m","elianto","#3366ff99","-1","-1","1","+10","[]","0","2","","","6344","132","9","2","win","no-go","0"
"pit-trial","251","1460631","0.0-137.0","battery-v0.2","","""event"",""trial"",""time""
""fullscreenenter"",""1"",""3277""
","
","
","""event"",""trial"",""time""
""fullscreenenter"",""1"",""3277""
","
","","","-1","","","10","6344","3633","m","elianto","#3366ff99","-1","-1","1","+10","[]","0","2","","","6344","133","9","2","win","no-go","0"
"pit-trial","252","1464352","0.0-138.0","battery-v0.2","","""event"",""trial"",""time""
""fullscreenenter"",""1"",""3277""
","
","
","""event"",""trial"",""time""
""fullscreenenter"",""1"",""3277""
","
","","","863","","","10","6344","3633","y","elianto","#f73b6a7A"," "," ","1","0","[1714.8999998569489]","1","2","","","6344","134","7","3","lose","go","0"
"pit-trial","253","1469207","0.0-139.0","battery-v0.2","","""event"",""trial"",""time""
""fullscreenenter"",""1"",""3277""
","
","
","""event"",""trial"",""time""
""fullscreenenter"",""1"",""3277""
","
","","","-1","","","10","6344","3633","h","elianto","#f73b6a7A","-1","-1","1","-10","[]","0","2","","","6344","135","6","4","lose","no-go","1"
"pit-trial","254","1472892","0.0-140.0","battery-v0.2","","""event"",""trial"",""time""
""fullscreenenter"",""1"",""3277""
","
","
","""event"",""trial"",""time""
""fullscreenenter"",""1"",""3277""
","
","","","830.2000000476837","","","10","6344","3633","r","elianto","#3366ff99","-1"," ","0","0","[1680.2999999523163]","1","2","","","6344","136","8","2","win","no-go","0"
"pit-trial","255","1477747","0.0-141.0","battery-v0.2","","""event"",""trial"",""time""
""fullscreenenter"",""1"",""3277""
","
","
","""event"",""trial"",""time""
""fullscreenenter"",""1"",""3277""
","
","","","-1","","","10","6344","3633","r","elianto","#3366ff99","-1","-1","1","+10","[]","0","2","","","6344","137","8","2","win","no-go","0"
"pit-trial","256","1482603","0.0-142.0","battery-v0.2","","""event"",""trial"",""time""
""fullscreenenter"",""1"",""3277""
","
","
","""event"",""trial"",""time""
""fullscreenenter"",""1"",""3277""
","
","","","-1","","","10","6344","3633","h","elianto","#f73b6a7A","-1","-1","1","0","[]","0","2","","","6344","138","6","4","lose","no-go","0"
"pit-trial","257","1486215","0.0-143.0","battery-v0.2","","""event"",""trial"",""time""
""fullscreenenter"",""1"",""3277""
","
","
","""event"",""trial"",""time""
""fullscreenenter"",""1"",""3277""
","
","","","755.5","","","10","6344","3633","y","elianto","#f73b6a7A"," "," ","1","0","[1606.2999999523163]","1","2","","","6344","139","7","3","lose","go","0"
"pit-trial","258","1491070","0.0-144.0","battery-v0.2","","""event"",""trial"",""time""
""fullscreenenter"",""1"",""3277""
","
","
","""event"",""trial"",""time""
""fullscreenenter"",""1"",""3277""
","
","","","-1","","","10","6344","3633","m","elianto","#3366ff99","-1","-1","1","+10","[]","0","2","","","6344","140","9","2","win","no-go","0"
"pit-instructions","259","1516119","0.0-145.0","battery-v0.2","","""event"",""trial"",""time""
""fullscreenenter"",""1"",""3277""
","
","
","""event"",""trial"",""time""
""fullscreenenter"",""1"",""3277""
","
","","[{""page_index"":0,""viewing_time"":14617.5},{""page_index"":1,""viewing_time"":10427}]","25045.200000047684","","","","","","","","","","","","","","","","","","","","","","","",""
"pit-trial","260","1519787","0.0-146.0","battery-v0.2","","""event"",""trial"",""time""
""fullscreenenter"",""1"",""3277""
","
","
","""event"",""trial"",""time""
""fullscreenenter"",""1"",""3277""
","
","","","789","","","10","6344","3633","g","elianto","#f73b6a7A","-1"," ","0","-10","[1645.2000000476837]","1","3","","","6344","141","3","4","lose","no-go","0"
"pit-trial","261","1523496","0.0-147.0","battery-v0.2","","""event"",""trial"",""time""
""fullscreenenter"",""1"",""3277""
","
","
","""event"",""trial"",""time""
""fullscreenenter"",""1"",""3277""
","
","","","837.5","","","10","6344","3633","l","elianto","#3366ff99","-1"," ","0","0","[1687.8999998569489]","1","3","","","6344","142","1","2","win","no-go","0"
"pit-trial","262","1528377","0.0-148.0","battery-v0.2","","""event"",""trial"",""time""
""fullscreenenter"",""1"",""3277""
","
","
","""event"",""trial"",""time""
""fullscreenenter"",""1"",""3277""
","
","","","-1","","","10","6344","3633","u","elianto","#f73b6a7A"," ","-1","0","-10","[]","0","3","","","6344","143","0","3","lose","go","0"
"pit-trial","263","1532107","0.0-149.0","battery-v0.2","","""event"",""trial"",""time""
""fullscreenenter"",""1"",""3277""
","
","
","""event"",""trial"",""time""
""fullscreenenter"",""1"",""3277""
","
","","","867.7000000476837","","","10","6344","3633","a","elianto","#f73b6a7A"," "," ","1","0","[1722.7000000476837]","1","3","","","6344","144","2","3","lose","go","0"
"pit-trial","264","1536987","0.0-150.0","battery-v0.2","","""event"",""trial"",""time""
""fullscreenenter"",""1"",""3277""
","
","
","""event"",""trial"",""time""
""fullscreenenter"",""1"",""3277""
","
","","","-1","","","10","6344","3633","g","elianto","#f73b6a7A","-1","-1","1","0","[]","0","3","","","6344","145","3","4","lose","no-go","0"
"pit-trial","265","1541397","0.0-151.0","battery-v0.2","","""event"",""trial"",""time""
""fullscreenenter"",""1"",""3277""
","
","
","""event"",""trial"",""time""
""fullscreenenter"",""1"",""3277""
","
","","","1540.7000000476837","","","10","6344","3633","u","elianto","#f73b6a7A"," "," ","1","0","[2392.399999856949,3096]","2","3","","","6344","146","0","3","lose","go","0"
"pit-trial","266","1545409","0.0-152.0","battery-v0.2","","""event"",""trial"",""time""
""fullscreenenter"",""1"",""3277""
","
","
","""event"",""trial"",""time""
""fullscreenenter"",""1"",""3277""
","
