"trial_type","trial_index","time_elapsed","internal_node_id","task_version","subject_id","interactions","blur_events","focus_events","fullscreenenter_events","fullscreenexit_events","success","view_history","rt","responses","num_errors","age","subject","participantId","rune","rune_set","hex","correct","choice","accuracy","outcome","keys","total_keys","block","practice","value","sub","trial","stimulus","robot","valence","action","sham"
"pavlovia","0","8","0.0-0.0","battery-v0.2","","""event"",""trial"",""time""
""fullscreenenter"",""1"",""20811""
","
","
","""event"",""trial"",""time""
""fullscreenenter"",""1"",""20811""
","
","","","","","","","","","","","","","","","","","","","","","","","","","","",""
"fullscreen","1","21778","0.0-1.0","battery-v0.2","","""event"",""trial"",""time""
""fullscreenenter"",""1"",""20811""
","
","
","""event"",""trial"",""time""
""fullscreenenter"",""1"",""20811""
","
","true","","","","","","","","","","","","","","","","","","","","","","","","","",""
"pit-instructions","2","37110","0.0-2.0-0.0","battery-v0.2","","""event"",""trial"",""time""
""fullscreenenter"",""1"",""20811""
","
","
","""event"",""trial"",""time""
""fullscreenenter"",""1"",""20811""
","
","","[{""page_index"":0,""viewing_time"":15324}]","15325","","","","","","","","","","","","","","","","","","","","","","","",""
"pit-comprehension","3","41430","0.0-2.0-1.0-0.0","battery-v0.2","","""event"",""trial"",""time""
""fullscreenenter"",""1"",""20811""
","
","
","""event"",""trial"",""time""
""fullscreenenter"",""1"",""20811""
","
","","","4281","[""shark""]","0","21","20558","7658","","","","","","","","","","","","","","","","","","",""
"pit-instructions","4","42542","0.0-2.0-1.0-1.0","battery-v0.2","","""event"",""trial"",""time""
""fullscreenenter"",""1"",""20811""
","
","
","""event"",""trial"",""time""
""fullscreenenter"",""1"",""20811""
","
","","[{""page_index"":0,""viewing_time"":1098.9999999999927}]","1099.9999999999927","","","","","","","","","","","","","","","","","","","","","","","",""
"pit-comprehension","5","45427","0.0-2.0-2.0-0.0","battery-v0.2","","""event"",""trial"",""time""
""fullscreenenter"",""1"",""20811""
","
","
","""event"",""trial"",""time""
""fullscreenenter"",""1"",""20811""
","
","","","2879","[""tiger""]","0","21","20558","7658","","","","","","","","","","","","","","","","","","",""
"pit-instructions","6","57210","0.0-2.0-2.0-1.0","battery-v0.2","","""event"",""trial"",""time""
""fullscreenenter"",""1"",""20811""
","
","
","""event"",""trial"",""time""
""fullscreenenter"",""1"",""20811""
","
","","[{""page_index"":0,""viewing_time"":11774}]","11774","","","","","","","","","","","","","","","","","","","","","","","",""
"pit-instructions","7","169065","0.0-2.0-3.0","battery-v0.2","","""event"",""trial"",""time""
""fullscreenenter"",""1"",""20811""
","
","
","""event"",""trial"",""time""
""fullscreenenter"",""1"",""20811""
","
","","[{""page_index"":0,""viewing_time"":8793},{""page_index"":1,""viewing_time"":5949},{""page_index"":2,""viewing_time"":7052},{""page_index"":3,""viewing_time"":7199},{""page_index"":4,""viewing_time"":8367},{""page_index"":5,""viewing_time"":5699},{""page_index"":6,""viewing_time"":6817},{""page_index"":7,""viewing_time"":6818},{""page_index"":8,""viewing_time"":7849},{""page_index"":9,""viewing_time"":18800},{""page_index"":10,""viewing_time"":9200},{""page_index"":11,""viewing_time"":7067},{""page_index"":12,""viewing_time"":6332},{""page_index"":13,""viewing_time"":5900}]","111842","","","","","","","","","","","","","","","","","","","","","","","",""
"pit-trial","8","172461","0.0-2.0-4.0-0.0","battery-v0.2","","""event"",""trial"",""time""
""fullscreenenter"",""1"",""20811""
","
","
","""event"",""trial"",""time""
""fullscreenenter"",""1"",""20811""
","
","","","541","","","21","20558","7658","&#9784;","elianto","#FFFFF080"," "," ","1","&#10004","[531,1391]","2","0","0","","","","","","","",""
"pit-trial","9","176315","0.0-2.0-4.1-0.1","battery-v0.2","","""event"",""trial"",""time""
""fullscreenenter"",""1"",""20811""
","
","
","""event"",""trial"",""time""
""fullscreenenter"",""1"",""20811""
","
","","","995","","","21","20558","7658","&#9784;","elianto","#FFFFF080"," "," ","1","&#10004","[1846]","1","0","0","","","","","","","",""
"pit-trial","10","179892","0.0-2.0-4.2-0.2","battery-v0.2","","""event"",""trial"",""time""
""fullscreenenter"",""1"",""20811""
","
","
","""event"",""trial"",""time""
""fullscreenenter"",""1"",""20811""
","
","","","719.9999999999709","","","21","20558","7658","&#9784;","elianto","#FFFFF080"," "," ","1","&#10004","[1570.999999999971]","1","0","0","","","","","","","",""
"pit-trial","11","183408","0.0-2.0-4.3-0.3","battery-v0.2","","""event"",""trial"",""time""
""fullscreenenter"",""1"",""20811""
","
","
","""event"",""trial"",""time""
""fullscreenenter"",""1"",""20811""
","
","","","658","","","21","20558","7658","&#9784;","elianto","#FFFFF080"," "," ","1","&#10004","[1509]","1","0","0","","","","","","","",""
"pit-trial","12","186938","0.0-2.0-4.4-0.4","battery-v0.2","","""event"",""trial"",""time""
""fullscreenenter"",""1"",""20811""
","
","
","""event"",""trial"",""time""
""fullscreenenter"",""1"",""20811""
","
","","","673","","","21","20558","7658","&#9784;","elianto","#FFFFF080"," "," ","1","&#10004","[1524]","1","0","0","","","","","","","",""
"pit-instructions","13","208850","0.0-2.0-5.0","battery-v0.2","","""event"",""trial"",""time""
""fullscreenenter"",""1"",""20811""
","
","
","""event"",""trial"",""time""
""fullscreenenter"",""1"",""20811""
","
","","[{""page_index"":0,""viewing_time"":4789},{""page_index"":1,""viewing_time"":6615.000000000029},{""page_index"":2,""viewing_time"":4967.999999999971},{""page_index"":3,""viewing_time"":5532.000000000029}]","21905","","","","","","","","","","","","","","","","","","","","","","","",""
"pit-trial","14","213707","0.0-2.0-6.0-0.0","battery-v0.2","","""event"",""trial"",""time""
""fullscreenenter"",""1"",""20811""
","
","
","""event"",""trial"",""time""
""fullscreenenter"",""1"",""20811""
","
","","","-1","","","21","20558","7658","&#9854;","elianto","#FFFFF080","-1","-1","1","&#10004","[]","0","0","1","","","","","","","",""
"pit-trial","15","218565","0.0-2.0-6.1-0.1","battery-v0.2","","""event"",""trial"",""time""
""fullscreenenter"",""1"",""20811""
","
","
","""event"",""trial"",""time""
""fullscreenenter"",""1"",""20811""
","
","","","-1","","","21","20558","7658","&#9854;","elianto","#FFFFF080","-1","-1","1","&#10004","[]","0","0","1","","","","","","","",""
"pit-trial","16","223423","0.0-2.0-6.2-0.2","battery-v0.2","","""event"",""trial"",""time""
""fullscreenenter"",""1"",""20811""
","
","
","""event"",""trial"",""time""
""fullscreenenter"",""1"",""20811""
","
","","","-1","","","21","20558","7658","&#9854;","elianto","#FFFFF080","-1","-1","1","&#10004","[]","0","0","1","","","","","","","",""
"pit-trial","17","228280","0.0-2.0-6.3-0.3","battery-v0.2","","""event"",""trial"",""time""
""fullscreenenter"",""1"",""20811""
","
","
","""event"",""trial"",""time""
""fullscreenenter"",""1"",""20811""
","
","","","-1","","","21","20558","7658","&#9854;","elianto","#FFFFF080","-1","-1","1","&#10004","[]","0","0","1","","","","","","","",""
"pit-trial","18","233136","0.0-2.0-6.4-0.4","battery-v0.2","","""event"",""trial"",""time""
""fullscreenenter"",""1"",""20811""
","
","
","""event"",""trial"",""time""
""fullscreenenter"",""1"",""20811""
","
","","","-1","","","21","20558","7658","&#9854;","elianto","#FFFFF080","-1","-1","1","&#10004","[]","0","0","1","","","","","","","",""
"pit-instructions","19","349687","0.0-2.0-7.0","battery-v0.2","","""event"",""trial"",""time""
""fullscreenenter"",""1"",""20811""
","
","
","""event"",""trial"",""time""
""fullscreenenter"",""1"",""20811""
","
","","[{""page_index"":0,""viewing_time"":5857},{""page_index"":1,""viewing_time"":6100},{""page_index"":2,""viewing_time"":6683},{""page_index"":3,""viewing_time"":6318},{""page_index"":4,""viewing_time"":7099},{""page_index"":5,""viewing_time"":5118},{""page_index"":6,""viewing_time"":5032},{""page_index"":7,""viewing_time"":7184},{""page_index"":8,""viewing_time"":7299},{""page_index"":9,""viewing_time"":5766},{""page_index"":10,""viewing_time"":6319},{""page_index"":11,""viewing_time"":6216},{""page_index"":12,""viewing_time"":7066},{""page_index"":13,""viewing_time"":7185},{""page_index"":14,""viewing_time"":7467.000000000058},{""page_index"":15,""viewing_time"":6231.999999999942},{""page_index"":16,""viewing_time"":6034},{""page_index"":17,""viewing_time"":7566}]","116542","","","","","","","","","","","","","","","","","","","","","","","",""
"pit-trial","20","353599","0.0-2.0-8.0-0.0","battery-v0.2","","""event"",""trial"",""time""
""fullscreenenter"",""1"",""20811""
","
","
","""event"",""trial"",""time""
""fullscreenenter"",""1"",""20811""
","
","","","1056","","","21","20558","7658","&#9776;","elianto","#3366ff99"," "," ","1","+10","[1906]","1","0","1","","","","","","","",""
"pit-trial","21","357034","0.0-2.0-8.0-1.0","battery-v0.2","","""event"",""trial"",""time""
""fullscreenenter"",""1"",""20811""
","
","
","""event"",""trial"",""time""
""fullscreenenter"",""1"",""20811""
","
","","","578","","","21","20558","7658","&#9776;","elianto","#3366ff99"," "," ","1","+10","[1428]","1","0","1","","","","","","","",""
"pit-trial","22","360365","0.0-2.0-8.0-2.0","battery-v0.2","","""event"",""trial"",""time""
""fullscreenenter"",""1"",""20811""
","
","
","""event"",""trial"",""time""
""fullscreenenter"",""1"",""20811""
","
","","","475","","","21","20558","7658","&#9776;","elianto","#3366ff99"," "," ","1","+10","[1325]","1","0","1","","","","","","","",""
"pit-trial","23","363949","0.0-2.0-8.0-3.0","battery-v0.2","","""event"",""trial"",""time""
""fullscreenenter"",""1"",""20811""
","
","
","""event"",""trial"",""time""
""fullscreenenter"",""1"",""20811""
","
","","","728","","","21","20558","7658","&#9776;","elianto","#3366ff99"," "," ","1","0","[1579]","1","0","1","","","","","","","",""
"pit-trial","24","367434","0.0-2.0-8.0-4.0","battery-v0.2","","""event"",""trial"",""time""
""fullscreenenter"",""1"",""20811""
","
","
","""event"",""trial"",""time""
""fullscreenenter"",""1"",""20811""
","
","","","629","","","21","20558","7658","&#9776;","elianto","#3366ff99"," "," ","1","+10","[1479]","1","0","1","","","","","","","",""
"pit-trial","25","370818","0.0-2.0-8.1-0.1","battery-v0.2","","""event"",""trial"",""time""
""fullscreenenter"",""1"",""20811""
","
","
","""event"",""trial"",""time""
""fullscreenenter"",""1"",""20811""
","
","","","528","","","21","20558","7658","&#9776;","elianto","#3366ff99"," "," ","1","+10","[1379]","1","0","1","","","","","","","",""
"pit-trial","26","374110","0.0-2.0-8.1-1.1","battery-v0.2","","""event"",""trial"",""time""
""fullscreenenter"",""1"",""20811""
","
","
","""event"",""trial"",""time""
""fullscreenenter"",""1"",""20811""
","
","","","435","","","21","20558","7658","&#9776;","elianto","#3366ff99"," "," ","1","+10","[1285]","1","0","1","","","","","","","",""
"pit-trial","27","377492","0.0-2.0-8.1-2.1","battery-v0.2","","""event"",""trial"",""time""
""fullscreenenter"",""1"",""20811""
","
","
","""event"",""trial"",""time""
""fullscreenenter"",""1"",""20811""
","
","","","525","","","21","20558","7658","&#9776;","elianto","#3366ff99"," "," ","1","+10","[1376]","1","0","1","","","","","","","",""
"pit-trial","28","380748","0.0-2.0-8.1-3.1","battery-v0.2","","""event"",""trial"",""time""
""fullscreenenter"",""1"",""20811""
","
","
","""event"",""trial"",""time""
""fullscreenenter"",""1"",""20811""
","
","","","399","","","21","20558","7658","&#9776;","elianto","#3366ff99"," "," ","1","0","[1250]","1","0","1","","","","","","","",""
"pit-trial","29","384007","0.0-2.0-8.1-4.1","battery-v0.2","","""event"",""trial"",""time""
""fullscreenenter"",""1"",""20811""
","
","
","""event"",""trial"",""time""
""fullscreenenter"",""1"",""20811""
","
","","","402","","","21","20558","7658","&#9776;","elianto","#3366ff99"," "," ","1","+10","[1252]","1","0","1","","","","","","","",""
"pit-trial","30","387207","0.0-2.0-8.2-0.2","battery-v0.2","","""event"",""trial"",""time""
""fullscreenenter"",""1"",""20811""
","
","
","""event"",""trial"",""time""
""fullscreenenter"",""1"",""20811""
","
","","","343.0000000000582","","","21","20558","7658","&#9776;","elianto","#3366ff99"," "," ","1","+10","[1193]","1","0","1","","","","","","","",""
"pit-trial","31","390353","0.0-2.0-8.2-1.2","battery-v0.2","","""event"",""trial"",""time""
""fullscreenenter"",""1"",""20811""
","
","
","""event"",""trial"",""time""
""fullscreenenter"",""1"",""20811""
","
","","","289","","","21","20558","7658","&#9776;","elianto","#3366ff99"," "," ","1","+10","[1140]","1","0","1","","","","","","","",""
"pit-trial","32","393441","0.0-2.0-8.2-2.2","battery-v0.2","","""event"",""trial"",""time""
""fullscreenenter"",""1"",""20811""
","
","
","""event"",""trial"",""time""
""fullscreenenter"",""1"",""20811""
","
","","","232","","","21","20558","7658","&#9776;","elianto","#3366ff99"," "," ","1","+10","[1083]","1","0","1","","","","","","","",""
"pit-trial","33","396762","0.0-2.0-8.2-3.2","battery-v0.2","","""event"",""trial"",""time""
""fullscreenenter"",""1"",""20811""
","
","
","""event"",""trial"",""time""
""fullscreenenter"",""1"",""20811""
","
","","","463","","","21","20558","7658","&#9776;","elianto","#3366ff99"," "," ","1","0","[1314]","1","0","1","","","","","","","",""
"pit-trial","34","400057","0.0-2.0-8.2-4.2","battery-v0.2","","""event"",""trial"",""time""
""fullscreenenter"",""1"",""20811""
","
","
","""event"",""trial"",""time""
""fullscreenenter"",""1"",""20811""
","
","","","438.9999999999418","","","21","20558","7658","&#9776;","elianto","#3366ff99"," "," ","1","+10","[1289.9999999999418]","1","0","1","","","","","","","",""
"call-function","35","400062","0.0-2.0-9.0","battery-v0.2","","""event"",""trial"",""time""
""fullscreenenter"",""1"",""20811""
","
","
","""event"",""trial"",""time""
""fullscreenenter"",""1"",""20811""
","
","","","","","","","","","","","","","","","","","","","","","","","","","","",""
"pit-instructions","36","438838","0.0-2.0-10.0","battery-v0.2","","""event"",""trial"",""time""
""fullscreenenter"",""1"",""20811""
","
","
","""event"",""trial"",""time""
""fullscreenenter"",""1"",""20811""
","
","","[{""page_index"":0,""viewing_time"":5691.000000000058},{""page_index"":1,""viewing_time"":6615.999999999942},{""page_index"":2,""viewing_time"":9734},{""page_index"":3,""viewing_time"":9266},{""page_index"":4,""viewing_time"":7468.000000000058}]","38775.00000000006","","","","","","","","","","","","","","","","","","","","","","","",""
"pit-trial","37","442355","0.0-2.0-11.0-0.0","battery-v0.2","","""event"",""trial"",""time""
""fullscreenenter"",""1"",""20811""
","
","
","""event"",""trial"",""time""
""fullscreenenter"",""1"",""20811""
","
","","","660","","","21","20558","7658","&#9761;","elianto","#3366ff99","-1"," ","0","0","[1510]","1","0","2","","","","","","","",""
"pit-trial","38","445355","0.0-2.0-11.0-1.0","battery-v0.2","","""event"",""trial"",""time""
""fullscreenenter"",""1"",""20811""
","
","
","""event"",""trial"",""time""
""fullscreenenter"",""1"",""20811""
","
","","","144","","","21","20558","7658","&#9761;","elianto","#3366ff99","-1"," ","0","0","[995]","1","0","2","","","","","","","",""
"pit-trial","39","450213","0.0-2.0-11.0-2.0","battery-v0.2","","""event"",""trial"",""time""
""fullscreenenter"",""1"",""20811""
","
","
","""event"",""trial"",""time""
""fullscreenenter"",""1"",""20811""
","
","","","-1","","","21","20558","7658","&#9761;","elianto","#3366ff99","-1","-1","1","+10","[]","0","0","2","","","","","","","",""
"pit-trial","40","455070","0.0-2.0-11.0-3.0","battery-v0.2","","""event"",""trial"",""time""
""fullscreenenter"",""1"",""20811""
","
","
","""event"",""trial"",""time""
""fullscreenenter"",""1"",""20811""
","
","","","-1","","","21","20558","7658","&#9761;","elianto","#3366ff99","-1","-1","1","0","[]","0","0","2","","","","","","","",""
"pit-trial","41","459928","0.0-2.0-11.0-4.0","battery-v0.2","","""event"",""trial"",""time""
""fullscreenenter"",""1"",""20811""
","
","
","""event"",""trial"",""time""
""fullscreenenter"",""1"",""20811""
","
","","","-1","","","21","20558","7658","&#9761;","elianto","#3366ff99","-1","-1","1","+10","[]","0","0","2","","","","","","","",""
"pit-trial","42","464787","0.0-2.0-11.1-0.1","battery-v0.2","","""event"",""trial"",""time""
""fullscreenenter"",""1"",""20811""
","
","
","""event"",""trial"",""time""
""fullscreenenter"",""1"",""20811""
","
","","","-1","","","21","20558","7658","&#9761;","elianto","#3366ff99","-1","-1","1","+10","[]","0","0","2","","","","","","","",""
"pit-trial","43","469644","0.0-2.0-11.1-1.1","battery-v0.2","","""event"",""trial"",""time""
""fullscreenenter"",""1"",""20811""
","
","
","""event"",""trial"",""time""
""fullscreenenter"",""1"",""20811""
","
","","","-1","","","21","20558","7658","&#9761;","elianto","#3366ff99","-1","-1","1","+10","[]","0","0","2","","","","","","","",""
"pit-trial","44","474501","0.0-2.0-11.1-2.1","battery-v0.2","","""event"",""trial"",""time""
""fullscreenenter"",""1"",""20811""
","
","
","""event"",""trial"",""time""
""fullscreenenter"",""1"",""20811""
","
","","","-1","","","21","20558","7658","&#9761;","elianto","#3366ff99","-1","-1","1","+10","[]","0","0","2","","","","","","","",""
"pit-trial","45","479359","0.0-2.0-11.1-3.1","battery-v0.2","","""event"",""trial"",""time""
""fullscreenenter"",""1"",""20811""
","
","
","""event"",""trial"",""time""
""fullscreenenter"",""1"",""20811""
","
","","","-1","","","21","20558","7658","&#9761;","elianto","#3366ff99","-1","-1","1","0","[]","0","0","2","","","","","","","",""
"pit-trial","46","484216","0.0-2.0-11.1-4.1","battery-v0.2","","""event"",""trial"",""time""
""fullscreenenter"",""1"",""20811""
","
","
","""event"",""trial"",""time""
""fullscreenenter"",""1"",""20811""
","
","","","-1","","","21","20558","7658","&#9761;","elianto","#3366ff99","-1","-1","1","+10","[]","0","0","2","","","","","","","",""
"pit-trial","47","489074","0.0-2.0-11.2-0.2","battery-v0.2","","""event"",""trial"",""time""
""fullscreenenter"",""1"",""20811""
","
","
","""event"",""trial"",""time""
""fullscreenenter"",""1"",""20811""
","
","","","-1","","","21","20558","7658","&#9761;","elianto","#3366ff99","-1","-1","1","+10","[]","0","0","2","","","","","","","",""
"pit-trial","48","493931","0.0-2.0-11.2-1.2","battery-v0.2","","""event"",""trial"",""time""
""fullscreenenter"",""1"",""20811""
""blur"",""49"",""494658""
""focus"",""49"",""496480""
","""event"",""trial"",""time""
""blur"",""49"",""494658""
","""event"",""trial"",""time""
""focus"",""49"",""496480""
","""event"",""trial"",""time""
""fullscreenenter"",""1"",""20811""
","
","","","-1","","","21","20558","7658","&#9761;","elianto","#3366ff99","-1","-1","1","+10","[]","0","0","2","","","","","","","",""
"pit-trial","49","498788","0.0-2.0-11.2-2.2","battery-v0.2","","""event"",""trial"",""time""
""fullscreenenter"",""1"",""20811""
""blur"",""49"",""494658""
""focus"",""49"",""496480""
","""event"",""trial"",""time""
""blur"",""49"",""494658""
","""event"",""trial"",""time""
""focus"",""49"",""496480""
","""event"",""trial"",""time""
""fullscreenenter"",""1"",""20811""
","
","","","-1","","","21","20558","7658","&#9761;","elianto","#3366ff99","-1","-1","1","+10","[]","0","0","2","","","","","","","",""
"pit-trial","50","503644","0.0-2.0-11.2-3.2","battery-v0.2","","""event"",""trial"",""time""
""fullscreenenter"",""1"",""20811""
""blur"",""49"",""494658""
""focus"",""49"",""496480""
","""event"",""trial"",""time""
""blur"",""49"",""494658""
","""event"",""trial"",""time""
""focus"",""49"",""496480""
","""event"",""trial"",""time""
""fullscreenenter"",""1"",""20811""
","
","","","-1","","","21","20558","7658","&#9761;","elianto","#3366ff99","-1","-1","1","0","[]","0","0","2","","","","","","","",""
"pit-trial","51","508500","0.0-2.0-11.2-4.2","battery-v0.2","","""event"",""trial"",""time""
""fullscreenenter"",""1"",""20811""
""blur"",""49"",""494658""
""focus"",""49"",""496480""
","""event"",""trial"",""time""
""blur"",""49"",""494658""
","""event"",""trial"",""time""
""focus"",""49"",""496480""
","""event"",""trial"",""time""
""fullscreenenter"",""1"",""20811""
","
","","","-1","","","21","20558","7658","&#9761;","elianto","#3366ff99","-1","-1","1","+10","[]","0","0","2","","","","","","","",""
"pit-trial","52","513354","0.0-2.0-11.3-0.3","battery-v0.2","","""event"",""trial"",""time""
""fullscreenenter"",""1"",""20811""
""blur"",""49"",""494658""
""focus"",""49"",""496480""
","""event"",""trial"",""time""
""blur"",""49"",""494658""
","""event"",""trial"",""time""
""focus"",""49"",""496480""
","""event"",""trial"",""time""
""fullscreenenter"",""1"",""20811""
","
","","","-1","","","21","20558","7658","&#9761;","elianto","#3366ff99","-1","-1","1","+10","[]","0","0","2","","","","","","","",""
"pit-trial","53","518210","0.0-2.0-11.3-1.3","battery-v0.2","","""event"",""trial"",""time""
""fullscreenenter"",""1"",""20811""
""blur"",""49"",""494658""
""focus"",""49"",""496480""
","""event"",""trial"",""time""
""blur"",""49"",""494658""
","""event"",""trial"",""time""
""focus"",""49"",""496480""
","""event"",""trial"",""time""
""fullscreenenter"",""1"",""20811""
","
","","","-1","","","21","20558","7658","&#9761;","elianto","#3366ff99","-1","-1","1","+10","[]","0","0","2","","","","","","","",""
"pit-trial","54","523065","0.0-2.0-11.3-2.3","battery-v0.2","","""event"",""trial"",""time""
""fullscreenenter"",""1"",""20811""
""blur"",""49"",""494658""
""focus"",""49"",""496480""
","""event"",""trial"",""time""
""blur"",""49"",""494658""
","""event"",""trial"",""time""
""focus"",""49"",""496480""
","""event"",""trial"",""time""
""fullscreenenter"",""1"",""20811""
","
","","","-1","","","21","20558","7658","&#9761;","elianto","#3366ff99","-1","-1","1","+10","[]","0","0","2","","","","","","","",""
"pit-trial","55","527921","0.0-2.0-11.3-3.3","battery-v0.2","","""event"",""trial"",""time""
""fullscreenenter"",""1"",""20811""
""blur"",""49"",""494658""
""focus"",""49"",""496480""
","""event"",""trial"",""time""
""blur"",""49"",""494658""
","""event"",""trial"",""time""
""focus"",""49"",""496480""
","""event"",""trial"",""time""
""fullscreenenter"",""1"",""20811""
","
","","","-1","","","21","20558","7658","&#9761;","elianto","#3366ff99","-1","-1","1","0","[]","0","0","2","","","","","","","",""
"pit-trial","56","532776","0.0-2.0-11.3-4.3","battery-v0.2","","""event"",""trial"",""time""
""fullscreenenter"",""1"",""20811""
""blur"",""49"",""494658""
""focus"",""49"",""496480""
","""event"",""trial"",""time""
""blur"",""49"",""494658""
","""event"",""trial"",""time""
""focus"",""49"",""496480""
","""event"",""trial"",""time""
""fullscreenenter"",""1"",""20811""
","
","","","-1","","","21","20558","7658","&#9761;","elianto","#3366ff99","-1","-1","1","+10","[]","0","0","2","","","","","","","",""
"call-function","57","532780","0.0-2.0-12.0","battery-v0.2","","""event"",""trial"",""time""
""fullscreenenter"",""1"",""20811""
""blur"",""49"",""494658""
""focus"",""49"",""496480""
","""event"",""trial"",""time""
""blur"",""49"",""494658""
","""event"",""trial"",""time""
""focus"",""49"",""496480""
","""event"",""trial"",""time""
""fullscreenenter"",""1"",""20811""
","
","","","","","","","","","","","","","","","","","","","","","","","","","","",""
"pit-instructions","58","565708","0.0-2.0-13.0","battery-v0.2","","""event"",""trial"",""time""
""fullscreenenter"",""1"",""20811""
""blur"",""49"",""494658""
""focus"",""49"",""496480""
","""event"",""trial"",""time""
""blur"",""49"",""494658""
","""event"",""trial"",""time""
""focus"",""49"",""496480""
","""event"",""trial"",""time""
""fullscreenenter"",""1"",""20811""
","
","","[{""page_index"":0,""viewing_time"":4608},{""page_index"":1,""viewing_time"":6701},{""page_index"":2,""viewing_time"":5416.000000000116},{""page_index"":3,""viewing_time"":11033.999999999884},{""page_index"":4,""viewing_time"":5167}]","32927.00000000012","","","","","","","","","","","","","","","","","","","","","","","",""
"pit-trial","59","569085","0.0-2.0-14.0-0.0","battery-v0.2","","""event"",""trial"",""time""
""fullscreenenter"",""1"",""20811""
""blur"",""49"",""494658""
""focus"",""49"",""496480""
","""event"",""trial"",""time""
""blur"",""49"",""494658""
","""event"",""trial"",""time""
""focus"",""49"",""496480""
","""event"",""trial"",""time""
""fullscreenenter"",""1"",""20811""
","
","","","520.0000000001164","","","21","20558","7658","&#9826;","elianto","#f73b6a7A","-1"," ","0","-10","[1371.0000000001164]","1","0","3","","","","","","","",""
"pit-trial","60","572195","0.0-2.0-14.0-1.0","battery-v0.2","","""event"",""trial"",""time""
""fullscreenenter"",""1"",""20811""
""blur"",""49"",""494658""
""focus"",""49"",""496480""
","""event"",""trial"",""time""
""blur"",""49"",""494658""
","""event"",""trial"",""time""
""focus"",""49"",""496480""
","""event"",""trial"",""time""
""fullscreenenter"",""1"",""20811""
","
","","","254","","","21","20558","7658","&#9826;","elianto","#f73b6a7A","-1"," ","0","-10","[1104]","1","0","3","","","","","","","",""
"pit-trial","61","577053","0.0-2.0-14.0-2.0","battery-v0.2","","""event"",""trial"",""time""
""fullscreenenter"",""1"",""20811""
""blur"",""49"",""494658""
""focus"",""49"",""496480""
","""event"",""trial"",""time""
""blur"",""49"",""494658""
","""event"",""trial"",""time""
""focus"",""49"",""496480""
","""event"",""trial"",""time""
""fullscreenenter"",""1"",""20811""
","
","","","-1","","","21","20558","7658","&#9826;","elianto","#f73b6a7A","-1","-1","1","0","[]","0","0","3","","","","","","","",""
"pit-trial","62","581909","0.0-2.0-14.0-3.0","battery-v0.2","","""event"",""trial"",""time""
""fullscreenenter"",""1"",""20811""
""blur"",""49"",""494658""
""focus"",""49"",""496480""
","""event"",""trial"",""time""
""blur"",""49"",""494658""
","""event"",""trial"",""time""
""focus"",""49"",""496480""
","""event"",""trial"",""time""
""fullscreenenter"",""1"",""20811""
","
","","","-1","","","21","20558","7658","&#9826;","elianto","#f73b6a7A","-1","-1","1","-10","[]","0","0","3","","","","","","","",""
"pit-trial","63","586766","0.0-2.0-14.0-4.0","battery-v0.2","","""event"",""trial"",""time""
""fullscreenenter"",""1"",""20811""
""blur"",""49"",""494658""
""focus"",""49"",""496480""
","""event"",""trial"",""time""
""blur"",""49"",""494658""
","""event"",""trial"",""time""
""focus"",""49"",""496480""
","""event"",""trial"",""time""
""fullscreenenter"",""1"",""20811""
","
","","","-1","","","21","20558","7658","&#9826;","elianto","#f73b6a7A","-1","-1","1","0","[]","0","0","3","","","","","","","",""
"pit-trial","64","591621","0.0-2.0-14.1-0.1","battery-v0.2","","""event"",""trial"",""time""
""fullscreenenter"",""1"",""20811""
""blur"",""49"",""494658""
""focus"",""49"",""496480""
","""event"",""trial"",""time""
""blur"",""49"",""494658""
","""event"",""trial"",""time""
""focus"",""49"",""496480""
","""event"",""trial"",""time""
""fullscreenenter"",""1"",""20811""
","
","","","-1","","","21","20558","7658","&#9826;","elianto","#f73b6a7A","-1","-1","1","0","[]","0","0","3","","","","","","","",""
"pit-trial","65","596479","0.0-2.0-14.1-1.1","battery-v0.2","","""event"",""trial"",""time""
""fullscreenenter"",""1"",""20811""
""blur"",""49"",""494658""
""focus"",""49"",""496480""
","""event"",""trial"",""time""
""blur"",""49"",""494658""
","""event"",""trial"",""time""
""focus"",""49"",""496480""
","""event"",""trial"",""time""
""fullscreenenter"",""1"",""20811""
","
","","","-1","","","21","20558","7658","&#9826;","elianto","#f73b6a7A","-1","-1","1","0","[]","0","0","3","","","","","","","",""
"pit-trial","66","601336","0.0-2.0-14.1-2.1","battery-v0.2","","""event"",""trial"",""time""
""fullscreenenter"",""1"",""20811""
""blur"",""49"",""494658""
""focus"",""49"",""496480""
","""event"",""trial"",""time""
""blur"",""49"",""494658""
","""event"",""trial"",""time""
""focus"",""49"",""496480""
","""event"",""trial"",""time""
""fullscreenenter"",""1"",""20811""
","
","","","-1","","","21","20558","7658","&#9826;","elianto","#f73b6a7A","-1","-1","1","0","[]","0","0","3","","","","","","","",""
"pit-trial","67","606193","0.0-2.0-14.1-3.1","battery-v0.2","","""event"",""trial"",""time""
""fullscreenenter"",""1"",""20811""
""blur"",""49"",""494658""
""focus"",""49"",""496480""
","""event"",""trial"",""time""
""blur"",""49"",""494658""
","""event"",""trial"",""time""
""focus"",""49"",""496480""
","""event"",""trial"",""time""
""fullscreenenter"",""1"",""20811""
","
","","","-1","","","21","20558","7658","&#9826;","elianto","#f73b6a7A","-1","-1","1","-10","[]","0","0","3","","","","","","","",""
"pit-trial","68","611049","0.0-2.0-14.1-4.1","battery-v0.2","","""event"",""trial"",""time""
""fullscreenenter"",""1"",""20811""
""blur"",""49"",""494658""
""focus"",""49"",""496480""
","""event"",""trial"",""time""
""blur"",""49"",""494658""
","""event"",""trial"",""time""
""focus"",""49"",""496480""
","""event"",""trial"",""time""
""fullscreenenter"",""1"",""20811""
","
","","","-1","","","21","20558","7658","&#9826;","elianto","#f73b6a7A","-1","-1","1","0","[]","0","0","3","","","","","","","",""
"pit-trial","69","615907","0.0-2.0-14.2-0.2","battery-v0.2","","""event"",""trial"",""time""
""fullscreenenter"",""1"",""20811""
""blur"",""49"",""494658""
""focus"",""49"",""496480""
","""event"",""trial"",""time""
""blur"",""49"",""494658""
","""event"",""trial"",""time""
""focus"",""49"",""496480""
","""event"",""trial"",""time""
""fullscreenenter"",""1"",""20811""
","
","","","-1","","","21","20558","7658","&#9826;","elianto","#f73b6a7A","-1","-1","1","0","[]","0","0","3","","","","","","","",""
"pit-trial","70","620764","0.0-2.0-14.2-1.2","battery-v0.2","","""event"",""trial"",""time""
""fullscreenenter"",""1"",""20811""
""blur"",""49"",""494658""
""focus"",""49"",""496480""
","""event"",""trial"",""time""
""blur"",""49"",""494658""
","""event"",""trial"",""time""
""focus"",""49"",""496480""
","""event"",""trial"",""time""
""fullscreenenter"",""1"",""20811""
","
","","","-1","","","21","20558","7658","&#9826;","elianto","#f73b6a7A","-1","-1","1","0","[]","0","0","3","","","","","","","",""
"pit-trial","71","625621","0.0-2.0-14.2-2.2","battery-v0.2","","""event"",""trial"",""time""
""fullscreenenter"",""1"",""20811""
""blur"",""49"",""494658""
""focus"",""49"",""496480""
","""event"",""trial"",""time""
""blur"",""49"",""494658""
","""event"",""trial"",""time""
""focus"",""49"",""496480""
","""event"",""trial"",""time""
""fullscreenenter"",""1"",""20811""
","
","","","-1","","","21","20558","7658","&#9826;","elianto","#f73b6a7A","-1","-1","1","0","[]","0","0","3","","","","","","","",""
"pit-trial","72","630479","0.0-2.0-14.2-3.2","battery-v0.2","","""event"",""trial"",""time""
""fullscreenenter"",""1"",""20811""
""blur"",""49"",""494658""
""focus"",""49"",""496480""
","""event"",""trial"",""time""
""blur"",""49"",""494658""
","""event"",""trial"",""time""
""focus"",""49"",""496480""
","""event"",""trial"",""time""
""fullscreenenter"",""1"",""20811""
","
","","","-1","","","21","20558","7658","&#9826;","elianto","#f73b6a7A","-1","-1","1","-10","[]","0","0","3","","","","","","","",""
"pit-trial","73","635336","0.0-2.0-14.2-4.2","battery-v0.2","","""event"",""trial"",""time""
""fullscreenenter"",""1"",""20811""
""blur"",""49"",""494658""
""focus"",""49"",""496480""
","""event"",""trial"",""time""
""blur"",""49"",""494658""
","""event"",""trial"",""time""
""focus"",""49"",""496480""
","""event"",""trial"",""time""
""fullscreenenter"",""1"",""20811""
","
","","","-1","","","21","20558","7658","&#9826;","elianto","#f73b6a7A","-1","-1","1","0","[]","0","0","3","","","","","","","",""
"pit-trial","74","640193","0.0-2.0-14.3-0.3","battery-v0.2","","""event"",""trial"",""time""
""fullscreenenter"",""1"",""20811""
""blur"",""49"",""494658""
""focus"",""49"",""496480""
","""event"",""trial"",""time""
""blur"",""49"",""494658""
","""event"",""trial"",""time""
""focus"",""49"",""496480""
","""event"",""trial"",""time""
""fullscreenenter"",""1"",""20811""
","
","","","-1","","","21","20558","7658","&#9826;","elianto","#f73b6a7A","-1","-1","1","0","[]","0","0","3","","","","","","","",""
"pit-trial","75","645049","0.0-2.0-14.3-1.3","battery-v0.2","","""event"",""trial"",""time""
""fullscreenenter"",""1"",""20811""
""blur"",""49"",""494658""
""focus"",""49"",""496480""
","""event"",""trial"",""time""
""blur"",""49"",""494658""
","""event"",""trial"",""time""
""focus"",""49"",""496480""
","""event"",""trial"",""time""
""fullscreenenter"",""1"",""20811""
","
","","","-1","","","21","20558","7658","&#9826;","elianto","#f73b6a7A","-1","-1","1","0","[]","0","0","3","","","","","","","",""
"pit-trial","76","649906","0.0-2.0-14.3-2.3","battery-v0.2","","""event"",""trial"",""time""
""fullscreenenter"",""1"",""20811""
""blur"",""49"",""494658""
""focus"",""49"",""496480""
","""event"",""trial"",""time""
""blur"",""49"",""494658""
","""event"",""trial"",""time""
""focus"",""49"",""496480""
","""event"",""trial"",""time""
""fullscreenenter"",""1"",""20811""
","
","","","-1","","","21","20558","7658","&#9826;","elianto","#f73b6a7A","-1","-1","1","0","[]","0","0","3","","","","","","","",""
"pit-trial","77","654763","0.0-2.0-14.3-3.3","battery-v0.2","","""event"",""trial"",""time""
""fullscreenenter"",""1"",""20811""
""blur"",""49"",""494658""
""focus"",""49"",""496480""
","""event"",""trial"",""time""
""blur"",""49"",""494658""
","""event"",""trial"",""time""
""focus"",""49"",""496480""
","""event"",""trial"",""time""
""fullscreenenter"",""1"",""20811""
","
","","","-1","","","21","20558","7658","&#9826;","elianto","#f73b6a7A","-1","-1","1","-10","[]","0","0","3","","","","","","","",""
"pit-trial","78","659620","0.0-2.0-14.3-4.3","battery-v0.2","","""event"",""trial"",""time""
""fullscreenenter"",""1"",""20811""
""blur"",""49"",""494658""
""focus"",""49"",""496480""
","""event"",""trial"",""time""
""blur"",""49"",""494658""
","""event"",""trial"",""time""
""focus"",""49"",""496480""
","""event"",""trial"",""time""
""fullscreenenter"",""1"",""20811""
","
","","","-1","","","21","20558","7658","&#9826;","elianto","#f73b6a7A","-1","-1","1","0","[]","0","0","3","","","","","","","",""
"call-function","79","659624","0.0-2.0-15.0","battery-v0.2","","""event"",""trial"",""time""
""fullscreenenter"",""1"",""20811""
""blur"",""49"",""494658""
""focus"",""49"",""496480""
","""event"",""trial"",""time""
""blur"",""49"",""494658""
","""event"",""trial"",""time""
""focus"",""49"",""496480""
","""event"",""trial"",""time""
""fullscreenenter"",""1"",""20811""
","
","","","","","","","","","","","","","","","","","","","","","","","","","","",""
"pit-instructions","80","687060","0.0-2.0-16.0","battery-v0.2","","""event"",""trial"",""time""
""fullscreenenter"",""1"",""20811""
""blur"",""49"",""494658""
""focus"",""49"",""496480""
","""event"",""trial"",""time""
""blur"",""49"",""494658""
","""event"",""trial"",""time""
""focus"",""49"",""496480""
","""event"",""trial"",""time""
""fullscreenenter"",""1"",""20811""
","
","","[{""page_index"":0,""viewing_time"":8933},{""page_index"":1,""viewing_time"":8167},{""page_index"":2,""viewing_time"":4933},{""page_index"":3,""viewing_time"":5402}]","27435","","","","","","","","","","","","","","","","","","","","","","","",""
"pit-trial","81","690393","0.0-2.0-17.0-0.0","battery-v0.2","","""event"",""trial"",""time""
""fullscreenenter"",""1"",""20811""
""blur"",""49"",""494658""
""focus"",""49"",""496480""
","""event"",""trial"",""time""
""blur"",""49"",""494658""
","""event"",""trial"",""time""
""focus"",""49"",""496480""
","""event"",""trial"",""time""
""fullscreenenter"",""1"",""20811""
","
","","","477","","","21","20558","7658","&#9789;","elianto","#f73b6a7A"," "," ","1","0","[1328]","1","0","4","","","","","","","",""
"pit-trial","82","693518","0.0-2.0-17.0-1.0","battery-v0.2","","""event"",""trial"",""time""
""fullscreenenter"",""1"",""20811""
""blur"",""49"",""494658""
""focus"",""49"",""496480""
","""event"",""trial"",""time""
""blur"",""49"",""494658""
","""event"",""trial"",""time""
""focus"",""49"",""496480""
","""event"",""trial"",""time""
""fullscreenenter"",""1"",""20811""
","
","","","268","","","21","20558","7658","&#9789;","elianto","#f73b6a7A"," "," ","1","0","[1119]","1","0","4","","","","","","","",""
"pit-trial","83","696543","0.0-2.0-17.0-2.0","battery-v0.2","","""event"",""trial"",""time""
""fullscreenenter"",""1"",""20811""
""blur"",""49"",""494658""
""focus"",""49"",""496480""
","""event"",""trial"",""time""
""blur"",""49"",""494658""
","""event"",""trial"",""time""
""focus"",""49"",""496480""
","""event"",""trial"",""time""
""fullscreenenter"",""1"",""20811""
","
","","","168","","","21","20558","7658","&#9789;","elianto","#f73b6a7A"," "," ","1","0","[1019]","1","0","4","","","","","","","",""
"pit-trial","84","699584","0.0-2.0-17.0-3.0","battery-v0.2","","""event"",""trial"",""time""
""fullscreenenter"",""1"",""20811""
""blur"",""49"",""494658""
""focus"",""49"",""496480""
","""event"",""trial"",""time""
""blur"",""49"",""494658""
","""event"",""trial"",""time""
""focus"",""49"",""496480""
","""event"",""trial"",""time""
""fullscreenenter"",""1"",""20811""
","
","","","184","","","21","20558","7658","&#9789;","elianto","#f73b6a7A"," "," ","1","-10","[1035]","1","0","4","","","","","","","",""
"pit-trial","85","702446","0.0-2.0-17.0-4.0","battery-v0.2","","""event"",""trial"",""time""
""fullscreenenter"",""1"",""20811""
""blur"",""49"",""494658""
""focus"",""49"",""496480""
","""event"",""trial"",""time""
""blur"",""49"",""494658""
","""event"",""trial"",""time""
""focus"",""49"",""496480""
","""event"",""trial"",""time""
""fullscreenenter"",""1"",""20811""
","
","","","5","","","21","20558","7658","&#9789;","elianto","#f73b6a7A"," "," ","1","0","[856]","1","0","4","","","","","","","",""
"pit-trial","86","707303","0.0-2.0-17.1-0.1","battery-v0.2","","""event"",""trial"",""time""
""fullscreenenter"",""1"",""20811""
""blur"",""49"",""494658""
""focus"",""49"",""496480""
","""event"",""trial"",""time""
""blur"",""49"",""494658""
","""event"",""trial"",""time""
""focus"",""49"",""496480""
","""event"",""trial"",""time""
""fullscreenenter"",""1"",""20811""
","
","","","-1","","","21","20558","7658","&#9789;","elianto","#f73b6a7A"," ","-1","0","-10","[]","0","0","4","","","","","","","",""
"pit-trial","87","710588","0.0-2.0-17.1-1.1","battery-v0.2","","""event"",""trial"",""time""
""fullscreenenter"",""1"",""20811""
""blur"",""49"",""494658""
""focus"",""49"",""496480""
","""event"",""trial"",""time""
""blur"",""49"",""494658""
","""event"",""trial"",""time""
""focus"",""49"",""496480""
","""event"",""trial"",""time""
""fullscreenenter"",""1"",""20811""
","
","","","431","","","21","20558","7658","&#9789;","elianto","#f73b6a7A"," "," ","1","0","[1280.9999999998836]","1","0","4","","","","","","","",""
"pit-trial","88","713832","0.0-2.0-17.1-2.1","battery-v0.2","","""event"",""trial"",""time""
""fullscreenenter"",""1"",""20811""
""blur"",""49"",""494658""
""focus"",""49"",""496480""
","""event"",""trial"",""time""
""blur"",""49"",""494658""
","""event"",""trial"",""time""
""focus"",""49"",""496480""
","""event"",""trial"",""time""
""fullscreenenter"",""1"",""20811""
","
","","","388","","","21","20558","7658","&#9789;","elianto","#f73b6a7A"," "," ","1","0","[1238]","1","0","4","","","","","","","",""
"pit-trial","89","717029","0.0-2.0-17.1-3.1","battery-v0.2","","""event"",""trial"",""time""
""fullscreenenter"",""1"",""20811""
""blur"",""49"",""494658""
""focus"",""49"",""496480""
","""event"",""trial"",""time""
""blur"",""49"",""494658""
","""event"",""trial"",""time""
""focus"",""49"",""496480""
","""event"",""trial"",""time""
""fullscreenenter"",""1"",""20811""
","
","","","341","","","21","20558","7658","&#9789;","elianto","#f73b6a7A"," "," ","1","-10","[1191]","1","0","4","","","","","","","",""
"pit-trial","90","720457","0.0-2.0-17.1-4.1","battery-v0.2","","""event"",""trial"",""time""
""fullscreenenter"",""1"",""20811""
""blur"",""49"",""494658""
""focus"",""49"",""496480""
","""event"",""trial"",""time""
""blur"",""49"",""494658""
","""event"",""trial"",""time""
""focus"",""49"",""496480""
","""event"",""trial"",""time""
""fullscreenenter"",""1"",""20811""
","
","","","571.0000000001164","","","21","20558","7658","&#9789;","elianto","#f73b6a7A"," "," ","1","0","[1422.0000000001164]","1","0","4","","","","","","","",""
"pit-trial","91","725314","0.0-2.0-17.2-0.2","battery-v0.2","","""event"",""trial"",""time""
""fullscreenenter"",""1"",""20811""
""blur"",""49"",""494658""
""focus"",""49"",""496480""
","""event"",""trial"",""time""
""blur"",""49"",""494658""
","""event"",""trial"",""time""
""focus"",""49"",""496480""
","""event"",""trial"",""time""
""fullscreenenter"",""1"",""20811""
","
","","","-1","","","21","20558","7658","&#9789;","elianto","#f73b6a7A"," ","-1","0","-10","[]","0","0","4","","","","","","","",""
"pit-trial","92","730171","0.0-2.0-17.2-1.2","battery-v0.2","","""event"",""trial"",""time""
""fullscreenenter"",""1"",""20811""
""blur"",""49"",""494658""
""focus"",""49"",""496480""
","""event"",""trial"",""time""
""blur"",""49"",""494658""
","""event"",""trial"",""time""
""focus"",""49"",""496480""
","""event"",""trial"",""time""
""fullscreenenter"",""1"",""20811""
","
","","","-1","","","21","20558","7658","&#9789;","elianto","#f73b6a7A"," ","-1","0","-10","[]","0","0","4","","","","","","","",""
"pit-trial","93","733425","0.0-2.0-17.2-2.2","battery-v0.2","","""event"",""trial"",""time""
""fullscreenenter"",""1"",""20811""
""blur"",""49"",""494658""
""focus"",""49"",""496480""
","""event"",""trial"",""time""
""blur"",""49"",""494658""
","""event"",""trial"",""time""
""focus"",""49"",""496480""
","""event"",""trial"",""time""
""fullscreenenter"",""1"",""20811""
","
","","","398","","","21","20558","7658","&#9789;","elianto","#f73b6a7A"," "," ","1","0","[1248]","1","0","4","","","","","","","",""
"pit-trial","94","736725","0.0-2.0-17.2-3.2","battery-v0.2","","""event"",""trial"",""time""
""fullscreenenter"",""1"",""20811""
""blur"",""49"",""494658""
""focus"",""49"",""496480""
","""event"",""trial"",""time""
""blur"",""49"",""494658""
","""event"",""trial"",""time""
""focus"",""49"",""496480""
","""event"",""trial"",""time""
""fullscreenenter"",""1"",""20811""
","
","","","444","","","21","20558","7658","&#9789;","elianto","#f73b6a7A"," "," ","1","-10","[1294]","1","0","4","","","","","","","",""
"pit-trial","95","739956","0.0-2.0-17.2-4.2","battery-v0.2","","""event"",""trial"",""time""
""fullscreenenter"",""1"",""20811""
""blur"",""49"",""494658""
""focus"",""49"",""496480""
","""event"",""trial"",""time""
""blur"",""49"",""494658""
","""event"",""trial"",""time""
""focus"",""49"",""496480""
","""event"",""trial"",""time""
""fullscreenenter"",""1"",""20811""
","
","","","373.9999999998836","","","21","20558","7658","&#9789;","elianto","#f73b6a7A"," "," ","1","0","[1224.9999999998836]","1","0","4","","","","","","","",""
"pit-trial","96","743064","0.0-2.0-17.3-0.3","battery-v0.2","","""event"",""trial"",""time""
""fullscreenenter"",""1"",""20811""
""blur"",""49"",""494658""
""focus"",""49"",""496480""
","""event"",""trial"",""time""
""blur"",""49"",""494658""
","""event"",""trial"",""time""
""focus"",""49"",""496480""
","""event"",""trial"",""time""
""fullscreenenter"",""1"",""20811""
","
","","","250.99999999988358","","","21","20558","7658","&#9789;","elianto","#f73b6a7A"," "," ","1","0","[1101.9999999998836]","1","0","4","","","","","","","",""
"pit-trial","97","746336","0.0-2.0-17.3-1.3","battery-v0.2","","""event"",""trial"",""time""
""fullscreenenter"",""1"",""20811""
""blur"",""49"",""494658""
""focus"",""49"",""496480""
","""event"",""trial"",""time""
""blur"",""49"",""494658""
","""event"",""trial"",""time""
""focus"",""49"",""496480""
","""event"",""trial"",""time""
""fullscreenenter"",""1"",""20811""
","
","","","414","","","21","20558","7658","&#9789;","elianto","#f73b6a7A"," "," ","1","0","[1264]","1","0","4","","","","","","","",""
"pit-trial","98","749569","0.0-2.0-17.3-2.3","battery-v0.2","","""event"",""trial"",""time""
""fullscreenenter"",""1"",""20811""
""blur"",""49"",""494658""
""focus"",""49"",""496480""
","""event"",""trial"",""time""
""blur"",""49"",""494658""
","""event"",""trial"",""time""
""focus"",""49"",""496480""
","""event"",""trial"",""time""
""fullscreenenter"",""1"",""20811""
","
","","","376","","","21","20558","7658","&#9789;","elianto","#f73b6a7A"," "," ","1","0","[1225.9999999998836]","1","0","4","","","","","","","",""
"pit-trial","99","752648","0.0-2.0-17.3-3.3","battery-v0.2","","""event"",""trial"",""time""
""fullscreenenter"",""1"",""20811""
""blur"",""49"",""494658""
""focus"",""49"",""496480""
","""event"",""trial"",""time""
""blur"",""49"",""494658""
","""event"",""trial"",""time""
""focus"",""49"",""496480""
","""event"",""trial"",""time""
""fullscreenenter"",""1"",""20811""
","
","","","222","","","21","20558","7658","&#9789;","elianto","#f73b6a7A"," "," ","1","-10","[1073]","1","0","4","","","","","","","",""
"pit-trial","100","755594","0.0-2.0-17.3-4.3","battery-v0.2","","""event"",""trial"",""time""
""fullscreenenter"",""1"",""20811""
""blur"",""49"",""494658""
""focus"",""49"",""496480""
","""event"",""trial"",""time""
""blur"",""49"",""494658""
","""event"",""trial"",""time""
""focus"",""49"",""496480""
","""event"",""trial"",""time""
""fullscreenenter"",""1"",""20811""
","
","","","88.99999999988358","","","21","20558","7658","&#9789;","elianto","#f73b6a7A"," "," ","1","0","[939]","1","0","4","","","","","","","",""
"call-function","101","755598","0.0-2.0-18.0","battery-v0.2","","""event"",""trial"",""time""
""fullscreenenter"",""1"",""20811""
""blur"",""49"",""494658""
""focus"",""49"",""496480""
","""event"",""trial"",""time""
""blur"",""49"",""494658""
","""event"",""trial"",""time""
""focus"",""49"",""496480""
","""event"",""trial"",""time""
""fullscreenenter"",""1"",""20811""
","
","","","","","","","","","","","","","","","","","","","","","","","","","","",""
"pit-instructions","102","815661","0.0-2.0-19.0","battery-v0.2","","""event"",""trial"",""time""
""fullscreenenter"",""1"",""20811""
""blur"",""49"",""494658""
""focus"",""49"",""496480""
","""event"",""trial"",""time""
""blur"",""49"",""494658""
","""event"",""trial"",""time""
""focus"",""49"",""496480""
","""event"",""trial"",""time""
""fullscreenenter"",""1"",""20811""
","
","","[{""page_index"":0,""viewing_time"":6762},{""page_index"":1,""viewing_time"":6483},{""page_index"":2,""viewing_time"":8200},{""page_index"":3,""viewing_time"":7166.000000000116},{""page_index"":4,""viewing_time"":8015.999999999884},{""page_index"":5,""viewing_time"":8067},{""page_index"":6,""viewing_time"":6000},{""page_index"":7,""viewing_time"":5317},{""page_index"":8,""viewing_time"":4049}]","60061","","","","","","","","","","","","","","","","","","","","","","","",""
"pit-comprehension","103","820214","0.0-2.0-20.0-0.0","battery-v0.2","","""event"",""trial"",""time""
""fullscreenenter"",""1"",""20811""
""blur"",""49"",""494658""
""focus"",""49"",""496480""
","""event"",""trial"",""time""
""blur"",""49"",""494658""
","""event"",""trial"",""time""
""focus"",""49"",""496480""
","""event"",""trial"",""time""
""fullscreenenter"",""1"",""20811""
","
","","","4547","[""SPACE""]","0","21","20558","7658","","","","","","","","","","","","","","","","","","",""
"pit-instructions","104","822877","0.0-2.0-20.0-1.0","battery-v0.2","","""event"",""trial"",""time""
""fullscreenenter"",""1"",""20811""
""blur"",""49"",""494658""
""focus"",""49"",""496480""
","""event"",""trial"",""time""
""blur"",""49"",""494658""
","""event"",""trial"",""time""
""focus"",""49"",""496480""
","""event"",""trial"",""time""
""fullscreenenter"",""1"",""20811""
","
","","[{""page_index"":0,""viewing_time"":2612.9999999998836}]","2613.9999999998836","","","","","","","","","","","","","","","","","","","","","","","",""
"pit-comprehension","105","829511","0.0-2.0-21.0-0.0","battery-v0.2","","""event"",""trial"",""time""
""fullscreenenter"",""1"",""20811""
""blur"",""49"",""494658""
""focus"",""49"",""496480""
","""event"",""trial"",""time""
""blur"",""49"",""494658""
","""event"",""trial"",""time""
""focus"",""49"",""496480""
","""event"",""trial"",""time""
""fullscreenenter"",""1"",""20811""
","
","","","6631","[""10""]","0","21","20558","7658","","","","","","","","","","","","","","","","","","",""
"pit-instructions","106","835944","0.0-2.0-21.0-1.0","battery-v0.2","","""event"",""trial"",""time""
""fullscreenenter"",""1"",""20811""
""blur"",""49"",""494658""
""focus"",""49"",""496480""
","""event"",""trial"",""time""
""blur"",""49"",""494658""
","""event"",""trial"",""time""
""focus"",""49"",""496480""
","""event"",""trial"",""time""
""fullscreenenter"",""1"",""20811""
","
","","[{""page_index"":0,""viewing_time"":6380}]","6380","","","","","","","","","","","","","","","","","","","","","","","",""
"pit-comprehension","107","844731","0.0-2.0-22.0-0.0","battery-v0.2","","""event"",""trial"",""time""
""fullscreenenter"",""1"",""20811""
""blur"",""49"",""494658""
""focus"",""49"",""496480""
","""event"",""trial"",""time""
""blur"",""49"",""494658""
","""event"",""trial"",""time""
""focus"",""49"",""496480""
","""event"",""trial"",""time""
""fullscreenenter"",""1"",""20811""
","
","","","8783.000000000116","[""0""]","0","21","20558","7658","","","","","","","","","","","","","","","","","","",""
"pit-instructions","108","850278","0.0-2.0-22.0-1.0","battery-v0.2","","""event"",""trial"",""time""
""fullscreenenter"",""1"",""20811""
""blur"",""49"",""494658""
""focus"",""49"",""496480""
","""event"",""trial"",""time""
""blur"",""49"",""494658""
","""event"",""trial"",""time""
""focus"",""49"",""496480""
","""event"",""trial"",""time""
""fullscreenenter"",""1"",""20811""
","
","","[{""page_index"":0,""viewing_time"":5497}]","5498.000000000116","","","","","","","","","","","","","","","","","","","","","","","",""
"pit-comprehension","109","859398","0.0-2.0-23.0-0.0","battery-v0.2","","""event"",""trial"",""time""
""fullscreenenter"",""1"",""20811""
""blur"",""49"",""494658""
""focus"",""49"",""496480""
","""event"",""trial"",""time""
""blur"",""49"",""494658""
","""event"",""trial"",""time""
""focus"",""49"",""496480""
","""event"",""trial"",""time""
""fullscreenenter"",""1"",""20811""
","
","","","9113","[""True""]","0","21","20558","7658","","","","","","","","","","","","","","","","","","",""
"pit-instructions","110","865779","0.0-2.0-23.0-1.0","battery-v0.2","","""event"",""trial"",""time""
""fullscreenenter"",""1"",""20811""
""blur"",""49"",""494658""
""focus"",""49"",""496480""
","""event"",""trial"",""time""
""blur"",""49"",""494658""
","""event"",""trial"",""time""
""focus"",""49"",""496480""
","""event"",""trial"",""time""
""fullscreenenter"",""1"",""20811""
","
","","[{""page_index"":0,""viewing_time"":6327}]","6327.999999999884","","","","","","","","","","","","","","","","","","","","","","","",""
"pit-comprehension","111","877449","0.0-2.0-24.0-0.0","battery-v0.2","","""event"",""trial"",""time""
""fullscreenenter"",""1"",""20811""
""blur"",""49"",""494658""
""focus"",""49"",""496480""
","""event"",""trial"",""time""
""blur"",""49"",""494658""
","""event"",""trial"",""time""
""focus"",""49"",""496480""
","""event"",""trial"",""time""
""fullscreenenter"",""1"",""20811""
","
","","","11660","[""True""]","0","21","20558","7658","","","","","","","","","","","","","","","","","","",""
"pit-instructions","112","879147","0.0-2.0-24.0-1.0","battery-v0.2","","""event"",""trial"",""time""
""fullscreenenter"",""1"",""20811""
""blur"",""49"",""494658""
""focus"",""49"",""496480""
","""event"",""trial"",""time""
""blur"",""49"",""494658""
","""event"",""trial"",""time""
""focus"",""49"",""496480""
","""event"",""trial"",""time""
""fullscreenenter"",""1"",""20811""
","
","","[{""page_index"":0,""viewing_time"":1644}]","1644","","","","","","","","","","","","","","","","","","","","","","","",""
"pit-comprehension","113","885565","0.0-2.0-25.0-0.0","battery-v0.2","","""event"",""trial"",""time""
""fullscreenenter"",""1"",""20811""
""blur"",""49"",""494658""
""focus"",""49"",""496480""
","""event"",""trial"",""time""
""blur"",""49"",""494658""
","""event"",""trial"",""time""
""focus"",""49"",""496480""
","""event"",""trial"",""time""
""fullscreenenter"",""1"",""20811""
","
","","","6412","[""True""]","0","21","20558","7658","","","","","","","","","","","","","","","","","","",""
"pit-instructions","114","888561","0.0-2.0-25.0-1.0","battery-v0.2","","""event"",""trial"",""time""
""fullscreenenter"",""1"",""20811""
""blur"",""49"",""494658""
""focus"",""49"",""496480""
","""event"",""trial"",""time""
""blur"",""49"",""494658""
","""event"",""trial"",""time""
""focus"",""49"",""496480""
","""event"",""trial"",""time""
""fullscreenenter"",""1"",""20811""
","
","","[{""page_index"":0,""viewing_time"":2942}]","2942","","","","","","","","","","","","","","","","","","","","","","","",""
"pit-comprehension","115","895049","0.0-2.0-26.0-0.0","battery-v0.2","","""event"",""trial"",""time""
""fullscreenenter"",""1"",""20811""
""blur"",""49"",""494658""
""focus"",""49"",""496480""
","""event"",""trial"",""time""
""blur"",""49"",""494658""
","""event"",""trial"",""time""
""focus"",""49"",""496480""
","""event"",""trial"",""time""
""fullscreenenter"",""1"",""20811""
","
","","","6483","[""False""]","0","21","20558","7658","","","","","","","","","","","","","","","","","","",""
"pit-instructions","116","900179","0.0-2.0-26.0-1.0","battery-v0.2","","""event"",""trial"",""time""
""fullscreenenter"",""1"",""20811""
""blur"",""49"",""494658""
""focus"",""49"",""496480""
","""event"",""trial"",""time""
""blur"",""49"",""494658""
","""event"",""trial"",""time""
""focus"",""49"",""496480""
","""event"",""trial"",""time""
""fullscreenenter"",""1"",""20811""
","
","","[{""page_index"":0,""viewing_time"":5075}]","5076","","","","","","","","","","","","","","","","","","","","","","","",""
"pit-instructions","117","916497","0.0-3.0","battery-v0.2","","""event"",""trial"",""time""
""fullscreenenter"",""1"",""20811""
""blur"",""49"",""494658""
""focus"",""49"",""496480""
","""event"",""trial"",""time""
""blur"",""49"",""494658""
","""event"",""trial"",""time""
""focus"",""49"",""496480""
","""event"",""trial"",""time""
""fullscreenenter"",""1"",""20811""
","
","","[{""page_index"":0,""viewing_time"":3592.0000000001164},{""page_index"":1,""viewing_time"":5997.999999999884},{""page_index"":2,""viewing_time"":6720}]","16310","","","","","","","","","","","","","","","","","","","","","","","",""
"pit-trial","118","919897","0.0-4.0","battery-v0.2","","""event"",""trial"",""time""
""fullscreenenter"",""1"",""20811""
""blur"",""49"",""494658""
""focus"",""49"",""496480""
","""event"",""trial"",""time""
""blur"",""49"",""494658""
","""event"",""trial"",""time""
""focus"",""49"",""496480""
","""event"",""trial"",""time""
""fullscreenenter"",""1"",""20811""
","
","","","537","","","21","20558","7658","&#9752;","elianto","#f73b6a7A"," "," ","1","0","[1388]","1","1","","","20558","1","3","3","lose","go","0"
"pit-trial","119","923620","0.0-5.0","battery-v0.2","","""event"",""trial"",""time""
""fullscreenenter"",""1"",""20811""
""blur"",""49"",""494658""
""focus"",""49"",""496480""
","""event"",""trial"",""time""
""blur"",""49"",""494658""
","""event"",""trial"",""time""
""focus"",""49"",""496480""
","""event"",""trial"",""time""
""fullscreenenter"",""1"",""20811""
","
","","","864","","","21","20558","7658","&#9730;","elianto","#3366ff99"," "," ","1","0","[1715]","1","1","","","20558","2","1","1","win","go","1"
"pit-trial","120","927250","0.0-6.0","battery-v0.2","","""event"",""trial"",""time""
""fullscreenenter"",""1"",""20811""
""blur"",""49"",""494658""
""focus"",""49"",""496480""
","""event"",""trial"",""time""
""blur"",""49"",""494658""
","""event"",""trial"",""time""
""focus"",""49"",""496480""
","""event"",""trial"",""time""
""fullscreenenter"",""1"",""20811""
","
","","","771","","","21","20558","7658","&#9728;","elianto","#f73b6a7A","-1"," ","0","0","[1622]","1","1","","","20558","3","0","4","lose","no-go","1"
"pit-trial","121","930897","0.0-7.0","battery-v0.2","","""event"",""trial"",""time""
""fullscreenenter"",""1"",""20811""
""blur"",""49"",""494658""
""focus"",""49"",""496480""
","""event"",""trial"",""time""
""blur"",""49"",""494658""
","""event"",""trial"",""time""
""focus"",""49"",""496480""
","""event"",""trial"",""time""
""fullscreenenter"",""1"",""20811""
","
","","","788.9999999998836","","","21","20558","7658","&#9733;","elianto","#3366ff99","-1"," ","0","0","[1639]","1","1","","","20558","4","2","2","win","no-go","0"
"pit-trial","122","934592","0.0-8.0","battery-v0.2","","""event"",""trial"",""time""
""fullscreenenter"",""1"",""20811""
""blur"",""49"",""494658""
""focus"",""49"",""496480""
","""event"",""trial"",""time""
""blur"",""49"",""494658""
","""event"",""trial"",""time""
""focus"",""49"",""496480""
","""event"",""trial"",""time""
""fullscreenenter"",""1"",""20811""
","
","","","837","","","21","20558","7658","&#9730;","elianto","#3366ff99"," "," ","1","+10","[1687]","1","1","","","20558","5","1","1","win","go","0"
"pit-trial","123","938195","0.0-9.0","battery-v0.2","","""event"",""trial"",""time""
""fullscreenenter"",""1"",""20811""
""blur"",""49"",""494658""
""focus"",""49"",""496480""
","""event"",""trial"",""time""
""blur"",""49"",""494658""
","""event"",""trial"",""time""
""focus"",""49"",""496480""
","""event"",""trial"",""time""
""fullscreenenter"",""1"",""20811""
","
","","","743","","","21","20558","7658","&#9752;","elianto","#f73b6a7A"," "," ","1","0","[1594]","1","1","","","20558","6","3","3","lose","go","0"
"pit-trial","124","942677","0.0-10.0","battery-v0.2","","""event"",""trial"",""time""
""fullscreenenter"",""1"",""20811""
""blur"",""49"",""494658""
""focus"",""49"",""496480""
","""event"",""trial"",""time""
""blur"",""49"",""494658""
","""event"",""trial"",""time""
""focus"",""49"",""496480""
","""event"",""trial"",""time""
""fullscreenenter"",""1"",""20811""
","
","","","1624","","","21","20558","7658","&#9728;","elianto","#f73b6a7A","-1"," ","0","-10","[2475]","1","1","","","20558","7","0","4","lose","no-go","0"
"pit-trial","125","946603","0.0-11.0","battery-v0.2","","""event"",""trial"",""time""
""fullscreenenter"",""1"",""20811""
""blur"",""49"",""494658""
""focus"",""49"",""496480""
","""event"",""trial"",""time""
""blur"",""49"",""494658""
","""event"",""trial"",""time""
""focus"",""49"",""496480""
","""event"",""trial"",""time""
""fullscreenenter"",""1"",""20811""
","
","","","1068.9999999998836","","","21","20558","7658","&#9733;","elianto","#3366ff99","-1"," ","0","0","[1918]","1","1","","","20558","8","2","2","win","no-go","0"
"pit-trial","126","950284","0.0-12.0","battery-v0.2","","""event"",""trial"",""time""
""fullscreenenter"",""1"",""20811""
""blur"",""49"",""494658""
""focus"",""49"",""496480""
","""event"",""trial"",""time""
""blur"",""49"",""494658""
","""event"",""trial"",""time""
""focus"",""49"",""496480""
","""event"",""trial"",""time""
""fullscreenenter"",""1"",""20811""
","
","","","824","","","21","20558","7658","&#9730;","elianto","#3366ff99"," "," ","1","+10","[1674]","1","1","","","20558","9","1","1","win","go","0"
"pit-trial","127","955143","0.0-13.0","battery-v0.2","","""event"",""trial"",""time""
""fullscreenenter"",""1"",""20811""
""blur"",""49"",""494658""
""focus"",""49"",""496480""
","""event"",""trial"",""time""
""blur"",""49"",""494658""
","""event"",""trial"",""time""
""focus"",""49"",""496480""
","""event"",""trial"",""time""
""fullscreenenter"",""1"",""20811""
","
","","","-1","","","21","20558","7658","&#9728;","elianto","#f73b6a7A","-1","-1","1","0","[]","0","1","","","20558","10","0","4","lose","no-go","0"
"pit-trial","128","960002","0.0-14.0","battery-v0.2","","""event"",""trial"",""time""
""fullscreenenter"",""1"",""20811""
""blur"",""49"",""494658""
""focus"",""49"",""496480""
","""event"",""trial"",""time""
""blur"",""49"",""494658""
","""event"",""trial"",""time""
""focus"",""49"",""496480""
","""event"",""trial"",""time""
""fullscreenenter"",""1"",""20811""
","
","","","-1","","","21","20558","7658","&#9733;","elianto","#3366ff99","-1","-1","1","+10","[]","0","1","","","20558","11","2","2","win","no-go","0"
"pit-trial","129","963566","0.0-15.0","battery-v0.2","","""event"",""trial"",""time""
""fullscreenenter"",""1"",""20811""
""blur"",""49"",""494658""
""focus"",""49"",""496480""
","""event"",""trial"",""time""
""blur"",""49"",""494658""
","""event"",""trial"",""time""
""focus"",""49"",""496480""
","""event"",""trial"",""time""
""fullscreenenter"",""1"",""20811""
","
","","","705","","","21","20558","7658","&#9752;","elianto","#f73b6a7A"," "," ","1","-10","[1557]","1","1","","","20558","12","3","3","lose","go","1"
"pit-trial","130","967421","0.0-16.0","battery-v0.2","","""event"",""trial"",""time""
""fullscreenenter"",""1"",""20811""
""blur"",""49"",""494658""
""focus"",""49"",""496480""
","""event"",""trial"",""time""
""blur"",""49"",""494658""
","""event"",""trial"",""time""
""focus"",""49"",""496480""
","""event"",""trial"",""time""
""fullscreenenter"",""1"",""20811""
","
","","","997","","","21","20558","7658","&#9733;","elianto","#3366ff99","-1"," ","0","0","[1847]","1","1","","","20558","13","2","2","win","no-go","0"
"pit-trial","131","971179","0.0-17.0","battery-v0.2","","""event"",""trial"",""time""
""fullscreenenter"",""1"",""20811""
""blur"",""49"",""494658""
""focus"",""49"",""496480""
","""event"",""trial"",""time""
""blur"",""49"",""494658""
","""event"",""trial"",""time""
""focus"",""49"",""496480""
","""event"",""trial"",""time""
""fullscreenenter"",""1"",""20811""
","
","","","900.0000000001164","","","21","20558","7658","&#9752;","elianto","#f73b6a7A"," "," ","1","0","[1751.0000000001164]","1","1","","","20558","14","3","3","lose","go","0"
"pit-trial","132","975046","0.0-18.0","battery-v0.2","","""event"",""trial"",""time""
""fullscreenenter"",""1"",""20811""
""blur"",""49"",""494658""
""focus"",""49"",""496480""
","""event"",""trial"",""time""
""blur"",""49"",""494658""
","""event"",""trial"",""time""
""focus"",""49"",""496480""
","""event"",""trial"",""time""
""fullscreenenter"",""1"",""20811""
","
","","","1008","","","21","20558","7658","&#9730;","elianto","#3366ff99"," "," ","1","+10","[1859]","1","1","","","20558","15","1","1","win","go","0"
"pit-trial","133","979904","0.0-19.0","battery-v0.2","","""event"",""trial"",""time""
""fullscreenenter"",""1"",""20811""
""blur"",""49"",""494658""
""focus"",""49"",""496480""
","""event"",""trial"",""time""
""blur"",""49"",""494658""
","""event"",""trial"",""time""
""focus"",""49"",""496480""
","""event"",""trial"",""time""
""fullscreenenter"",""1"",""20811""
","
","","","-1","","","21","20558","7658","&#9728;","elianto","#f73b6a7A","-1","-1","1","0","[]","0","1","","","20558","16","0","4","lose","no-go","0"
"pit-trial","134","983782","0.0-20.0","battery-v0.2","","""event"",""trial"",""time""
""fullscreenenter"",""1"",""20811""
""blur"",""49"",""494658""
""focus"",""49"",""496480""
","""event"",""trial"",""time""
""blur"",""49"",""494658""
","""event"",""trial"",""time""
""focus"",""49"",""496480""
","""event"",""trial"",""time""
""fullscreenenter"",""1"",""20811""
","
","","","1019.9999999998836","","","21","20558","7658","&#9752;","elianto","#f73b6a7A"," "," ","1","0","[1870.9999999998836]","1","1","","","20558","17","3","3","lose","go","0"
"pit-trial","135","988641","0.0-21.0","battery-v0.2","","""event"",""trial"",""time""
""fullscreenenter"",""1"",""20811""
""blur"",""49"",""494658""
""focus"",""49"",""496480""
","""event"",""trial"",""time""
""blur"",""49"",""494658""
","""event"",""trial"",""time""
""focus"",""49"",""496480""
","""event"",""trial"",""time""
""fullscreenenter"",""1"",""20811""
","
","","","-1","","","21","20558","7658","&#9733;","elianto","#3366ff99","-1","-1","1","+10","[]","0","1","","","20558","18","2","2","win","no-go","0"
"pit-trial","136","992303","0.0-22.0","battery-v0.2","","""event"",""trial"",""time""
""fullscreenenter"",""1"",""20811""
""blur"",""49"",""494658""
""focus"",""49"",""496480""
","""event"",""trial"",""time""
""blur"",""49"",""494658""
","""event"",""trial"",""time""
""focus"",""49"",""496480""
","""event"",""trial"",""time""
""fullscreenenter"",""1"",""20811""
","
","","","803","","","21","20558","7658","&#9730;","elianto","#3366ff99"," "," ","1","+10","[1653]","1","1","","","20558","19","1","1","win","go","0"
"pit-trial","137","997161","0.0-23.0","battery-v0.2","","""event"",""trial"",""time""
""fullscreenenter"",""1"",""20811""
""blur"",""49"",""494658""
""focus"",""49"",""496480""
","""event"",""trial"",""time""
""blur"",""49"",""494658""
","""event"",""trial"",""time""
""focus"",""49"",""496480""
","""event"",""trial"",""time""
""fullscreenenter"",""1"",""20811""
","
","","","-1","","","21","20558","7658","&#9728;","elianto","#f73b6a7A","-1","-1","1","0","[]","0","1","","","20558","20","0","4","lose","no-go","0"
"pit-instructions","138","1013549","0.0-24.0","battery-v0.2","","""event"",""trial"",""time""
""fullscreenenter"",""1"",""20811""
""blur"",""49"",""494658""
""focus"",""49"",""496480""
","""event"",""trial"",""time""
""blur"",""49"",""494658""
","""event"",""trial"",""time""
""focus"",""49"",""496480""
","""event"",""trial"",""time""
""fullscreenenter"",""1"",""20811""
","
","","[{""page_index"":0,""viewing_time"":9762},{""page_index"":1,""viewing_time"":6618}]","16381.000000000116","","","","","","","","","","","","","","","","","","","","","","","",""
"pit-trial","139","1017466","0.0-25.0","battery-v0.2","","""event"",""trial"",""time""
""fullscreenenter"",""1"",""20811""
""blur"",""49"",""494658""
""focus"",""49"",""496480""
","""event"",""trial"",""time""
""blur"",""49"",""494658""
","""event"",""trial"",""time""
""focus"",""49"",""496480""
","""event"",""trial"",""time""
""fullscreenenter"",""1"",""20811""
","
","","","1057","","","21","20558","7658","e","elianto","#f73b6a7A"," "," ","1","-10","[1908]","1","2","","","20558","21","2","3","lose","go","1"
"pit-trial","140","1021369","0.0-26.0","battery-v0.2","","""event"",""trial"",""time""
""fullscreenenter"",""1"",""20811""
""blur"",""49"",""494658""
""focus"",""49"",""496480""
","""event"",""trial"",""time""
""blur"",""49"",""494658""
","""event"",""trial"",""time""
""focus"",""49"",""496480""
","""event"",""trial"",""time""
""fullscreenenter"",""1"",""20811""
","
","","","1044","","","21","20558","7658","d","elianto","#3366ff99","-1"," ","0","0","[1895.0000000001164]","1","2","","","20558","22","1","2","win","no-go","0"
"pit-trial","141","1025230","0.0-27.0","battery-v0.2","","""event"",""trial"",""time""
""fullscreenenter"",""1"",""20811""
""blur"",""49"",""494658""
""focus"",""49"",""496480""
","""event"",""trial"",""time""
""blur"",""49"",""494658""
","""event"",""trial"",""time""
""focus"",""49"",""496480""
","""event"",""trial"",""time""
""fullscreenenter"",""1"",""20811""
","
","","","1002.9999999998836","","","21","20558","7658","j","elianto","#f73b6a7A"," "," ","1","0","[1853.9999999998836]","1","2","","","20558","23","0","3","lose","go","0"
"pit-trial","142","1028954","0.0-28.0","battery-v0.2","","""event"",""trial"",""time""
""fullscreenenter"",""1"",""20811""
""blur"",""49"",""494658""
""focus"",""49"",""496480""
","""event"",""trial"",""time""
""blur"",""49"",""494658""
","""event"",""trial"",""time""
""focus"",""49"",""496480""
","""event"",""trial"",""time""
""fullscreenenter"",""1"",""20811""
","
","","","865","","","21","20558","7658","w","elianto","#f73b6a7A","-1"," ","0","-10","[1716.0000000001164]","1","2","","","20558","24","3","4","lose","no-go","0"
"pit-trial","143","1033814","0.0-29.0","battery-v0.2","","""event"",""trial"",""time""
""fullscreenenter"",""1"",""20811""
""blur"",""49"",""494658""
""focus"",""49"",""496480""
","""event"",""trial"",""time""
""blur"",""49"",""494658""
","""event"",""trial"",""time""
""focus"",""49"",""496480""
","""event"",""trial"",""time""
""fullscreenenter"",""1"",""20811""
","
","","","-1","","","21","20558","7658","w","elianto","#f73b6a7A","-1","-1","1","-10","[]","0","2","","","20558","25","3","4","lose","no-go","1"
"pit-trial","144","1038672","0.0-30.0","battery-v0.2","","""event"",""trial"",""time""
""fullscreenenter"",""1"",""20811""
""blur"",""49"",""494658""
""focus"",""49"",""496480""
","""event"",""trial"",""time""
""blur"",""49"",""494658""
","""event"",""trial"",""time""
""focus"",""49"",""496480""
","""event"",""trial"",""time""
""fullscreenenter"",""1"",""20811""
","
","","","-1","","","21","20558","7658","e","elianto","#f73b6a7A"," ","-1","0","-10","[]","0","2","","","20558","26","2","3","lose","go","0"
"pit-trial","145","1043530","0.0-31.0","battery-v0.2","","""event"",""trial"",""time""
""fullscreenenter"",""1"",""20811""
""blur"",""49"",""494658""
""focus"",""49"",""496480""
","""event"",""trial"",""time""
""blur"",""49"",""494658""
","""event"",""trial"",""time""
""focus"",""49"",""496480""
","""event"",""trial"",""time""
""fullscreenenter"",""1"",""20811""
","
","","","-1","","","21","20558","7658","j","elianto","#f73b6a7A"," ","-1","0","0","[]","0","2","","","20558","27","0","3","lose","go","1"
"pit-trial","146","1047313","0.0-32.0","battery-v0.2","","""event"",""trial"",""time""
""fullscreenenter"",""1"",""20811""
""blur"",""49"",""494658""
""focus"",""49"",""496480""
","""event"",""trial"",""time""
""blur"",""49"",""494658""
","""event"",""trial"",""time""
""focus"",""49"",""496480""
","""event"",""trial"",""time""
""fullscreenenter"",""1"",""20811""
","
","","","924.9999999998836","","","21","20558","7658","d","elianto","#3366ff99","-1"," ","0","0","[1776]","1","2","","","20558","28","1","2","win","no-go","0"
"pit-trial","147","1052171","0.0-33.0","battery-v0.2","","""event"",""trial"",""time""
""fullscreenenter"",""1"",""20811""
""blur"",""49"",""494658""
""focus"",""49"",""496480""
","""event"",""trial"",""time""
""blur"",""49"",""494658""
","""event"",""trial"",""time""
""focus"",""49"",""496480""
","""event"",""trial"",""time""
""fullscreenenter"",""1"",""20811""
","
","","","-1","","","21","20558","7658","d","elianto","#3366ff99","-1","-1","1","0","[]","0","2","","","20558","29","1","2","win","no-go","1"
"pit-trial","148","1057030","0.0-34.0","battery-v0.2","","""event"",""trial"",""time""
""fullscreenenter"",""1"",""20811""
""blur"",""49"",""494658""
""focus"",""49"",""496480""
","""event"",""trial"",""time""
""blur"",""49"",""494658""
","""event"",""trial"",""time""
""focus"",""49"",""496480""
","""event"",""trial"",""time""
""fullscreenenter"",""1"",""20811""
","
","","","-1","","","21","20558","7658","w","elianto","#f73b6a7A","-1","-1","1","0","[]","0","2","","","20558","30","3","4","lose","no-go","0"
"pit-trial","149","1060959","0.0-35.0","battery-v0.2","","""event"",""trial"",""time""
""fullscreenenter"",""1"",""20811""
""blur"",""49"",""494658""
""focus"",""49"",""496480""
","""event"",""trial"",""time""
""blur"",""49"",""494658""
","""event"",""trial"",""time""
""focus"",""49"",""496480""
","""event"",""trial"",""time""
""fullscreenenter"",""1"",""20811""
","
","","","1070","","","21","20558","7658","j","elianto","#f73b6a7A"," "," ","1","0","[1921]","1","2","","","20558","31","0","3","lose","go","0"
"pit-trial","150","1065053","0.0-36.0","battery-v0.2","","""event"",""trial"",""time""
""fullscreenenter"",""1"",""20811""
""blur"",""49"",""494658""
""focus"",""49"",""496480""
","""event"",""trial"",""time""
""blur"",""49"",""494658""
","""event"",""trial"",""time""
""focus"",""49"",""496480""
","""event"",""trial"",""time""
""fullscreenenter"",""1"",""20811""
","
","","","1236","","","21","20558","7658","e","elianto","#f73b6a7A"," "," ","1","0","[2086]","1","2","","","20558","32","2","3","lose","go","0"
"pit-trial","151","1069912","0.0-37.0","battery-v0.2","","""event"",""trial"",""time""
""fullscreenenter"",""1"",""20811""
""blur"",""49"",""494658""
""focus"",""49"",""496480""
","""event"",""trial"",""time""
""blur"",""49"",""494658""
","""event"",""trial"",""time""
""focus"",""49"",""496480""
","""event"",""trial"",""time""
""fullscreenenter"",""1"",""20811""
","
","","","-1","","","21","20558","7658","j","elianto","#f73b6a7A"," ","-1","0","-10","[]","0","2","","","20558","33","0","3","lose","go","0"
"pit-trial","152","1073633","0.0-38.0","battery-v0.2","","""event"",""trial"",""time""
""fullscreenenter"",""1"",""20811""
""blur"",""49"",""494658""
""focus"",""49"",""496480""
","""event"",""trial"",""time""
""blur"",""49"",""494658""
","""event"",""trial"",""time""
""focus"",""49"",""496480""
","""event"",""trial"",""time""
""fullscreenenter"",""1"",""20811""
","
","","","861.9999999997672","","","21","20558","7658","e","elianto","#f73b6a7A"," "," ","1","0","[1713]","1","2","","","20558","34","2","3","lose","go","0"
"pit-trial","153","1078270","0.0-39.0","battery-v0.2","","""event"",""trial"",""time""
""fullscreenenter"",""1"",""20811""
""blur"",""49"",""494658""
""focus"",""49"",""496480""
","""event"",""trial"",""time""
""blur"",""49"",""494658""
","""event"",""trial"",""time""
""focus"",""49"",""496480""
","""event"",""trial"",""time""
""fullscreenenter"",""1"",""20811""
","
","","","1779","","","21","20558","7658","d","elianto","#3366ff99","-1"," ","0","0","[2630.000000000233]","1","2","","","20558","35","1","2","win","no-go","0"
"pit-trial","154","1083128","0.0-40.0","battery-v0.2","","""event"",""trial"",""time""
""fullscreenenter"",""1"",""20811""
""blur"",""49"",""494658""
""focus"",""49"",""496480""
","""event"",""trial"",""time""
""blur"",""49"",""494658""
","""event"",""trial"",""time""
""focus"",""49"",""496480""
","""event"",""trial"",""time""
""fullscreenenter"",""1"",""20811""
","
","","","-1","","","21","20558","7658","w","elianto","#f73b6a7A","-1","-1","1","-10","[]","0","2","","","20558","36","3","4","lose","no-go","1"
"pit-trial","155","1087259","0.0-41.0","battery-v0.2","","""event"",""trial"",""time""
""fullscreenenter"",""1"",""20811""
""blur"",""49"",""494658""
""focus"",""49"",""496480""
","""event"",""trial"",""time""
""blur"",""49"",""494658""
","""event"",""trial"",""time""
""focus"",""49"",""496480""
","""event"",""trial"",""time""
""fullscreenenter"",""1"",""20811""
","
","","","1271","","","21","20558","7658","j","elianto","#f73b6a7A"," "," ","1","0","[2122]","1","2","","","20558","37","0","3","lose","go","0"
"pit-trial","156","1091272","0.0-42.0","battery-v0.2","","""event"",""trial"",""time""
""fullscreenenter"",""1"",""20811""
""blur"",""49"",""494658""
""focus"",""49"",""496480""
","""event"",""trial"",""time""
""blur"",""49"",""494658""
","""event"",""trial"",""time""
""focus"",""49"",""496480""
","""event"",""trial"",""time""
""fullscreenenter"",""1"",""20811""
","
","","","1154","","","21","20558","7658","e","elianto","#f73b6a7A"," "," ","1","0","[2005]","1","2","","","20558","38","2","3","lose","go","0"
"pit-trial","157","1096131","0.0-43.0","battery-v0.2","","""event"",""trial"",""time""
""fullscreenenter"",""1"",""20811""
""blur"",""49"",""494658""
""focus"",""49"",""496480""
","""event"",""trial"",""time""
""blur"",""49"",""494658""
","""event"",""trial"",""time""
""focus"",""49"",""496480""
","""event"",""trial"",""time""
""fullscreenenter"",""1"",""20811""
","
","","","-1","","","21","20558","7658","d","elianto","#3366ff99","-1","-1","1","+10","[]","0","2","","","20558","39","1","2","win","no-go","0"
"pit-trial","158","1100989","0.0-44.0","battery-v0.2","","""event"",""trial"",""time""
""fullscreenenter"",""1"",""20811""
""blur"",""49"",""494658""
""focus"",""49"",""496480""
","""event"",""trial"",""time""
""blur"",""49"",""494658""
","""event"",""trial"",""time""
""focus"",""49"",""496480""
","""event"",""trial"",""time""
""fullscreenenter"",""1"",""20811""
","
","","","-1","","","21","20558","7658","w","elianto","#f73b6a7A","-1","-1","1","0","[]","0","2","","","20558","40","3","4","lose","no-go","0"
"pit-trial","159","1104414","0.0-45.0","battery-v0.2","","""event"",""trial"",""time""
""fullscreenenter"",""1"",""20811""
""blur"",""49"",""494658""
""focus"",""49"",""496480""
","""event"",""trial"",""time""
""blur"",""49"",""494658""
","""event"",""trial"",""time""
""focus"",""49"",""496480""
","""event"",""trial"",""time""
""fullscreenenter"",""1"",""20811""
","
","","","565.9999999997672","","","21","20558","7658","j","elianto","#f73b6a7A"," "," ","1","0","[1416]","1","2","","","20558","41","0","3","lose","go","0"
"pit-trial","160","1109271","0.0-46.0","battery-v0.2","","""event"",""trial"",""time""
""fullscreenenter"",""1"",""20811""
""blur"",""49"",""494658""
""focus"",""49"",""496480""
","""event"",""trial"",""time""
""blur"",""49"",""494658""
","""event"",""trial"",""time""
""focus"",""49"",""496480""
","""event"",""trial"",""time""
""fullscreenenter"",""1"",""20811""
","
","","","-1","","","21","20558","7658","d","elianto","#3366ff99","-1","-1","1","+10","[]","0","2","","","20558","42","1","2","win","no-go","0"
"pit-trial","161","1114129","0.0-47.0","battery-v0.2","","""event"",""trial"",""time""
""fullscreenenter"",""1"",""20811""
""blur"",""49"",""494658""
""focus"",""49"",""496480""
","""event"",""trial"",""time""
""blur"",""49"",""494658""
","""event"",""trial"",""time""
""focus"",""49"",""496480""
","""event"",""trial"",""time""
""fullscreenenter"",""1"",""20811""
","
","","","-1","","","21","20558","7658","w","elianto","#f73b6a7A","-1","-1","1","0","[]","0","2","","","20558","43","3","4","lose","no-go","0"
"pit-trial","162","1118988","0.0-48.0","battery-v0.2","","""event"",""trial"",""time""
""fullscreenenter"",""1"",""20811""
""blur"",""49"",""494658""
""focus"",""49"",""496480""
","""event"",""trial"",""time""
""blur"",""49"",""494658""
","""event"",""trial"",""time""
""focus"",""49"",""496480""
","""event"",""trial"",""time""
""fullscreenenter"",""1"",""20811""
","
","","","-1","","","21","20558","7658","e","elianto","#f73b6a7A"," ","-1","0","-10","[]","0","2","","","20558","44","2","3","lose","go","0"
"pit-trial","163","1123847","0.0-49.0","battery-v0.2","","""event"",""trial"",""time""
""fullscreenenter"",""1"",""20811""
""blur"",""49"",""494658""
""focus"",""49"",""496480""
","""event"",""trial"",""time""
""blur"",""49"",""494658""
","""event"",""trial"",""time""
""focus"",""49"",""496480""
","""event"",""trial"",""time""
""fullscreenenter"",""1"",""20811""
","
","","","-1","","","21","20558","7658","w","elianto","#f73b6a7A","-1","-1","1","0","[]","0","2","","","20558","45","3","4","lose","no-go","0"
"pit-trial","164","1128705","0.0-50.0","battery-v0.2","","""event"",""trial"",""time""
""fullscreenenter"",""1"",""20811""
""blur"",""49"",""494658""
""focus"",""49"",""496480""
","""event"",""trial"",""time""
""blur"",""49"",""494658""
","""event"",""trial"",""time""
""focus"",""49"",""496480""
","""event"",""trial"",""time""
""fullscreenenter"",""1"",""20811""
","
","","","-1","","","21","20558","7658","d","elianto","#3366ff99","-1","-1","1","+10","[]","0","2","","","20558","46","1","2","win","no-go","0"
"pit-trial","165","1132495","0.0-51.0","battery-v0.2","","""event"",""trial"",""time""
""fullscreenenter"",""1"",""20811""
""blur"",""49"",""494658""
""focus"",""49"",""496480""
","""event"",""trial"",""time""
""blur"",""49"",""494658""
","""event"",""trial"",""time""
""focus"",""49"",""496480""
","""event"",""trial"",""time""
""fullscreenenter"",""1"",""20811""
","
","","","934","","","21","20558","7658","e","elianto","#f73b6a7A"," "," ","1","0","[1785]","1","2","","","20558","47","2","3","lose","go","0"
"pit-trial","166","1135894","0.0-52.0","battery-v0.2","","""event"",""trial"",""time""
""fullscreenenter"",""1"",""20811""
""blur"",""49"",""494658""
""focus"",""49"",""496480""
","""event"",""trial"",""time""
""blur"",""49"",""494658""
","""event"",""trial"",""time""
""focus"",""49"",""496480""
","""event"",""trial"",""time""
""fullscreenenter"",""1"",""20811""
","
","","","540","","","21","20558","7658","j","elianto","#f73b6a7A"," "," ","1","0","[1390]","1","2","","","20558","48","0","3","lose","go","0"
"pit-trial","167","1139532","0.0-53.0","battery-v0.2","","""event"",""trial"",""time""
""fullscreenenter"",""1"",""20811""
""blur"",""49"",""494658""
""focus"",""49"",""496480""
","""event"",""trial"",""time""
""blur"",""49"",""494658""
","""event"",""trial"",""time""
""focus"",""49"",""496480""
","""event"",""trial"",""time""
""fullscreenenter"",""1"",""20811""
","
","","","779.9999999997672","","","21","20558","7658","e","elianto","#f73b6a7A"," "," ","1","-10","[1630]","1","2","","","20558","49","2","3","lose","go","1"
"pit-trial","168","1144390","0.0-54.0","battery-v0.2","","""event"",""trial"",""time""
""fullscreenenter"",""1"",""20811""
""blur"",""49"",""494658""
""focus"",""49"",""496480""
","""event"",""trial"",""time""
""blur"",""49"",""494658""
","""event"",""trial"",""time""
""focus"",""49"",""496480""
","""event"",""trial"",""time""
""fullscreenenter"",""1"",""20811""
","
","","","-1","","","21","20558","7658","w","elianto","#f73b6a7A","-1","-1","1","-10","[]","0","2","","","20558","50","3","4","lose","no-go","1"
"pit-trial","169","1149249","0.0-55.0","battery-v0.2","","""event"",""trial"",""time""
""fullscreenenter"",""1"",""20811""
""blur"",""49"",""494658""
""focus"",""49"",""496480""
","""event"",""trial"",""time""
""blur"",""49"",""494658""
","""event"",""trial"",""time""
""focus"",""49"",""496480""
","""event"",""trial"",""time""
""fullscreenenter"",""1"",""20811""
","
","","","-1","","","21","20558","7658","d","elianto","#3366ff99","-1","-1","1","+10","[]","0","2","","","20558","51","1","2","win","no-go","0"
"pit-trial","170","1153418","0.0-56.0","battery-v0.2","","""event"",""trial"",""time""
""fullscreenenter"",""1"",""20811""
""blur"",""49"",""494658""
""focus"",""49"",""496480""
","""event"",""trial"",""time""
""blur"",""49"",""494658""
","""event"",""trial"",""time""
""focus"",""49"",""496480""
","""event"",""trial"",""time""
""fullscreenenter"",""1"",""20811""
","
","","","1309","","","21","20558","7658","j","elianto","#f73b6a7A"," "," ","1","0","[2160]","1","2","","","20558","52","0","3","lose","go","0"
"pit-trial","171","1158036","0.0-57.0","battery-v0.2","","""event"",""trial"",""time""
""fullscreenenter"",""1"",""20811""
""blur"",""49"",""494658""
""focus"",""49"",""496480""
","""event"",""trial"",""time""
""blur"",""49"",""494658""
","""event"",""trial"",""time""
""focus"",""49"",""496480""
","""event"",""trial"",""time""
""fullscreenenter"",""1"",""20811""
","
","","","1759","","","21","20558","7658","e","elianto","#f73b6a7A"," "," ","1","0","[2609]","1","2","","","20558","53","2","3","lose","go","0"
"pit-trial","172","1162894","0.0-58.0","battery-v0.2","","""event"",""trial"",""time""
""fullscreenenter"",""1"",""20811""
""blur"",""49"",""494658""
""focus"",""49"",""496480""
","""event"",""trial"",""time""
""blur"",""49"",""494658""
","""event"",""trial"",""time""
""focus"",""49"",""496480""
","""event"",""trial"",""time""
""fullscreenenter"",""1"",""20811""
","
","","","-1","","","21","20558","7658","d","elianto","#3366ff99","-1","-1","1","+10","[]","0","2","","","20558","54","1","2","win","no-go","0"
"pit-trial","173","1167755","0.0-59.0","battery-v0.2","","""event"",""trial"",""time""
""fullscreenenter"",""1"",""20811""
""blur"",""49"",""494658""
""focus"",""49"",""496480""
","""event"",""trial"",""time""
""blur"",""49"",""494658""
","""event"",""trial"",""time""
""focus"",""49"",""496480""
","""event"",""trial"",""time""
""fullscreenenter"",""1"",""20811""
","
","","","-1","","","21","20558","7658","w","elianto","#f73b6a7A","-1","-1","1","0","[]","0","2","","","20558","55","3","4","lose","no-go","0"
"pit-trial","174","1171268","0.0-60.0","battery-v0.2","","""event"",""trial"",""time""
""fullscreenenter"",""1"",""20811""
""blur"",""49"",""494658""
""focus"",""49"",""496480""
","""event"",""trial"",""time""
""blur"",""49"",""494658""
","""event"",""trial"",""time""
""focus"",""49"",""496480""
","""event"",""trial"",""time""
""fullscreenenter"",""1"",""20811""
","
","","","656","","","21","20558","7658","j","elianto","#f73b6a7A"," "," ","1","0","[1506]","1","2","","","20558","56","0","3","lose","go","0"
"pit-trial","175","1176127","0.0-61.0","battery-v0.2","","""event"",""trial"",""time""
""fullscreenenter"",""1"",""20811""
""blur"",""49"",""494658""
""focus"",""49"",""496480""
","""event"",""trial"",""time""
""blur"",""49"",""494658""
","""event"",""trial"",""time""
""focus"",""49"",""496480""
","""event"",""trial"",""time""
""fullscreenenter"",""1"",""20811""
","
","","","-1","","","21","20558","7658","w","elianto","#f73b6a7A","-1","-1","1","-10","[]","0","2","","","20558","57","3","4","lose","no-go","1"
"pit-trial","176","1179743","0.0-62.0","battery-v0.2","","""event"",""trial"",""time""
""fullscreenenter"",""1"",""20811""
""blur"",""49"",""494658""
""focus"",""49"",""496480""
","""event"",""trial"",""time""
""blur"",""49"",""494658""
","""event"",""trial"",""time""
""focus"",""49"",""496480""
","""event"",""trial"",""time""
""fullscreenenter"",""1"",""20811""
","
","","","760","","","21","20558","7658","e","elianto","#f73b6a7A"," "," ","1","0","[1610]","1","2","","","20558","58","2","3","lose","go","0"
"pit-trial","177","1183511","0.0-63.0","battery-v0.2","","""event"",""trial"",""time""
""fullscreenenter"",""1"",""20811""
""blur"",""49"",""494658""
""focus"",""49"",""496480""
","""event"",""trial"",""time""
""blur"",""49"",""494658""
","""event"",""trial"",""time""
""focus"",""49"",""496480""
","""event"",""trial"",""time""
""fullscreenenter"",""1"",""20811""
","
","","","910.0000000002328","","","21","20558","7658","j","elianto","#f73b6a7A"," "," ","1","0","[1760.0000000002328]","1","2","","","20558","59","0","3","lose","go","0"
"pit-trial","178","1187710","0.0-64.0","battery-v0.2","","""event"",""trial"",""time""
""fullscreenenter"",""1"",""20811""
""blur"",""49"",""494658""
""focus"",""49"",""496480""
","""event"",""trial"",""time""
""blur"",""49"",""494658""
","""event"",""trial"",""time""
""focus"",""49"",""496480""
","""event"",""trial"",""time""
""fullscreenenter"",""1"",""20811""
","
","","","1342","","","21","20558","7658","s","elianto","#3366ff99"," "," ","1","0","[2192]","1","2","","","20558","60","4","1","win","go","1"
"pit-trial","179","1191787","0.0-65.0","battery-v0.2","","""event"",""trial"",""time""
""fullscreenenter"",""1"",""20811""
""blur"",""49"",""494658""
""focus"",""49"",""496480""
","""event"",""trial"",""time""
""blur"",""49"",""494658""
","""event"",""trial"",""time""
""focus"",""49"",""496480""
","""event"",""trial"",""time""
""fullscreenenter"",""1"",""20811""
","
","","","1222","","","21","20558","7658","s","elianto","#3366ff99"," "," ","1","+10","[2072]","1","2","","","20558","61","4","1","win","go","0"
"pit-trial","180","1196428","0.0-66.0","battery-v0.2","","""event"",""trial"",""time""
""fullscreenenter"",""1"",""20811""
""blur"",""49"",""494658""
""focus"",""49"",""496480""
","""event"",""trial"",""time""
""blur"",""49"",""494658""
","""event"",""trial"",""time""
""focus"",""49"",""496480""
","""event"",""trial"",""time""
""fullscreenenter"",""1"",""20811""
","
","","","1781.9999999997672","","","21","20558","7658","e","elianto","#f73b6a7A"," "," ","1","0","[2632]","1","2","","","20558","62","2","3","lose","go","0"
"pit-trial","181","1201287","0.0-67.0","battery-v0.2","","""event"",""trial"",""time""
""fullscreenenter"",""1"",""20811""
""blur"",""49"",""494658""
""focus"",""49"",""496480""
","""event"",""trial"",""time""
""blur"",""49"",""494658""
","""event"",""trial"",""time""
""focus"",""49"",""496480""
","""event"",""trial"",""time""
""fullscreenenter"",""1"",""20811""
","
","","","-1","","","21","20558","7658","w","elianto","#f73b6a7A","-1","-1","1","0","[]","0","2","","","20558","63","3","4","lose","no-go","0"
"pit-trial","182","1206146","0.0-68.0","battery-v0.2","","""event"",""trial"",""time""
""fullscreenenter"",""1"",""20811""
""blur"",""49"",""494658""
""focus"",""49"",""496480""
","""event"",""trial"",""time""
""blur"",""49"",""494658""
","""event"",""trial"",""time""
""focus"",""49"",""496480""
","""event"",""trial"",""time""
""fullscreenenter"",""1"",""20811""
","
","","","-1","","","21","20558","7658","d","elianto","#3366ff99","-1","-1","1","+10","[]","0","2","","","20558","64","1","2","win","no-go","0"
"pit-trial","183","1211005","0.0-69.0","battery-v0.2","","""event"",""trial"",""time""
""fullscreenenter"",""1"",""20811""
""blur"",""49"",""494658""
""focus"",""49"",""496480""
","""event"",""trial"",""time""
""blur"",""49"",""494658""
","""event"",""trial"",""time""
""focus"",""49"",""496480""
","""event"",""trial"",""time""
""fullscreenenter"",""1"",""20811""
","
","","","-1","","","21","20558","7658","p","elianto","#3366ff99","-1","-1","1","+10","[]","0","2","","","20558","65","5","2","win","no-go","0"
"pit-trial","184","1215864","0.0-70.0","battery-v0.2","","""event"",""trial"",""time""
""fullscreenenter"",""1"",""20811""
""blur"",""49"",""494658""
""focus"",""49"",""496480""
","""event"",""trial"",""time""
""blur"",""49"",""494658""
","""event"",""trial"",""time""
""focus"",""49"",""496480""
","""event"",""trial"",""time""
""fullscreenenter"",""1"",""20811""
","
","","","-1","","","21","20558","7658","w","elianto","#f73b6a7A","-1","-1","1","0","[]","0","2","","","20558","66","3","4","lose","no-go","0"
"pit-trial","185","1219514","0.0-71.0","battery-v0.2","","""event"",""trial"",""time""
""fullscreenenter"",""1"",""20811""
""blur"",""49"",""494658""
""focus"",""49"",""496480""
","""event"",""trial"",""time""
""blur"",""49"",""494658""
","""event"",""trial"",""time""
""focus"",""49"",""496480""
","""event"",""trial"",""time""
""fullscreenenter"",""1"",""20811""
","
","","","792","","","21","20558","7658","s","elianto","#3366ff99"," "," ","1","0","[1642]","1","2","","","20558","67","4","1","win","go","1"
"pit-trial","186","1224373","0.0-72.0","battery-v0.2","","""event"",""trial"",""time""
""fullscreenenter"",""1"",""20811""
""blur"",""49"",""494658""
""focus"",""49"",""496480""
","""event"",""trial"",""time""
""blur"",""49"",""494658""
","""event"",""trial"",""time""
""focus"",""49"",""496480""
","""event"",""trial"",""time""
""fullscreenenter"",""1"",""20811""
","
","","","-1","","","21","20558","7658","d","elianto","#3366ff99","-1","-1","1","0","[]","0","2","","","20558","68","1","2","win","no-go","1"
"pit-trial","187","1229231","0.0-73.0","battery-v0.2","","""event"",""trial"",""time""
""fullscreenenter"",""1"",""20811""
""blur"",""49"",""494658""
""focus"",""49"",""496480""
","""event"",""trial"",""time""
""blur"",""49"",""494658""
","""event"",""trial"",""time""
""focus"",""49"",""496480""
","""event"",""trial"",""time""
""fullscreenenter"",""1"",""20811""
","
","","","-1","","","21","20558","7658","d","elianto","#3366ff99","-1","-1","1","+10","[]","0","2","","","20558","69","1","2","win","no-go","0"
"pit-trial","188","1232990","0.0-74.0","battery-v0.2","","""event"",""trial"",""time""
""fullscreenenter"",""1"",""20811""
""blur"",""49"",""494658""
""focus"",""49"",""496480""
","""event"",""trial"",""time""
""blur"",""49"",""494658""
","""event"",""trial"",""time""
""focus"",""49"",""496480""
","""event"",""trial"",""time""
""fullscreenenter"",""1"",""20811""
","
","","","900","","","21","20558","7658","e","elianto","#f73b6a7A"," "," ","1","0","[1750]","1","2","","","20558","70","2","3","lose","go","0"
"pit-trial","189","1237400","0.0-75.0","battery-v0.2","","""event"",""trial"",""time""
""fullscreenenter"",""1"",""20811""
""blur"",""49"",""494658""
""focus"",""49"",""496480""
","""event"",""trial"",""time""
""blur"",""49"",""494658""
","""event"",""trial"",""time""
""focus"",""49"",""496480""
","""event"",""trial"",""time""
""fullscreenenter"",""1"",""20811""
","
","","","1551.9999999997672","","","21","20558","7658","s","elianto","#3366ff99"," "," ","1","0","[2403]","1","2","","","20558","71","4","1","win","go","1"
"pit-trial","190","1242260","0.0-76.0","battery-v0.2","","""event"",""trial"",""time""
""fullscreenenter"",""1"",""20811""
""blur"",""49"",""494658""
""focus"",""49"",""496480""
","""event"",""trial"",""time""
""blur"",""49"",""494658""
","""event"",""trial"",""time""
""focus"",""49"",""496480""
","""event"",""trial"",""time""
""fullscreenenter"",""1"",""20811""
","
","","","-1","","","21","20558","7658","p","elianto","#3366ff99","-1","-1","1","+10","[]","0","2","","","20558","72","5","2","win","no-go","0"
"pit-trial","191","1247118","0.0-77.0","battery-v0.2","","""event"",""trial"",""time""
""fullscreenenter"",""1"",""20811""
""blur"",""49"",""494658""
""focus"",""49"",""496480""
","""event"",""trial"",""time""
""blur"",""49"",""494658""
","""event"",""trial"",""time""
""focus"",""49"",""496480""
","""event"",""trial"",""time""
""fullscreenenter"",""1"",""20811""
","
","","","-1","","","21","20558","7658","d","elianto","#3366ff99","-1","-1","1","+10","[]","0","2","","","20558","73","1","2","win","no-go","0"
"pit-trial","192","1250829","0.0-78.0","battery-v0.2","","""event"",""trial"",""time""
""fullscreenenter"",""1"",""20811""
""blur"",""49"",""494658""
""focus"",""49"",""496480""
","""event"",""trial"",""time""
""blur"",""49"",""494658""
","""event"",""trial"",""time""
""focus"",""49"",""496480""
","""event"",""trial"",""time""
""fullscreenenter"",""1"",""20811""
","
","","","857.0000000002328","","","21","20558","7658","s","elianto","#3366ff99"," "," ","1","+10","[1707.0000000002328]","1","2","","","20558","74","4","1","win","go","0"
"pit-trial","193","1255688","0.0-79.0","battery-v0.2","","""event"",""trial"",""time""
""fullscreenenter"",""1"",""20811""
""blur"",""49"",""494658""
""focus"",""49"",""496480""
","""event"",""trial"",""time""
""blur"",""49"",""494658""
","""event"",""trial"",""time""
""focus"",""49"",""496480""
","""event"",""trial"",""time""
""fullscreenenter"",""1"",""20811""
","
","","","-1","","","21","20558","7658","w","elianto","#f73b6a7A","-1","-1","1","0","[]","0","2","","","20558","75","3","4","lose","no-go","0"
"pit-trial","194","1260547","0.0-80.0","battery-v0.2","","""event"",""trial"",""time""
""fullscreenenter"",""1"",""20811""
""blur"",""49"",""494658""
""focus"",""49"",""496480""
","""event"",""trial"",""time""
""blur"",""49"",""494658""
","""event"",""trial"",""time""
""focus"",""49"",""496480""
","""event"",""trial"",""time""
""fullscreenenter"",""1"",""20811""
","
","","","-1","","","21","20558","7658","p","elianto","#3366ff99","-1","-1","1","0","[]","0","2","","","20558","76","5","2","win","no-go","1"
"pit-trial","195","1265406","0.0-81.0","battery-v0.2","","""event"",""trial"",""time""
""fullscreenenter"",""1"",""20811""
""blur"",""49"",""494658""
""focus"",""49"",""496480""
","""event"",""trial"",""time""
""blur"",""49"",""494658""
","""event"",""trial"",""time""
""focus"",""49"",""496480""
","""event"",""trial"",""time""
""fullscreenenter"",""1"",""20811""
","
","","","-1","","","21","20558","7658","w","elianto","#f73b6a7A","-1","-1","1","0","[]","0","2","","","20558","77","3","4","lose","no-go","0"
"pit-trial","196","1270266","0.0-82.0","battery-v0.2","","""event"",""trial"",""time""
""fullscreenenter"",""1"",""20811""
""blur"",""49"",""494658""
""focus"",""49"",""496480""
","""event"",""trial"",""time""
""blur"",""49"",""494658""
","""event"",""trial"",""time""
""focus"",""49"",""496480""
","""event"",""trial"",""time""
""fullscreenenter"",""1"",""20811""
","
","","","-1","","","21","20558","7658","p","elianto","#3366ff99","-1","-1","1","+10","[]","0","2","","","20558","78","5","2","win","no-go","0"
"pit-trial","197","1273993","0.0-83.0","battery-v0.2","","""event"",""trial"",""time""
""fullscreenenter"",""1"",""20811""
""blur"",""49"",""494658""
""focus"",""49"",""496480""
","""event"",""trial"",""time""
""blur"",""49"",""494658""
","""event"",""trial"",""time""
""focus"",""49"",""496480""
","""event"",""trial"",""time""
""fullscreenenter"",""1"",""20811""
","
","","","868","","","21","20558","7658","s","elianto","#3366ff99"," "," ","1","+10","[1719]","1","2","","","20558","79","4","1","win","go","0"
"pit-trial","198","1277724","0.0-84.0","battery-v0.2","","""event"",""trial"",""time""
""fullscreenenter"",""1"",""20811""
""blur"",""49"",""494658""
""focus"",""49"",""496480""
","""event"",""trial"",""time""
""blur"",""49"",""494658""
","""event"",""trial"",""time""
""focus"",""49"",""496480""
","""event"",""trial"",""time""
""fullscreenenter"",""1"",""20811""
","
","","","872.0000000002328","","","21","20558","7658","s","elianto","#3366ff99"," "," ","1","+10","[1723.0000000002328]","1","2","","","20558","80","4","1","win","go","0"
"pit-trial","199","1282583","0.0-85.0","battery-v0.2","","""event"",""trial"",""time""
""fullscreenenter"",""1"",""20811""
""blur"",""49"",""494658""
""focus"",""49"",""496480""
","""event"",""trial"",""time""
""blur"",""49"",""494658""
","""event"",""trial"",""time""
""focus"",""49"",""496480""
","""event"",""trial"",""time""
""fullscreenenter"",""1"",""20811""
","
","","","-1","","","21","20558","7658","w","elianto","#f73b6a7A","-1","-1","1","0","[]","0","2","","","20558","81","3","4","lose","no-go","0"
"pit-trial","200","1287157","0.0-86.0","battery-v0.2","","""event"",""trial"",""time""
""fullscreenenter"",""1"",""20811""
""blur"",""49"",""494658""
""focus"",""49"",""496480""
","""event"",""trial"",""time""
""blur"",""49"",""494658""
","""event"",""trial"",""time""
""focus"",""49"",""496480""
","""event"",""trial"",""time""
""fullscreenenter"",""1"",""20811""
","
","","","1716.0000000002328","","","21","20558","7658","a","elianto","#f73b6a7A","-1"," ","0","-10","[2566.000000000233]","1","2","","","20558","82","7","4","lose","no-go","0"
"pit-trial","201","1292016","0.0-87.0","battery-v0.2","","""event"",""trial"",""time""
