"trial_type","trial_index","time_elapsed","internal_node_id","task_version","subject_id","interactions","blur_events","focus_events","fullscreenenter_events","fullscreenexit_events","success","view_history","rt","responses","num_errors","age","subject","participantId","rune","rune_set","hex","correct","choice","accuracy","outcome","keys","total_keys","block","practice","value","sub","trial","stimulus","robot","valence","action","sham"
"pavlovia","0","21","0.0-0.0","battery-v0.2","","""event"",""trial"",""time""
""fullscreenenter"",""1"",""3369""
","
","
","""event"",""trial"",""time""
""fullscreenenter"",""1"",""3369""
","
","","","","","","","","","","","","","","","","","","","","","","","","","","",""
"fullscreen","1","4318","0.0-1.0","battery-v0.2","","""event"",""trial"",""time""
""fullscreenenter"",""1"",""3369""
","
","
","""event"",""trial"",""time""
""fullscreenenter"",""1"",""3369""
","
","true","","","","","","","","","","","","","","","","","","","","","","","","","",""
"pit-instructions","2","10782","0.0-2.0-0.0","battery-v0.2","","""event"",""trial"",""time""
""fullscreenenter"",""1"",""3369""
","
","
","""event"",""trial"",""time""
""fullscreenenter"",""1"",""3369""
","
","","[{""page_index"":0,""viewing_time"":6440.60000000149}]","6441.89999999851","","","","","","","","","","","","","","","","","","","","","","","",""
"pit-comprehension","3","17652","0.0-2.0-1.0-0.0","battery-v0.2","","""event"",""trial"",""time""
""fullscreenenter"",""1"",""3369""
","
","
","""event"",""trial"",""time""
""fullscreenenter"",""1"",""3369""
","
","","","6849.5","[""shark""]","0","19","9686","4578","","","","","","","","","","","","","","","","","","",""
"pit-instructions","4","23877","0.0-2.0-1.0-1.0","battery-v0.2","","""event"",""trial"",""time""
""fullscreenenter"",""1"",""3369""
","
","
","""event"",""trial"",""time""
""fullscreenenter"",""1"",""3369""
","
","","[{""page_index"":0,""viewing_time"":6177.69999999553}]","6178.60000000149","","","","","","","","","","","","","","","","","","","","","","","",""
"pit-comprehension","5","32443","0.0-2.0-2.0-0.0","battery-v0.2","","""event"",""trial"",""time""
""fullscreenenter"",""1"",""3369""
","
","
","""event"",""trial"",""time""
""fullscreenenter"",""1"",""3369""
","
","","","8547.60000000149","[""tiger""]","0","19","9686","4578","","","","","","","","","","","","","","","","","","",""
"pit-instructions","6","56661","0.0-2.0-2.0-1.0","battery-v0.2","","""event"",""trial"",""time""
""fullscreenenter"",""1"",""3369""
","
","
","""event"",""trial"",""time""
""fullscreenenter"",""1"",""3369""
","
","","[{""page_index"":0,""viewing_time"":24198.80000000447}]","24200.70000000298","","","","","","","","","","","","","","","","","","","","","","","",""
"pit-instructions","7","322793","0.0-2.0-3.0","battery-v0.2","","""event"",""trial"",""time""
""fullscreenenter"",""1"",""3369""
","
","
","""event"",""trial"",""time""
""fullscreenenter"",""1"",""3369""
","
","","[{""page_index"":0,""viewing_time"":14280.70000000298},{""page_index"":1,""viewing_time"":17284.19999999553},{""page_index"":2,""viewing_time"":12243.20000000298},{""page_index"":3,""viewing_time"":54871.19999999553},{""page_index"":4,""viewing_time"":35804.30000000447},{""page_index"":5,""viewing_time"":20110.79999999702},{""page_index"":6,""viewing_time"":23059.10000000149},{""page_index"":7,""viewing_time"":9488.20000000298},{""page_index"":8,""viewing_time"":9231.29999999702},{""page_index"":9,""viewing_time"":9842.89999999851},{""page_index"":10,""viewing_time"":13480.89999999851},{""page_index"":11,""viewing_time"":11424.40000000596},{""page_index"":12,""viewing_time"":27038.19999999553},{""page_index"":13,""viewing_time"":7954.5}]","266115","","","","","","","","","","","","","","","","","","","","","","","",""
"pit-trial","8","326580","0.0-2.0-4.0-0.0","battery-v0.2","","""event"",""trial"",""time""
""fullscreenenter"",""1"",""3369""
","
","
","""event"",""trial"",""time""
""fullscreenenter"",""1"",""3369""
","
","","","908.7999999970198","","","19","9686","4578","&#9784;","elianto","#FFFFF080"," "," ","1","&#10004","[1769.3000000044703]","1","0","0","","","","","","","",""
"pit-trial","9","329983","0.0-2.0-4.1-0.1","battery-v0.2","","""event"",""trial"",""time""
""fullscreenenter"",""1"",""3369""
","
","
","""event"",""trial"",""time""
""fullscreenenter"",""1"",""3369""
","
","","","534.1000000014901","","","19","9686","4578","&#9784;","elianto","#FFFFF080"," "," ","1","&#10004","[1388.1999999955297]","1","0","0","","","","","","","",""
"pit-trial","10","333630","0.0-2.0-4.2-0.2","battery-v0.2","","""event"",""trial"",""time""
""fullscreenenter"",""1"",""3369""
","
","
","""event"",""trial"",""time""
""fullscreenenter"",""1"",""3369""
","
","","","783","","","19","9686","4578","&#9784;","elianto","#FFFFF080"," "," ","1","&#10004","[1633.3999999985099]","1","0","0","","","","","","","",""
"pit-trial","11","337294","0.0-2.0-4.3-0.3","battery-v0.2","","""event"",""trial"",""time""
""fullscreenenter"",""1"",""3369""
","
","
","""event"",""trial"",""time""
""fullscreenenter"",""1"",""3369""
","
","","","798.1000000014901","","","19","9686","4578","&#9784;","elianto","#FFFFF080"," "," ","1","&#10004","[1650]","1","0","0","","","","","","","",""
"pit-trial","12","340745","0.0-2.0-4.4-0.4","battery-v0.2","","""event"",""trial"",""time""
""fullscreenenter"",""1"",""3369""
","
","
","""event"",""trial"",""time""
""fullscreenenter"",""1"",""3369""
","
","","","586.7999999970198","","","19","9686","4578","&#9784;","elianto","#FFFFF080"," "," ","1","&#10004","[1439.5]","1","0","0","","","","","","","",""
"pit-instructions","13","376386","0.0-2.0-5.0","battery-v0.2","","""event"",""trial"",""time""
""fullscreenenter"",""1"",""3369""
","
","
","""event"",""trial"",""time""
""fullscreenenter"",""1"",""3369""
","
","","[{""page_index"":0,""viewing_time"":8490.5},{""page_index"":1,""viewing_time"":7467.10000000149},{""page_index"":2,""viewing_time"":7371},{""page_index"":3,""viewing_time"":12301.89999999851}]","35631.5","","","","","","","","","","","","","","","","","","","","","","","",""
"pit-trial","14","381265","0.0-2.0-6.0-0.0","battery-v0.2","","""event"",""trial"",""time""
""fullscreenenter"",""1"",""3369""
","
","
","""event"",""trial"",""time""
""fullscreenenter"",""1"",""3369""
","
","","","-1","","","19","9686","4578","&#9854;","elianto","#FFFFF080","-1","-1","1","&#10004","[]","0","0","1","","","","","","","",""
"pit-trial","15","386150","0.0-2.0-6.1-0.1","battery-v0.2","","""event"",""trial"",""time""
""fullscreenenter"",""1"",""3369""
","
","
","""event"",""trial"",""time""
""fullscreenenter"",""1"",""3369""
","
","","","-1","","","19","9686","4578","&#9854;","elianto","#FFFFF080","-1","-1","1","&#10004","[]","0","0","1","","","","","","","",""
"pit-trial","16","391018","0.0-2.0-6.2-0.2","battery-v0.2","","""event"",""trial"",""time""
""fullscreenenter"",""1"",""3369""
","
","
","""event"",""trial"",""time""
""fullscreenenter"",""1"",""3369""
","
","","","-1","","","19","9686","4578","&#9854;","elianto","#FFFFF080","-1","-1","1","&#10004","[]","0","0","1","","","","","","","",""
"pit-trial","17","395893","0.0-2.0-6.3-0.3","battery-v0.2","","""event"",""trial"",""time""
""fullscreenenter"",""1"",""3369""
","
","
","""event"",""trial"",""time""
""fullscreenenter"",""1"",""3369""
","
","","","-1","","","19","9686","4578","&#9854;","elianto","#FFFFF080","-1","-1","1","&#10004","[]","0","0","1","","","","","","","",""
"pit-trial","18","400773","0.0-2.0-6.4-0.4","battery-v0.2","","""event"",""trial"",""time""
""fullscreenenter"",""1"",""3369""
","
","
","""event"",""trial"",""time""
""fullscreenenter"",""1"",""3369""
","
","","","-1","","","19","9686","4578","&#9854;","elianto","#FFFFF080","-1","-1","1","&#10004","[]","0","0","1","","","","","","","",""
"pit-instructions","19","653713","0.0-2.0-7.0","battery-v0.2","","""event"",""trial"",""time""
""fullscreenenter"",""1"",""3369""
","
","
","""event"",""trial"",""time""
""fullscreenenter"",""1"",""3369""
","
","","[{""page_index"":0,""viewing_time"":12194},{""page_index"":1,""viewing_time"":11814.39999999851},{""page_index"":2,""viewing_time"":8312.20000000298},{""page_index"":3,""viewing_time"":7641.29999999702},{""page_index"":4,""viewing_time"":10407},{""page_index"":5,""viewing_time"":7140},{""page_index"":6,""viewing_time"":7738.70000000298},{""page_index"":7,""viewing_time"":37292.09999999404},{""page_index"":8,""viewing_time"":10228.40000000596},{""page_index"":9,""viewing_time"":12647.69999999553},{""page_index"":10,""viewing_time"":39752.39999999851},{""page_index"":11,""viewing_time"":29040.30000000447},{""page_index"":12,""viewing_time"":9695.60000000149},{""page_index"":13,""viewing_time"":10074.59999999404},{""page_index"":14,""viewing_time"":10444.10000000149},{""page_index"":15,""viewing_time"":9752.30000000447},{""page_index"":16,""viewing_time"":9138.09999999404},{""page_index"":17,""viewing_time"":9624.90000000596}]","252939.19999999553","","","","","","","","","","","","","","","","","","","","","","","",""
"pit-trial","20","657469","0.0-2.0-8.0-0.0","battery-v0.2","","""event"",""trial"",""time""
""fullscreenenter"",""1"",""3369""
","
","
","""event"",""trial"",""time""
""fullscreenenter"",""1"",""3369""
","
","","","883.1999999955297","","","19","9686","4578","&#9776;","elianto","#3366ff99"," "," ","1","+10","[1733.3999999985099]","1","0","1","","","","","","","",""
"pit-trial","21","661005","0.0-2.0-8.0-1.0","battery-v0.2","","""event"",""trial"",""time""
""fullscreenenter"",""1"",""3369""
","
","
","""event"",""trial"",""time""
""fullscreenenter"",""1"",""3369""
","
","","","667.2999999970198","","","19","9686","4578","&#9776;","elianto","#3366ff99"," "," ","1","+10","[1521.1000000014901]","1","0","1","","","","","","","",""
"pit-trial","22","664493","0.0-2.0-8.0-2.0","battery-v0.2","","""event"",""trial"",""time""
""fullscreenenter"",""1"",""3369""
","
","
","""event"",""trial"",""time""
""fullscreenenter"",""1"",""3369""
","
","","","633.3999999985099","","","19","9686","4578","&#9776;","elianto","#3366ff99"," "," ","1","+10","[1483.4000000059605]","1","0","1","","","","","","","",""
"pit-trial","23","668275","0.0-2.0-8.0-3.0","battery-v0.2","","""event"",""trial"",""time""
""fullscreenenter"",""1"",""3369""
","
","
","""event"",""trial"",""time""
""fullscreenenter"",""1"",""3369""
","
","","","915.1000000014901","","","19","9686","4578","&#9776;","elianto","#3366ff99"," "," ","1","0","[1768.8000000044703]","1","0","1","","","","","","","",""
"pit-trial","24","671827","0.0-2.0-8.0-4.0","battery-v0.2","","""event"",""trial"",""time""
""fullscreenenter"",""1"",""3369""
","
","
","""event"",""trial"",""time""
""fullscreenenter"",""1"",""3369""
","
","","","671","","","19","9686","4578","&#9776;","elianto","#3366ff99"," "," ","1","+10","[1532.7000000029802]","1","0","1","","","","","","","",""
"pit-trial","25","676153","0.0-2.0-8.1-0.1","battery-v0.2","","""event"",""trial"",""time""
""fullscreenenter"",""1"",""3369""
","
","
","""event"",""trial"",""time""
""fullscreenenter"",""1"",""3369""
","
","","","1461.5","","","19","9686","4578","&#9776;","elianto","#3366ff99"," "," ","1","+10","[2313.5]","1","0","1","","","","","","","",""
"pit-trial","26","680243","0.0-2.0-8.1-1.1","battery-v0.2","","""event"",""trial"",""time""
""fullscreenenter"",""1"",""3369""
","
","
","""event"",""trial"",""time""
""fullscreenenter"",""1"",""3369""
","
","","","1227.5","","","19","9686","4578","&#9776;","elianto","#3366ff99"," "," ","1","+10","[2080.60000000149]","1","0","1","","","","","","","",""
"pit-trial","27","684450","0.0-2.0-8.1-2.1","battery-v0.2","","""event"",""trial"",""time""
""fullscreenenter"",""1"",""3369""
","
","
","""event"",""trial"",""time""
""fullscreenenter"",""1"",""3369""
","
","","","1343.2000000029802","","","19","9686","4578","&#9776;","elianto","#3366ff99"," "," ","1","+10","[2197.39999999851]","1","0","1","","","","","","","",""
"pit-trial","28","688117","0.0-2.0-8.1-3.1","battery-v0.2","","""event"",""trial"",""time""
""fullscreenenter"",""1"",""3369""
","
","
","""event"",""trial"",""time""
""fullscreenenter"",""1"",""3369""
","
","","","794.6999999955297","","","19","9686","4578","&#9776;","elianto","#3366ff99"," "," ","1","0","[1646.7999999970198]","1","0","1","","","","","","","",""
"pit-trial","29","691604","0.0-2.0-8.1-4.1","battery-v0.2","","""event"",""trial"",""time""
""fullscreenenter"",""1"",""3369""
","
","
","""event"",""trial"",""time""
""fullscreenenter"",""1"",""3369""
","
","","","627.2000000029802","","","19","9686","4578","&#9776;","elianto","#3366ff99"," "," ","1","+10","[1477.6999999955297]","1","0","1","","","","","","","",""
"pit-trial","30","696472","0.0-2.0-8.2-0.2","battery-v0.2","","""event"",""trial"",""time""
""fullscreenenter"",""1"",""3369""
","
","
","""event"",""trial"",""time""
""fullscreenenter"",""1"",""3369""
","
","","","-1","","","19","9686","4578","&#9776;","elianto","#3366ff99"," ","-1","0","0","[]","0","0","1","","","","","","","",""
"pit-trial","31","699778","0.0-2.0-8.2-1.2","battery-v0.2","","""event"",""trial"",""time""
""fullscreenenter"",""1"",""3369""
","
","
","""event"",""trial"",""time""
""fullscreenenter"",""1"",""3369""
","
","","","431.6000000014901","","","19","9686","4578","&#9776;","elianto","#3366ff99"," "," ","1","+10","[1292.5]","1","0","1","","","","","","","",""
"pit-trial","32","703127","0.0-2.0-8.2-2.2","battery-v0.2","","""event"",""trial"",""time""
""fullscreenenter"",""1"",""3369""
","
","
","""event"",""trial"",""time""
""fullscreenenter"",""1"",""3369""
","
","","","479.80000000447035","","","19","9686","4578","&#9776;","elianto","#3366ff99"," "," ","1","+10","[1341.1000000014901]","1","0","1","","","","","","","",""
"pit-trial","33","707991","0.0-2.0-8.2-3.2","battery-v0.2","","""event"",""trial"",""time""
""fullscreenenter"",""1"",""3369""
","
","
","""event"",""trial"",""time""
""fullscreenenter"",""1"",""3369""
","
","","","-1","","","19","9686","4578","&#9776;","elianto","#3366ff99"," ","-1","0","+10","[]","0","0","1","","","","","","","",""
"pit-trial","34","712852","0.0-2.0-8.2-4.2","battery-v0.2","","""event"",""trial"",""time""
""fullscreenenter"",""1"",""3369""
","
","
","""event"",""trial"",""time""
""fullscreenenter"",""1"",""3369""
","
","","","-1","","","19","9686","4578","&#9776;","elianto","#3366ff99"," ","-1","0","0","[]","0","0","1","","","","","","","",""
"call-function","35","712858","0.0-2.0-9.0","battery-v0.2","","""event"",""trial"",""time""
""fullscreenenter"",""1"",""3369""
","
","
","""event"",""trial"",""time""
""fullscreenenter"",""1"",""3369""
","
","","","","","","","","","","","","","","","","","","","","","","","","","","",""
"pit-instructions","36","819196","0.0-2.0-10.0","battery-v0.2","","""event"",""trial"",""time""
""fullscreenenter"",""1"",""3369""
","
","
","""event"",""trial"",""time""
""fullscreenenter"",""1"",""3369""
","
","","[{""page_index"":0,""viewing_time"":44650.5},{""page_index"":1,""viewing_time"":15618},{""page_index"":2,""viewing_time"":23470.79999999702},{""page_index"":3,""viewing_time"":12614},{""page_index"":4,""viewing_time"":9981.20000000298}]","106335.5","","","","","","","","","","","","","","","","","","","","","","","",""
"pit-trial","37","822872","0.0-2.0-11.0-0.0","battery-v0.2","","""event"",""trial"",""time""
""fullscreenenter"",""1"",""3369""
","
","
","""event"",""trial"",""time""
""fullscreenenter"",""1"",""3369""
","
","","","805.3000000044703","","","19","9686","4578","&#9761;","elianto","#3366ff99","-1"," ","0","0","[1666.3000000044703]","1","0","2","","","","","","","",""
"pit-trial","38","826146","0.0-2.0-11.0-1.0","battery-v0.2","","""event"",""trial"",""time""
""fullscreenenter"",""1"",""3369""
","
","
","""event"",""trial"",""time""
""fullscreenenter"",""1"",""3369""
","
","","","399","","","19","9686","4578","&#9761;","elianto","#3366ff99","-1"," ","0","0","[1253.8999999985099]","1","0","2","","","","","","","",""
"pit-trial","39","831014","0.0-2.0-11.0-2.0","battery-v0.2","","""event"",""trial"",""time""
""fullscreenenter"",""1"",""3369""
","
","
","""event"",""trial"",""time""
""fullscreenenter"",""1"",""3369""
","
","","","-1","","","19","9686","4578","&#9761;","elianto","#3366ff99","-1","-1","1","+10","[]","0","0","2","","","","","","","",""
"pit-trial","40","835884","0.0-2.0-11.0-3.0","battery-v0.2","","""event"",""trial"",""time""
""fullscreenenter"",""1"",""3369""
","
","
","""event"",""trial"",""time""
""fullscreenenter"",""1"",""3369""
","
","","","-1","","","19","9686","4578","&#9761;","elianto","#3366ff99","-1","-1","1","0","[]","0","0","2","","","","","","","",""
"pit-trial","41","839207","0.0-2.0-11.0-4.0","battery-v0.2","","""event"",""trial"",""time""
""fullscreenenter"",""1"",""3369""
","
","
","""event"",""trial"",""time""
""fullscreenenter"",""1"",""3369""
","
","","","454.20000000298023","","","19","9686","4578","&#9761;","elianto","#3366ff99","-1"," ","0","0","[1311.5]","1","0","2","","","","","","","",""
"pit-trial","42","842481","0.0-2.0-11.1-0.1","battery-v0.2","","""event"",""trial"",""time""
""fullscreenenter"",""1"",""3369""
","
","
","""event"",""trial"",""time""
""fullscreenenter"",""1"",""3369""
","
","","","407.3999999985099","","","19","9686","4578","&#9761;","elianto","#3366ff99","-1"," ","0","0","[1264.5]","1","0","2","","","","","","","",""
"pit-trial","43","846644","0.0-2.0-11.1-1.1","battery-v0.2","","""event"",""trial"",""time""
""fullscreenenter"",""1"",""3369""
","
","
","""event"",""trial"",""time""
""fullscreenenter"",""1"",""3369""
","
","","","1294.5","","","19","9686","4578","&#9761;","elianto","#3366ff99","-1"," ","0","0","[2147]","1","0","2","","","","","","","",""
"pit-trial","44","851512","0.0-2.0-11.1-2.1","battery-v0.2","","""event"",""trial"",""time""
""fullscreenenter"",""1"",""3369""
","
","
","""event"",""trial"",""time""
""fullscreenenter"",""1"",""3369""
","
","","","-1","","","19","9686","4578","&#9761;","elianto","#3366ff99","-1","-1","1","+10","[]","0","0","2","","","","","","","",""
"pit-trial","45","856383","0.0-2.0-11.1-3.1","battery-v0.2","","""event"",""trial"",""time""
""fullscreenenter"",""1"",""3369""
","
","
","""event"",""trial"",""time""
""fullscreenenter"",""1"",""3369""
","
","","","-1","","","19","9686","4578","&#9761;","elianto","#3366ff99","-1","-1","1","0","[]","0","0","2","","","","","","","",""
"pit-trial","46","861252","0.0-2.0-11.1-4.1","battery-v0.2","","""event"",""trial"",""time""
""fullscreenenter"",""1"",""3369""
","
","
","""event"",""trial"",""time""
""fullscreenenter"",""1"",""3369""
","
","","","-1","","","19","9686","4578","&#9761;","elianto","#3366ff99","-1","-1","1","+10","[]","0","0","2","","","","","","","",""
"pit-trial","47","864696","0.0-2.0-11.2-0.2","battery-v0.2","","""event"",""trial"",""time""
""fullscreenenter"",""1"",""3369""
","
","
","""event"",""trial"",""time""
""fullscreenenter"",""1"",""3369""
","
","","","577.6000000014901","","","19","9686","4578","&#9761;","elianto","#3366ff99","-1"," ","0","0","[1434.8999999985099]","1","0","2","","","","","","","",""
"pit-trial","48","869566","0.0-2.0-11.2-1.2","battery-v0.2","","""event"",""trial"",""time""
""fullscreenenter"",""1"",""3369""
","
","
","""event"",""trial"",""time""
""fullscreenenter"",""1"",""3369""
","
","","","-1","","","19","9686","4578","&#9761;","elianto","#3366ff99","-1","-1","1","+10","[]","0","0","2","","","","","","","",""
"pit-trial","49","874430","0.0-2.0-11.2-2.2","battery-v0.2","","""event"",""trial"",""time""
""fullscreenenter"",""1"",""3369""
","
","
","""event"",""trial"",""time""
""fullscreenenter"",""1"",""3369""
","
","","","-1","","","19","9686","4578","&#9761;","elianto","#3366ff99","-1","-1","1","+10","[]","0","0","2","","","","","","","",""
"pit-trial","50","877785","0.0-2.0-11.2-3.2","battery-v0.2","","""event"",""trial"",""time""
""fullscreenenter"",""1"",""3369""
","
","
","""event"",""trial"",""time""
""fullscreenenter"",""1"",""3369""
","
","","","483.79999999701977","","","19","9686","4578","&#9761;","elianto","#3366ff99","-1"," ","0","+10","[1339.2999999970198]","1","0","2","","","","","","","",""
"pit-trial","51","881857","0.0-2.0-11.2-4.2","battery-v0.2","","""event"",""trial"",""time""
""fullscreenenter"",""1"",""3369""
","
","
","""event"",""trial"",""time""
""fullscreenenter"",""1"",""3369""
","
","","","1215.2000000029802","","","19","9686","4578","&#9761;","elianto","#3366ff99","-1"," ","0","0","[2069.10000000149]","1","0","2","","","","","","","",""
"pit-trial","52","885445","0.0-2.0-11.3-0.3","battery-v0.2","","""event"",""trial"",""time""
""fullscreenenter"",""1"",""3369""
","
","
","""event"",""trial"",""time""
""fullscreenenter"",""1"",""3369""
","
","","","717","","","19","9686","4578","&#9761;","elianto","#3366ff99","-1"," ","0","0","[1572.2000000029802]","1","0","2","","","","","","","",""
"pit-trial","53","890305","0.0-2.0-11.3-1.3","battery-v0.2","","""event"",""trial"",""time""
""fullscreenenter"",""1"",""3369""
","
","
","""event"",""trial"",""time""
""fullscreenenter"",""1"",""3369""
","
","","","-1","","","19","9686","4578","&#9761;","elianto","#3366ff99","-1","-1","1","+10","[]","0","0","2","","","","","","","",""
"pit-trial","54","895170","0.0-2.0-11.3-2.3","battery-v0.2","","""event"",""trial"",""time""
""fullscreenenter"",""1"",""3369""
","
","
","""event"",""trial"",""time""
""fullscreenenter"",""1"",""3369""
","
","","","-1","","","19","9686","4578","&#9761;","elianto","#3366ff99","-1","-1","1","+10","[]","0","0","2","","","","","","","",""
"pit-trial","55","900032","0.0-2.0-11.3-3.3","battery-v0.2","","""event"",""trial"",""time""
""fullscreenenter"",""1"",""3369""
","
","
","""event"",""trial"",""time""
""fullscreenenter"",""1"",""3369""
","
","","","-1","","","19","9686","4578","&#9761;","elianto","#3366ff99","-1","-1","1","0","[]","0","0","2","","","","","","","",""
"pit-trial","56","904905","0.0-2.0-11.3-4.3","battery-v0.2","","""event"",""trial"",""time""
""fullscreenenter"",""1"",""3369""
","
","
","""event"",""trial"",""time""
""fullscreenenter"",""1"",""3369""
","
","","","-1","","","19","9686","4578","&#9761;","elianto","#3366ff99","-1","-1","1","+10","[]","0","0","2","","","","","","","",""
"call-function","57","904909","0.0-2.0-12.0","battery-v0.2","","""event"",""trial"",""time""
""fullscreenenter"",""1"",""3369""
","
","
","""event"",""trial"",""time""
""fullscreenenter"",""1"",""3369""
","
","","","","","","","","","","","","","","","","","","","","","","","","","","",""
"pit-instructions","58","981008","0.0-2.0-13.0","battery-v0.2","","""event"",""trial"",""time""
""fullscreenenter"",""1"",""3369""
","
","
","""event"",""trial"",""time""
""fullscreenenter"",""1"",""3369""
","
","","[{""page_index"":0,""viewing_time"":17242.39999999851},{""page_index"":1,""viewing_time"":12726.10000000149},{""page_index"":2,""viewing_time"":12764},{""page_index"":3,""viewing_time"":16823.70000000298},{""page_index"":4,""viewing_time"":16540.60000000149}]","76097.89999999851","","","","","","","","","","","","","","","","","","","","","","","",""
"pit-trial","59","985874","0.0-2.0-14.0-0.0","battery-v0.2","","""event"",""trial"",""time""
""fullscreenenter"",""1"",""3369""
","
","
","""event"",""trial"",""time""
""fullscreenenter"",""1"",""3369""
","
","","","-1","","","19","9686","4578","&#9826;","elianto","#f73b6a7A","-1","-1","1","0","[]","0","0","3","","","","","","","",""
"pit-trial","60","990749","0.0-2.0-14.0-1.0","battery-v0.2","","""event"",""trial"",""time""
""fullscreenenter"",""1"",""3369""
","
","
","""event"",""trial"",""time""
""fullscreenenter"",""1"",""3369""
","
","","","-1","","","19","9686","4578","&#9826;","elianto","#f73b6a7A","-1","-1","1","0","[]","0","0","3","","","","","","","",""
"pit-trial","61","995628","0.0-2.0-14.0-2.0","battery-v0.2","","""event"",""trial"",""time""
""fullscreenenter"",""1"",""3369""
","
","
","""event"",""trial"",""time""
""fullscreenenter"",""1"",""3369""
","
","","","-1","","","19","9686","4578","&#9826;","elianto","#f73b6a7A","-1","-1","1","0","[]","0","0","3","","","","","","","",""
"pit-trial","62","1000494","0.0-2.0-14.0-3.0","battery-v0.2","","""event"",""trial"",""time""
""fullscreenenter"",""1"",""3369""
","
","
","""event"",""trial"",""time""
""fullscreenenter"",""1"",""3369""
","
","","","-1","","","19","9686","4578","&#9826;","elianto","#f73b6a7A","-1","-1","1","-10","[]","0","0","3","","","","","","","",""
"pit-trial","63","1005354","0.0-2.0-14.0-4.0","battery-v0.2","","""event"",""trial"",""time""
""fullscreenenter"",""1"",""3369""
","
","
","""event"",""trial"",""time""
""fullscreenenter"",""1"",""3369""
","
","","","-1","","","19","9686","4578","&#9826;","elianto","#f73b6a7A","-1","-1","1","0","[]","0","0","3","","","","","","","",""
"pit-trial","64","1010211","0.0-2.0-14.1-0.1","battery-v0.2","","""event"",""trial"",""time""
""fullscreenenter"",""1"",""3369""
","
","
","""event"",""trial"",""time""
""fullscreenenter"",""1"",""3369""
","
","","","-1","","","19","9686","4578","&#9826;","elianto","#f73b6a7A","-1","-1","1","0","[]","0","0","3","","","","","","","",""
"pit-trial","65","1015079","0.0-2.0-14.1-1.1","battery-v0.2","","""event"",""trial"",""time""
""fullscreenenter"",""1"",""3369""
","
","
","""event"",""trial"",""time""
""fullscreenenter"",""1"",""3369""
","
","","","-1","","","19","9686","4578","&#9826;","elianto","#f73b6a7A","-1","-1","1","0","[]","0","0","3","","","","","","","",""
"pit-trial","66","1019943","0.0-2.0-14.1-2.1","battery-v0.2","","""event"",""trial"",""time""
""fullscreenenter"",""1"",""3369""
","
","
","""event"",""trial"",""time""
""fullscreenenter"",""1"",""3369""
","
","","","-1","","","19","9686","4578","&#9826;","elianto","#f73b6a7A","-1","-1","1","0","[]","0","0","3","","","","","","","",""
"pit-trial","67","1024804","0.0-2.0-14.1-3.1","battery-v0.2","","""event"",""trial"",""time""
""fullscreenenter"",""1"",""3369""
","
","
","""event"",""trial"",""time""
""fullscreenenter"",""1"",""3369""
","
","","","-1","","","19","9686","4578","&#9826;","elianto","#f73b6a7A","-1","-1","1","-10","[]","0","0","3","","","","","","","",""
"pit-trial","68","1029671","0.0-2.0-14.1-4.1","battery-v0.2","","""event"",""trial"",""time""
""fullscreenenter"",""1"",""3369""
","
","
","""event"",""trial"",""time""
""fullscreenenter"",""1"",""3369""
","
","","","-1","","","19","9686","4578","&#9826;","elianto","#f73b6a7A","-1","-1","1","0","[]","0","0","3","","","","","","","",""
"pit-trial","69","1034542","0.0-2.0-14.2-0.2","battery-v0.2","","""event"",""trial"",""time""
""fullscreenenter"",""1"",""3369""
","
","
","""event"",""trial"",""time""
""fullscreenenter"",""1"",""3369""
","
","","","-1","","","19","9686","4578","&#9826;","elianto","#f73b6a7A","-1","-1","1","0","[]","0","0","3","","","","","","","",""
"pit-trial","70","1039406","0.0-2.0-14.2-1.2","battery-v0.2","","""event"",""trial"",""time""
""fullscreenenter"",""1"",""3369""
","
","
","""event"",""trial"",""time""
""fullscreenenter"",""1"",""3369""
","
","","","-1","","","19","9686","4578","&#9826;","elianto","#f73b6a7A","-1","-1","1","0","[]","0","0","3","","","","","","","",""
"pit-trial","71","1044271","0.0-2.0-14.2-2.2","battery-v0.2","","""event"",""trial"",""time""
""fullscreenenter"",""1"",""3369""
","
","
","""event"",""trial"",""time""
""fullscreenenter"",""1"",""3369""
","
","","","-1","","","19","9686","4578","&#9826;","elianto","#f73b6a7A","-1","-1","1","0","[]","0","0","3","","","","","","","",""
"pit-trial","72","1049148","0.0-2.0-14.2-3.2","battery-v0.2","","""event"",""trial"",""time""
""fullscreenenter"",""1"",""3369""
","
","
","""event"",""trial"",""time""
""fullscreenenter"",""1"",""3369""
","
","","","-1","","","19","9686","4578","&#9826;","elianto","#f73b6a7A","-1","-1","1","-10","[]","0","0","3","","","","","","","",""
"pit-trial","73","1052153","0.0-2.0-14.2-4.2","battery-v0.2","","""event"",""trial"",""time""
""fullscreenenter"",""1"",""3369""
","
","
","""event"",""trial"",""time""
""fullscreenenter"",""1"",""3369""
","
","","","144.69999999552965","","","19","9686","4578","&#9826;","elianto","#f73b6a7A","-1"," ","0","-10","[998.2999999970198]","1","0","3","","","","","","","",""
"pit-trial","74","1057019","0.0-2.0-14.3-0.3","battery-v0.2","","""event"",""trial"",""time""
""fullscreenenter"",""1"",""3369""
","
","
","""event"",""trial"",""time""
""fullscreenenter"",""1"",""3369""
","
","","","-1","","","19","9686","4578","&#9826;","elianto","#f73b6a7A","-1","-1","1","0","[]","0","0","3","","","","","","","",""
"pit-trial","75","1061882","0.0-2.0-14.3-1.3","battery-v0.2","","""event"",""trial"",""time""
""fullscreenenter"",""1"",""3369""
","
","
","""event"",""trial"",""time""
""fullscreenenter"",""1"",""3369""
","
","","","-1","","","19","9686","4578","&#9826;","elianto","#f73b6a7A","-1","-1","1","0","[]","0","0","3","","","","","","","",""
"pit-trial","76","1066750","0.0-2.0-14.3-2.3","battery-v0.2","","""event"",""trial"",""time""
""fullscreenenter"",""1"",""3369""
","
","
","""event"",""trial"",""time""
""fullscreenenter"",""1"",""3369""
","
","","","-1","","","19","9686","4578","&#9826;","elianto","#f73b6a7A","-1","-1","1","0","[]","0","0","3","","","","","","","",""
"pit-trial","77","1071613","0.0-2.0-14.3-3.3","battery-v0.2","","""event"",""trial"",""time""
""fullscreenenter"",""1"",""3369""
","
","
","""event"",""trial"",""time""
""fullscreenenter"",""1"",""3369""
","
","","","-1","","","19","9686","4578","&#9826;","elianto","#f73b6a7A","-1","-1","1","-10","[]","0","0","3","","","","","","","",""
"pit-trial","78","1076476","0.0-2.0-14.3-4.3","battery-v0.2","","""event"",""trial"",""time""
""fullscreenenter"",""1"",""3369""
","
","
","""event"",""trial"",""time""
""fullscreenenter"",""1"",""3369""
","
","","","-1","","","19","9686","4578","&#9826;","elianto","#f73b6a7A","-1","-1","1","0","[]","0","0","3","","","","","","","",""
"call-function","79","1076481","0.0-2.0-15.0","battery-v0.2","","""event"",""trial"",""time""
""fullscreenenter"",""1"",""3369""
","
","
","""event"",""trial"",""time""
""fullscreenenter"",""1"",""3369""
","
","","","","","","","","","","","","","","","","","","","","","","","","","","",""
"pit-instructions","80","1213709","0.0-2.0-16.0","battery-v0.2","","""event"",""trial"",""time""
""fullscreenenter"",""1"",""3369""
","
","
","""event"",""trial"",""time""
""fullscreenenter"",""1"",""3369""
","
","","[{""page_index"":0,""viewing_time"":40284.60000000149},{""page_index"":1,""viewing_time"":43059.89999999851},{""page_index"":2,""viewing_time"":19876.60000000149},{""page_index"":3,""viewing_time"":34001}]","137223.1000000015","","","","","","","","","","","","","","","","","","","","","","","",""
"pit-trial","81","1217878","0.0-2.0-17.0-0.0","battery-v0.2","","""event"",""trial"",""time""
""fullscreenenter"",""1"",""3369""
","
","
","""event"",""trial"",""time""
""fullscreenenter"",""1"",""3369""
","
","","","1301.7999999970198","","","19","9686","4578","&#9789;","elianto","#f73b6a7A"," "," ","1","0","[2158]","1","0","4","","","","","","","",""
"pit-trial","82","1222742","0.0-2.0-17.0-1.0","battery-v0.2","","""event"",""trial"",""time""
""fullscreenenter"",""1"",""3369""
","
","
","""event"",""trial"",""time""
""fullscreenenter"",""1"",""3369""
","
","","","-1","","","19","9686","4578","&#9789;","elianto","#f73b6a7A"," ","-1","0","-10","[]","0","0","4","","","","","","","",""
"pit-trial","83","1227265","0.0-2.0-17.0-2.0","battery-v0.2","","""event"",""trial"",""time""
""fullscreenenter"",""1"",""3369""
","
","
","""event"",""trial"",""time""
""fullscreenenter"",""1"",""3369""
","
","","","1659.5","","","19","9686","4578","&#9789;","elianto","#f73b6a7A"," "," ","1","0","[2509.89999999851]","1","0","4","","","","","","","",""
"pit-trial","84","1232129","0.0-2.0-17.0-3.0","battery-v0.2","","""event"",""trial"",""time""
""fullscreenenter"",""1"",""3369""
","
","
","""event"",""trial"",""time""
""fullscreenenter"",""1"",""3369""
","
","","","-1","","","19","9686","4578","&#9789;","elianto","#f73b6a7A"," ","-1","0","0","[]","0","0","4","","","","","","","",""
"pit-trial","85","1236996","0.0-2.0-17.0-4.0","battery-v0.2","","""event"",""trial"",""time""
""fullscreenenter"",""1"",""3369""
","
","
","""event"",""trial"",""time""
""fullscreenenter"",""1"",""3369""
","
","","","-1","","","19","9686","4578","&#9789;","elianto","#f73b6a7A"," ","-1","0","-10","[]","0","0","4","","","","","","","",""
"pit-trial","86","1241861","0.0-2.0-17.1-0.1","battery-v0.2","","""event"",""trial"",""time""
""fullscreenenter"",""1"",""3369""
","
","
","""event"",""trial"",""time""
""fullscreenenter"",""1"",""3369""
","
","","","-1","","","19","9686","4578","&#9789;","elianto","#f73b6a7A"," ","-1","0","-10","[]","0","0","4","","","","","","","",""
"pit-trial","87","1246744","0.0-2.0-17.1-1.1","battery-v0.2","","""event"",""trial"",""time""
""fullscreenenter"",""1"",""3369""
","
","
","""event"",""trial"",""time""
""fullscreenenter"",""1"",""3369""
","
","","","-1","","","19","9686","4578","&#9789;","elianto","#f73b6a7A"," ","-1","0","-10","[]","0","0","4","","","","","","","",""
"pit-trial","88","1251604","0.0-2.0-17.1-2.1","battery-v0.2","","""event"",""trial"",""time""
""fullscreenenter"",""1"",""3369""
","
","
","""event"",""trial"",""time""
""fullscreenenter"",""1"",""3369""
","
","","","-1","","","19","9686","4578","&#9789;","elianto","#f73b6a7A"," ","-1","0","-10","[]","0","0","4","","","","","","","",""
"pit-trial","89","1256466","0.0-2.0-17.1-3.1","battery-v0.2","","""event"",""trial"",""time""
""fullscreenenter"",""1"",""3369""
","
","
","""event"",""trial"",""time""
""fullscreenenter"",""1"",""3369""
","
","","","-1","","","19","9686","4578","&#9789;","elianto","#f73b6a7A"," ","-1","0","0","[]","0","0","4","","","","","","","",""
"pit-trial","90","1261326","0.0-2.0-17.1-4.1","battery-v0.2","","""event"",""trial"",""time""
""fullscreenenter"",""1"",""3369""
","
","
","""event"",""trial"",""time""
""fullscreenenter"",""1"",""3369""
","
","","","-1","","","19","9686","4578","&#9789;","elianto","#f73b6a7A"," ","-1","0","-10","[]","0","0","4","","","","","","","",""
"pit-trial","91","1266198","0.0-2.0-17.2-0.2","battery-v0.2","","""event"",""trial"",""time""
""fullscreenenter"",""1"",""3369""
","
","
","""event"",""trial"",""time""
""fullscreenenter"",""1"",""3369""
","
","","","-1","","","19","9686","4578","&#9789;","elianto","#f73b6a7A"," ","-1","0","-10","[]","0","0","4","","","","","","","",""
"pit-trial","92","1271065","0.0-2.0-17.2-1.2","battery-v0.2","","""event"",""trial"",""time""
""fullscreenenter"",""1"",""3369""
","
","
","""event"",""trial"",""time""
""fullscreenenter"",""1"",""3369""
","
","","","-1","","","19","9686","4578","&#9789;","elianto","#f73b6a7A"," ","-1","0","-10","[]","0","0","4","","","","","","","",""
"pit-trial","93","1275927","0.0-2.0-17.2-2.2","battery-v0.2","","""event"",""trial"",""time""
""fullscreenenter"",""1"",""3369""
","
","
","""event"",""trial"",""time""
""fullscreenenter"",""1"",""3369""
","
","","","-1","","","19","9686","4578","&#9789;","elianto","#f73b6a7A"," ","-1","0","-10","[]","0","0","4","","","","","","","",""
"pit-trial","94","1280788","0.0-2.0-17.2-3.2","battery-v0.2","","""event"",""trial"",""time""
""fullscreenenter"",""1"",""3369""
","
","
","""event"",""trial"",""time""
""fullscreenenter"",""1"",""3369""
","
","","","-1","","","19","9686","4578","&#9789;","elianto","#f73b6a7A"," ","-1","0","0","[]","0","0","4","","","","","","","",""
"pit-trial","95","1285650","0.0-2.0-17.2-4.2","battery-v0.2","","""event"",""trial"",""time""
""fullscreenenter"",""1"",""3369""
","
","
","""event"",""trial"",""time""
""fullscreenenter"",""1"",""3369""
","
","","","-1","","","19","9686","4578","&#9789;","elianto","#f73b6a7A"," ","-1","0","-10","[]","0","0","4","","","","","","","",""
"pit-trial","96","1289030","0.0-2.0-17.3-0.3","battery-v0.2","","""event"",""trial"",""time""
""fullscreenenter"",""1"",""3369""
","
","
","""event"",""trial"",""time""
""fullscreenenter"",""1"",""3369""
","
","","","513.8999999985099","","","19","9686","4578","&#9789;","elianto","#f73b6a7A"," "," ","1","0","[1366.6000000014901]","1","0","4","","","","","","","",""
"pit-trial","97","1293895","0.0-2.0-17.3-1.3","battery-v0.2","","""event"",""trial"",""time""
""fullscreenenter"",""1"",""3369""
","
","
","""event"",""trial"",""time""
""fullscreenenter"",""1"",""3369""
","
","","","-1","","","19","9686","4578","&#9789;","elianto","#f73b6a7A"," ","-1","0","-10","[]","0","0","4","","","","","","","",""
"pit-trial","98","1298757","0.0-2.0-17.3-2.3","battery-v0.2","","""event"",""trial"",""time""
""fullscreenenter"",""1"",""3369""
","
","
","""event"",""trial"",""time""
""fullscreenenter"",""1"",""3369""
","
","","","-1","","","19","9686","4578","&#9789;","elianto","#f73b6a7A"," ","-1","0","-10","[]","0","0","4","","","","","","","",""
"pit-trial","99","1303623","0.0-2.0-17.3-3.3","battery-v0.2","","""event"",""trial"",""time""
""fullscreenenter"",""1"",""3369""
","
","
","""event"",""trial"",""time""
""fullscreenenter"",""1"",""3369""
","
","","","-1","","","19","9686","4578","&#9789;","elianto","#f73b6a7A"," ","-1","0","0","[]","0","0","4","","","","","","","",""
"pit-trial","100","1308487","0.0-2.0-17.3-4.3","battery-v0.2","","""event"",""trial"",""time""
""fullscreenenter"",""1"",""3369""
","
","
","""event"",""trial"",""time""
""fullscreenenter"",""1"",""3369""
","
","","","-1","","","19","9686","4578","&#9789;","elianto","#f73b6a7A"," ","-1","0","-10","[]","0","0","4","","","","","","","",""
"call-function","101","1308492","0.0-2.0-18.0","battery-v0.2","","""event"",""trial"",""time""
""fullscreenenter"",""1"",""3369""
","
","
","""event"",""trial"",""time""
""fullscreenenter"",""1"",""3369""
","
","","","","","","","","","","","","","","","","","","","","","","","","","","",""
"pit-instructions","102","1696422","0.0-2.0-19.0","battery-v0.2","","""event"",""trial"",""time""
""fullscreenenter"",""1"",""3369""
","
","
","""event"",""trial"",""time""
""fullscreenenter"",""1"",""3369""
","
","","[{""page_index"":0,""viewing_time"":9623.5},{""page_index"":1,""viewing_time"":97177.20000000298},{""page_index"":2,""viewing_time"":205835.3999999985},{""page_index"":3,""viewing_time"":13242.10000000149},{""page_index"":4,""viewing_time"":14405.39999999851},{""page_index"":5,""viewing_time"":11547.60000000149},{""page_index"":6,""viewing_time"":18060.20000000298},{""page_index"":7,""viewing_time"":9184.5},{""page_index"":8,""viewing_time"":8851.89999999851}]","387928.80000000447","","","","","","","","","","","","","","","","","","","","","","","",""
"pit-comprehension","103","1701670","0.0-2.0-20.0-0.0","battery-v0.2","","""event"",""trial"",""time""
""fullscreenenter"",""1"",""3369""
","
","
","""event"",""trial"",""time""
""fullscreenenter"",""1"",""3369""
","
","","","5233.89999999851","[""SPACE""]","0","19","9686","4578","","","","","","","","","","","","","","","","","","",""
"pit-instructions","104","1704586","0.0-2.0-20.0-1.0","battery-v0.2","","""event"",""trial"",""time""
""fullscreenenter"",""1"",""3369""
","
","
","""event"",""trial"",""time""
""fullscreenenter"",""1"",""3369""
","
","","[{""page_index"":0,""viewing_time"":2752.6999999955297}]","2753.6999999955297","","","","","","","","","","","","","","","","","","","","","","","",""
"pit-comprehension","105","1709585","0.0-2.0-21.0-0.0","battery-v0.2","","""event"",""trial"",""time""
""fullscreenenter"",""1"",""3369""
","
","
","""event"",""trial"",""time""
""fullscreenenter"",""1"",""3369""
","
","","","4975.30000000447","[""10""]","0","19","9686","4578","","","","","","","","","","","","","","","","","","",""
"pit-instructions","106","1712149","0.0-2.0-21.0-1.0","battery-v0.2","","""event"",""trial"",""time""
""fullscreenenter"",""1"",""3369""
","
","
","""event"",""trial"",""time""
""fullscreenenter"",""1"",""3369""
","
","","[{""page_index"":0,""viewing_time"":2485.10000000149}]","2486.10000000149","","","","","","","","","","","","","","","","","","","","","","","",""
"pit-comprehension","107","1718791","0.0-2.0-22.0-0.0","battery-v0.2","","""event"",""trial"",""time""
""fullscreenenter"",""1"",""3369""
","
","
","""event"",""trial"",""time""
""fullscreenenter"",""1"",""3369""
","
","","","6625.4000000059605","[""-10""]","1","19","9686","4578","","","","","","","","","","","","","","","","","","",""
"pit-instructions","108","1724315","0.0-2.0-22.0-1.0","battery-v0.2","","""event"",""trial"",""time""
""fullscreenenter"",""1"",""3369""
","
","
","""event"",""trial"",""time""
""fullscreenenter"",""1"",""3369""
","
","","[{""page_index"":0,""viewing_time"":5361.69999999553}]","5362.79999999702","","","","","","","","","","","","","","","","","","","","","","","",""
"pit-instructions","109","1725749","0.0-2.0-22.0-2.0-0.0","battery-v0.2","","""event"",""trial"",""time""
""fullscreenenter"",""1"",""3369""
","
","
","""event"",""trial"",""time""
""fullscreenenter"",""1"",""3369""
","
","","[{""page_index"":0,""viewing_time"":1426.6000000014901}]","1427.5","","","","","","","","","","","","","","","","","","","","","","","",""
"pit-comprehension","110","1732388","0.0-2.0-22.1-0.1","battery-v0.2","","""event"",""trial"",""time""
""fullscreenenter"",""1"",""3369""
","
","
","""event"",""trial"",""time""
""fullscreenenter"",""1"",""3369""
","
","","","6627.10000000149","[""0""]","0","19","9686","4578","","","","","","","","","","","","","","","","","","",""
"pit-instructions","111","1735335","0.0-2.0-22.1-1.1","battery-v0.2","","""event"",""trial"",""time""
""fullscreenenter"",""1"",""3369""
","
","
","""event"",""trial"",""time""
""fullscreenenter"",""1"",""3369""
","
","","[{""page_index"":0,""viewing_time"":2859.2999999970198}]","2860.39999999851","","","","","","","","","","","","","","","","","","","","","","","",""
"pit-comprehension","112","1746630","0.0-2.0-23.0-0.0","battery-v0.2","","""event"",""trial"",""time""
""fullscreenenter"",""1"",""3369""
","
","
","""event"",""trial"",""time""
""fullscreenenter"",""1"",""3369""
","
","","","11282.10000000149","[""True""]","0","19","9686","4578","","","","","","","","","","","","","","","","","","",""
"pit-instructions","113","1751740","0.0-2.0-23.0-1.0","battery-v0.2","","""event"",""trial"",""time""
""fullscreenenter"",""1"",""3369""
","
","
","""event"",""trial"",""time""
""fullscreenenter"",""1"",""3369""
","
","","[{""page_index"":0,""viewing_time"":4949}]","4950","","","","","","","","","","","","","","","","","","","","","","","",""
"pit-comprehension","114","1800787","0.0-2.0-24.0-0.0","battery-v0.2","","""event"",""trial"",""time""
""fullscreenenter"",""1"",""3369""
","
","
","""event"",""trial"",""time""
""fullscreenenter"",""1"",""3369""
","
","","","49033.59999999404","[""True""]","0","19","9686","4578","","","","","","","","","","","","","","","","","","",""
"pit-instructions","115","1827534","0.0-2.0-24.0-1.0","battery-v0.2","","""event"",""trial"",""time""
""fullscreenenter"",""1"",""3369""
","
","
","""event"",""trial"",""time""
""fullscreenenter"",""1"",""3369""
","
","","[{""page_index"":0,""viewing_time"":26672.59999999404}]","26673.5","","","","","","","","","","","","","","","","","","","","","","","",""
"pit-comprehension","116","1883363","0.0-2.0-25.0-0.0","battery-v0.2","","""event"",""trial"",""time""
""fullscreenenter"",""1"",""3369""
","
","
","""event"",""trial"",""time""
""fullscreenenter"",""1"",""3369""
","
","","","55815","[""True""]","0","19","9686","4578","","","","","","","","","","","","","","","","","","",""
"pit-instructions","117","1885272","0.0-2.0-25.0-1.0","battery-v0.2","","""event"",""trial"",""time""
""fullscreenenter"",""1"",""3369""
","
","
","""event"",""trial"",""time""
""fullscreenenter"",""1"",""3369""
","
","","[{""page_index"":0,""viewing_time"":1808.8999999985099}]","1809.8999999985099","","","","","","","","","","","","","","","","","","","","","","","",""
"pit-comprehension","118","1890817","0.0-2.0-26.0-0.0","battery-v0.2","","""event"",""trial"",""time""
""fullscreenenter"",""1"",""3369""
","
","
","""event"",""trial"",""time""
""fullscreenenter"",""1"",""3369""
","
","","","5529.89999999851","[""False""]","0","19","9686","4578","","","","","","","","","","","","","","","","","","",""
"pit-instructions","119","1900109","0.0-2.0-26.0-1.0","battery-v0.2","","""event"",""trial"",""time""
""fullscreenenter"",""1"",""3369""
","
","
","""event"",""trial"",""time""
""fullscreenenter"",""1"",""3369""
","
","","[{""page_index"":0,""viewing_time"":9119.70000000298}]","9120.70000000298","","","","","","","","","","","","","","","","","","","","","","","",""
"pit-instructions","120","2001700","0.0-3.0","battery-v0.2","","""event"",""trial"",""time""
""fullscreenenter"",""1"",""3369""
","
","
","""event"",""trial"",""time""
""fullscreenenter"",""1"",""3369""
","
","","[{""page_index"":0,""viewing_time"":3844.60000000149},{""page_index"":1,""viewing_time"":78569.20000000298},{""page_index"":2,""viewing_time"":19164}]","101579.70000000298","","","","","","","","","","","","","","","","","","","","","","","",""
"pit-trial","121","2006581","0.0-4.0","battery-v0.2","","""event"",""trial"",""time""
""fullscreenenter"",""1"",""3369""
","
","
","""event"",""trial"",""time""
""fullscreenenter"",""1"",""3369""
","
","","","-1","","","19","9686","4578","&#9728;","elianto","#f73b6a7A","-1","-1","1","0","[]","0","1","","","9686","1","0","4","lose","no-go","0"
"pit-trial","122","2010165","0.0-5.0","battery-v0.2","","""event"",""trial"",""time""
""fullscreenenter"",""1"",""3369""
","
","
","""event"",""trial"",""time""
""fullscreenenter"",""1"",""3369""
","
","","","723","","","19","9686","4578","&#9733;","elianto","#3366ff99","-1"," ","0","0","[1573.6000000014901]","1","1","","","9686","2","2","2","win","no-go","0"
"pit-trial","123","2013908","0.0-6.0","battery-v0.2","","""event"",""trial"",""time""
""fullscreenenter"",""1"",""3369""
","
","
","""event"",""trial"",""time""
""fullscreenenter"",""1"",""3369""
","
","","","867.0999999940395","","","19","9686","4578","&#9730;","elianto","#3366ff99"," "," ","1","0","[1724.3000000044703]","1","1","","","9686","3","1","1","win","go","1"
"pit-trial","124","2018784","0.0-7.0","battery-v0.2","","""event"",""trial"",""time""
""fullscreenenter"",""1"",""3369""
","
","
","""event"",""trial"",""time""
""fullscreenenter"",""1"",""3369""
","
","","","-1","","","19","9686","4578","&#9752;","elianto","#f73b6a7A"," ","-1","0","-10","[]","0","1","","","9686","4","3","3","lose","go","0"
"pit-trial","125","2023653","0.0-8.0","battery-v0.2","","""event"",""trial"",""time""
""fullscreenenter"",""1"",""3369""
","
","
","""event"",""trial"",""time""
""fullscreenenter"",""1"",""3369""
","
","","","-1","","","19","9686","4578","&#9730;","elianto","#3366ff99"," ","-1","0","0","[]","0","1","","","9686","5","1","1","win","go","0"
"pit-trial","126","2028344","0.0-9.0","battery-v0.2","","""event"",""trial"",""time""
""fullscreenenter"",""1"",""3369""
","
","
","""event"",""trial"",""time""
""fullscreenenter"",""1"",""3369""
","
","","","1828.7999999970198","","","19","9686","4578","&#9728;","elianto","#f73b6a7A","-1"," ","0","0","[2681.7000000029802]","1","1","","","9686","6","0","4","lose","no-go","1"
"pit-trial","127","2032261","0.0-10.0","battery-v0.2","","""event"",""trial"",""time""
""fullscreenenter"",""1"",""3369""
","
","
","""event"",""trial"",""time""
""fullscreenenter"",""1"",""3369""
","
","","","1042.1000000014901","","","19","9686","4578","&#9733;","elianto","#3366ff99","-1"," ","0","+10","[1905.7000000029802]","1","1","","","9686","7","2","2","win","no-go","1"
"pit-trial","128","2036361","0.0-11.0","battery-v0.2","","""event"",""trial"",""time""
""fullscreenenter"",""1"",""3369""
","
","
","""event"",""trial"",""time""
""fullscreenenter"",""1"",""3369""
","
","","","1229.8999999985099","","","19","9686","4578","&#9752;","elianto","#f73b6a7A"," "," ","1","0","[2088.4000000059605]","1","1","","","9686","8","3","3","lose","go","0"
"pit-trial","129","2039979","0.0-12.0","battery-v0.2","","""event"",""trial"",""time""
""fullscreenenter"",""1"",""3369""
","
","
","""event"",""trial"",""time""
""fullscreenenter"",""1"",""3369""
","
","","","756.6000000014901","","","19","9686","4578","&#9752;","elianto","#f73b6a7A"," "," ","1","0","[1609.1999999955297]","1","1","","","9686","9","3","3","lose","go","0"
"pit-trial","130","2044845","0.0-13.0","battery-v0.2","","""event"",""trial"",""time""
""fullscreenenter"",""1"",""3369""
","
","
","""event"",""trial"",""time""
""fullscreenenter"",""1"",""3369""
","
","","","-1","","","19","9686","4578","&#9730;","elianto","#3366ff99"," ","-1","0","0","[]","0","1","","","9686","10","1","1","win","go","0"
"pit-trial","131","2048705","0.0-14.0","battery-v0.2","","""event"",""trial"",""time""
""fullscreenenter"",""1"",""3369""
","
","
","""event"",""trial"",""time""
""fullscreenenter"",""1"",""3369""
","
","","","992.8000000044703","","","19","9686","4578","&#9733;","elianto","#3366ff99","-1"," ","0","0","[1850.5]","1","1","","","9686","11","2","2","win","no-go","0"
"pit-trial","132","2053551","0.0-15.0","battery-v0.2","","""event"",""trial"",""time""
""fullscreenenter"",""1"",""3369""
","
","
","""event"",""trial"",""time""
""fullscreenenter"",""1"",""3369""
","
","","","1982.2000000029802","","","19","9686","4578","&#9728;","elianto","#f73b6a7A","-1"," ","0","-10","[2836.39999999851]","1","1","","","9686","12","0","4","lose","no-go","0"
"pit-trial","133","2057475","0.0-16.0","battery-v0.2","","""event"",""trial"",""time""
""fullscreenenter"",""1"",""3369""
","
","
","""event"",""trial"",""time""
""fullscreenenter"",""1"",""3369""
","
","","","1062.3999999985099","","","19","9686","4578","&#9752;","elianto","#f73b6a7A"," "," ","1","0","[1915.6999999955297]","1","1","","","9686","13","3","3","lose","go","0"
"pit-trial","134","2062335","0.0-17.0","battery-v0.2","","""event"",""trial"",""time""
""fullscreenenter"",""1"",""3369""
","
","
","""event"",""trial"",""time""
""fullscreenenter"",""1"",""3369""
","
","","","-1","","","19","9686","4578","&#9733;","elianto","#3366ff99","-1","-1","1","0","[]","0","1","","","9686","14","2","2","win","no-go","1"
"pit-trial","135","2067202","0.0-18.0","battery-v0.2","","""event"",""trial"",""time""
""fullscreenenter"",""1"",""3369""
","
","
","""event"",""trial"",""time""
""fullscreenenter"",""1"",""3369""
","
","","","-1","","","19","9686","4578","&#9728;","elianto","#f73b6a7A","-1","-1","1","0","[]","0","1","","","9686","15","0","4","lose","no-go","0"
"pit-trial","136","2071377","0.0-19.0","battery-v0.2","","""event"",""trial"",""time""
""fullscreenenter"",""1"",""3369""
","
","
","""event"",""trial"",""time""
""fullscreenenter"",""1"",""3369""
","
","","","1313.8000000044703","","","19","9686","4578","&#9730;","elianto","#3366ff99"," "," ","1","+10","[2167.39999999851]","1","1","","","9686","16","1","1","win","go","0"
"pit-trial","137","2075672","0.0-20.0","battery-v0.2","","""event"",""trial"",""time""
""fullscreenenter"",""1"",""3369""
","
","
","""event"",""trial"",""time""
""fullscreenenter"",""1"",""3369""
","
","","","1433.3000000044703","","","19","9686","4578","&#9728;","elianto","#f73b6a7A","-1"," ","0","-10","[2285]","1","1","","","9686","17","0","4","lose","no-go","0"
"pit-trial","138","2080052","0.0-21.0","battery-v0.2","","""event"",""trial"",""time""
""fullscreenenter"",""1"",""3369""
","
","
","""event"",""trial"",""time""
""fullscreenenter"",""1"",""3369""
","
","","","1520.5","","","19","9686","4578","&#9733;","elianto","#3366ff99","-1"," ","0","0","[2371.7999999970198]","1","1","","","9686","18","2","2","win","no-go","0"
"pit-trial","139","2083771","0.0-22.0","battery-v0.2","","""event"",""trial"",""time""
""fullscreenenter"",""1"",""3369""
","
","
","""event"",""trial"",""time""
""fullscreenenter"",""1"",""3369""
","
","","","853.3999999985099","","","19","9686","4578","&#9730;","elianto","#3366ff99"," "," ","1","+10","[1707.2999999970198]","1","1","","","9686","19","1","1","win","go","0"
"pit-trial","140","2087553","0.0-23.0","battery-v0.2","","""event"",""trial"",""time""
""fullscreenenter"",""1"",""3369""
","
","
","""event"",""trial"",""time""
""fullscreenenter"",""1"",""3369""
","
","","","912.6000000014901","","","19","9686","4578","&#9752;","elianto","#f73b6a7A"," "," ","1","0","[1767]","1","1","","","9686","20","3","3","lose","go","0"
"pit-instructions","141","2157520","0.0-24.0","battery-v0.2","","""event"",""trial"",""time""
""fullscreenenter"",""1"",""3369""
","
","
","""event"",""trial"",""time""
""fullscreenenter"",""1"",""3369""
","
","","[{""page_index"":0,""viewing_time"":34431.40000000596},{""page_index"":1,""viewing_time"":35530.59999999404}]","69962.90000000596","","","","","","","","","","","","","","","","","","","","","","","",""
"pit-trial","142","2162405","0.0-25.0","battery-v0.2","","""event"",""trial"",""time""
""fullscreenenter"",""1"",""3369""
","
","
","""event"",""trial"",""time""
""fullscreenenter"",""1"",""3369""
","
","","","-1","","","19","9686","4578","n","elianto","#f73b6a7A","-1","-1","1","-10","[]","0","2","","","9686","21","0","4","lose","no-go","1"
"pit-trial","143","2167265","0.0-26.0","battery-v0.2","","""event"",""trial"",""time""
""fullscreenenter"",""1"",""3369""
","
","
","""event"",""trial"",""time""
""fullscreenenter"",""1"",""3369""
","
","","","-1","","","19","9686","4578","t","elianto","#f73b6a7A","-1","-1","1","0","[]","0","2","","","9686","22","2","4","lose","no-go","0"
"pit-trial","144","2172139","0.0-27.0","battery-v0.2","","""event"",""trial"",""time""
""fullscreenenter"",""1"",""3369""
","
","
","""event"",""trial"",""time""
""fullscreenenter"",""1"",""3369""
","
","","","-1","","","19","9686","4578","b","elianto","#f73b6a7A"," ","-1","0","0","[]","0","2","","","9686","23","3","3","lose","go","1"
"pit-trial","145","2175938","0.0-28.0","battery-v0.2","","""event"",""trial"",""time""
""fullscreenenter"",""1"",""3369""
","
","
","""event"",""trial"",""time""
""fullscreenenter"",""1"",""3369""
","
","","","925.8000000044703","","","19","9686","4578","f","elianto","#3366ff99"," "," ","1","+10","[1780]","1","2","","","9686","24","1","1","win","go","0"
"pit-trial","146","2180804","0.0-29.0","battery-v0.2","","""event"",""trial"",""time""
""fullscreenenter"",""1"",""3369""
","
","
","""event"",""trial"",""time""
""fullscreenenter"",""1"",""3369""
","
","","","-1","","","19","9686","4578","n","elianto","#f73b6a7A","-1","-1","1","0","[]","0","2","","","9686","25","0","4","lose","no-go","0"
"pit-trial","147","2184427","0.0-30.0","battery-v0.2","","""event"",""trial"",""time""
""fullscreenenter"",""1"",""3369""
","
","
","""event"",""trial"",""time""
""fullscreenenter"",""1"",""3369""
","
","","","761.8999999985099","","","19","9686","4578","f","elianto","#3366ff99"," "," ","1","+10","[1616.2999999970198]","1","2","","","9686","26","1","1","win","go","0"
"pit-trial","148","2189294","0.0-31.0","battery-v0.2","","""event"",""trial"",""time""
""fullscreenenter"",""1"",""3369""
","
","
","""event"",""trial"",""time""
""fullscreenenter"",""1"",""3369""
","
","","","-1","","","19","9686","4578","b","elianto","#f73b6a7A"," ","-1","0","0","[]","0","2","","","9686","27","3","3","lose","go","1"
"pit-trial","149","2194164","0.0-32.0","battery-v0.2","","""event"",""trial"",""time""
""fullscreenenter"",""1"",""3369""
","
","
","""event"",""trial"",""time""
""fullscreenenter"",""1"",""3369""
","
","","","-1","","","19","9686","4578","t","elianto","#f73b6a7A","-1","-1","1","0","[]","0","2","","","9686","28","2","4","lose","no-go","0"
"pit-trial","150","2198434","0.0-33.0","battery-v0.2","","""event"",""trial"",""time""
""fullscreenenter"",""1"",""3369""
","
","
","""event"",""trial"",""time""
""fullscreenenter"",""1"",""3369""
","
","","","1408.8000000044703","","","19","9686","4578","t","elianto","#f73b6a7A","-1"," ","0","-10","[2261.10000000149]","1","2","","","9686","29","2","4","lose","no-go","0"
"pit-trial","151","2202046","0.0-34.0","battery-v0.2","","""event"",""trial"",""time""
""fullscreenenter"",""1"",""3369""
","
","
","""event"",""trial"",""time""
""fullscreenenter"",""1"",""3369""
","
","","","749.6000000014901","","","19","9686","4578","f","elianto","#3366ff99"," "," ","1","+10","[1600.2999999970198]","1","2","","","9686","30","1","1","win","go","0"
"pit-trial","152","2206914","0.0-35.0","battery-v0.2","","""event"",""trial"",""time""
""fullscreenenter"",""1"",""3369""
","
","
","""event"",""trial"",""time""
""fullscreenenter"",""1"",""3369""
","
","","","-1","","","19","9686","4578","b","elianto","#f73b6a7A"," ","-1","0","-10","[]","0","2","","","9686","31","3","3","lose","go","0"
"pit-trial","153","2211776","0.0-36.0","battery-v0.2","","""event"",""trial"",""time""
""fullscreenenter"",""1"",""3369""
","
","
","""event"",""trial"",""time""
""fullscreenenter"",""1"",""3369""
","
","","","-1","","","19","9686","4578","n","elianto","#f73b6a7A","-1","-1","1","0","[]","0","2","","","9686","32","0","4","lose","no-go","0"
"pit-trial","154","2216638","0.0-37.0","battery-v0.2","","""event"",""trial"",""time""
""fullscreenenter"",""1"",""3369""
","
","
","""event"",""trial"",""time""
""fullscreenenter"",""1"",""3369""
","
","","","-1","","","19","9686","4578","t","elianto","#f73b6a7A","-1","-1","1","0","[]","0","2","","","9686","33","2","4","lose","no-go","0"
"pit-trial","155","2221501","0.0-38.0","battery-v0.2","","""event"",""trial"",""time""
""fullscreenenter"",""1"",""3369""
","
","
","""event"",""trial"",""time""
""fullscreenenter"",""1"",""3369""
","
","","","-1","","","19","9686","4578","b","elianto","#f73b6a7A"," ","-1","0","-10","[]","0","2","","","9686","34","3","3","lose","go","0"
"pit-trial","156","2224953","0.0-39.0","battery-v0.2","","""event"",""trial"",""time""
""fullscreenenter"",""1"",""3369""
","
","
","""event"",""trial"",""time""
""fullscreenenter"",""1"",""3369""
","
","","","591.8999999985099","","","19","9686","4578","f","elianto","#3366ff99"," "," ","1","0","[1442.6000000014901]","1","2","","","9686","35","1","1","win","go","1"
"pit-trial","157","2229813","0.0-40.0","battery-v0.2","","""event"",""trial"",""time""
""fullscreenenter"",""1"",""3369""
","
","
","""event"",""trial"",""time""
""fullscreenenter"",""1"",""3369""
","
","","","-1","","","19","9686","4578","n","elianto","#f73b6a7A","-1","-1","1","0","[]","0","2","","","9686","36","0","4","lose","no-go","0"
"pit-trial","158","2234674","0.0-41.0","battery-v0.2","","""event"",""trial"",""time""
""fullscreenenter"",""1"",""3369""
","
","
","""event"",""trial"",""time""
""fullscreenenter"",""1"",""3369""
","
","","","-1","","","19","9686","4578","n","elianto","#f73b6a7A","-1","-1","1","0","[]","0","2","","","9686","37","0","4","lose","no-go","0"
"pit-trial","159","2238642","0.0-42.0","battery-v0.2","","""event"",""trial"",""time""
""fullscreenenter"",""1"",""3369""
","
","
","""event"",""trial"",""time""
""fullscreenenter"",""1"",""3369""
","
","","","1100.5","","","19","9686","4578","f","elianto","#3366ff99"," "," ","1","+10","[1958.7999999970198]","1","2","","","9686","38","1","1","win","go","0"
"pit-trial","160","2243504","0.0-43.0","battery-v0.2","","""event"",""trial"",""time""
""fullscreenenter"",""1"",""3369""
","
","
","""event"",""trial"",""time""
""fullscreenenter"",""1"",""3369""
","
","","","-1","","","19","9686","4578","t","elianto","#f73b6a7A","-1","-1","1","0","[]","0","2","","","9686","39","2","4","lose","no-go","0"
"pit-trial","161","2248373","0.0-44.0","battery-v0.2","","""event"",""trial"",""time""
""fullscreenenter"",""1"",""3369""
","
","
","""event"",""trial"",""time""
""fullscreenenter"",""1"",""3369""
","
","","","-1","","","19","9686","4578","b","elianto","#f73b6a7A"," ","-1","0","-10","[]","0","2","","","9686","40","3","3","lose","go","0"
"pit-trial","162","2251775","0.0-45.0","battery-v0.2","","""event"",""trial"",""time""
""fullscreenenter"",""1"",""3369""
","
","
","""event"",""trial"",""time""
""fullscreenenter"",""1"",""3369""
","
","","","535.2000000029802","","","19","9686","4578","f","elianto","#3366ff99"," "," ","1","0","[1395.1999999955297]","1","2","","","9686","41","1","1","win","go","1"
"pit-trial","163","2256643","0.0-46.0","battery-v0.2","","""event"",""trial"",""time""
""fullscreenenter"",""1"",""3369""
","
","
","""event"",""trial"",""time""
""fullscreenenter"",""1"",""3369""
","
","","","-1","","","19","9686","4578","t","elianto","#f73b6a7A","-1","-1","1","0","[]","0","2","","","9686","42","2","4","lose","no-go","0"
"pit-trial","164","2261505","0.0-47.0","battery-v0.2","","""event"",""trial"",""time""
""fullscreenenter"",""1"",""3369""
","
","
","""event"",""trial"",""time""
""fullscreenenter"",""1"",""3369""
","
","","","-1","","","19","9686","4578","n","elianto","#f73b6a7A","-1","-1","1","0","[]","0","2","","","9686","43","0","4","lose","no-go","0"
"pit-trial","165","2266377","0.0-48.0","battery-v0.2","","""event"",""trial"",""time""
""fullscreenenter"",""1"",""3369""
","
","
","""event"",""trial"",""time""
""fullscreenenter"",""1"",""3369""
","
","","","-1","","","19","9686","4578","b","elianto","#f73b6a7A"," ","-1","0","-10","[]","0","2","","","9686","44","3","3","lose","go","0"
"pit-trial","166","2271241","0.0-49.0","battery-v0.2","","""event"",""trial"",""time""
""fullscreenenter"",""1"",""3369""
","
","
","""event"",""trial"",""time""
""fullscreenenter"",""1"",""3369""
","
","","","-1","","","19","9686","4578","t","elianto","#f73b6a7A","-1","-1","1","0","[]","0","2","","","9686","45","2","4","lose","no-go","0"
"pit-trial","167","2276105","0.0-50.0","battery-v0.2","","""event"",""trial"",""time""
""fullscreenenter"",""1"",""3369""
","
","
","""event"",""trial"",""time""
""fullscreenenter"",""1"",""3369""
","
","","","-1","","","19","9686","4578","n","elianto","#f73b6a7A","-1","-1","1","0","[]","0","2","","","9686","46","0","4","lose","no-go","0"
"pit-trial","168","2280366","0.0-51.0","battery-v0.2","","""event"",""trial"",""time""
""fullscreenenter"",""1"",""3369""
","
","
","""event"",""trial"",""time""
""fullscreenenter"",""1"",""3369""
","
","","","1395","","","19","9686","4578","c","elianto","#3366ff99","-1"," ","0","0","[2246.7000000029802]","1","2","","","9686","47","4","2","win","no-go","0"
"pit-trial","169","2285245","0.0-52.0","battery-v0.2","","""event"",""trial"",""time""
""fullscreenenter"",""1"",""3369""
","
","
","""event"",""trial"",""time""
""fullscreenenter"",""1"",""3369""
","
","","","-1","","","19","9686","4578","b","elianto","#f73b6a7A"," ","-1","0","-10","[]","0","2","","","9686","48","3","3","lose","go","0"
"pit-trial","170","2290118","0.0-53.0","battery-v0.2","","""event"",""trial"",""time""
""fullscreenenter"",""1"",""3369""
","
","
","""event"",""trial"",""time""
""fullscreenenter"",""1"",""3369""
","
","","","-1","","","19","9686","4578","f","elianto","#3366ff99"," ","-1","0","0","[]","0","2","","","9686","49","1","1","win","go","0"
"pit-trial","171","2294986","0.0-54.0","battery-v0.2","","""event"",""trial"",""time""
""fullscreenenter"",""1"",""3369""
","
","
","""event"",""trial"",""time""
""fullscreenenter"",""1"",""3369""
","
","","","-1","","","19","9686","4578","b","elianto","#f73b6a7A"," ","-1","0","0","[]","0","2","","","9686","50","3","3","lose","go","1"
"pit-trial","172","2299860","0.0-55.0","battery-v0.2","","""event"",""trial"",""time""
""fullscreenenter"",""1"",""3369""
","
","
","""event"",""trial"",""time""
""fullscreenenter"",""1"",""3369""
","
","","","-1","","","19","9686","4578","n","elianto","#f73b6a7A","-1","-1","1","0","[]","0","2","","","9686","51","0","4","lose","no-go","0"
"pit-trial","173","2304143","0.0-56.0","battery-v0.2","","""event"",""trial"",""time""
""fullscreenenter"",""1"",""3369""
","
","
","""event"",""trial"",""time""
""fullscreenenter"",""1"",""3369""
","
","","","1424.1000000014901","","","19","9686","4578","c","elianto","#3366ff99","-1"," ","0","+10","[2275.6999999955297]","1","2","","","9686","52","4","2","win","no-go","1"
"pit-trial","174","2309008","0.0-57.0","battery-v0.2","","""event"",""trial"",""time""
""fullscreenenter"",""1"",""3369""
","
","
","""event"",""trial"",""time""
""fullscreenenter"",""1"",""3369""
","
","","","-1","","","19","9686","4578","n","elianto","#f73b6a7A","-1","-1","1","0","[]","0","2","","","9686","53","0","4","lose","no-go","0"
"pit-trial","175","2313881","0.0-58.0","battery-v0.2","","""event"",""trial"",""time""
""fullscreenenter"",""1"",""3369""
","
","
","""event"",""trial"",""time""
""fullscreenenter"",""1"",""3369""
","
","","","-1","","","19","9686","4578","f","elianto","#3366ff99"," ","-1","0","0","[]","0","2","","","9686","54","1","1","win","go","0"
"pit-trial","176","2317770","0.0-59.0","battery-v0.2","","""event"",""trial"",""time""
""fullscreenenter"",""1"",""3369""
","
","
","""event"",""trial"",""time""
""fullscreenenter"",""1"",""3369""
","
","","","1026.6000000014901","","","19","9686","4578","c","elianto","#3366ff99","-1"," ","0","+10","[1879.9000000059605]","1","2","","","9686","55","4","2","win","no-go","1"
"pit-trial","177","2322638","0.0-60.0","battery-v0.2","","""event"",""trial"",""time""
""fullscreenenter"",""1"",""3369""
","
","
","""event"",""trial"",""time""
""fullscreenenter"",""1"",""3369""
","
","","","-1","","","19","9686","4578","t","elianto","#f73b6a7A","-1","-1","1","0","[]","0","2","","","9686","56","2","4","lose","no-go","0"
"pit-trial","178","2327501","0.0-61.0","battery-v0.2","","""event"",""trial"",""time""
""fullscreenenter"",""1"",""3369""
","
","
","""event"",""trial"",""time""
""fullscreenenter"",""1"",""3369""
","
","","","-1","","","19","9686","4578","c","elianto","#3366ff99","-1","-1","1","+10","[]","0","2","","","9686","57","4","2","win","no-go","0"
"pit-trial","179","2332363","0.0-62.0","battery-v0.2","","""event"",""trial"",""time""
""fullscreenenter"",""1"",""3369""
","
","
","""event"",""trial"",""time""
""fullscreenenter"",""1"",""3369""
","
","","","-1","","","19","9686","4578","b","elianto","#f73b6a7A"," ","-1","0","-10","[]","0","2","","","9686","58","3","3","lose","go","0"
"pit-trial","180","2336132","0.0-63.0","battery-v0.2","","""event"",""trial"",""time""
""fullscreenenter"",""1"",""3369""
","
","
","""event"",""trial"",""time""
""fullscreenenter"",""1"",""3369""
","
","","","905.3999999985099","","","19","9686","4578","f","elianto","#3366ff99"," "," ","1","+10","[1762.5]","1","2","","","9686","59","1","1","win","go","0"
"pit-trial","181","2340992","0.0-64.0","battery-v0.2","","""event"",""trial"",""time""
""fullscreenenter"",""1"",""3369""
","
","
","""event"",""trial"",""time""
""fullscreenenter"",""1"",""3369""
","
","","","-1","","","19","9686","4578","n","elianto","#f73b6a7A","-1","-1","1","-10","[]","0","2","","","9686","60","0","4","lose","no-go","1"
"pit-trial","182","2345857","0.0-65.0","battery-v0.2","","""event"",""trial"",""time""
""fullscreenenter"",""1"",""3369""
","
","
","""event"",""trial"",""time""
""fullscreenenter"",""1"",""3369""
","
","","","-1","","","19","9686","4578","b","elianto","#f73b6a7A"," ","-1","0","-10","[]","0","2","","","9686","61","3","3","lose","go","0"
"pit-trial","183","2349281","0.0-66.0","battery-v0.2","","""event"",""trial"",""time""
""fullscreenenter"",""1"",""3369""
","
","
","""event"",""trial"",""time""
""fullscreenenter"",""1"",""3369""
","
","","","559","","","19","9686","4578","f","elianto","#3366ff99"," "," ","1","0","[1411.8000000044703]","1","2","","","9686","62","1","1","win","go","1"
"pit-trial","184","2354145","0.0-67.0","battery-v0.2","","""event"",""trial"",""time""
""fullscreenenter"",""1"",""3369""
","
","
","""event"",""trial"",""time""
""fullscreenenter"",""1"",""3369""
","
","","","-1","","","19","9686","4578","t","elianto","#f73b6a7A","-1","-1","1","0","[]","0","2","","","9686","63","2","4","lose","no-go","0"
"pit-trial","185","2357597","0.0-68.0","battery-v0.2","","""event"",""trial"",""time""
""fullscreenenter"",""1"",""3369""
","
","
","""event"",""trial"",""time""
""fullscreenenter"",""1"",""3369""
","
","","","590.3999999985099","","","19","9686","4578","c","elianto","#3366ff99","-1"," ","0","0","[1444.5]","1","2","","","9686","64","4","2","win","no-go","0"
"pit-trial","186","2362461","0.0-69.0","battery-v0.2","","""event"",""trial"",""time""
""fullscreenenter"",""1"",""3369""
","
","
","""event"",""trial"",""time""
""fullscreenenter"",""1"",""3369""
","
","","","-1","","","19","9686","4578","f","elianto","#3366ff99"," ","-1","0","0","[2862.39999999851]","1","2","","","9686","65","1","1","win","go","0"
"pit-trial","187","2367328","0.0-70.0","battery-v0.2","","""event"",""trial"",""time""
""fullscreenenter"",""1"",""3369""
","
","
","""event"",""trial"",""time""
""fullscreenenter"",""1"",""3369""
","
","","","-1","","","19","9686","4578","t","elianto","#f73b6a7A","-1","-1","1","0","[]","0","2","","","9686","66","2","4","lose","no-go","0"
"pit-trial","188","2372192","0.0-71.0","battery-v0.2","","""event"",""trial"",""time""
""fullscreenenter"",""1"",""3369""
","
","
","""event"",""trial"",""time""
""fullscreenenter"",""1"",""3369""
","
","","","-1","","","19","9686","4578","b","elianto","#f73b6a7A"," ","-1","0","-10","[]","0","2","","","9686","67","3","3","lose","go","0"
"pit-trial","189","2375567","0.0-72.0","battery-v0.2","","""event"",""trial"",""time""
""fullscreenenter"",""1"",""3369""
","
","
","""event"",""trial"",""time""
""fullscreenenter"",""1"",""3369""
","
","","","507.80000000447035","","","19","9686","4578","c","elianto","#3366ff99","-1"," ","0","0","[1364.3000000044703]","1","2","","","9686","68","4","2","win","no-go","0"
"pit-trial","190","2378962","0.0-73.0","battery-v0.2","","""event"",""trial"",""time""
""fullscreenenter"",""1"",""3369""
","
","
","""event"",""trial"",""time""
""fullscreenenter"",""1"",""3369""
","
","","","536.3000000044703","","","19","9686","4578","c","elianto","#3366ff99","-1"," ","0","0","[1386.8999999985099]","1","2","","","9686","69","4","2","win","no-go","0"
"pit-trial","191","2383754","0.0-74.0","battery-v0.2","","""event"",""trial"",""time""
""fullscreenenter"",""1"",""3369""
","
","
","""event"",""trial"",""time""
""fullscreenenter"",""1"",""3369""
","
","","","1929.1999999955297","","","19","9686","4578","f","elianto","#3366ff99"," "," ","1","0","[2783.89999999851]","1","2","","","9686","70","1","1","win","go","1"
"pit-trial","192","2388024","0.0-75.0","battery-v0.2","","""event"",""trial"",""time""
""fullscreenenter"",""1"",""3369""
","
","
","""event"",""trial"",""time""
""fullscreenenter"",""1"",""3369""
","
","","","1400","","","19","9686","4578","z","elianto","#3366ff99"," "," ","1","+10","[2259.4000000059605]","1","2","","","9686","71","5","1","win","go","0"
"pit-trial","193","2392883","0.0-76.0","battery-v0.2","","""event"",""trial"",""time""
""fullscreenenter"",""1"",""3369""
","
","
","""event"",""trial"",""time""
""fullscreenenter"",""1"",""3369""
","
","","","-1","","","19","9686","4578","b","elianto","#f73b6a7A"," ","-1","0","0","[]","0","2","","","9686","72","3","3","lose","go","1"
"pit-trial","194","2397746","0.0-77.0","battery-v0.2","","""event"",""trial"",""time""
""fullscreenenter"",""1"",""3369""
","
","
","""event"",""trial"",""time""
""fullscreenenter"",""1"",""3369""
","
","","","-1","","","19","9686","4578","c","elianto","#3366ff99","-1","-1","1","+10","[3047.10000000149]","1","2","","","9686","73","4","2","win","no-go","0"
"pit-trial","195","2401242","0.0-78.0","battery-v0.2","","""event"",""trial"",""time""
""fullscreenenter"",""1"",""3369""
","
","
","""event"",""trial"",""time""
""fullscreenenter"",""1"",""3369""
","
","","","630.2000000029802","","","19","9686","4578","z","elianto","#3366ff99"," "," ","1","+10","[1482]","1","2","","","9686","74","5","1","win","go","0"
"pit-trial","196","2406108","0.0-79.0","battery-v0.2","","""event"",""trial"",""time""
""fullscreenenter"",""1"",""3369""
","
","
","""event"",""trial"",""time""
""fullscreenenter"",""1"",""3369""
","
","","","-1","","","19","9686","4578","b","elianto","#f73b6a7A"," ","-1","0","0","[]","0","2","","","9686","75","3","3","lose","go","1"
"pit-trial","197","2410980","0.0-80.0","battery-v0.2","","""event"",""trial"",""time""
""fullscreenenter"",""1"",""3369""
","
","
","""event"",""trial"",""time""
""fullscreenenter"",""1"",""3369""
","
","","","-1","","","19","9686","4578","f","elianto","#3366ff99"," ","-1","0","+10","[2873.7999999970198]","1","2","","","9686","76","1","1","win","go","1"
"pit-trial","198","2415845","0.0-81.0","battery-v0.2","","""event"",""trial"",""time""
""fullscreenenter"",""1"",""3369""
","
","
","""event"",""trial"",""time""
""fullscreenenter"",""1"",""3369""
","
","","","-1","","","19","9686","4578","b","elianto","#f73b6a7A"," ","-1","0","-10","[]","0","2","","","9686","77","3","3","lose","go","0"
"pit-trial","199","2420708","0.0-82.0","battery-v0.2","","""event"",""trial"",""time""
""fullscreenenter"",""1"",""3369""
","
","
","""event"",""trial"",""time""
""fullscreenenter"",""1"",""3369""
","
","","","-1","","","19","9686","4578","z","elianto","#3366ff99"," ","-1","0","0","[3251.5]","1","2","","","9686","78","5","1","win","go","0"
"pit-trial","200","2424096","0.0-83.0","battery-v0.2","","""event"",""trial"",""time""
""fullscreenenter"",""1"",""3369""
","
","
","""event"",""trial"",""time""
""fullscreenenter"",""1"",""3369""
","
","","","526.1999999955297","","","19","9686","4578","c","elianto","#3366ff99","-1"," ","0","+10","[1378.0999999940395]","1","2","","","9686","79","4","2","win","no-go","1"
"pit-trial","201","2428963","0.0-84.0","battery-v0.2","","""event"",""trial"",""time""
""fullscreenenter"",""1"",""3369""
","
","
","""event"",""trial"",""time""
""fullscreenenter"",""1"",""3369""
","
","","","-1","","","19","9686","4578","h","elianto","#f73b6a7A","-1","-1","1","-10","[]","0","2","","","9686","80","6","4","lose","no-go","1"
"pit-trial","202","2433828","0.0-85.0","battery-v0.2","","""event"",""trial"",""time""
""fullscreenenter"",""1"",""3369""
","
","
","""event"",""trial"",""time""
""fullscreenenter"",""1"",""3369""
","
","","","-1","","","19","9686","4578","y","elianto","#f73b6a7A"," ","-1","0","-10","[]","0","2","","","9686","81","7","3","lose","go","0"
"pit-trial","203","2437329","0.0-86.0","battery-v0.2","","""event"",""trial"",""time""
""fullscreenenter"",""1"",""3369""
","
","
","""event"",""trial"",""time""
""fullscreenenter"",""1"",""3369""
","
","","","629.8999999985099","","","19","9686","4578","c","elianto","#3366ff99","-1"," ","0","0","[1485]","1","2","","","9686","82","4","2","win","no-go","0"
"pit-trial","204","2440924","0.0-87.0","battery-v0.2","","""event"",""trial"",""time""
""fullscreenenter"",""1"",""3369""
","
","
","""event"",""trial"",""time""
""fullscreenenter"",""1"",""3369""
","
","","","737","","","19","9686","4578","z","elianto","#3366ff99"," "," ","1","+10","[1588.6000000014901]","1","2","","","9686","83","5","1","win","go","0"
"pit-trial","205","2445792","0.0-88.0","battery-v0.2","","""event"",""trial"",""time""
""fullscreenenter"",""1"",""3369""
","
","
","""event"",""trial"",""time""
""fullscreenenter"",""1"",""3369""
","
","","","-1","","","19","9686","4578","h","elianto","#f73b6a7A","-1","-1","1","0","[]","0","2","","","9686","84","6","4","lose","no-go","0"
"pit-trial","206","2449143","0.0-89.0","battery-v0.2","","""event"",""trial"",""time""
""fullscreenenter"",""1"",""3369""
","
","
","""event"",""trial"",""time""
""fullscreenenter"",""1"",""3369""
","
","","","487.3999999985099","","","19","9686","4578","z","elianto","#3366ff99"," "," ","1","0","[1344.6999999955297]","1","2","","","9686","85","5","1","win","go","1"
"pit-trial","207","2454014","0.0-90.0","battery-v0.2","","""event"",""trial"",""time""
""fullscreenenter"",""1"",""3369""
","
","
","""event"",""trial"",""time""
""fullscreenenter"",""1"",""3369""
","
","","","-1","","","19","9686","4578","h","elianto","#f73b6a7A","-1","-1","1","0","[]","0","2","","","9686","86","6","4","lose","no-go","0"
"pit-trial","208","2457407","0.0-91.0","battery-v0.2","","""event"",""trial"",""time""
""fullscreenenter"",""1"",""3369""
","
","
","""event"",""trial"",""time""
""fullscreenenter"",""1"",""3369""
","
","","","523.6000000014901","","","19","9686","4578","c","elianto","#3366ff99","-1"," ","0","0","[1378.3000000044703]","1","2","","","9686","87","4","2","win","no-go","0"
"pit-trial","209","2462272","0.0-92.0","battery-v0.2","","""event"",""trial"",""time""
""fullscreenenter"",""1"",""3369""
","
","
","""event"",""trial"",""time""
""fullscreenenter"",""1"",""3369""
","
","","","-1","","","19","9686","4578","y","elianto","#f73b6a7A"," ","-1","0","0","[]","0","2","","","9686","88","7","3","lose","go","1"
"pit-trial","210","2467147","0.0-93.0","battery-v0.2","","""event"",""trial"",""time""
""fullscreenenter"",""1"",""3369""
","
","
","""event"",""trial"",""time""
""fullscreenenter"",""1"",""3369""
","
","","","-1","","","19","9686","4578","h","elianto","#f73b6a7A","-1","-1","1","-10","[]","0","2","","","9686","89","6","4","lose","no-go","1"
"pit-trial","211","2472016","0.0-94.0","battery-v0.2","","""event"",""trial"",""time""
""fullscreenenter"",""1"",""3369""
","
","
","""event"",""trial"",""time""
""fullscreenenter"",""1"",""3369""
","
","","","-1","","","19","9686","4578","y","elianto","#f73b6a7A"," ","-1","0","0","[]","0","2","","","9686","90","7","3","lose","go","1"
"pit-trial","212","2476426","0.0-95.0","battery-v0.2","","""event"",""trial"",""time""
""fullscreenenter"",""1"",""3369""
","
","
","""event"",""trial"",""time""
""fullscreenenter"",""1"",""3369""
","
","","","1543","","","19","9686","4578","c","elianto","#3366ff99","-1"," ","0","+10","[2402.9000000059605]","1","2","","","9686","91","4","2","win","no-go","1"
"pit-trial","213","2481291","0.0-96.0","battery-v0.2","","""event"",""trial"",""time""
""fullscreenenter"",""1"",""3369""
","
","
","""event"",""trial"",""time""
""fullscreenenter"",""1"",""3369""
","
","","","-1","","","19","9686","4578","z","elianto","#3366ff99"," ","-1","0","+10","[3851.5]","1","2","","","9686","92","5","1","win","go","1"
"pit-trial","214","2486152","0.0-97.0","battery-v0.2","","""event"",""trial"",""time""
""fullscreenenter"",""1"",""3369""
","
","
","""event"",""trial"",""time""
""fullscreenenter"",""1"",""3369""
","
","","","-1","","","19","9686","4578","r","elianto","#3366ff99","-1","-1","1","+10","[]","0","2","","","9686","93","8","2","win","no-go","0"
"pit-trial","215","2491015","0.0-98.0","battery-v0.2","","""event"",""trial"",""time""
""fullscreenenter"",""1"",""3369""
","
","
","""event"",""trial"",""time""
""fullscreenenter"",""1"",""3369""
","
","","","-1","","","19","9686","4578","y","elianto","#f73b6a7A"," ","-1","0","-10","[]","0","2","","","9686","94","7","3","lose","go","0"
"pit-trial","216","2495884","0.0-99.0","battery-v0.2","","""event"",""trial"",""time""
""fullscreenenter"",""1"",""3369""
","
","
","""event"",""trial"",""time""
""fullscreenenter"",""1"",""3369""
","
","","","-1","","","19","9686","4578","z","elianto","#3366ff99"," ","-1","0","0","[]","0","2","","","9686","95","5","1","win","go","0"
"pit-trial","217","2500748","0.0-100.0","battery-v0.2","","""event"",""trial"",""time""
""fullscreenenter"",""1"",""3369""
","
","
","""event"",""trial"",""time""
""fullscreenenter"",""1"",""3369""
","
","","","-1","","","19","9686","4578","h","elianto","#f73b6a7A","-1","-1","1","-10","[]","0","2","","","9686","96","6","4","lose","no-go","1"
"pit-trial","218","2505614","0.0-101.0","battery-v0.2","","""event"",""trial"",""time""
""fullscreenenter"",""1"",""3369""
","
","
","""event"",""trial"",""time""
""fullscreenenter"",""1"",""3369""
","
","","","-1","","","19","9686","4578","z","elianto","#3366ff99"," ","-1","0","+10","[]","0","2","","","9686","97","5","1","win","go","1"
"pit-trial","219","2510477","0.0-102.0","battery-v0.2","","""event"",""trial"",""time""
""fullscreenenter"",""1"",""3369""
","
","
","""event"",""trial"",""time""
""fullscreenenter"",""1"",""3369""
","
","","","-1","","","19","9686","4578","h","elianto","#f73b6a7A","-1","-1","1","0","[]","0","2","","","9686","98","6","4","lose","no-go","0"
"pit-trial","220","2514048","0.0-103.0","battery-v0.2","","""event"",""trial"",""time""
""fullscreenenter"",""1"",""3369""
","
","
","""event"",""trial"",""time""
""fullscreenenter"",""1"",""3369""
","
","","","706.8000000044703","","","19","9686","4578","r","elianto","#3366ff99","-1"," ","0","0","[1559.8999999985099]","1","2","","","9686","99","8","2","win","no-go","0"
"pit-trial","221","2518909","0.0-104.0","battery-v0.2","","""event"",""trial"",""time""
""fullscreenenter"",""1"",""3369""
","
","
","""event"",""trial"",""time""
""fullscreenenter"",""1"",""3369""
","
","","","-1","","","19","9686","4578","y","elianto","#f73b6a7A"," ","-1","0","-10","[]","0","2","","","9686","100","7","3","lose","go","0"
"pit-trial","222","2522390","0.0-105.0","battery-v0.2","","""event"",""trial"",""time""
""fullscreenenter"",""1"",""3369""
","
","
","""event"",""trial"",""time""
""fullscreenenter"",""1"",""3369""
","
","","","617.2000000029802","","","19","9686","4578","z","elianto","#3366ff99"," "," ","1","+10","[1470.6000000014901]","1","2","","","9686","101","5","1","win","go","0"
"pit-trial","223","2527255","0.0-106.0","battery-v0.2","","""event"",""trial"",""time""
""fullscreenenter"",""1"",""3369""
","
","
","""event"",""trial"",""time""
""fullscreenenter"",""1"",""3369""
","
","","","-1","","","19","9686","4578","r","elianto","#3366ff99","-1","-1","1","+10","[]","0","2","","","9686","102","8","2","win","no-go","0"
"pit-trial","224","2532125","0.0-107.0","battery-v0.2","","""event"",""trial"",""time""
""fullscreenenter"",""1"",""3369""
","
","
","""event"",""trial"",""time""
""fullscreenenter"",""1"",""3369""
","
","","","-1","","","19","9686","4578","m","elianto","#3366ff99","-1","-1","1","0","[]","0","2","","","9686","103","9","2","win","no-go","1"
"pit-trial","225","2536991","0.0-108.0","battery-v0.2","","""event"",""trial"",""time""
""fullscreenenter"",""1"",""3369""
","
","
","""event"",""trial"",""time""
""fullscreenenter"",""1"",""3369""
","
","","","-1","","","19","9686","4578","h","elianto","#f73b6a7A","-1","-1","1","0","[]","0","2","","","9686","104","6","4","lose","no-go","0"
"pit-trial","226","2540310","0.0-109.0","battery-v0.2","","""event"",""trial"",""time""
""fullscreenenter"",""1"",""3369""
","
","
","""event"",""trial"",""time""
""fullscreenenter"",""1"",""3369""
","
","","","456.1000000014901","","","19","9686","4578","r","elianto","#3366ff99","-1"," ","0","0","[1306.7000000029802]","1","2","","","9686","105","8","2","win","no-go","0"
"pit-trial","227","2545174","0.0-110.0","battery-v0.2","","""event"",""trial"",""time""
""fullscreenenter"",""1"",""3369""
","
","
","""event"",""trial"",""time""
""fullscreenenter"",""1"",""3369""
","
","","","-1","","","19","9686","4578","z","elianto","#3366ff99"," ","-1","0","0","[]","0","2","","","9686","106","5","1","win","go","0"
"pit-trial","228","2550042","0.0-111.0","battery-v0.2","","""event"",""trial"",""time""
""fullscreenenter"",""1"",""3369""
","
","
","""event"",""trial"",""time""
""fullscreenenter"",""1"",""3369""
","
","","","-1","","","19","9686","4578","h","elianto","#f73b6a7A","-1","-1","1","-10","[]","0","2","","","9686","107","6","4","lose","no-go","1"
"pit-trial","229","2554901","0.0-112.0","battery-v0.2","","""event"",""trial"",""time""
""fullscreenenter"",""1"",""3369""
","
","
","""event"",""trial"",""time""
""fullscreenenter"",""1"",""3369""
","
","","","-1","","","19","9686","4578","m","elianto","#3366ff99","-1","-1","1","+10","[]","0","2","","","9686","108","9","2","win","no-go","0"
"pit-trial","230","2559765","0.0-113.0","battery-v0.2","","""event"",""trial"",""time""
""fullscreenenter"",""1"",""3369""
","
","
","""event"",""trial"",""time""
""fullscreenenter"",""1"",""3369""
","
","","","-1","","","19","9686","4578","m","elianto","#3366ff99","-1","-1","1","+10","[]","0","2","","","9686","109","9","2","win","no-go","0"
"pit-trial","231","2564311","0.0-114.0","battery-v0.2","","""event"",""trial"",""time""
""fullscreenenter"",""1"",""3369""
","
","
","""event"",""trial"",""time""
""fullscreenenter"",""1"",""3369""
","
","","","1682.7000000029802","","","19","9686","4578","r","elianto","#3366ff99","-1"," ","0","0","[2537.8000000044703]","1","2","","","9686","110","8","2","win","no-go","0"
"pit-trial","232","2569174","0.0-115.0","battery-v0.2","","""event"",""trial"",""time""
""fullscreenenter"",""1"",""3369""
","
","
","""event"",""trial"",""time""
""fullscreenenter"",""1"",""3369""
","
","","","-1","","","19","9686","4578","z","elianto","#3366ff99"," ","-1","0","0","[]","0","2","","","9686","111","5","1","win","go","0"
"pit-trial","233","2574039","0.0-116.0","battery-v0.2","","""event"",""trial"",""time""
""fullscreenenter"",""1"",""3369""
","
","
","""event"",""trial"",""time""
""fullscreenenter"",""1"",""3369""
","
","","","-1","","","19","9686","4578","h","elianto","#f73b6a7A","-1","-1","1","0","[]","0","2","","","9686","112","6","4","lose","no-go","0"
"pit-trial","234","2578901","0.0-117.0","battery-v0.2","","""event"",""trial"",""time""
""fullscreenenter"",""1"",""3369""
","
","
","""event"",""trial"",""time""
""fullscreenenter"",""1"",""3369""
","
","","","-1","","","19","9686","4578","y","elianto","#f73b6a7A"," ","-1","0","-10","[]","0","2","","","9686","113","7","3","lose","go","0"
"pit-trial","235","2583762","0.0-118.0","battery-v0.2","","""event"",""trial"",""time""
""fullscreenenter"",""1"",""3369""
","
","
","""event"",""trial"",""time""
""fullscreenenter"",""1"",""3369""
","
","","","-1","","","19","9686","4578","r","elianto","#3366ff99","-1","-1","1","+10","[]","0","2","","","9686","114","8","2","win","no-go","0"
"pit-trial","236","2588631","0.0-119.0","battery-v0.2","","""event"",""trial"",""time""
""fullscreenenter"",""1"",""3369""
","
","
","""event"",""trial"",""time""
""fullscreenenter"",""1"",""3369""
","
","","","-1","","","19","9686","4578","z","elianto","#3366ff99"," ","-1","0","0","[]","0","2","","","9686","115","5","1","win","go","0"
"pit-trial","237","2592093","0.0-120.0","battery-v0.2","","""event"",""trial"",""time""
""fullscreenenter"",""1"",""3369""
","
","
","""event"",""trial"",""time""
""fullscreenenter"",""1"",""3369""
","
","","","597.3999999985099","","","19","9686","4578","m","elianto","#3366ff99","-1"," ","0","0","[1449.5]","1","2","","","9686","116","9","2","win","no-go","0"
"pit-trial","238","2596962","0.0-121.0","battery-v0.2","","""event"",""trial"",""time""
""fullscreenenter"",""1"",""3369""
","
","
","""event"",""trial"",""time""
""fullscreenenter"",""1"",""3369""
","
","","","-1","","","19","9686","4578","h","elianto","#f73b6a7A","-1","-1","1","-10","[]","0","2","","","9686","117","6","4","lose","no-go","1"
"pit-trial","239","2600789","0.0-122.0","battery-v0.2","","""event"",""trial"",""time""
""fullscreenenter"",""1"",""3369""
","
","
","""event"",""trial"",""time""
""fullscreenenter"",""1"",""3369""
","
","","","955.7000000029802","","","19","9686","4578","z","elianto","#3366ff99"," "," ","1","+10","[1810.8999999985099]","1","2","","","9686","118","5","1","win","go","0"
"pit-trial","240","2604751","0.0-123.0","battery-v0.2","","""event"",""trial"",""time""
""fullscreenenter"",""1"",""3369""
","
","
","""event"",""trial"",""time""
""fullscreenenter"",""1"",""3369""
","
","","","1096","","","19","9686","4578","r","elianto","#3366ff99","-1"," ","0","0","[1949.1000000014901]","1","2","","","9686","119","8","2","win","no-go","0"
"pit-trial","241","2608751","0.0-124.0","battery-v0.2","","""event"",""trial"",""time""
""fullscreenenter"",""1"",""3369""
","
","
","""event"",""trial"",""time""
""fullscreenenter"",""1"",""3369""
","
","","","1129.1000000014901","","","19","9686","4578","m","elianto","#3366ff99","-1"," ","0","+10","[1988.8999999985099]","1","2","","","9686","120","9","2","win","no-go","1"
"pit-trial","242","2612158","0.0-125.0","battery-v0.2","","""event"",""trial"",""time""
""fullscreenenter"",""1"",""3369""
","
","
","""event"",""trial"",""time""
""fullscreenenter"",""1"",""3369""
","
","","","549.2999999970198","","","19","9686","4578","m","elianto","#3366ff99","-1"," ","0","0","[1399.7000000029802]","1","2","","","9686","121","9","2","win","no-go","0"
"pit-trial","243","2616248","0.0-126.0","battery-v0.2","","""event"",""trial"",""time""
""fullscreenenter"",""1"",""3369""
","
","
","""event"",""trial"",""time""
""fullscreenenter"",""1"",""3369""
","
","","","1218.6000000014901","","","19","9686","4578","z","elianto","#3366ff99"," "," ","1","+10","[2076]","1","2","","","9686","122","5","1","win","go","0"
"pit-trial","244","2621108","0.0-127.0","battery-v0.2","","""event"",""trial"",""time""
""fullscreenenter"",""1"",""3369""
","
","
","""event"",""trial"",""time""
""fullscreenenter"",""1"",""3369""
","
","","","-1","","","19","9686","4578","y","elianto","#f73b6a7A"," ","-1","0","-10","[]","0","2","","","9686","123","7","3","lose","go","0"
"pit-trial","245","2624664","0.0-128.0","battery-v0.2","","""event"",""trial"",""time""
""fullscreenenter"",""1"",""3369""
","
","
","""event"",""trial"",""time""
""fullscreenenter"",""1"",""3369""
","
","","","673.1000000014901","","","19","9686","4578","r","elianto","#3366ff99","-1"," ","0","0","[1523.7000000029802]","1","2","","","9686","124","8","2","win","no-go","0"
"pit-trial","246","2628691","0.0-129.0","battery-v0.2","","""event"",""trial"",""time""
""fullscreenenter"",""1"",""3369""
","
","
","""event"",""trial"",""time""
""fullscreenenter"",""1"",""3369""
","
","","","1161.6999999955297","","","19","9686","4578","r","elianto","#3366ff99","-1"," ","0","+10","[2011.8000000044703]","1","2","","","9686","125","8","2","win","no-go","1"
"pit-trial","247","2633549","0.0-130.0","battery-v0.2","","""event"",""trial"",""time""
""fullscreenenter"",""1"",""3369""
","
","
","""event"",""trial"",""time""
""fullscreenenter"",""1"",""3369""
","
","","","-1","","","19","9686","4578","y","elianto","#f73b6a7A"," ","-1","0","-10","[]","0","2","","","9686","126","7","3","lose","go","0"
"pit-trial","248","2638419","0.0-131.0","battery-v0.2","","""event"",""trial"",""time""
""fullscreenenter"",""1"",""3369""
","
","
","""event"",""trial"",""time""
""fullscreenenter"",""1"",""3369""
","
","","","-1","","","19","9686","4578","m","elianto","#3366ff99","-1","-1","1","+10","[]","0","2","","","9686","127","9","2","win","no-go","0"
"pit-trial","249","2643285","0.0-132.0","battery-v0.2","","""event"",""trial"",""time""
""fullscreenenter"",""1"",""3369""
","
","
","""event"",""trial"",""time""
""fullscreenenter"",""1"",""3369""
","
","","","-1","","","19","9686","4578","h","elianto","#f73b6a7A","-1","-1","1","0","[]","0","2","","","9686","128","6","4","lose","no-go","0"
"pit-trial","250","2646734","0.0-133.0","battery-v0.2","","""event"",""trial"",""time""
""fullscreenenter"",""1"",""3369""
","
","
","""event"",""trial"",""time""
""fullscreenenter"",""1"",""3369""
","
","","","583.3999999985099","","","19","9686","4578","m","elianto","#3366ff99","-1"," ","0","0","[1436.4000000059605]","1","2","","","9686","129","9","2","win","no-go","0"
"pit-trial","251","2651597","0.0-134.0","battery-v0.2","","""event"",""trial"",""time""
""fullscreenenter"",""1"",""3369""
","
","
","""event"",""trial"",""time""
""fullscreenenter"",""1"",""3369""
","
","","","-1","","","19","9686","4578","y","elianto","#f73b6a7A"," ","-1","0","-10","[]","0","2","","","9686","130","7","3","lose","go","0"
"pit-trial","252","2656464","0.0-135.0","battery-v0.2","","""event"",""trial"",""time""
""fullscreenenter"",""1"",""3369""
","
","
","""event"",""trial"",""time""
""fullscreenenter"",""1"",""3369""
","
","","","-1","","","19","9686","4578","h","elianto","#f73b6a7A","-1","-1","1","0","[]","0","2","","","9686","131","6","4","lose","no-go","0"
"pit-trial","253","2660072","0.0-136.0","battery-v0.2","","""event"",""trial"",""time""
""fullscreenenter"",""1"",""3369""
","
","
","""event"",""trial"",""time""
""fullscreenenter"",""1"",""3369""
","
","","","743.8000000044703","","","19","9686","4578","r","elianto","#3366ff99","-1"," ","0","0","[1594.2999999970198]","1","2","","","9686","132","8","2","win","no-go","0"
"pit-trial","254","2664949","0.0-137.0","battery-v0.2","","""event"",""trial"",""time""
""fullscreenenter"",""1"",""3369""
","
","
","""event"",""trial"",""time""
""fullscreenenter"",""1"",""3369""
","
","","","-1","","","19","9686","4578","y","elianto","#f73b6a7A"," ","-1","0","0","[]","0","2","","","9686","133","7","3","lose","go","1"
"pit-trial","255","2668520","0.0-138.0","battery-v0.2","","""event"",""trial"",""time""
""fullscreenenter"",""1"",""3369""
","
","
","""event"",""trial"",""time""
""fullscreenenter"",""1"",""3369""
","
","","","708.6000000014901","","","19","9686","4578","r","elianto","#3366ff99","-1"," ","0","0","[1560.3999999985099]","1","2","","","9686","134","8","2","win","no-go","0"
"pit-trial","256","2673382","0.0-139.0","battery-v0.2","","""event"",""trial"",""time""
""fullscreenenter"",""1"",""3369""
","
","
","""event"",""trial"",""time""
""fullscreenenter"",""1"",""3369""
","
","","","-1","","","19","9686","4578","h","elianto","#f73b6a7A","-1","-1","1","0","[]","0","2","","","9686","135","6","4","lose","no-go","0"
"pit-trial","257","2677495","0.0-140.0","battery-v0.2","","""event"",""trial"",""time""
""fullscreenenter"",""1"",""3369""
","
","
","""event"",""trial"",""time""
""fullscreenenter"",""1"",""3369""
","
","","","1238.8000000044703","","","19","9686","4578","m","elianto","#3366ff99","-1"," ","0","0","[2106.2000000029802]","1","2","","","9686","136","9","2","win","no-go","0"
"pit-trial","258","2682360","0.0-141.0","battery-v0.2","","""event"",""trial"",""time""
""fullscreenenter"",""1"",""3369""
","
","
","""event"",""trial"",""time""
""fullscreenenter"",""1"",""3369""
","
","","","-1","","","19","9686","4578","y","elianto","#f73b6a7A"," ","-1","0","-10","[]","0","2","","","9686","137","7","3","lose","go","0"
"pit-trial","259","2687227","0.0-142.0","battery-v0.2","","""event"",""trial"",""time""
""fullscreenenter"",""1"",""3369""
","
","
","""event"",""trial"",""time""
""fullscreenenter"",""1"",""3369""
","
","","","-1","","","19","9686","4578","h","elianto","#f73b6a7A","-1","-1","1","0","[]","0","2","","","9686","138","6","4","lose","no-go","0"
"pit-trial","260","2690584","0.0-143.0","battery-v0.2","","""event"",""trial"",""time""
""fullscreenenter"",""1"",""3369""
","
","
","""event"",""trial"",""time""
""fullscreenenter"",""1"",""3369""
","
","","","486.70000000298023","","","19","9686","4578","r","elianto","#3366ff99","-1"," ","0","0","[1343.6000000014901]","1","2","","","9686","139","8","2","win","no-go","0"
"pit-trial","261","2695452","0.0-144.0","battery-v0.2","","""event"",""trial"",""time""
""fullscreenenter"",""1"",""3369""
","
","
","""event"",""trial"",""time""
""fullscreenenter"",""1"",""3369""
","
","","","-1","","","19","9686","4578","m","elianto","#3366ff99","-1","-1","1","+10","[]","0","2","","","9686","140","9","2","win","no-go","0"
"pit-instructions","262","2939863","0.0-145.0","battery-v0.2","","""event"",""trial"",""time""
""fullscreenenter"",""1"",""3369""
","
","
","""event"",""trial"",""time""
""fullscreenenter"",""1"",""3369""
","
","","[{""page_index"":0,""viewing_time"":235840.1000000015},{""page_index"":1,""viewing_time"":8568.79999999702}]","244411.6000000015","","","","","","","","","","","","","","","","","","","","","","","",""
"pit-trial","263","2944744","0.0-146.0","battery-v0.2","","""event"",""trial"",""time""
""fullscreenenter"",""1"",""3369""
","
","
","""event"",""trial"",""time""
""fullscreenenter"",""1"",""3369""
","
","","","-1","","","19","9686","4578","e","elianto","#f73b6a7A"," ","-1","0","-10","[]","0","3","","","9686","141","2","3","lose","go","0"
"pit-trial","264","2949621","0.0-147.0","battery-v0.2","","""event"",""trial"",""time""
""fullscreenenter"",""1"",""3369""
","
","
","""event"",""trial"",""time""
""fullscreenenter"",""1"",""3369""
","
","","","-1","","","19","9686","4578","j","elianto","#f73b6a7A"," ","-1","0","0","[]","0","3","","","9686","142","0","3","lose","go","1"
"pit-trial","265","2954502","0.0-148.0","battery-v0.2","","""event"",""trial"",""time""
""fullscreenenter"",""1"",""3369""
","
","
","""event"",""trial"",""time""
""fullscreenenter"",""1"",""3369""
","
","","","-1","","","19","9686","4578","w","elianto","#f73b6a7A","-1","-1","1","0","[]","0","3","","","9686","143","3","4","lose","no-go","0"
"pit-trial","266","2958188","0.0-149.0","battery-v0.2","","""event"",""trial"",""time""
""fullscreenenter"",""1"",""3369""
","
","
","""event"",""trial"",""time""
""fullscreenenter"",""1"",""3369""
","
","","","817.9000000059605","","","19","9686","4578","d","elianto","#3366ff99","-1"," ","0","0","[1668.7000000029802]","1","3","","","9686","144","1","2","win","no-go","0"
"pit-trial","267","2963055","0.0-150.0","battery-v0.2","","""event"",""trial"",""time""
""fullscreenenter"",""1"",""3369""
","
","
","""event"",""trial"",""time""
""fullscreenenter"",""1"",""3369""
","
","","","-1","","","19","9686","4578","d","elianto","#3366ff99","-1","-1","1","+10","[]","0","3","","","9686","145","1","2","win","no-go","0"
"pit-trial","268","2967926","0.0-151.0","battery-v0.2","","""event"",""trial"",""time""
""fullscreenenter"",""1"",""3369""
","
","
","""event"",""trial"",""time""
""fullscreenenter"",""1"",""3369""
","
","","","-1","","","19","9686","4578","e","elianto","#f73b6a7A"," ","-1","0","0","[]","0","3","","","9686","146","2","3","lose","go","1"
"pit-trial","269","2972791","0.0-152.0","battery-v0.2","","""event"",""trial"",""time""
""fullscreenenter"",""1"",""3369""
","
","
","""event"",""trial"",""time""
""fullscreenenter"",""1"",""3369""
","
","","","-1","","","19","9686","4578","w","elianto","#f73b6a7A","-1","-1","1","0","[]","0","3","","","9686","147","3","4","lose","no-go","0"
"pit-trial","270","2977655","0.0-153.0","battery-v0.2","","""event"",""trial"",""time""
""fullscreenenter"",""1"",""3369""
","
","
","""event"",""trial"",""time""
""fullscreenenter"",""1"",""3369""
","
