"trial_type","trial_index","time_elapsed","internal_node_id","task_version","subject_id","interactions","blur_events","focus_events","fullscreenenter_events","fullscreenexit_events","success","view_history","rt","responses","num_errors","age","subject","participantId","rune","rune_set","hex","correct","choice","accuracy","outcome","keys","total_keys","block","practice","value","sub","trial","stimulus","robot","valence","action","sham"
"pavlovia","0","10","0.0-0.0","battery-v0.2","","""event"",""trial"",""time""
""fullscreenenter"",""1"",""2232""
","
","
","""event"",""trial"",""time""
""fullscreenenter"",""1"",""2232""
","
","","","","","","","","","","","","","","","","","","","","","","","","","","",""
"fullscreen","1","3231","0.0-1.0","battery-v0.2","","""event"",""trial"",""time""
""fullscreenenter"",""1"",""2232""
","
","
","""event"",""trial"",""time""
""fullscreenenter"",""1"",""2232""
","
","true","","","","","","","","","","","","","","","","","","","","","","","","","",""
"pit-instructions","2","8159","0.0-2.0-0.0","battery-v0.2","","""event"",""trial"",""time""
""fullscreenenter"",""1"",""2232""
","
","
","""event"",""trial"",""time""
""fullscreenenter"",""1"",""2232""
","
","","[{""page_index"":0,""viewing_time"":4922.399999976158}]","4922.699999928474","","","","","","","","","","","","","","","","","","","","","","","",""
"pit-comprehension","3","11487","0.0-2.0-1.0-0.0","battery-v0.2","","""event"",""trial"",""time""
""fullscreenenter"",""1"",""2232""
","
","
","""event"",""trial"",""time""
""fullscreenenter"",""1"",""2232""
","
","","","3325.9000000953674","[""shark""]","0","10","11322","5232","","","","","","","","","","","","","","","","","","",""
"pit-instructions","4","14911","0.0-2.0-1.0-1.0","battery-v0.2","","""event"",""trial"",""time""
""fullscreenenter"",""1"",""2232""
","
","
","""event"",""trial"",""time""
""fullscreenenter"",""1"",""2232""
","
","","[{""page_index"":0,""viewing_time"":3408.2000000476837}]","3409.100000023842","","","","","","","","","","","","","","","","","","","","","","","",""
"pit-comprehension","5","20007","0.0-2.0-2.0-0.0","battery-v0.2","","""event"",""trial"",""time""
""fullscreenenter"",""1"",""2232""
","
","
","""event"",""trial"",""time""
""fullscreenenter"",""1"",""2232""
","
","","","5092.5","[""tiger""]","0","10","11322","5232","","","","","","","","","","","","","","","","","","",""
"pit-instructions","6","21439","0.0-2.0-2.0-1.0","battery-v0.2","","""event"",""trial"",""time""
""fullscreenenter"",""1"",""2232""
""blur"",""7"",""65683""
""focus"",""7"",""70746""
""blur"",""7"",""177185""
""focus"",""7"",""181070""
","""event"",""trial"",""time""
""blur"",""7"",""65683""
""blur"",""7"",""177185""
","""event"",""trial"",""time""
""focus"",""7"",""70746""
""focus"",""7"",""181070""
","""event"",""trial"",""time""
""fullscreenenter"",""1"",""2232""
","
","","[{""page_index"":0,""viewing_time"":1428.7000000476837}]","1428.8999999761581","","","","","","","","","","","","","","","","","","","","","","","",""
"pit-instructions","7","193426","0.0-2.0-3.0","battery-v0.2","","""event"",""trial"",""time""
""fullscreenenter"",""1"",""2232""
""blur"",""7"",""65683""
""focus"",""7"",""70746""
""blur"",""7"",""177185""
""focus"",""7"",""181070""
","""event"",""trial"",""time""
""blur"",""7"",""65683""
""blur"",""7"",""177185""
","""event"",""trial"",""time""
""focus"",""7"",""70746""
""focus"",""7"",""181070""
","""event"",""trial"",""time""
""fullscreenenter"",""1"",""2232""
","
","","[{""page_index"":0,""viewing_time"":10437.5},{""page_index"":1,""viewing_time"":6472.800000071526},{""page_index"":2,""viewing_time"":7727.299999952316},{""page_index"":3,""viewing_time"":6184.399999976158},{""page_index"":4,""viewing_time"":5944.100000023842},{""page_index"":5,""viewing_time"":5535.200000047684},{""page_index"":6,""viewing_time"":7135.899999976158},{""page_index"":7,""viewing_time"":6464.299999952316},{""page_index"":8,""viewing_time"":7271.700000047684},{""page_index"":9,""viewing_time"":67496.60000002384},{""page_index"":10,""viewing_time"":10367.299999952316},{""page_index"":11,""viewing_time"":13016.100000023842},{""page_index"":12,""viewing_time"":13015.899999976158},{""page_index"":13,""viewing_time"":4915.700000047684}]","171985.10000002384","","","","","","","","","","","","","","","","","","","","","","","",""
"pit-trial","8","197886","0.0-2.0-4.0-0.0","battery-v0.2","","""event"",""trial"",""time""
""fullscreenenter"",""1"",""2232""
""blur"",""7"",""65683""
""focus"",""7"",""70746""
""blur"",""7"",""177185""
""focus"",""7"",""181070""
","""event"",""trial"",""time""
""blur"",""7"",""65683""
""blur"",""7"",""177185""
","""event"",""trial"",""time""
""focus"",""7"",""70746""
""focus"",""7"",""181070""
","""event"",""trial"",""time""
""fullscreenenter"",""1"",""2232""
","
","","","1586.1000000238419","","","10","11322","5232","&#9784;","elianto","#FFFFF080"," "," ","1","&#10004","[2442.600000023842]","1","0","0","","","","","","","",""
"pit-trial","9","201556","0.0-2.0-4.1-0.1","battery-v0.2","","""event"",""trial"",""time""
""fullscreenenter"",""1"",""2232""
""blur"",""7"",""65683""
""focus"",""7"",""70746""
""blur"",""7"",""177185""
""focus"",""7"",""181070""
","""event"",""trial"",""time""
""blur"",""7"",""65683""
""blur"",""7"",""177185""
","""event"",""trial"",""time""
""focus"",""7"",""70746""
""focus"",""7"",""181070""
","""event"",""trial"",""time""
""fullscreenenter"",""1"",""2232""
","
","","","808.6999999284744","","","10","11322","5232","&#9784;","elianto","#FFFFF080"," "," ","1","&#10004","[1664]","1","0","0","","","","","","","",""
"pit-trial","10","205291","0.0-2.0-4.2-0.2","battery-v0.2","","""event"",""trial"",""time""
""fullscreenenter"",""1"",""2232""
""blur"",""7"",""65683""
""focus"",""7"",""70746""
""blur"",""7"",""177185""
""focus"",""7"",""181070""
","""event"",""trial"",""time""
""blur"",""7"",""65683""
""blur"",""7"",""177185""
","""event"",""trial"",""time""
""focus"",""7"",""70746""
""focus"",""7"",""181070""
","""event"",""trial"",""time""
""fullscreenenter"",""1"",""2232""
","
","","","865.3999999761581","","","10","11322","5232","&#9784;","elianto","#FFFFF080"," "," ","1","&#10004","[1720.2000000476837]","1","0","0","","","","","","","",""
"pit-trial","11","209022","0.0-2.0-4.3-0.3","battery-v0.2","","""event"",""trial"",""time""
""fullscreenenter"",""1"",""2232""
""blur"",""7"",""65683""
""focus"",""7"",""70746""
""blur"",""7"",""177185""
""focus"",""7"",""181070""
","""event"",""trial"",""time""
""blur"",""7"",""65683""
""blur"",""7"",""177185""
","""event"",""trial"",""time""
""focus"",""7"",""70746""
""focus"",""7"",""181070""
","""event"",""trial"",""time""
""fullscreenenter"",""1"",""2232""
","
","","","873.8999999761581","","","10","11322","5232","&#9784;","elianto","#FFFFF080"," "," ","1","&#10004","[1727.1999999284744]","1","0","0","","","","","","","",""
"pit-trial","12","212536","0.0-2.0-4.4-0.4","battery-v0.2","","""event"",""trial"",""time""
""fullscreenenter"",""1"",""2232""
""blur"",""7"",""65683""
""focus"",""7"",""70746""
""blur"",""7"",""177185""
""focus"",""7"",""181070""
","""event"",""trial"",""time""
""blur"",""7"",""65683""
""blur"",""7"",""177185""
","""event"",""trial"",""time""
""focus"",""7"",""70746""
""focus"",""7"",""181070""
","""event"",""trial"",""time""
""fullscreenenter"",""1"",""2232""
","
","","","645.7999999523163","","","10","11322","5232","&#9784;","elianto","#FFFFF080"," "," ","1","&#10004","[1510.6999999284744]","1","0","0","","","","","","","",""
"pit-instructions","13","233125","0.0-2.0-5.0","battery-v0.2","","""event"",""trial"",""time""
""fullscreenenter"",""1"",""2232""
""blur"",""7"",""65683""
""focus"",""7"",""70746""
""blur"",""7"",""177185""
""focus"",""7"",""181070""
","""event"",""trial"",""time""
""blur"",""7"",""65683""
""blur"",""7"",""177185""
","""event"",""trial"",""time""
""focus"",""7"",""70746""
""focus"",""7"",""181070""
","""event"",""trial"",""time""
""fullscreenenter"",""1"",""2232""
","
","","[{""page_index"":0,""viewing_time"":4931.799999952316},{""page_index"":1,""viewing_time"":5191.800000071526},{""page_index"":2,""viewing_time"":5283.799999952316},{""page_index"":3,""viewing_time"":5179}]","20586.799999952316","","","","","","","","","","","","","","","","","","","","","","","",""
"pit-trial","14","237982","0.0-2.0-6.0-0.0","battery-v0.2","","""event"",""trial"",""time""
""fullscreenenter"",""1"",""2232""
""blur"",""7"",""65683""
""focus"",""7"",""70746""
""blur"",""7"",""177185""
""focus"",""7"",""181070""
","""event"",""trial"",""time""
""blur"",""7"",""65683""
""blur"",""7"",""177185""
","""event"",""trial"",""time""
""focus"",""7"",""70746""
""focus"",""7"",""181070""
","""event"",""trial"",""time""
""fullscreenenter"",""1"",""2232""
","
","","","-1","","","10","11322","5232","&#9854;","elianto","#FFFFF080","-1","-1","1","&#10004","[]","0","0","1","","","","","","","",""
"pit-trial","15","241991","0.0-2.0-6.1-0.1","battery-v0.2","","""event"",""trial"",""time""
""fullscreenenter"",""1"",""2232""
""blur"",""7"",""65683""
""focus"",""7"",""70746""
""blur"",""7"",""177185""
""focus"",""7"",""181070""
","""event"",""trial"",""time""
""blur"",""7"",""65683""
""blur"",""7"",""177185""
","""event"",""trial"",""time""
""focus"",""7"",""70746""
""focus"",""7"",""181070""
","""event"",""trial"",""time""
""fullscreenenter"",""1"",""2232""
","
","","","1127.7000000476837","","","10","11322","5232","&#9854;","elianto","#FFFFF080","-1"," ","0","&#10060","[1993.3000000715256]","1","0","1","","","","","","","",""
"pit-trial","16","246861","0.0-2.0-6.2-0.2","battery-v0.2","","""event"",""trial"",""time""
""fullscreenenter"",""1"",""2232""
""blur"",""7"",""65683""
""focus"",""7"",""70746""
""blur"",""7"",""177185""
""focus"",""7"",""181070""
","""event"",""trial"",""time""
""blur"",""7"",""65683""
""blur"",""7"",""177185""
","""event"",""trial"",""time""
""focus"",""7"",""70746""
""focus"",""7"",""181070""
","""event"",""trial"",""time""
""fullscreenenter"",""1"",""2232""
","
","","","-1","","","10","11322","5232","&#9854;","elianto","#FFFFF080","-1","-1","1","&#10004","[]","0","0","1","","","","","","","",""
"pit-trial","17","251738","0.0-2.0-6.3-0.3","battery-v0.2","","""event"",""trial"",""time""
""fullscreenenter"",""1"",""2232""
""blur"",""7"",""65683""
""focus"",""7"",""70746""
""blur"",""7"",""177185""
""focus"",""7"",""181070""
","""event"",""trial"",""time""
""blur"",""7"",""65683""
""blur"",""7"",""177185""
","""event"",""trial"",""time""
""focus"",""7"",""70746""
""focus"",""7"",""181070""
","""event"",""trial"",""time""
""fullscreenenter"",""1"",""2232""
","
","","","-1","","","10","11322","5232","&#9854;","elianto","#FFFFF080","-1","-1","1","&#10004","[]","0","0","1","","","","","","","",""
"pit-trial","18","256616","0.0-2.0-6.4-0.4","battery-v0.2","","""event"",""trial"",""time""
""fullscreenenter"",""1"",""2232""
""blur"",""7"",""65683""
""focus"",""7"",""70746""
""blur"",""7"",""177185""
""focus"",""7"",""181070""
","""event"",""trial"",""time""
""blur"",""7"",""65683""
""blur"",""7"",""177185""
","""event"",""trial"",""time""
""focus"",""7"",""70746""
""focus"",""7"",""181070""
","""event"",""trial"",""time""
""fullscreenenter"",""1"",""2232""
","
","","","-1","","","10","11322","5232","&#9854;","elianto","#FFFFF080","-1","-1","1","&#10004","[]","0","0","1","","","","","","","",""
"pit-instructions","19","372351","0.0-2.0-7.0","battery-v0.2","","""event"",""trial"",""time""
""fullscreenenter"",""1"",""2232""
""blur"",""7"",""65683""
""focus"",""7"",""70746""
""blur"",""7"",""177185""
""focus"",""7"",""181070""
","""event"",""trial"",""time""
""blur"",""7"",""65683""
""blur"",""7"",""177185""
","""event"",""trial"",""time""
""focus"",""7"",""70746""
""focus"",""7"",""181070""
","""event"",""trial"",""time""
""fullscreenenter"",""1"",""2232""
","
","","[{""page_index"":0,""viewing_time"":5540.5},{""page_index"":1,""viewing_time"":7657},{""page_index"":2,""viewing_time"":6119.600000023842},{""page_index"":3,""viewing_time"":6071.699999928474},{""page_index"":4,""viewing_time"":5248.700000047684},{""page_index"":5,""viewing_time"":5687.799999952316},{""page_index"":6,""viewing_time"":4272.399999976158},{""page_index"":7,""viewing_time"":7183.600000023842},{""page_index"":8,""viewing_time"":7782.899999976158},{""page_index"":9,""viewing_time"":6207.900000095367},{""page_index"":10,""viewing_time"":6232.199999928474},{""page_index"":11,""viewing_time"":5256},{""page_index"":12,""viewing_time"":8806.600000023842},{""page_index"":13,""viewing_time"":7098.100000023842},{""page_index"":14,""viewing_time"":7008.600000023842},{""page_index"":15,""viewing_time"":6607.399999976158},{""page_index"":16,""viewing_time"":6212.299999952316},{""page_index"":17,""viewing_time"":6739.800000071526}]","115733.39999997616","","","","","","","","","","","","","","","","","","","","","","","",""
"pit-trial","20","376516","0.0-2.0-8.0-0.0","battery-v0.2","","""event"",""trial"",""time""
""fullscreenenter"",""1"",""2232""
""blur"",""7"",""65683""
""focus"",""7"",""70746""
""blur"",""7"",""177185""
""focus"",""7"",""181070""
","""event"",""trial"",""time""
""blur"",""7"",""65683""
""blur"",""7"",""177185""
","""event"",""trial"",""time""
""focus"",""7"",""70746""
""focus"",""7"",""181070""
","""event"",""trial"",""time""
""fullscreenenter"",""1"",""2232""
","
","","","1302.1000000238419","","","10","11322","5232","&#9776;","elianto","#3366ff99"," "," ","1","+10","[2152.600000023842]","1","0","1","","","","","","","",""
"pit-trial","21","380111","0.0-2.0-8.0-1.0","battery-v0.2","","""event"",""trial"",""time""
""fullscreenenter"",""1"",""2232""
""blur"",""7"",""65683""
""focus"",""7"",""70746""
""blur"",""7"",""177185""
""focus"",""7"",""181070""
","""event"",""trial"",""time""
""blur"",""7"",""65683""
""blur"",""7"",""177185""
","""event"",""trial"",""time""
""focus"",""7"",""70746""
""focus"",""7"",""181070""
","""event"",""trial"",""time""
""fullscreenenter"",""1"",""2232""
","
","","","736.1999999284744","","","10","11322","5232","&#9776;","elianto","#3366ff99"," "," ","1","+10","[1591.3999999761581]","1","0","1","","","","","","","",""
"pit-trial","22","383785","0.0-2.0-8.0-2.0","battery-v0.2","","""event"",""trial"",""time""
""fullscreenenter"",""1"",""2232""
""blur"",""7"",""65683""
""focus"",""7"",""70746""
""blur"",""7"",""177185""
""focus"",""7"",""181070""
","""event"",""trial"",""time""
""blur"",""7"",""65683""
""blur"",""7"",""177185""
","""event"",""trial"",""time""
""focus"",""7"",""70746""
""focus"",""7"",""181070""
","""event"",""trial"",""time""
""fullscreenenter"",""1"",""2232""
","
","","","807.9000000953674","","","10","11322","5232","&#9776;","elianto","#3366ff99"," "," ","1","+10","[1668.9000000953674]","1","0","1","","","","","","","",""
"pit-trial","23","387405","0.0-2.0-8.0-3.0","battery-v0.2","","""event"",""trial"",""time""
""fullscreenenter"",""1"",""2232""
""blur"",""7"",""65683""
""focus"",""7"",""70746""
""blur"",""7"",""177185""
""focus"",""7"",""181070""
","""event"",""trial"",""time""
""blur"",""7"",""65683""
""blur"",""7"",""177185""
","""event"",""trial"",""time""
""focus"",""7"",""70746""
""focus"",""7"",""181070""
","""event"",""trial"",""time""
""fullscreenenter"",""1"",""2232""
","
","","","752.6000000238419","","","10","11322","5232","&#9776;","elianto","#3366ff99"," "," ","1","0","[1614.3999999761581]","1","0","1","","","","","","","",""
"pit-trial","24","390892","0.0-2.0-8.0-4.0","battery-v0.2","","""event"",""trial"",""time""
""fullscreenenter"",""1"",""2232""
""blur"",""7"",""65683""
""focus"",""7"",""70746""
""blur"",""7"",""177185""
""focus"",""7"",""181070""
","""event"",""trial"",""time""
""blur"",""7"",""65683""
""blur"",""7"",""177185""
","""event"",""trial"",""time""
""focus"",""7"",""70746""
""focus"",""7"",""181070""
","""event"",""trial"",""time""
""fullscreenenter"",""1"",""2232""
","
","","","622.7000000476837","","","10","11322","5232","&#9776;","elianto","#3366ff99"," "," ","1","+10","[1473.3999999761581]","1","0","1","","","","","","","",""
"pit-trial","25","394812","0.0-2.0-8.1-0.1","battery-v0.2","","""event"",""trial"",""time""
""fullscreenenter"",""1"",""2232""
""blur"",""7"",""65683""
""focus"",""7"",""70746""
""blur"",""7"",""177185""
""focus"",""7"",""181070""
","""event"",""trial"",""time""
""blur"",""7"",""65683""
""blur"",""7"",""177185""
","""event"",""trial"",""time""
""focus"",""7"",""70746""
""focus"",""7"",""181070""
","""event"",""trial"",""time""
""fullscreenenter"",""1"",""2232""
","
","","","1057.4000000953674","","","10","11322","5232","&#9776;","elianto","#3366ff99"," "," ","1","+10","[1915.6000000238419]","1","0","1","","","","","","","",""
"pit-trial","26","398405","0.0-2.0-8.1-1.1","battery-v0.2","","""event"",""trial"",""time""
""fullscreenenter"",""1"",""2232""
""blur"",""7"",""65683""
""focus"",""7"",""70746""
""blur"",""7"",""177185""
""focus"",""7"",""181070""
","""event"",""trial"",""time""
""blur"",""7"",""65683""
""blur"",""7"",""177185""
","""event"",""trial"",""time""
""focus"",""7"",""70746""
""focus"",""7"",""181070""
","""event"",""trial"",""time""
""fullscreenenter"",""1"",""2232""
","
","","","710.7999999523163","","","10","11322","5232","&#9776;","elianto","#3366ff99"," "," ","1","+10","[1576.5]","1","0","1","","","","","","","",""
"pit-trial","27","401929","0.0-2.0-8.1-2.1","battery-v0.2","","""event"",""trial"",""time""
""fullscreenenter"",""1"",""2232""
""blur"",""7"",""65683""
""focus"",""7"",""70746""
""blur"",""7"",""177185""
""focus"",""7"",""181070""
","""event"",""trial"",""time""
""blur"",""7"",""65683""
""blur"",""7"",""177185""
","""event"",""trial"",""time""
""focus"",""7"",""70746""
""focus"",""7"",""181070""
","""event"",""trial"",""time""
""fullscreenenter"",""1"",""2232""
","
","","","664.2000000476837","","","10","11322","5232","&#9776;","elianto","#3366ff99"," "," ","1","+10","[1518.3999999761581]","1","0","1","","","","","","","",""
"pit-trial","28","406316","0.0-2.0-8.1-3.1","battery-v0.2","","""event"",""trial"",""time""
""fullscreenenter"",""1"",""2232""
""blur"",""7"",""65683""
""focus"",""7"",""70746""
""blur"",""7"",""177185""
""focus"",""7"",""181070""
","""event"",""trial"",""time""
""blur"",""7"",""65683""
""blur"",""7"",""177185""
","""event"",""trial"",""time""
""focus"",""7"",""70746""
""focus"",""7"",""181070""
","""event"",""trial"",""time""
""fullscreenenter"",""1"",""2232""
","
","","","1533.7000000476837","","","10","11322","5232","&#9776;","elianto","#3366ff99"," "," ","1","0","[2384.2000000476837]","1","0","1","","","","","","","",""
"pit-trial","29","410134","0.0-2.0-8.1-4.1","battery-v0.2","","""event"",""trial"",""time""
""fullscreenenter"",""1"",""2232""
""blur"",""7"",""65683""
""focus"",""7"",""70746""
""blur"",""7"",""177185""
""focus"",""7"",""181070""
","""event"",""trial"",""time""
""blur"",""7"",""65683""
""blur"",""7"",""177185""
","""event"",""trial"",""time""
""focus"",""7"",""70746""
""focus"",""7"",""181070""
","""event"",""trial"",""time""
""fullscreenenter"",""1"",""2232""
","
","","","965","","","10","11322","5232","&#9776;","elianto","#3366ff99"," "," ","1","+10","[1815.2999999523163]","1","0","1","","","","","","","",""
"pit-trial","30","413626","0.0-2.0-8.2-0.2","battery-v0.2","","""event"",""trial"",""time""
""fullscreenenter"",""1"",""2232""
""blur"",""7"",""65683""
""focus"",""7"",""70746""
""blur"",""7"",""177185""
""focus"",""7"",""181070""
","""event"",""trial"",""time""
""blur"",""7"",""65683""
""blur"",""7"",""177185""
","""event"",""trial"",""time""
""focus"",""7"",""70746""
""focus"",""7"",""181070""
","""event"",""trial"",""time""
""fullscreenenter"",""1"",""2232""
","
","","","638.3000000715256","","","10","11322","5232","&#9776;","elianto","#3366ff99"," "," ","1","+10","[1489.3000000715256]","1","0","1","","","","","","","",""
"pit-trial","31","417068","0.0-2.0-8.2-1.2","battery-v0.2","","""event"",""trial"",""time""
""fullscreenenter"",""1"",""2232""
""blur"",""7"",""65683""
""focus"",""7"",""70746""
""blur"",""7"",""177185""
""focus"",""7"",""181070""
","""event"",""trial"",""time""
""blur"",""7"",""65683""
""blur"",""7"",""177185""
","""event"",""trial"",""time""
""focus"",""7"",""70746""
""focus"",""7"",""181070""
","""event"",""trial"",""time""
""fullscreenenter"",""1"",""2232""
","
","","","589","","","10","11322","5232","&#9776;","elianto","#3366ff99"," "," ","1","+10","[1439.3000000715256]","1","0","1","","","","","","","",""
"pit-trial","32","420621","0.0-2.0-8.2-2.2","battery-v0.2","","""event"",""trial"",""time""
""fullscreenenter"",""1"",""2232""
""blur"",""7"",""65683""
""focus"",""7"",""70746""
""blur"",""7"",""177185""
""focus"",""7"",""181070""
","""event"",""trial"",""time""
""blur"",""7"",""65683""
""blur"",""7"",""177185""
","""event"",""trial"",""time""
""focus"",""7"",""70746""
""focus"",""7"",""181070""
","""event"",""trial"",""time""
""fullscreenenter"",""1"",""2232""
","
","","","698.5","","","10","11322","5232","&#9776;","elianto","#3366ff99"," "," ","1","+10","[1549.7000000476837]","1","0","1","","","","","","","",""
"pit-trial","33","424520","0.0-2.0-8.2-3.2","battery-v0.2","","""event"",""trial"",""time""
""fullscreenenter"",""1"",""2232""
""blur"",""7"",""65683""
""focus"",""7"",""70746""
""blur"",""7"",""177185""
""focus"",""7"",""181070""
","""event"",""trial"",""time""
""blur"",""7"",""65683""
""blur"",""7"",""177185""
","""event"",""trial"",""time""
""focus"",""7"",""70746""
""focus"",""7"",""181070""
","""event"",""trial"",""time""
""fullscreenenter"",""1"",""2232""
","
","","","1046.2000000476837","","","10","11322","5232","&#9776;","elianto","#3366ff99"," "," ","1","0","[1897.1000000238419]","1","0","1","","","","","","","",""
"pit-trial","34","428519","0.0-2.0-8.2-4.2","battery-v0.2","","""event"",""trial"",""time""
""fullscreenenter"",""1"",""2232""
""blur"",""7"",""65683""
""focus"",""7"",""70746""
""blur"",""7"",""177185""
""focus"",""7"",""181070""
","""event"",""trial"",""time""
""blur"",""7"",""65683""
""blur"",""7"",""177185""
","""event"",""trial"",""time""
""focus"",""7"",""70746""
""focus"",""7"",""181070""
","""event"",""trial"",""time""
""fullscreenenter"",""1"",""2232""
","
","","","1145.8999999761581","","","10","11322","5232","&#9776;","elianto","#3366ff99"," "," ","1","+10","[1996.1999999284744]","1","0","1","","","","","","","",""
"call-function","35","428521","0.0-2.0-9.0","battery-v0.2","","""event"",""trial"",""time""
""fullscreenenter"",""1"",""2232""
""blur"",""7"",""65683""
""focus"",""7"",""70746""
""blur"",""7"",""177185""
""focus"",""7"",""181070""
","""event"",""trial"",""time""
""blur"",""7"",""65683""
""blur"",""7"",""177185""
","""event"",""trial"",""time""
""focus"",""7"",""70746""
""focus"",""7"",""181070""
","""event"",""trial"",""time""
""fullscreenenter"",""1"",""2232""
","
","","","","","","","","","","","","","","","","","","","","","","","","","","",""
"pit-instructions","36","486127","0.0-2.0-10.0","battery-v0.2","","""event"",""trial"",""time""
""fullscreenenter"",""1"",""2232""
""blur"",""7"",""65683""
""focus"",""7"",""70746""
""blur"",""7"",""177185""
""focus"",""7"",""181070""
","""event"",""trial"",""time""
""blur"",""7"",""65683""
""blur"",""7"",""177185""
","""event"",""trial"",""time""
""focus"",""7"",""70746""
""focus"",""7"",""181070""
","""event"",""trial"",""time""
""fullscreenenter"",""1"",""2232""
","
","","[{""page_index"":0,""viewing_time"":11084.399999976158},{""page_index"":1,""viewing_time"":8352.199999928474},{""page_index"":2,""viewing_time"":12735.800000071526},{""page_index"":3,""viewing_time"":13281},{""page_index"":4,""viewing_time"":12152.299999952316}]","57605.89999997616","","","","","","","","","","","","","","","","","","","","","","","",""
"pit-trial","37","490112","0.0-2.0-11.0-0.0","battery-v0.2","","""event"",""trial"",""time""
""fullscreenenter"",""1"",""2232""
""blur"",""7"",""65683""
""focus"",""7"",""70746""
""blur"",""7"",""177185""
""focus"",""7"",""181070""
","""event"",""trial"",""time""
""blur"",""7"",""65683""
""blur"",""7"",""177185""
","""event"",""trial"",""time""
""focus"",""7"",""70746""
""focus"",""7"",""181070""
","""event"",""trial"",""time""
""fullscreenenter"",""1"",""2232""
","
","","","1116.7000000476837","","","10","11322","5232","&#9761;","elianto","#3366ff99","-1"," ","0","0","[1970]","1","0","2","","","","","","","",""
"pit-trial","38","493630","0.0-2.0-11.0-1.0","battery-v0.2","","""event"",""trial"",""time""
""fullscreenenter"",""1"",""2232""
""blur"",""7"",""65683""
""focus"",""7"",""70746""
""blur"",""7"",""177185""
""focus"",""7"",""181070""
","""event"",""trial"",""time""
""blur"",""7"",""65683""
""blur"",""7"",""177185""
","""event"",""trial"",""time""
""focus"",""7"",""70746""
""focus"",""7"",""181070""
","""event"",""trial"",""time""
""fullscreenenter"",""1"",""2232""
","
","","","654","","","10","11322","5232","&#9761;","elianto","#3366ff99","-1"," ","0","0","[1506.1000000238419]","1","0","2","","","","","","","",""
"pit-trial","39","498490","0.0-2.0-11.0-2.0","battery-v0.2","","""event"",""trial"",""time""
""fullscreenenter"",""1"",""2232""
""blur"",""7"",""65683""
""focus"",""7"",""70746""
""blur"",""7"",""177185""
""focus"",""7"",""181070""
","""event"",""trial"",""time""
""blur"",""7"",""65683""
""blur"",""7"",""177185""
","""event"",""trial"",""time""
""focus"",""7"",""70746""
""focus"",""7"",""181070""
","""event"",""trial"",""time""
""fullscreenenter"",""1"",""2232""
","
","","","-1","","","10","11322","5232","&#9761;","elianto","#3366ff99","-1","-1","1","+10","[]","0","0","2","","","","","","","",""
"pit-trial","40","503351","0.0-2.0-11.0-3.0","battery-v0.2","","""event"",""trial"",""time""
""fullscreenenter"",""1"",""2232""
""blur"",""7"",""65683""
""focus"",""7"",""70746""
""blur"",""7"",""177185""
""focus"",""7"",""181070""
","""event"",""trial"",""time""
""blur"",""7"",""65683""
""blur"",""7"",""177185""
","""event"",""trial"",""time""
""focus"",""7"",""70746""
""focus"",""7"",""181070""
","""event"",""trial"",""time""
""fullscreenenter"",""1"",""2232""
","
","","","-1","","","10","11322","5232","&#9761;","elianto","#3366ff99","-1","-1","1","0","[]","0","0","2","","","","","","","",""
"pit-trial","41","506812","0.0-2.0-11.0-4.0","battery-v0.2","","""event"",""trial"",""time""
""fullscreenenter"",""1"",""2232""
""blur"",""7"",""65683""
""focus"",""7"",""70746""
""blur"",""7"",""177185""
""focus"",""7"",""181070""
","""event"",""trial"",""time""
""blur"",""7"",""65683""
""blur"",""7"",""177185""
","""event"",""trial"",""time""
""focus"",""7"",""70746""
""focus"",""7"",""181070""
","""event"",""trial"",""time""
""fullscreenenter"",""1"",""2232""
","
","","","586.2000000476837","","","10","11322","5232","&#9761;","elianto","#3366ff99","-1"," ","0","0","[1446.3999999761581]","1","0","2","","","","","","","",""
"pit-trial","42","510288","0.0-2.0-11.1-0.1","battery-v0.2","","""event"",""trial"",""time""
""fullscreenenter"",""1"",""2232""
""blur"",""7"",""65683""
""focus"",""7"",""70746""
""blur"",""7"",""177185""
""focus"",""7"",""181070""
","""event"",""trial"",""time""
""blur"",""7"",""65683""
""blur"",""7"",""177185""
","""event"",""trial"",""time""
""focus"",""7"",""70746""
""focus"",""7"",""181070""
","""event"",""trial"",""time""
""fullscreenenter"",""1"",""2232""
","
","","","603.6999999284744","","","10","11322","5232","&#9761;","elianto","#3366ff99","-1"," ","0","0","[1460.1999999284744]","1","0","2","","","","","","","",""
"pit-trial","43","514003","0.0-2.0-11.1-1.1","battery-v0.2","","""event"",""trial"",""time""
""fullscreenenter"",""1"",""2232""
""blur"",""7"",""65683""
""focus"",""7"",""70746""
""blur"",""7"",""177185""
""focus"",""7"",""181070""
","""event"",""trial"",""time""
""blur"",""7"",""65683""
""blur"",""7"",""177185""
","""event"",""trial"",""time""
""focus"",""7"",""70746""
""focus"",""7"",""181070""
","""event"",""trial"",""time""
""fullscreenenter"",""1"",""2232""
","
","","","852","","","10","11322","5232","&#9761;","elianto","#3366ff99","-1"," ","0","0","[1703.7999999523163]","1","0","2","","","","","","","",""
"pit-trial","44","517681","0.0-2.0-11.1-2.1","battery-v0.2","","""event"",""trial"",""time""
""fullscreenenter"",""1"",""2232""
""blur"",""7"",""65683""
""focus"",""7"",""70746""
""blur"",""7"",""177185""
""focus"",""7"",""181070""
","""event"",""trial"",""time""
""blur"",""7"",""65683""
""blur"",""7"",""177185""
","""event"",""trial"",""time""
""focus"",""7"",""70746""
""focus"",""7"",""181070""
","""event"",""trial"",""time""
""fullscreenenter"",""1"",""2232""
","
","","","813.2000000476837","","","10","11322","5232","&#9761;","elianto","#3366ff99","-1"," ","0","0","[1676.7000000476837]","1","0","2","","","","","","","",""
"pit-trial","45","522534","0.0-2.0-11.1-3.1","battery-v0.2","","""event"",""trial"",""time""
""fullscreenenter"",""1"",""2232""
""blur"",""7"",""65683""
""focus"",""7"",""70746""
""blur"",""7"",""177185""
""focus"",""7"",""181070""
","""event"",""trial"",""time""
""blur"",""7"",""65683""
""blur"",""7"",""177185""
","""event"",""trial"",""time""
""focus"",""7"",""70746""
""focus"",""7"",""181070""
","""event"",""trial"",""time""
""fullscreenenter"",""1"",""2232""
","
","","","-1","","","10","11322","5232","&#9761;","elianto","#3366ff99","-1","-1","1","0","[]","0","0","2","","","","","","","",""
"pit-trial","46","527385","0.0-2.0-11.1-4.1","battery-v0.2","","""event"",""trial"",""time""
""fullscreenenter"",""1"",""2232""
""blur"",""7"",""65683""
""focus"",""7"",""70746""
""blur"",""7"",""177185""
""focus"",""7"",""181070""
","""event"",""trial"",""time""
""blur"",""7"",""65683""
""blur"",""7"",""177185""
","""event"",""trial"",""time""
""focus"",""7"",""70746""
""focus"",""7"",""181070""
","""event"",""trial"",""time""
""fullscreenenter"",""1"",""2232""
","
","","","-1","","","10","11322","5232","&#9761;","elianto","#3366ff99","-1","-1","1","+10","[]","0","0","2","","","","","","","",""
"pit-trial","47","531051","0.0-2.0-11.2-0.2","battery-v0.2","","""event"",""trial"",""time""
""fullscreenenter"",""1"",""2232""
""blur"",""7"",""65683""
""focus"",""7"",""70746""
""blur"",""7"",""177185""
""focus"",""7"",""181070""
","""event"",""trial"",""time""
""blur"",""7"",""65683""
""blur"",""7"",""177185""
","""event"",""trial"",""time""
""focus"",""7"",""70746""
""focus"",""7"",""181070""
","""event"",""trial"",""time""
""fullscreenenter"",""1"",""2232""
","
","","","810.5","","","10","11322","5232","&#9761;","elianto","#3366ff99","-1"," ","0","0","[1661.2000000476837]","1","0","2","","","","","","","",""
"pit-trial","48","534778","0.0-2.0-11.2-1.2","battery-v0.2","","""event"",""trial"",""time""
""fullscreenenter"",""1"",""2232""
""blur"",""7"",""65683""
""focus"",""7"",""70746""
""blur"",""7"",""177185""
""focus"",""7"",""181070""
","""event"",""trial"",""time""
""blur"",""7"",""65683""
""blur"",""7"",""177185""
","""event"",""trial"",""time""
""focus"",""7"",""70746""
""focus"",""7"",""181070""
","""event"",""trial"",""time""
""fullscreenenter"",""1"",""2232""
","
","","","874.6000000238419","","","10","11322","5232","&#9761;","elianto","#3366ff99","-1"," ","0","0","[1724.8999999761581]","1","0","2","","","","","","","",""
"pit-trial","49","538413","0.0-2.0-11.2-2.2","battery-v0.2","","""event"",""trial"",""time""
""fullscreenenter"",""1"",""2232""
""blur"",""7"",""65683""
""focus"",""7"",""70746""
""blur"",""7"",""177185""
""focus"",""7"",""181070""
","""event"",""trial"",""time""
""blur"",""7"",""65683""
""blur"",""7"",""177185""
","""event"",""trial"",""time""
""focus"",""7"",""70746""
""focus"",""7"",""181070""
","""event"",""trial"",""time""
""fullscreenenter"",""1"",""2232""
","
","","","779.0999999046326","","","10","11322","5232","&#9761;","elianto","#3366ff99","-1"," ","0","0","[1631.0999999046326]","1","0","2","","","","","","","",""
"pit-trial","50","542124","0.0-2.0-11.2-3.2","battery-v0.2","","""event"",""trial"",""time""
""fullscreenenter"",""1"",""2232""
""blur"",""7"",""65683""
""focus"",""7"",""70746""
""blur"",""7"",""177185""
""focus"",""7"",""181070""
","""event"",""trial"",""time""
""blur"",""7"",""65683""
""blur"",""7"",""177185""
","""event"",""trial"",""time""
""focus"",""7"",""70746""
""focus"",""7"",""181070""
","""event"",""trial"",""time""
""fullscreenenter"",""1"",""2232""
","
","","","857","","","10","11322","5232","&#9761;","elianto","#3366ff99","-1"," ","0","+10","[1707.6000000238419]","1","0","2","","","","","","","",""
"pit-trial","51","546004","0.0-2.0-11.2-4.2","battery-v0.2","","""event"",""trial"",""time""
""fullscreenenter"",""1"",""2232""
""blur"",""7"",""65683""
""focus"",""7"",""70746""
""blur"",""7"",""177185""
""focus"",""7"",""181070""
","""event"",""trial"",""time""
""blur"",""7"",""65683""
""blur"",""7"",""177185""
","""event"",""trial"",""time""
""focus"",""7"",""70746""
""focus"",""7"",""181070""
","""event"",""trial"",""time""
""fullscreenenter"",""1"",""2232""
","
","","","1027.3000000715256","","","10","11322","5232","&#9761;","elianto","#3366ff99","-1"," ","0","0","[1877.7000000476837]","1","0","2","","","","","","","",""
"pit-trial","52","549394","0.0-2.0-11.3-0.3","battery-v0.2","","""event"",""trial"",""time""
""fullscreenenter"",""1"",""2232""
""blur"",""7"",""65683""
""focus"",""7"",""70746""
""blur"",""7"",""177185""
""focus"",""7"",""181070""
","""event"",""trial"",""time""
""blur"",""7"",""65683""
""blur"",""7"",""177185""
","""event"",""trial"",""time""
""focus"",""7"",""70746""
""focus"",""7"",""181070""
","""event"",""trial"",""time""
""fullscreenenter"",""1"",""2232""
","
","","","537.6000000238419","","","10","11322","5232","&#9761;","elianto","#3366ff99","-1"," ","0","0","[1387.5]","1","0","2","","","","","","","",""
"pit-trial","53","552812","0.0-2.0-11.3-1.3","battery-v0.2","","""event"",""trial"",""time""
""fullscreenenter"",""1"",""2232""
""blur"",""7"",""65683""
""focus"",""7"",""70746""
""blur"",""7"",""177185""
""focus"",""7"",""181070""
","""event"",""trial"",""time""
""blur"",""7"",""65683""
""blur"",""7"",""177185""
","""event"",""trial"",""time""
""focus"",""7"",""70746""
""focus"",""7"",""181070""
","""event"",""trial"",""time""
""fullscreenenter"",""1"",""2232""
","
","","","564.5","","","10","11322","5232","&#9761;","elianto","#3366ff99","-1"," ","0","0","[1414.8999999761581]","1","0","2","","","","","","","",""
"pit-trial","54","556214","0.0-2.0-11.3-2.3","battery-v0.2","","""event"",""trial"",""time""
""fullscreenenter"",""1"",""2232""
""blur"",""7"",""65683""
""focus"",""7"",""70746""
""blur"",""7"",""177185""
""focus"",""7"",""181070""
","""event"",""trial"",""time""
""blur"",""7"",""65683""
""blur"",""7"",""177185""
","""event"",""trial"",""time""
""focus"",""7"",""70746""
""focus"",""7"",""181070""
","""event"",""trial"",""time""
""fullscreenenter"",""1"",""2232""
","
","","","548.5","","","10","11322","5232","&#9761;","elianto","#3366ff99","-1"," ","0","0","[1399.7000000476837]","1","0","2","","","","","","","",""
"pit-trial","55","559400","0.0-2.0-11.3-3.3","battery-v0.2","","""event"",""trial"",""time""
""fullscreenenter"",""1"",""2232""
""blur"",""7"",""65683""
""focus"",""7"",""70746""
""blur"",""7"",""177185""
""focus"",""7"",""181070""
","""event"",""trial"",""time""
""blur"",""7"",""65683""
""blur"",""7"",""177185""
","""event"",""trial"",""time""
""focus"",""7"",""70746""
""focus"",""7"",""181070""
","""event"",""trial"",""time""
""fullscreenenter"",""1"",""2232""
","
","","","333.2999999523163","","","10","11322","5232","&#9761;","elianto","#3366ff99","-1"," ","0","+10","[1184]","1","0","2","","","","","","","",""
"pit-trial","56","562560","0.0-2.0-11.3-4.3","battery-v0.2","","""event"",""trial"",""time""
""fullscreenenter"",""1"",""2232""
""blur"",""7"",""65683""
""focus"",""7"",""70746""
""blur"",""7"",""177185""
""focus"",""7"",""181070""
","""event"",""trial"",""time""
""blur"",""7"",""65683""
""blur"",""7"",""177185""
","""event"",""trial"",""time""
""focus"",""7"",""70746""
""focus"",""7"",""181070""
","""event"",""trial"",""time""
""fullscreenenter"",""1"",""2232""
","
","","","294.6999999284744","","","10","11322","5232","&#9761;","elianto","#3366ff99","-1"," ","0","0","[1145]","1","0","2","","","","","","","",""
"call-function","57","562562","0.0-2.0-12.0","battery-v0.2","","""event"",""trial"",""time""
""fullscreenenter"",""1"",""2232""
""blur"",""7"",""65683""
""focus"",""7"",""70746""
""blur"",""7"",""177185""
""focus"",""7"",""181070""
","""event"",""trial"",""time""
""blur"",""7"",""65683""
""blur"",""7"",""177185""
","""event"",""trial"",""time""
""focus"",""7"",""70746""
""focus"",""7"",""181070""
","""event"",""trial"",""time""
""fullscreenenter"",""1"",""2232""
","
","","","","","","","","","","","","","","","","","","","","","","","","","","",""
"pit-instructions","58","605887","0.0-2.0-13.0","battery-v0.2","","""event"",""trial"",""time""
""fullscreenenter"",""1"",""2232""
""blur"",""7"",""65683""
""focus"",""7"",""70746""
""blur"",""7"",""177185""
""focus"",""7"",""181070""
","""event"",""trial"",""time""
""blur"",""7"",""65683""
""blur"",""7"",""177185""
","""event"",""trial"",""time""
""focus"",""7"",""70746""
""focus"",""7"",""181070""
","""event"",""trial"",""time""
""fullscreenenter"",""1"",""2232""
","
","","[{""page_index"":0,""viewing_time"":7028.200000047684},{""page_index"":1,""viewing_time"":8486.5},{""page_index"":2,""viewing_time"":4448.200000047684},{""page_index"":3,""viewing_time"":10792},{""page_index"":4,""viewing_time"":12568.5}]","43323.60000002384","","","","","","","","","","","","","","","","","","","","","","","",""
"pit-trial","59","609370","0.0-2.0-14.0-0.0","battery-v0.2","","""event"",""trial"",""time""
""fullscreenenter"",""1"",""2232""
""blur"",""7"",""65683""
""focus"",""7"",""70746""
""blur"",""7"",""177185""
""focus"",""7"",""181070""
","""event"",""trial"",""time""
""blur"",""7"",""65683""
""blur"",""7"",""177185""
","""event"",""trial"",""time""
""focus"",""7"",""70746""
""focus"",""7"",""181070""
","""event"",""trial"",""time""
""fullscreenenter"",""1"",""2232""
","
","","","613.2000000476837","","","10","11322","5232","&#9826;","elianto","#f73b6a7A","-1"," ","0","-10","[1471.2999999523163]","1","0","3","","","","","","","",""
"pit-trial","60","614231","0.0-2.0-14.0-1.0","battery-v0.2","","""event"",""trial"",""time""
""fullscreenenter"",""1"",""2232""
""blur"",""7"",""65683""
""focus"",""7"",""70746""
""blur"",""7"",""177185""
""focus"",""7"",""181070""
","""event"",""trial"",""time""
""blur"",""7"",""65683""
""blur"",""7"",""177185""
","""event"",""trial"",""time""
""focus"",""7"",""70746""
""focus"",""7"",""181070""
","""event"",""trial"",""time""
""fullscreenenter"",""1"",""2232""
","
","","","-1","","","10","11322","5232","&#9826;","elianto","#f73b6a7A","-1","-1","1","0","[]","0","0","3","","","","","","","",""
"pit-trial","61","619104","0.0-2.0-14.0-2.0","battery-v0.2","","""event"",""trial"",""time""
""fullscreenenter"",""1"",""2232""
""blur"",""7"",""65683""
""focus"",""7"",""70746""
""blur"",""7"",""177185""
""focus"",""7"",""181070""
","""event"",""trial"",""time""
""blur"",""7"",""65683""
""blur"",""7"",""177185""
","""event"",""trial"",""time""
""focus"",""7"",""70746""
""focus"",""7"",""181070""
","""event"",""trial"",""time""
""fullscreenenter"",""1"",""2232""
","
","","","-1","","","10","11322","5232","&#9826;","elianto","#f73b6a7A","-1","-1","1","0","[]","0","0","3","","","","","","","",""
"pit-trial","62","623980","0.0-2.0-14.0-3.0","battery-v0.2","","""event"",""trial"",""time""
""fullscreenenter"",""1"",""2232""
""blur"",""7"",""65683""
""focus"",""7"",""70746""
""blur"",""7"",""177185""
""focus"",""7"",""181070""
","""event"",""trial"",""time""
""blur"",""7"",""65683""
""blur"",""7"",""177185""
","""event"",""trial"",""time""
""focus"",""7"",""70746""
""focus"",""7"",""181070""
","""event"",""trial"",""time""
""fullscreenenter"",""1"",""2232""
","
","","","-1","","","10","11322","5232","&#9826;","elianto","#f73b6a7A","-1","-1","1","-10","[]","0","0","3","","","","","","","",""
"pit-trial","63","628842","0.0-2.0-14.0-4.0","battery-v0.2","","""event"",""trial"",""time""
""fullscreenenter"",""1"",""2232""
""blur"",""7"",""65683""
""focus"",""7"",""70746""
""blur"",""7"",""177185""
""focus"",""7"",""181070""
","""event"",""trial"",""time""
""blur"",""7"",""65683""
""blur"",""7"",""177185""
","""event"",""trial"",""time""
""focus"",""7"",""70746""
""focus"",""7"",""181070""
","""event"",""trial"",""time""
""fullscreenenter"",""1"",""2232""
","
","","","-1","","","10","11322","5232","&#9826;","elianto","#f73b6a7A","-1","-1","1","0","[]","0","0","3","","","","","","","",""
"pit-trial","64","633696","0.0-2.0-14.1-0.1","battery-v0.2","","""event"",""trial"",""time""
""fullscreenenter"",""1"",""2232""
""blur"",""7"",""65683""
""focus"",""7"",""70746""
""blur"",""7"",""177185""
""focus"",""7"",""181070""
","""event"",""trial"",""time""
""blur"",""7"",""65683""
""blur"",""7"",""177185""
","""event"",""trial"",""time""
""focus"",""7"",""70746""
""focus"",""7"",""181070""
","""event"",""trial"",""time""
""fullscreenenter"",""1"",""2232""
","
","","","-1","","","10","11322","5232","&#9826;","elianto","#f73b6a7A","-1","-1","1","0","[]","0","0","3","","","","","","","",""
"pit-trial","65","638549","0.0-2.0-14.1-1.1","battery-v0.2","","""event"",""trial"",""time""
""fullscreenenter"",""1"",""2232""
""blur"",""7"",""65683""
""focus"",""7"",""70746""
""blur"",""7"",""177185""
""focus"",""7"",""181070""
","""event"",""trial"",""time""
""blur"",""7"",""65683""
""blur"",""7"",""177185""
","""event"",""trial"",""time""
""focus"",""7"",""70746""
""focus"",""7"",""181070""
","""event"",""trial"",""time""
""fullscreenenter"",""1"",""2232""
","
","","","-1","","","10","11322","5232","&#9826;","elianto","#f73b6a7A","-1","-1","1","0","[]","0","0","3","","","","","","","",""
"pit-trial","66","643404","0.0-2.0-14.1-2.1","battery-v0.2","","""event"",""trial"",""time""
""fullscreenenter"",""1"",""2232""
""blur"",""7"",""65683""
""focus"",""7"",""70746""
""blur"",""7"",""177185""
""focus"",""7"",""181070""
","""event"",""trial"",""time""
""blur"",""7"",""65683""
""blur"",""7"",""177185""
","""event"",""trial"",""time""
""focus"",""7"",""70746""
""focus"",""7"",""181070""
","""event"",""trial"",""time""
""fullscreenenter"",""1"",""2232""
","
","","","-1","","","10","11322","5232","&#9826;","elianto","#f73b6a7A","-1","-1","1","0","[]","0","0","3","","","","","","","",""
"pit-trial","67","648258","0.0-2.0-14.1-3.1","battery-v0.2","","""event"",""trial"",""time""
""fullscreenenter"",""1"",""2232""
""blur"",""7"",""65683""
""focus"",""7"",""70746""
""blur"",""7"",""177185""
""focus"",""7"",""181070""
""blur"",""68"",""648956""
","""event"",""trial"",""time""
""blur"",""7"",""65683""
""blur"",""7"",""177185""
""blur"",""68"",""648956""
","""event"",""trial"",""time""
""focus"",""7"",""70746""
""focus"",""7"",""181070""
","""event"",""trial"",""time""
""fullscreenenter"",""1"",""2232""
","
","","","-1","","","10","11322","5232","&#9826;","elianto","#f73b6a7A","-1","-1","1","-10","[]","0","0","3","","","","","","","",""
"pit-trial","68","653114","0.0-2.0-14.1-4.1","battery-v0.2","","""event"",""trial"",""time""
""fullscreenenter"",""1"",""2232""
""blur"",""7"",""65683""
""focus"",""7"",""70746""
""blur"",""7"",""177185""
""focus"",""7"",""181070""
""blur"",""68"",""648956""
""focus"",""69"",""654636""
","""event"",""trial"",""time""
""blur"",""7"",""65683""
""blur"",""7"",""177185""
""blur"",""68"",""648956""
","""event"",""trial"",""time""
""focus"",""7"",""70746""
""focus"",""7"",""181070""
""focus"",""69"",""654636""
","""event"",""trial"",""time""
""fullscreenenter"",""1"",""2232""
","
","","","-1","","","10","11322","5232","&#9826;","elianto","#f73b6a7A","-1","-1","1","0","[]","0","0","3","","","","","","","",""
"pit-trial","69","657968","0.0-2.0-14.2-0.2","battery-v0.2","","""event"",""trial"",""time""
""fullscreenenter"",""1"",""2232""
""blur"",""7"",""65683""
""focus"",""7"",""70746""
""blur"",""7"",""177185""
""focus"",""7"",""181070""
""blur"",""68"",""648956""
""focus"",""69"",""654636""
","""event"",""trial"",""time""
""blur"",""7"",""65683""
""blur"",""7"",""177185""
""blur"",""68"",""648956""
","""event"",""trial"",""time""
""focus"",""7"",""70746""
""focus"",""7"",""181070""
""focus"",""69"",""654636""
","""event"",""trial"",""time""
""fullscreenenter"",""1"",""2232""
","
","","","-1","","","10","11322","5232","&#9826;","elianto","#f73b6a7A","-1","-1","1","0","[]","0","0","3","","","","","","","",""
"pit-trial","70","662822","0.0-2.0-14.2-1.2","battery-v0.2","","""event"",""trial"",""time""
""fullscreenenter"",""1"",""2232""
""blur"",""7"",""65683""
""focus"",""7"",""70746""
""blur"",""7"",""177185""
""focus"",""7"",""181070""
""blur"",""68"",""648956""
""focus"",""69"",""654636""
","""event"",""trial"",""time""
""blur"",""7"",""65683""
""blur"",""7"",""177185""
""blur"",""68"",""648956""
","""event"",""trial"",""time""
""focus"",""7"",""70746""
""focus"",""7"",""181070""
""focus"",""69"",""654636""
","""event"",""trial"",""time""
""fullscreenenter"",""1"",""2232""
","
","","","-1","","","10","11322","5232","&#9826;","elianto","#f73b6a7A","-1","-1","1","0","[]","0","0","3","","","","","","","",""
"pit-trial","71","667675","0.0-2.0-14.2-2.2","battery-v0.2","","""event"",""trial"",""time""
""fullscreenenter"",""1"",""2232""
""blur"",""7"",""65683""
""focus"",""7"",""70746""
""blur"",""7"",""177185""
""focus"",""7"",""181070""
""blur"",""68"",""648956""
""focus"",""69"",""654636""
","""event"",""trial"",""time""
""blur"",""7"",""65683""
""blur"",""7"",""177185""
""blur"",""68"",""648956""
","""event"",""trial"",""time""
""focus"",""7"",""70746""
""focus"",""7"",""181070""
""focus"",""69"",""654636""
","""event"",""trial"",""time""
""fullscreenenter"",""1"",""2232""
","
","","","-1","","","10","11322","5232","&#9826;","elianto","#f73b6a7A","-1","-1","1","0","[]","0","0","3","","","","","","","",""
"pit-trial","72","672529","0.0-2.0-14.2-3.2","battery-v0.2","","""event"",""trial"",""time""
""fullscreenenter"",""1"",""2232""
""blur"",""7"",""65683""
""focus"",""7"",""70746""
""blur"",""7"",""177185""
""focus"",""7"",""181070""
""blur"",""68"",""648956""
""focus"",""69"",""654636""
","""event"",""trial"",""time""
""blur"",""7"",""65683""
""blur"",""7"",""177185""
""blur"",""68"",""648956""
","""event"",""trial"",""time""
""focus"",""7"",""70746""
""focus"",""7"",""181070""
""focus"",""69"",""654636""
","""event"",""trial"",""time""
""fullscreenenter"",""1"",""2232""
","
","","","-1","","","10","11322","5232","&#9826;","elianto","#f73b6a7A","-1","-1","1","-10","[]","0","0","3","","","","","","","",""
"pit-trial","73","677383","0.0-2.0-14.2-4.2","battery-v0.2","","""event"",""trial"",""time""
""fullscreenenter"",""1"",""2232""
""blur"",""7"",""65683""
""focus"",""7"",""70746""
""blur"",""7"",""177185""
""focus"",""7"",""181070""
""blur"",""68"",""648956""
""focus"",""69"",""654636""
","""event"",""trial"",""time""
""blur"",""7"",""65683""
""blur"",""7"",""177185""
""blur"",""68"",""648956""
","""event"",""trial"",""time""
""focus"",""7"",""70746""
""focus"",""7"",""181070""
""focus"",""69"",""654636""
","""event"",""trial"",""time""
""fullscreenenter"",""1"",""2232""
","
","","","-1","","","10","11322","5232","&#9826;","elianto","#f73b6a7A","-1","-1","1","0","[]","0","0","3","","","","","","","",""
"pit-trial","74","682237","0.0-2.0-14.3-0.3","battery-v0.2","","""event"",""trial"",""time""
""fullscreenenter"",""1"",""2232""
""blur"",""7"",""65683""
""focus"",""7"",""70746""
""blur"",""7"",""177185""
""focus"",""7"",""181070""
""blur"",""68"",""648956""
""focus"",""69"",""654636""
","""event"",""trial"",""time""
""blur"",""7"",""65683""
""blur"",""7"",""177185""
""blur"",""68"",""648956""
","""event"",""trial"",""time""
""focus"",""7"",""70746""
""focus"",""7"",""181070""
""focus"",""69"",""654636""
","""event"",""trial"",""time""
""fullscreenenter"",""1"",""2232""
","
","","","-1","","","10","11322","5232","&#9826;","elianto","#f73b6a7A","-1","-1","1","0","[]","0","0","3","","","","","","","",""
"pit-trial","75","687091","0.0-2.0-14.3-1.3","battery-v0.2","","""event"",""trial"",""time""
""fullscreenenter"",""1"",""2232""
""blur"",""7"",""65683""
""focus"",""7"",""70746""
""blur"",""7"",""177185""
""focus"",""7"",""181070""
""blur"",""68"",""648956""
""focus"",""69"",""654636""
","""event"",""trial"",""time""
""blur"",""7"",""65683""
""blur"",""7"",""177185""
""blur"",""68"",""648956""
","""event"",""trial"",""time""
""focus"",""7"",""70746""
""focus"",""7"",""181070""
""focus"",""69"",""654636""
","""event"",""trial"",""time""
""fullscreenenter"",""1"",""2232""
","
","","","-1","","","10","11322","5232","&#9826;","elianto","#f73b6a7A","-1","-1","1","0","[]","0","0","3","","","","","","","",""
"pit-trial","76","691944","0.0-2.0-14.3-2.3","battery-v0.2","","""event"",""trial"",""time""
""fullscreenenter"",""1"",""2232""
""blur"",""7"",""65683""
""focus"",""7"",""70746""
""blur"",""7"",""177185""
""focus"",""7"",""181070""
""blur"",""68"",""648956""
""focus"",""69"",""654636""
","""event"",""trial"",""time""
""blur"",""7"",""65683""
""blur"",""7"",""177185""
""blur"",""68"",""648956""
","""event"",""trial"",""time""
""focus"",""7"",""70746""
""focus"",""7"",""181070""
""focus"",""69"",""654636""
","""event"",""trial"",""time""
""fullscreenenter"",""1"",""2232""
","
","","","-1","","","10","11322","5232","&#9826;","elianto","#f73b6a7A","-1","-1","1","0","[]","0","0","3","","","","","","","",""
"pit-trial","77","696797","0.0-2.0-14.3-3.3","battery-v0.2","","""event"",""trial"",""time""
""fullscreenenter"",""1"",""2232""
""blur"",""7"",""65683""
""focus"",""7"",""70746""
""blur"",""7"",""177185""
""focus"",""7"",""181070""
""blur"",""68"",""648956""
""focus"",""69"",""654636""
","""event"",""trial"",""time""
""blur"",""7"",""65683""
""blur"",""7"",""177185""
""blur"",""68"",""648956""
","""event"",""trial"",""time""
""focus"",""7"",""70746""
""focus"",""7"",""181070""
""focus"",""69"",""654636""
","""event"",""trial"",""time""
""fullscreenenter"",""1"",""2232""
","
","","","-1","","","10","11322","5232","&#9826;","elianto","#f73b6a7A","-1","-1","1","-10","[]","0","0","3","","","","","","","",""
"pit-trial","78","701650","0.0-2.0-14.3-4.3","battery-v0.2","","""event"",""trial"",""time""
""fullscreenenter"",""1"",""2232""
""blur"",""7"",""65683""
""focus"",""7"",""70746""
""blur"",""7"",""177185""
""focus"",""7"",""181070""
""blur"",""68"",""648956""
""focus"",""69"",""654636""
","""event"",""trial"",""time""
""blur"",""7"",""65683""
""blur"",""7"",""177185""
""blur"",""68"",""648956""
","""event"",""trial"",""time""
""focus"",""7"",""70746""
""focus"",""7"",""181070""
""focus"",""69"",""654636""
","""event"",""trial"",""time""
""fullscreenenter"",""1"",""2232""
","
","","","-1","","","10","11322","5232","&#9826;","elianto","#f73b6a7A","-1","-1","1","0","[]","0","0","3","","","","","","","",""
"call-function","79","701652","0.0-2.0-15.0","battery-v0.2","","""event"",""trial"",""time""
""fullscreenenter"",""1"",""2232""
""blur"",""7"",""65683""
""focus"",""7"",""70746""
""blur"",""7"",""177185""
""focus"",""7"",""181070""
""blur"",""68"",""648956""
""focus"",""69"",""654636""
","""event"",""trial"",""time""
""blur"",""7"",""65683""
""blur"",""7"",""177185""
""blur"",""68"",""648956""
","""event"",""trial"",""time""
""focus"",""7"",""70746""
""focus"",""7"",""181070""
""focus"",""69"",""654636""
","""event"",""trial"",""time""
""fullscreenenter"",""1"",""2232""
","
","","","","","","","","","","","","","","","","","","","","","","","","","","",""
"pit-instructions","80","728991","0.0-2.0-16.0","battery-v0.2","","""event"",""trial"",""time""
""fullscreenenter"",""1"",""2232""
""blur"",""7"",""65683""
""focus"",""7"",""70746""
""blur"",""7"",""177185""
""focus"",""7"",""181070""
""blur"",""68"",""648956""
""focus"",""69"",""654636""
","""event"",""trial"",""time""
""blur"",""7"",""65683""
""blur"",""7"",""177185""
""blur"",""68"",""648956""
","""event"",""trial"",""time""
""focus"",""7"",""70746""
""focus"",""7"",""181070""
""focus"",""69"",""654636""
","""event"",""trial"",""time""
""fullscreenenter"",""1"",""2232""
","
","","[{""page_index"":0,""viewing_time"":8761.799999952316},{""page_index"":1,""viewing_time"":8287.5},{""page_index"":2,""viewing_time"":4888.200000047684},{""page_index"":3,""viewing_time"":5400.199999928474}]","27338","","","","","","","","","","","","","","","","","","","","","","","",""
"pit-trial","81","733061","0.0-2.0-17.0-0.0","battery-v0.2","","""event"",""trial"",""time""
""fullscreenenter"",""1"",""2232""
""blur"",""7"",""65683""
""focus"",""7"",""70746""
""blur"",""7"",""177185""
""focus"",""7"",""181070""
""blur"",""68"",""648956""
""focus"",""69"",""654636""
","""event"",""trial"",""time""
""blur"",""7"",""65683""
""blur"",""7"",""177185""
""blur"",""68"",""648956""
","""event"",""trial"",""time""
""focus"",""7"",""70746""
""focus"",""7"",""181070""
""focus"",""69"",""654636""
","""event"",""trial"",""time""
""fullscreenenter"",""1"",""2232""
","
","","","1204.1000000238419","","","10","11322","5232","&#9789;","elianto","#f73b6a7A"," "," ","1","0","[2057.7000000476837]","1","0","4","","","","","","","",""
"pit-trial","82","736457","0.0-2.0-17.0-1.0","battery-v0.2","","""event"",""trial"",""time""
""fullscreenenter"",""1"",""2232""
""blur"",""7"",""65683""
""focus"",""7"",""70746""
""blur"",""7"",""177185""
""focus"",""7"",""181070""
""blur"",""68"",""648956""
""focus"",""69"",""654636""
","""event"",""trial"",""time""
""blur"",""7"",""65683""
""blur"",""7"",""177185""
""blur"",""68"",""648956""
","""event"",""trial"",""time""
""focus"",""7"",""70746""
""focus"",""7"",""181070""
""focus"",""69"",""654636""
","""event"",""trial"",""time""
""fullscreenenter"",""1"",""2232""
","
","","","524.3000000715256","","","10","11322","5232","&#9789;","elianto","#f73b6a7A"," "," ","1","0","[1377.7000000476837]","1","0","4","","","","","","","",""
"pit-trial","83","739417","0.0-2.0-17.0-2.0","battery-v0.2","","""event"",""trial"",""time""
""fullscreenenter"",""1"",""2232""
""blur"",""7"",""65683""
""focus"",""7"",""70746""
""blur"",""7"",""177185""
""focus"",""7"",""181070""
""blur"",""68"",""648956""
""focus"",""69"",""654636""
","""event"",""trial"",""time""
""blur"",""7"",""65683""
""blur"",""7"",""177185""
""blur"",""68"",""648956""
","""event"",""trial"",""time""
""focus"",""7"",""70746""
""focus"",""7"",""181070""
""focus"",""69"",""654636""
","""event"",""trial"",""time""
""fullscreenenter"",""1"",""2232""
","
","","","84.20000004768372","","","10","11322","5232","&#9789;","elianto","#f73b6a7A"," "," ","1","0","[943.2000000476837]","1","0","4","","","","","","","",""
"pit-trial","84","744290","0.0-2.0-17.0-3.0","battery-v0.2","","""event"",""trial"",""time""
""fullscreenenter"",""1"",""2232""
""blur"",""7"",""65683""
""focus"",""7"",""70746""
""blur"",""7"",""177185""
""focus"",""7"",""181070""
""blur"",""68"",""648956""
""focus"",""69"",""654636""
","""event"",""trial"",""time""
""blur"",""7"",""65683""
""blur"",""7"",""177185""
""blur"",""68"",""648956""
","""event"",""trial"",""time""
""focus"",""7"",""70746""
""focus"",""7"",""181070""
""focus"",""69"",""654636""
","""event"",""trial"",""time""
""fullscreenenter"",""1"",""2232""
","
","","","-1","","","10","11322","5232","&#9789;","elianto","#f73b6a7A"," ","-1","0","0","[]","0","0","4","","","","","","","",""
"pit-trial","85","749163","0.0-2.0-17.0-4.0","battery-v0.2","","""event"",""trial"",""time""
""fullscreenenter"",""1"",""2232""
""blur"",""7"",""65683""
""focus"",""7"",""70746""
""blur"",""7"",""177185""
""focus"",""7"",""181070""
""blur"",""68"",""648956""
""focus"",""69"",""654636""
","""event"",""trial"",""time""
""blur"",""7"",""65683""
""blur"",""7"",""177185""
""blur"",""68"",""648956""
","""event"",""trial"",""time""
""focus"",""7"",""70746""
""focus"",""7"",""181070""
""focus"",""69"",""654636""
","""event"",""trial"",""time""
""fullscreenenter"",""1"",""2232""
","
","","","-1","","","10","11322","5232","&#9789;","elianto","#f73b6a7A"," ","-1","0","-10","[]","0","0","4","","","","","","","",""
"pit-trial","86","752561","0.0-2.0-17.1-0.1","battery-v0.2","","""event"",""trial"",""time""
""fullscreenenter"",""1"",""2232""
""blur"",""7"",""65683""
""focus"",""7"",""70746""
""blur"",""7"",""177185""
""focus"",""7"",""181070""
""blur"",""68"",""648956""
""focus"",""69"",""654636""
","""event"",""trial"",""time""
""blur"",""7"",""65683""
""blur"",""7"",""177185""
""blur"",""68"",""648956""
","""event"",""trial"",""time""
""focus"",""7"",""70746""
""focus"",""7"",""181070""
""focus"",""69"",""654636""
","""event"",""trial"",""time""
""fullscreenenter"",""1"",""2232""
","
","","","533.6000000238419","","","10","11322","5232","&#9789;","elianto","#f73b6a7A"," "," ","1","0","[1388.8000000715256]","1","0","4","","","","","","","",""
"pit-trial","87","755795","0.0-2.0-17.1-1.1","battery-v0.2","","""event"",""trial"",""time""
""fullscreenenter"",""1"",""2232""
""blur"",""7"",""65683""
""focus"",""7"",""70746""
""blur"",""7"",""177185""
""focus"",""7"",""181070""
""blur"",""68"",""648956""
""focus"",""69"",""654636""
","""event"",""trial"",""time""
""blur"",""7"",""65683""
""blur"",""7"",""177185""
""blur"",""68"",""648956""
","""event"",""trial"",""time""
""focus"",""7"",""70746""
""focus"",""7"",""181070""
""focus"",""69"",""654636""
","""event"",""trial"",""time""
""fullscreenenter"",""1"",""2232""
","
","","","360.6999999284744","","","10","11322","5232","&#9789;","elianto","#f73b6a7A"," "," ","1","0","[1219.8999999761581]","1","0","4","","","","","","","",""
"pit-trial","88","759270","0.0-2.0-17.1-2.1","battery-v0.2","","""event"",""trial"",""time""
""fullscreenenter"",""1"",""2232""
""blur"",""7"",""65683""
""focus"",""7"",""70746""
""blur"",""7"",""177185""
""focus"",""7"",""181070""
""blur"",""68"",""648956""
""focus"",""69"",""654636""
","""event"",""trial"",""time""
""blur"",""7"",""65683""
""blur"",""7"",""177185""
""blur"",""68"",""648956""
","""event"",""trial"",""time""
""focus"",""7"",""70746""
""focus"",""7"",""181070""
""focus"",""69"",""654636""
","""event"",""trial"",""time""
""fullscreenenter"",""1"",""2232""
","
","","","614.5","","","10","11322","5232","&#9789;","elianto","#f73b6a7A"," "," ","1","0","[1472]","1","0","4","","","","","","","",""
"pit-trial","89","764125","0.0-2.0-17.1-3.1","battery-v0.2","","""event"",""trial"",""time""
""fullscreenenter"",""1"",""2232""
""blur"",""7"",""65683""
""focus"",""7"",""70746""
""blur"",""7"",""177185""
""focus"",""7"",""181070""
""blur"",""68"",""648956""
""focus"",""69"",""654636""
","""event"",""trial"",""time""
""blur"",""7"",""65683""
""blur"",""7"",""177185""
""blur"",""68"",""648956""
","""event"",""trial"",""time""
""focus"",""7"",""70746""
""focus"",""7"",""181070""
""focus"",""69"",""654636""
","""event"",""trial"",""time""
""fullscreenenter"",""1"",""2232""
","
","","","-1","","","10","11322","5232","&#9789;","elianto","#f73b6a7A"," ","-1","0","0","[]","0","0","4","","","","","","","",""
"pit-trial","90","768978","0.0-2.0-17.1-4.1","battery-v0.2","","""event"",""trial"",""time""
""fullscreenenter"",""1"",""2232""
""blur"",""7"",""65683""
""focus"",""7"",""70746""
""blur"",""7"",""177185""
""focus"",""7"",""181070""
""blur"",""68"",""648956""
""focus"",""69"",""654636""
","""event"",""trial"",""time""
""blur"",""7"",""65683""
""blur"",""7"",""177185""
""blur"",""68"",""648956""
","""event"",""trial"",""time""
""focus"",""7"",""70746""
""focus"",""7"",""181070""
""focus"",""69"",""654636""
","""event"",""trial"",""time""
""fullscreenenter"",""1"",""2232""
","
","","","-1","","","10","11322","5232","&#9789;","elianto","#f73b6a7A"," ","-1","0","-10","[]","0","0","4","","","","","","","",""
"pit-trial","91","772216","0.0-2.0-17.2-0.2","battery-v0.2","","""event"",""trial"",""time""
""fullscreenenter"",""1"",""2232""
""blur"",""7"",""65683""
""focus"",""7"",""70746""
""blur"",""7"",""177185""
""focus"",""7"",""181070""
""blur"",""68"",""648956""
""focus"",""69"",""654636""
","""event"",""trial"",""time""
""blur"",""7"",""65683""
""blur"",""7"",""177185""
""blur"",""68"",""648956""
","""event"",""trial"",""time""
""focus"",""7"",""70746""
""focus"",""7"",""181070""
""focus"",""69"",""654636""
","""event"",""trial"",""time""
""fullscreenenter"",""1"",""2232""
","
","","","383.10000002384186","","","10","11322","5232","&#9789;","elianto","#f73b6a7A"," "," ","1","0","[1234.7000000476837]","1","0","4","","","","","","","",""
"pit-trial","92","775827","0.0-2.0-17.2-1.2","battery-v0.2","","""event"",""trial"",""time""
""fullscreenenter"",""1"",""2232""
""blur"",""7"",""65683""
""focus"",""7"",""70746""
""blur"",""7"",""177185""
""focus"",""7"",""181070""
""blur"",""68"",""648956""
""focus"",""69"",""654636""
","""event"",""trial"",""time""
""blur"",""7"",""65683""
""blur"",""7"",""177185""
""blur"",""68"",""648956""
","""event"",""trial"",""time""
""focus"",""7"",""70746""
""focus"",""7"",""181070""
""focus"",""69"",""654636""
","""event"",""trial"",""time""
""fullscreenenter"",""1"",""2232""
","
","","","759","","","10","11322","5232","&#9789;","elianto","#f73b6a7A"," "," ","1","0","[1609.5]","1","0","4","","","","","","","",""
"pit-trial","93","780682","0.0-2.0-17.2-2.2","battery-v0.2","","""event"",""trial"",""time""
""fullscreenenter"",""1"",""2232""
""blur"",""7"",""65683""
""focus"",""7"",""70746""
""blur"",""7"",""177185""
""focus"",""7"",""181070""
""blur"",""68"",""648956""
""focus"",""69"",""654636""
","""event"",""trial"",""time""
""blur"",""7"",""65683""
""blur"",""7"",""177185""
""blur"",""68"",""648956""
","""event"",""trial"",""time""
""focus"",""7"",""70746""
""focus"",""7"",""181070""
""focus"",""69"",""654636""
","""event"",""trial"",""time""
""fullscreenenter"",""1"",""2232""
","
","","","-1","","","10","11322","5232","&#9789;","elianto","#f73b6a7A"," ","-1","0","-10","[]","0","0","4","","","","","","","",""
"pit-trial","94","785535","0.0-2.0-17.2-3.2","battery-v0.2","","""event"",""trial"",""time""
""fullscreenenter"",""1"",""2232""
""blur"",""7"",""65683""
""focus"",""7"",""70746""
""blur"",""7"",""177185""
""focus"",""7"",""181070""
""blur"",""68"",""648956""
""focus"",""69"",""654636""
","""event"",""trial"",""time""
""blur"",""7"",""65683""
""blur"",""7"",""177185""
""blur"",""68"",""648956""
","""event"",""trial"",""time""
""focus"",""7"",""70746""
""focus"",""7"",""181070""
""focus"",""69"",""654636""
","""event"",""trial"",""time""
""fullscreenenter"",""1"",""2232""
","
","","","-1","","","10","11322","5232","&#9789;","elianto","#f73b6a7A"," ","-1","0","0","[]","0","0","4","","","","","","","",""
"pit-trial","95","789054","0.0-2.0-17.2-4.2","battery-v0.2","","""event"",""trial"",""time""
""fullscreenenter"",""1"",""2232""
""blur"",""7"",""65683""
""focus"",""7"",""70746""
""blur"",""7"",""177185""
""focus"",""7"",""181070""
""blur"",""68"",""648956""
""focus"",""69"",""654636""
","""event"",""trial"",""time""
""blur"",""7"",""65683""
""blur"",""7"",""177185""
""blur"",""68"",""648956""
","""event"",""trial"",""time""
""focus"",""7"",""70746""
""focus"",""7"",""181070""
""focus"",""69"",""654636""
","""event"",""trial"",""time""
""fullscreenenter"",""1"",""2232""
","
","","","665.1000000238419","","","10","11322","5232","&#9789;","elianto","#f73b6a7A"," "," ","1","0","[1515.5]","1","0","4","","","","","","","",""
"pit-trial","96","792293","0.0-2.0-17.3-0.3","battery-v0.2","","""event"",""trial"",""time""
""fullscreenenter"",""1"",""2232""
""blur"",""7"",""65683""
""focus"",""7"",""70746""
""blur"",""7"",""177185""
""focus"",""7"",""181070""
""blur"",""68"",""648956""
""focus"",""69"",""654636""
","""event"",""trial"",""time""
""blur"",""7"",""65683""
""blur"",""7"",""177185""
""blur"",""68"",""648956""
","""event"",""trial"",""time""
""focus"",""7"",""70746""
""focus"",""7"",""181070""
""focus"",""69"",""654636""
","""event"",""trial"",""time""
""fullscreenenter"",""1"",""2232""
","
","","","384.6999999284744","","","10","11322","5232","&#9789;","elianto","#f73b6a7A"," "," ","1","0","[1235.2999999523163]","1","0","4","","","","","","","",""
"pit-trial","97","797146","0.0-2.0-17.3-1.3","battery-v0.2","","""event"",""trial"",""time""
""fullscreenenter"",""1"",""2232""
""blur"",""7"",""65683""
""focus"",""7"",""70746""
""blur"",""7"",""177185""
""focus"",""7"",""181070""
""blur"",""68"",""648956""
""focus"",""69"",""654636""
","""event"",""trial"",""time""
""blur"",""7"",""65683""
""blur"",""7"",""177185""
""blur"",""68"",""648956""
","""event"",""trial"",""time""
""focus"",""7"",""70746""
""focus"",""7"",""181070""
""focus"",""69"",""654636""
","""event"",""trial"",""time""
""fullscreenenter"",""1"",""2232""
","
","","","-1","","","10","11322","5232","&#9789;","elianto","#f73b6a7A"," ","-1","0","-10","[]","0","0","4","","","","","","","",""
"pit-trial","98","801999","0.0-2.0-17.3-2.3","battery-v0.2","","""event"",""trial"",""time""
""fullscreenenter"",""1"",""2232""
""blur"",""7"",""65683""
""focus"",""7"",""70746""
""blur"",""7"",""177185""
""focus"",""7"",""181070""
""blur"",""68"",""648956""
""focus"",""69"",""654636""
","""event"",""trial"",""time""
""blur"",""7"",""65683""
""blur"",""7"",""177185""
""blur"",""68"",""648956""
","""event"",""trial"",""time""
""focus"",""7"",""70746""
""focus"",""7"",""181070""
""focus"",""69"",""654636""
","""event"",""trial"",""time""
""fullscreenenter"",""1"",""2232""
","
","","","-1","","","10","11322","5232","&#9789;","elianto","#f73b6a7A"," ","-1","0","-10","[]","0","0","4","","","","","","","",""
"pit-trial","99","805467","0.0-2.0-17.3-3.3","battery-v0.2","","""event"",""trial"",""time""
""fullscreenenter"",""1"",""2232""
""blur"",""7"",""65683""
""focus"",""7"",""70746""
""blur"",""7"",""177185""
""focus"",""7"",""181070""
""blur"",""68"",""648956""
""focus"",""69"",""654636""
","""event"",""trial"",""time""
""blur"",""7"",""65683""
""blur"",""7"",""177185""
""blur"",""68"",""648956""
","""event"",""trial"",""time""
""focus"",""7"",""70746""
""focus"",""7"",""181070""
""focus"",""69"",""654636""
","""event"",""trial"",""time""
""fullscreenenter"",""1"",""2232""
","
","","","614.5999999046326","","","10","11322","5232","&#9789;","elianto","#f73b6a7A"," "," ","1","-10","[1466.1999999284744]","1","0","4","","","","","","","",""
"pit-trial","100","810322","0.0-2.0-17.3-4.3","battery-v0.2","","""event"",""trial"",""time""
""fullscreenenter"",""1"",""2232""
""blur"",""7"",""65683""
""focus"",""7"",""70746""
""blur"",""7"",""177185""
""focus"",""7"",""181070""
""blur"",""68"",""648956""
""focus"",""69"",""654636""
","""event"",""trial"",""time""
""blur"",""7"",""65683""
""blur"",""7"",""177185""
""blur"",""68"",""648956""
","""event"",""trial"",""time""
""focus"",""7"",""70746""
""focus"",""7"",""181070""
""focus"",""69"",""654636""
","""event"",""trial"",""time""
""fullscreenenter"",""1"",""2232""
","
","","","-1","","","10","11322","5232","&#9789;","elianto","#f73b6a7A"," ","-1","0","-10","[]","0","0","4","","","","","","","",""
"call-function","101","810323","0.0-2.0-18.0","battery-v0.2","","""event"",""trial"",""time""
""fullscreenenter"",""1"",""2232""
""blur"",""7"",""65683""
""focus"",""7"",""70746""
""blur"",""7"",""177185""
""focus"",""7"",""181070""
""blur"",""68"",""648956""
""focus"",""69"",""654636""
","""event"",""trial"",""time""
""blur"",""7"",""65683""
""blur"",""7"",""177185""
""blur"",""68"",""648956""
","""event"",""trial"",""time""
""focus"",""7"",""70746""
""focus"",""7"",""181070""
""focus"",""69"",""654636""
","""event"",""trial"",""time""
""fullscreenenter"",""1"",""2232""
","
","","","","","","","","","","","","","","","","","","","","","","","","","","",""
"pit-instructions","102","897574","0.0-2.0-19.0","battery-v0.2","","""event"",""trial"",""time""
""fullscreenenter"",""1"",""2232""
""blur"",""7"",""65683""
""focus"",""7"",""70746""
""blur"",""7"",""177185""
""focus"",""7"",""181070""
""blur"",""68"",""648956""
""focus"",""69"",""654636""
","""event"",""trial"",""time""
""blur"",""7"",""65683""
""blur"",""7"",""177185""
""blur"",""68"",""648956""
","""event"",""trial"",""time""
""focus"",""7"",""70746""
""focus"",""7"",""181070""
""focus"",""69"",""654636""
","""event"",""trial"",""time""
""fullscreenenter"",""1"",""2232""
","
","","[{""page_index"":0,""viewing_time"":11937.600000023842},{""page_index"":1,""viewing_time"":6007.199999928474},{""page_index"":2,""viewing_time"":14416.900000095367},{""page_index"":3,""viewing_time"":7519.899999976158},{""page_index"":4,""viewing_time"":17112.5},{""page_index"":5,""viewing_time"":10839.299999952316},{""page_index"":6,""viewing_time"":8391.700000047684},{""page_index"":7,""viewing_time"":6511.799999952316},{""page_index"":8,""viewing_time"":4511.800000071526}]","87248.89999997616","","","","","","","","","","","","","","","","","","","","","","","",""
"pit-comprehension","103","904414","0.0-2.0-20.0-0.0","battery-v0.2","","""event"",""trial"",""time""
""fullscreenenter"",""1"",""2232""
""blur"",""7"",""65683""
""focus"",""7"",""70746""
""blur"",""7"",""177185""
""focus"",""7"",""181070""
""blur"",""68"",""648956""
""focus"",""69"",""654636""
","""event"",""trial"",""time""
""blur"",""7"",""65683""
""blur"",""7"",""177185""
""blur"",""68"",""648956""
","""event"",""trial"",""time""
""focus"",""7"",""70746""
""focus"",""7"",""181070""
""focus"",""69"",""654636""
","""event"",""trial"",""time""
""fullscreenenter"",""1"",""2232""
","
","","","6837.900000095367","[""SPACE""]","0","10","11322","5232","","","","","","","","","","","","","","","","","","",""
"pit-instructions","104","908734","0.0-2.0-20.0-1.0","battery-v0.2","","""event"",""trial"",""time""
""fullscreenenter"",""1"",""2232""
""blur"",""7"",""65683""
""focus"",""7"",""70746""
""blur"",""7"",""177185""
""focus"",""7"",""181070""
""blur"",""68"",""648956""
""focus"",""69"",""654636""
","""event"",""trial"",""time""
""blur"",""7"",""65683""
""blur"",""7"",""177185""
""blur"",""68"",""648956""
","""event"",""trial"",""time""
""focus"",""7"",""70746""
""focus"",""7"",""181070""
""focus"",""69"",""654636""
","""event"",""trial"",""time""
""fullscreenenter"",""1"",""2232""
","
","","[{""page_index"":0,""viewing_time"":4280}]","4280.299999952316","","","","","","","","","","","","","","","","","","","","","","","",""
"pit-comprehension","105","919735","0.0-2.0-21.0-0.0","battery-v0.2","","""event"",""trial"",""time""
""fullscreenenter"",""1"",""2232""
""blur"",""7"",""65683""
""focus"",""7"",""70746""
""blur"",""7"",""177185""
""focus"",""7"",""181070""
""blur"",""68"",""648956""
""focus"",""69"",""654636""
","""event"",""trial"",""time""
""blur"",""7"",""65683""
""blur"",""7"",""177185""
""blur"",""68"",""648956""
","""event"",""trial"",""time""
""focus"",""7"",""70746""
""focus"",""7"",""181070""
""focus"",""69"",""654636""
","""event"",""trial"",""time""
""fullscreenenter"",""1"",""2232""
","
","","","10998.300000071526","[""10""]","0","10","11322","5232","","","","","","","","","","","","","","","","","","",""
"pit-instructions","106","925431","0.0-2.0-21.0-1.0","battery-v0.2","","""event"",""trial"",""time""
""fullscreenenter"",""1"",""2232""
""blur"",""7"",""65683""
""focus"",""7"",""70746""
""blur"",""7"",""177185""
""focus"",""7"",""181070""
""blur"",""68"",""648956""
""focus"",""69"",""654636""
","""event"",""trial"",""time""
""blur"",""7"",""65683""
""blur"",""7"",""177185""
""blur"",""68"",""648956""
","""event"",""trial"",""time""
""focus"",""7"",""70746""
""focus"",""7"",""181070""
""focus"",""69"",""654636""
","""event"",""trial"",""time""
""fullscreenenter"",""1"",""2232""
","
","","[{""page_index"":0,""viewing_time"":5663.299999952316}]","5663.5","","","","","","","","","","","","","","","","","","","","","","","",""
"pit-comprehension","107","933614","0.0-2.0-22.0-0.0","battery-v0.2","","""event"",""trial"",""time""
""fullscreenenter"",""1"",""2232""
""blur"",""7"",""65683""
""focus"",""7"",""70746""
""blur"",""7"",""177185""
""focus"",""7"",""181070""
""blur"",""68"",""648956""
""focus"",""69"",""654636""
","""event"",""trial"",""time""
""blur"",""7"",""65683""
""blur"",""7"",""177185""
""blur"",""68"",""648956""
","""event"",""trial"",""time""
""focus"",""7"",""70746""
""focus"",""7"",""181070""
""focus"",""69"",""654636""
","""event"",""trial"",""time""
""fullscreenenter"",""1"",""2232""
","
","","","8180.700000047684","[""-10""]","1","10","11322","5232","","","","","","","","","","","","","","","","","","",""
"pit-instructions","108","939662","0.0-2.0-22.0-1.0","battery-v0.2","","""event"",""trial"",""time""
""fullscreenenter"",""1"",""2232""
""blur"",""7"",""65683""
""focus"",""7"",""70746""
""blur"",""7"",""177185""
""focus"",""7"",""181070""
""blur"",""68"",""648956""
""focus"",""69"",""654636""
","""event"",""trial"",""time""
""blur"",""7"",""65683""
""blur"",""7"",""177185""
""blur"",""68"",""648956""
","""event"",""trial"",""time""
""focus"",""7"",""70746""
""focus"",""7"",""181070""
""focus"",""69"",""654636""
","""event"",""trial"",""time""
""fullscreenenter"",""1"",""2232""
","
","","[{""page_index"":0,""viewing_time"":6010.800000071526}]","6011.100000023842","","","","","","","","","","","","","","","","","","","","","","","",""
"pit-instructions","109","941038","0.0-2.0-22.0-2.0-0.0","battery-v0.2","","""event"",""trial"",""time""
""fullscreenenter"",""1"",""2232""
""blur"",""7"",""65683""
""focus"",""7"",""70746""
""blur"",""7"",""177185""
""focus"",""7"",""181070""
""blur"",""68"",""648956""
""focus"",""69"",""654636""
","""event"",""trial"",""time""
""blur"",""7"",""65683""
""blur"",""7"",""177185""
""blur"",""68"",""648956""
","""event"",""trial"",""time""
""focus"",""7"",""70746""
""focus"",""7"",""181070""
""focus"",""69"",""654636""
","""event"",""trial"",""time""
""fullscreenenter"",""1"",""2232""
","
","","[{""page_index"":0,""viewing_time"":1375.1000000238419}]","1375.2000000476837","","","","","","","","","","","","","","","","","","","","","","","",""
"pit-comprehension","110","950151","0.0-2.0-22.1-0.1","battery-v0.2","","""event"",""trial"",""time""
""fullscreenenter"",""1"",""2232""
""blur"",""7"",""65683""
""focus"",""7"",""70746""
""blur"",""7"",""177185""
""focus"",""7"",""181070""
""blur"",""68"",""648956""
""focus"",""69"",""654636""
","""event"",""trial"",""time""
""blur"",""7"",""65683""
""blur"",""7"",""177185""
""blur"",""68"",""648956""
","""event"",""trial"",""time""
""focus"",""7"",""70746""
""focus"",""7"",""181070""
""focus"",""69"",""654636""
","""event"",""trial"",""time""
""fullscreenenter"",""1"",""2232""
","
","","","9110.800000071526","[""0""]","0","10","11322","5232","","","","","","","","","","","","","","","","","","",""
"pit-instructions","111","954255","0.0-2.0-22.1-1.1","battery-v0.2","","""event"",""trial"",""time""
""fullscreenenter"",""1"",""2232""
""blur"",""7"",""65683""
""focus"",""7"",""70746""
""blur"",""7"",""177185""
""focus"",""7"",""181070""
""blur"",""68"",""648956""
""focus"",""69"",""654636""
","""event"",""trial"",""time""
""blur"",""7"",""65683""
""blur"",""7"",""177185""
""blur"",""68"",""648956""
","""event"",""trial"",""time""
""focus"",""7"",""70746""
""focus"",""7"",""181070""
""focus"",""69"",""654636""
","""event"",""trial"",""time""
""fullscreenenter"",""1"",""2232""
","
","","[{""page_index"":0,""viewing_time"":4069.6999999284744}]","4070","","","","","","","","","","","","","","","","","","","","","","","",""
"pit-comprehension","112","963959","0.0-2.0-23.0-0.0","battery-v0.2","","""event"",""trial"",""time""
""fullscreenenter"",""1"",""2232""
""blur"",""7"",""65683""
""focus"",""7"",""70746""
""blur"",""7"",""177185""
""focus"",""7"",""181070""
""blur"",""68"",""648956""
""focus"",""69"",""654636""
","""event"",""trial"",""time""
""blur"",""7"",""65683""
""blur"",""7"",""177185""
""blur"",""68"",""648956""
","""event"",""trial"",""time""
""focus"",""7"",""70746""
""focus"",""7"",""181070""
""focus"",""69"",""654636""
","""event"",""trial"",""time""
""fullscreenenter"",""1"",""2232""
","
","","","9702.5","[""False""]","1","10","11322","5232","","","","","","","","","","","","","","","","","","",""
"pit-instructions","113","969262","0.0-2.0-23.0-1.0","battery-v0.2","","""event"",""trial"",""time""
""fullscreenenter"",""1"",""2232""
""blur"",""7"",""65683""
""focus"",""7"",""70746""
""blur"",""7"",""177185""
""focus"",""7"",""181070""
""blur"",""68"",""648956""
""focus"",""69"",""654636""
","""event"",""trial"",""time""
""blur"",""7"",""65683""
""blur"",""7"",""177185""
""blur"",""68"",""648956""
","""event"",""trial"",""time""
""focus"",""7"",""70746""
""focus"",""7"",""181070""
""focus"",""69"",""654636""
","""event"",""trial"",""time""
""fullscreenenter"",""1"",""2232""
","
","","[{""page_index"":0,""viewing_time"":5265.900000095367}]","5266.200000047684","","","","","","","","","","","","","","","","","","","","","","","",""
"pit-instructions","114","970974","0.0-2.0-23.0-2.0-0.0","battery-v0.2","","""event"",""trial"",""time""
""fullscreenenter"",""1"",""2232""
""blur"",""7"",""65683""
""focus"",""7"",""70746""
""blur"",""7"",""177185""
""focus"",""7"",""181070""
""blur"",""68"",""648956""
""focus"",""69"",""654636""
","""event"",""trial"",""time""
""blur"",""7"",""65683""
""blur"",""7"",""177185""
""blur"",""68"",""648956""
","""event"",""trial"",""time""
""focus"",""7"",""70746""
""focus"",""7"",""181070""
""focus"",""69"",""654636""
","""event"",""trial"",""time""
""fullscreenenter"",""1"",""2232""
","
","","[{""page_index"":0,""viewing_time"":1711.1999999284744}]","1711.3999999761581","","","","","","","","","","","","","","","","","","","","","","","",""
"pit-comprehension","115","979734","0.0-2.0-23.1-0.1","battery-v0.2","","""event"",""trial"",""time""
""fullscreenenter"",""1"",""2232""
""blur"",""7"",""65683""
""focus"",""7"",""70746""
""blur"",""7"",""177185""
""focus"",""7"",""181070""
""blur"",""68"",""648956""
""focus"",""69"",""654636""
","""event"",""trial"",""time""
""blur"",""7"",""65683""
""blur"",""7"",""177185""
""blur"",""68"",""648956""
","""event"",""trial"",""time""
""focus"",""7"",""70746""
""focus"",""7"",""181070""
""focus"",""69"",""654636""
","""event"",""trial"",""time""
""fullscreenenter"",""1"",""2232""
","
","","","8758.700000047684","[""True""]","0","10","11322","5232","","","","","","","","","","","","","","","","","","",""
"pit-instructions","116","983222","0.0-2.0-23.1-1.1","battery-v0.2","","""event"",""trial"",""time""
""fullscreenenter"",""1"",""2232""
""blur"",""7"",""65683""
""focus"",""7"",""70746""
""blur"",""7"",""177185""
""focus"",""7"",""181070""
""blur"",""68"",""648956""
""focus"",""69"",""654636""
","""event"",""trial"",""time""
""blur"",""7"",""65683""
""blur"",""7"",""177185""
""blur"",""68"",""648956""
","""event"",""trial"",""time""
""focus"",""7"",""70746""
""focus"",""7"",""181070""
""focus"",""69"",""654636""
","""event"",""trial"",""time""
""fullscreenenter"",""1"",""2232""
","
","","[{""page_index"":0,""viewing_time"":3453.600000023842}]","3453.7999999523163","","","","","","","","","","","","","","","","","","","","","","","",""
"pit-comprehension","117","990751","0.0-2.0-24.0-0.0","battery-v0.2","","""event"",""trial"",""time""
""fullscreenenter"",""1"",""2232""
""blur"",""7"",""65683""
""focus"",""7"",""70746""
""blur"",""7"",""177185""
""focus"",""7"",""181070""
""blur"",""68"",""648956""
""focus"",""69"",""654636""
","""event"",""trial"",""time""
""blur"",""7"",""65683""
""blur"",""7"",""177185""
""blur"",""68"",""648956""
","""event"",""trial"",""time""
""focus"",""7"",""70746""
""focus"",""7"",""181070""
""focus"",""69"",""654636""
","""event"",""trial"",""time""
""fullscreenenter"",""1"",""2232""
","
","","","7526.899999976158","[""True""]","0","10","11322","5232","","","","","","","","","","","","","","","","","","",""
"pit-instructions","118","999502","0.0-2.0-24.0-1.0","battery-v0.2","","""event"",""trial"",""time""
""fullscreenenter"",""1"",""2232""
""blur"",""7"",""65683""
""focus"",""7"",""70746""
""blur"",""7"",""177185""
""focus"",""7"",""181070""
""blur"",""68"",""648956""
""focus"",""69"",""654636""
","""event"",""trial"",""time""
""blur"",""7"",""65683""
""blur"",""7"",""177185""
""blur"",""68"",""648956""
","""event"",""trial"",""time""
""focus"",""7"",""70746""
""focus"",""7"",""181070""
""focus"",""69"",""654636""
","""event"",""trial"",""time""
""fullscreenenter"",""1"",""2232""
","
","","[{""page_index"":0,""viewing_time"":8720}]","8720.200000047684","","","","","","","","","","","","","","","","","","","","","","","",""
"pit-comprehension","119","1006847","0.0-2.0-25.0-0.0","battery-v0.2","","""event"",""trial"",""time""
""fullscreenenter"",""1"",""2232""
""blur"",""7"",""65683""
""focus"",""7"",""70746""
""blur"",""7"",""177185""
""focus"",""7"",""181070""
""blur"",""68"",""648956""
""focus"",""69"",""654636""
","""event"",""trial"",""time""
""blur"",""7"",""65683""
""blur"",""7"",""177185""
""blur"",""68"",""648956""
","""event"",""trial"",""time""
""focus"",""7"",""70746""
""focus"",""7"",""181070""
""focus"",""69"",""654636""
","""event"",""trial"",""time""
""fullscreenenter"",""1"",""2232""
","
","","","7342.700000047684","[""True""]","0","10","11322","5232","","","","","","","","","","","","","","","","","","",""
"pit-instructions","120","1010646","0.0-2.0-25.0-1.0","battery-v0.2","","""event"",""trial"",""time""
""fullscreenenter"",""1"",""2232""
""blur"",""7"",""65683""
""focus"",""7"",""70746""
""blur"",""7"",""177185""
""focus"",""7"",""181070""
""blur"",""68"",""648956""
""focus"",""69"",""654636""
","""event"",""trial"",""time""
""blur"",""7"",""65683""
""blur"",""7"",""177185""
""blur"",""68"",""648956""
","""event"",""trial"",""time""
""focus"",""7"",""70746""
""focus"",""7"",""181070""
""focus"",""69"",""654636""
","""event"",""trial"",""time""
""fullscreenenter"",""1"",""2232""
","
","","[{""page_index"":0,""viewing_time"":3762.7000000476837}]","3762.899999976158","","","","","","","","","","","","","","","","","","","","","","","",""
"pit-comprehension","121","1020742","0.0-2.0-26.0-0.0","battery-v0.2","","""event"",""trial"",""time""
""fullscreenenter"",""1"",""2232""
""blur"",""7"",""65683""
""focus"",""7"",""70746""
""blur"",""7"",""177185""
""focus"",""7"",""181070""
""blur"",""68"",""648956""
""focus"",""69"",""654636""
","""event"",""trial"",""time""
""blur"",""7"",""65683""
""blur"",""7"",""177185""
""blur"",""68"",""648956""
","""event"",""trial"",""time""
""focus"",""7"",""70746""
""focus"",""7"",""181070""
""focus"",""69"",""654636""
","""event"",""trial"",""time""
""fullscreenenter"",""1"",""2232""
","
","","","10094.200000047684","[""True""]","1","10","11322","5232","","","","","","","","","","","","","","","","","","",""
"pit-instructions","122","1028526","0.0-2.0-26.0-1.0","battery-v0.2","","""event"",""trial"",""time""
""fullscreenenter"",""1"",""2232""
""blur"",""7"",""65683""
""focus"",""7"",""70746""
""blur"",""7"",""177185""
""focus"",""7"",""181070""
""blur"",""68"",""648956""
""focus"",""69"",""654636""
","""event"",""trial"",""time""
""blur"",""7"",""65683""
""blur"",""7"",""177185""
""blur"",""68"",""648956""
","""event"",""trial"",""time""
""focus"",""7"",""70746""
""focus"",""7"",""181070""
""focus"",""69"",""654636""
","""event"",""trial"",""time""
""fullscreenenter"",""1"",""2232""
","
","","[{""page_index"":0,""viewing_time"":7749.299999952316}]","7749.5","","","","","","","","","","","","","","","","","","","","","","","",""
"pit-instructions","123","1029614","0.0-2.0-26.0-2.0-0.0","battery-v0.2","","""event"",""trial"",""time""
""fullscreenenter"",""1"",""2232""
""blur"",""7"",""65683""
""focus"",""7"",""70746""
""blur"",""7"",""177185""
""focus"",""7"",""181070""
""blur"",""68"",""648956""
""focus"",""69"",""654636""
","""event"",""trial"",""time""
""blur"",""7"",""65683""
""blur"",""7"",""177185""
""blur"",""68"",""648956""
","""event"",""trial"",""time""
""focus"",""7"",""70746""
""focus"",""7"",""181070""
""focus"",""69"",""654636""
","""event"",""trial"",""time""
""fullscreenenter"",""1"",""2232""
","
","","[{""page_index"":0,""viewing_time"":1086.1999999284744}]","1086.5","","","","","","","","","","","","","","","","","","","","","","","",""
"pit-comprehension","124","1033999","0.0-2.0-26.1-0.1","battery-v0.2","","""event"",""trial"",""time""
""fullscreenenter"",""1"",""2232""
""blur"",""7"",""65683""
""focus"",""7"",""70746""
""blur"",""7"",""177185""
""focus"",""7"",""181070""
""blur"",""68"",""648956""
""focus"",""69"",""654636""
","""event"",""trial"",""time""
""blur"",""7"",""65683""
""blur"",""7"",""177185""
""blur"",""68"",""648956""
","""event"",""trial"",""time""
""focus"",""7"",""70746""
""focus"",""7"",""181070""
""focus"",""69"",""654636""
","""event"",""trial"",""time""
""fullscreenenter"",""1"",""2232""
","
","","","4383.300000071526","[""False""]","0","10","11322","5232","","","","","","","","","","","","","","","","","","",""
"pit-instructions","125","1037894","0.0-2.0-26.1-1.1","battery-v0.2","","""event"",""trial"",""time""
""fullscreenenter"",""1"",""2232""
""blur"",""7"",""65683""
""focus"",""7"",""70746""
""blur"",""7"",""177185""
""focus"",""7"",""181070""
""blur"",""68"",""648956""
""focus"",""69"",""654636""
","""event"",""trial"",""time""
""blur"",""7"",""65683""
""blur"",""7"",""177185""
""blur"",""68"",""648956""
","""event"",""trial"",""time""
""focus"",""7"",""70746""
""focus"",""7"",""181070""
""focus"",""69"",""654636""
","""event"",""trial"",""time""
""fullscreenenter"",""1"",""2232""
","
","","[{""page_index"":0,""viewing_time"":3857.7999999523163}]","3858","","","","","","","","","","","","","","","","","","","","","","","",""
"pit-instructions","126","1059462","0.0-3.0","battery-v0.2","","""event"",""trial"",""time""
""fullscreenenter"",""1"",""2232""
""blur"",""7"",""65683""
""focus"",""7"",""70746""
""blur"",""7"",""177185""
""focus"",""7"",""181070""
""blur"",""68"",""648956""
""focus"",""69"",""654636""
","""event"",""trial"",""time""
""blur"",""7"",""65683""
""blur"",""7"",""177185""
""blur"",""68"",""648956""
","""event"",""trial"",""time""
""focus"",""7"",""70746""
""focus"",""7"",""181070""
""focus"",""69"",""654636""
","""event"",""trial"",""time""
""fullscreenenter"",""1"",""2232""
","
","","[{""page_index"":0,""viewing_time"":4526.200000047684},{""page_index"":1,""viewing_time"":6232.199999928474},{""page_index"":2,""viewing_time"":10807.700000047684}]","21566.399999976158","","","","","","","","","","","","","","","","","","","","","","","",""
"pit-trial","127","1063216","0.0-4.0","battery-v0.2","","""event"",""trial"",""time""
""fullscreenenter"",""1"",""2232""
""blur"",""7"",""65683""
""focus"",""7"",""70746""
""blur"",""7"",""177185""
""focus"",""7"",""181070""
""blur"",""68"",""648956""
""focus"",""69"",""654636""
","""event"",""trial"",""time""
""blur"",""7"",""65683""
""blur"",""7"",""177185""
""blur"",""68"",""648956""
","""event"",""trial"",""time""
""focus"",""7"",""70746""
""focus"",""7"",""181070""
""focus"",""69"",""654636""
","""event"",""trial"",""time""
""fullscreenenter"",""1"",""2232""
","
","","","887","","","10","11322","5232","&#9730;","elianto","#3366ff99"," "," ","1","+10","[1742.1999999284744]","1","1","","","11322","1","1","1","win","go","0"
"pit-trial","128","1066913","0.0-5.0","battery-v0.2","","""event"",""trial"",""time""
""fullscreenenter"",""1"",""2232""
""blur"",""7"",""65683""
""focus"",""7"",""70746""
""blur"",""7"",""177185""
""focus"",""7"",""181070""
""blur"",""68"",""648956""
""focus"",""69"",""654636""
","""event"",""trial"",""time""
""blur"",""7"",""65683""
""blur"",""7"",""177185""
""blur"",""68"",""648956""
","""event"",""trial"",""time""
""focus"",""7"",""70746""
""focus"",""7"",""181070""
""focus"",""69"",""654636""
","""event"",""trial"",""time""
""fullscreenenter"",""1"",""2232""
","
","","","830.1999999284744","","","10","11322","5232","&#9733;","elianto","#3366ff99","-1"," ","0","0","[1690.7999999523163]","1","1","","","11322","2","2","2","win","no-go","0"
"pit-trial","129","1070701","0.0-6.0","battery-v0.2","","""event"",""trial"",""time""
""fullscreenenter"",""1"",""2232""
""blur"",""7"",""65683""
""focus"",""7"",""70746""
""blur"",""7"",""177185""
""focus"",""7"",""181070""
""blur"",""68"",""648956""
""focus"",""69"",""654636""
","""event"",""trial"",""time""
""blur"",""7"",""65683""
""blur"",""7"",""177185""
""blur"",""68"",""648956""
","""event"",""trial"",""time""
""focus"",""7"",""70746""
""focus"",""7"",""181070""
""focus"",""69"",""654636""
","""event"",""trial"",""time""
""fullscreenenter"",""1"",""2232""
","
","","","910.0999999046326","","","10","11322","5232","&#9752;","elianto","#f73b6a7A"," "," ","1","0","[1774.0999999046326]","1","1","","","11322","3","3","3","lose","go","0"
"pit-trial","130","1074671","0.0-7.0","battery-v0.2","","""event"",""trial"",""time""
""fullscreenenter"",""1"",""2232""
""blur"",""7"",""65683""
""focus"",""7"",""70746""
""blur"",""7"",""177185""
""focus"",""7"",""181070""
""blur"",""68"",""648956""
""focus"",""69"",""654636""
","""event"",""trial"",""time""
""blur"",""7"",""65683""
""blur"",""7"",""177185""
""blur"",""68"",""648956""
","""event"",""trial"",""time""
""focus"",""7"",""70746""
""focus"",""7"",""181070""
""focus"",""69"",""654636""
","""event"",""trial"",""time""
""fullscreenenter"",""1"",""2232""
","
","","","1114","","","10","11322","5232","&#9728;","elianto","#f73b6a7A","-1"," ","0","0","[1965.8000000715256]","1","1","","","11322","4","0","4","lose","no-go","1"
"pit-trial","131","1078748","0.0-8.0","battery-v0.2","","""event"",""trial"",""time""
""fullscreenenter"",""1"",""2232""
""blur"",""7"",""65683""
""focus"",""7"",""70746""
""blur"",""7"",""177185""
""focus"",""7"",""181070""
""blur"",""68"",""648956""
""focus"",""69"",""654636""
","""event"",""trial"",""time""
""blur"",""7"",""65683""
""blur"",""7"",""177185""
""blur"",""68"",""648956""
","""event"",""trial"",""time""
""focus"",""7"",""70746""
""focus"",""7"",""181070""
""focus"",""69"",""654636""
","""event"",""trial"",""time""
""fullscreenenter"",""1"",""2232""
","
","","","1203.7999999523163","","","10","11322","5232","&#9752;","elianto","#f73b6a7A"," "," ","1","-10","[2062.399999976158]","1","1","","","11322","5","3","3","lose","go","1"
"pit-trial","132","1082307","0.0-9.0","battery-v0.2","","""event"",""trial"",""time""
""fullscreenenter"",""1"",""2232""
""blur"",""7"",""65683""
""focus"",""7"",""70746""
""blur"",""7"",""177185""
""focus"",""7"",""181070""
""blur"",""68"",""648956""
""focus"",""69"",""654636""
","""event"",""trial"",""time""
""blur"",""7"",""65683""
""blur"",""7"",""177185""
""blur"",""68"",""648956""
","""event"",""trial"",""time""
""focus"",""7"",""70746""
""focus"",""7"",""181070""
""focus"",""69"",""654636""
","""event"",""trial"",""time""
""fullscreenenter"",""1"",""2232""
","
","","","699.1000000238419","","","10","11322","5232","&#9733;","elianto","#3366ff99","-1"," ","0","0","[1556.1000000238419]","1","1","","","11322","6","2","2","win","no-go","0"
"pit-trial","133","1085761","0.0-10.0","battery-v0.2","","""event"",""trial"",""time""
""fullscreenenter"",""1"",""2232""
""blur"",""7"",""65683""
""focus"",""7"",""70746""
""blur"",""7"",""177185""
""focus"",""7"",""181070""
""blur"",""68"",""648956""
""focus"",""69"",""654636""
","""event"",""trial"",""time""
""blur"",""7"",""65683""
""blur"",""7"",""177185""
""blur"",""68"",""648956""
","""event"",""trial"",""time""
""focus"",""7"",""70746""
""focus"",""7"",""181070""
""focus"",""69"",""654636""
","""event"",""trial"",""time""
""fullscreenenter"",""1"",""2232""
","
","","","592.3000000715256","","","10","11322","5232","&#9730;","elianto","#3366ff99"," "," ","1","+10","[1446.7000000476837]","1","1","","","11322","7","1","1","win","go","0"
"pit-trial","134","1089369","0.0-11.0","battery-v0.2","","""event"",""trial"",""time""
""fullscreenenter"",""1"",""2232""
""blur"",""7"",""65683""
""focus"",""7"",""70746""
""blur"",""7"",""177185""
""focus"",""7"",""181070""
""blur"",""68"",""648956""
""focus"",""69"",""654636""
","""event"",""trial"",""time""
""blur"",""7"",""65683""
""blur"",""7"",""177185""
""blur"",""68"",""648956""
","""event"",""trial"",""time""
""focus"",""7"",""70746""
""focus"",""7"",""181070""
""focus"",""69"",""654636""
","""event"",""trial"",""time""
""fullscreenenter"",""1"",""2232""
","
","","","754.7000000476837","","","10","11322","5232","&#9728;","elianto","#f73b6a7A","-1"," ","0","-10","[1605.5]","1","1","","","11322","8","0","4","lose","no-go","0"
"pit-trial","135","1093192","0.0-12.0","battery-v0.2","","""event"",""trial"",""time""
""fullscreenenter"",""1"",""2232""
""blur"",""7"",""65683""
""focus"",""7"",""70746""
""blur"",""7"",""177185""
""focus"",""7"",""181070""
""blur"",""68"",""648956""
""focus"",""69"",""654636""
","""event"",""trial"",""time""
""blur"",""7"",""65683""
""blur"",""7"",""177185""
""blur"",""68"",""648956""
","""event"",""trial"",""time""
""focus"",""7"",""70746""
""focus"",""7"",""181070""
""focus"",""69"",""654636""
","""event"",""trial"",""time""
""fullscreenenter"",""1"",""2232""
","
","","","968.7999999523163","","","10","11322","5232","&#9733;","elianto","#3366ff99","-1"," ","0","0","[1820.1999999284744]","1","1","","","11322","9","2","2","win","no-go","0"
"pit-trial","136","1098046","0.0-13.0","battery-v0.2","","""event"",""trial"",""time""
""fullscreenenter"",""1"",""2232""
""blur"",""7"",""65683""
""focus"",""7"",""70746""
""blur"",""7"",""177185""
""focus"",""7"",""181070""
""blur"",""68"",""648956""
""focus"",""69"",""654636""
","""event"",""trial"",""time""
""blur"",""7"",""65683""
""blur"",""7"",""177185""
""blur"",""68"",""648956""
","""event"",""trial"",""time""
""focus"",""7"",""70746""
""focus"",""7"",""181070""
""focus"",""69"",""654636""
","""event"",""trial"",""time""
""fullscreenenter"",""1"",""2232""
","
","","","-1","","","10","11322","5232","&#9728;","elianto","#f73b6a7A","-1","-1","1","0","[]","0","1","","","11322","10","0","4","lose","no-go","0"
"pit-trial","137","1101762","0.0-14.0","battery-v0.2","","""event"",""trial"",""time""
""fullscreenenter"",""1"",""2232""
""blur"",""7"",""65683""
""focus"",""7"",""70746""
""blur"",""7"",""177185""
""focus"",""7"",""181070""
""blur"",""68"",""648956""
""focus"",""69"",""654636""
","""event"",""trial"",""time""
""blur"",""7"",""65683""
""blur"",""7"",""177185""
""blur"",""68"",""648956""
","""event"",""trial"",""time""
""focus"",""7"",""70746""
""focus"",""7"",""181070""
""focus"",""69"",""654636""
","""event"",""trial"",""time""
""fullscreenenter"",""1"",""2232""
","
","","","862.5","","","10","11322","5232","&#9730;","elianto","#3366ff99"," "," ","1","+10","[1712.7999999523163]","1","1","","","11322","11","1","1","win","go","0"
"pit-trial","138","1105824","0.0-15.0","battery-v0.2","","""event"",""trial"",""time""
""fullscreenenter"",""1"",""2232""
""blur"",""7"",""65683""
""focus"",""7"",""70746""
""blur"",""7"",""177185""
""focus"",""7"",""181070""
""blur"",""68"",""648956""
""focus"",""69"",""654636""
","""event"",""trial"",""time""
""blur"",""7"",""65683""
""blur"",""7"",""177185""
""blur"",""68"",""648956""
","""event"",""trial"",""time""
""focus"",""7"",""70746""
""focus"",""7"",""181070""
""focus"",""69"",""654636""
","""event"",""trial"",""time""
""fullscreenenter"",""1"",""2232""
","
","","","1209.3999999761581","","","10","11322","5232","&#9752;","elianto","#f73b6a7A"," "," ","1","0","[2059.7000000476837]","1","1","","","11322","12","3","3","lose","go","0"
"pit-trial","139","1110473","0.0-16.0","battery-v0.2","","""event"",""trial"",""time""
""fullscreenenter"",""1"",""2232""
""blur"",""7"",""65683""
""focus"",""7"",""70746""
""blur"",""7"",""177185""
""focus"",""7"",""181070""
""blur"",""68"",""648956""
""focus"",""69"",""654636""
","""event"",""trial"",""time""
""blur"",""7"",""65683""
""blur"",""7"",""177185""
""blur"",""68"",""648956""
","""event"",""trial"",""time""
""focus"",""7"",""70746""
""focus"",""7"",""181070""
""focus"",""69"",""654636""
","""event"",""trial"",""time""
""fullscreenenter"",""1"",""2232""
","
","","","1796.2000000476837","","","10","11322","5232","&#9752;","elianto","#f73b6a7A"," "," ","1","0","[2646.600000023842]","1","1","","","11322","13","3","3","lose","go","0"
"pit-trial","140","1114272","0.0-17.0","battery-v0.2","","""event"",""trial"",""time""
""fullscreenenter"",""1"",""2232""
""blur"",""7"",""65683""
""focus"",""7"",""70746""
""blur"",""7"",""177185""
""focus"",""7"",""181070""
""blur"",""68"",""648956""
""focus"",""69"",""654636""
","""event"",""trial"",""time""
""blur"",""7"",""65683""
""blur"",""7"",""177185""
""blur"",""68"",""648956""
","""event"",""trial"",""time""
""focus"",""7"",""70746""
""focus"",""7"",""181070""
""focus"",""69"",""654636""
","""event"",""trial"",""time""
""fullscreenenter"",""1"",""2232""
","
","","","945.8999999761581","","","10","11322","5232","&#9730;","elianto","#3366ff99"," "," ","1","+10","[1796.4000000953674]","1","1","","","11322","14","1","1","win","go","0"
"pit-trial","141","1119125","0.0-18.0","battery-v0.2","","""event"",""trial"",""time""
""fullscreenenter"",""1"",""2232""
""blur"",""7"",""65683""
""focus"",""7"",""70746""
""blur"",""7"",""177185""
""focus"",""7"",""181070""
""blur"",""68"",""648956""
""focus"",""69"",""654636""
","""event"",""trial"",""time""
""blur"",""7"",""65683""
""blur"",""7"",""177185""
""blur"",""68"",""648956""
","""event"",""trial"",""time""
""focus"",""7"",""70746""
""focus"",""7"",""181070""
""focus"",""69"",""654636""
","""event"",""trial"",""time""
""fullscreenenter"",""1"",""2232""
","
","","","-1","","","10","11322","5232","&#9733;","elianto","#3366ff99","-1","-1","1","+10","[]","0","1","","","11322","15","2","2","win","no-go","0"
