"trial_type","trial_index","time_elapsed","internal_node_id","task_version","subject_id","interactions","blur_events","focus_events","fullscreenenter_events","fullscreenexit_events","success","view_history","rt","responses","num_errors","age","subject","participantId","rune","rune_set","hex","correct","choice","accuracy","outcome","keys","total_keys","block","practice","value","sub","trial","stimulus","robot","valence","action","sham"
"pavlovia","0","10","0.0-0.0","battery-v0.2","","""event"",""trial"",""time""
""fullscreenenter"",""1"",""2742""
","
","
","""event"",""trial"",""time""
""fullscreenenter"",""1"",""2742""
","
","","","","","","","","","","","","","","","","","","","","","","","","","","",""
"fullscreen","1","3701","0.0-1.0","battery-v0.2","","""event"",""trial"",""time""
""fullscreenenter"",""1"",""2742""
","
","
","""event"",""trial"",""time""
""fullscreenenter"",""1"",""2742""
","
","true","","","","","","","","","","","","","","","","","","","","","","","","","",""
"pit-instructions","2","7613","0.0-2.0-0.0","battery-v0.2","","""event"",""trial"",""time""
""fullscreenenter"",""1"",""2742""
","
","
","""event"",""trial"",""time""
""fullscreenenter"",""1"",""2742""
","
","","[{""page_index"":0,""viewing_time"":3907.9000000953674}]","3908.4000000953674","","","","","","","","","","","","","","","","","","","","","","","",""
"pit-comprehension","3","10550","0.0-2.0-1.0-0.0","battery-v0.2","","""event"",""trial"",""time""
""fullscreenenter"",""1"",""2742""
","
","
","""event"",""trial"",""time""
""fullscreenenter"",""1"",""2742""
","
","","","2934","[""shark""]","0","22","17243","6353","","","","","","","","","","","","","","","","","","",""
"pit-instructions","4","11767","0.0-2.0-1.0-1.0","battery-v0.2","","""event"",""trial"",""time""
""fullscreenenter"",""1"",""2742""
","
","
","""event"",""trial"",""time""
""fullscreenenter"",""1"",""2742""
","
","","[{""page_index"":0,""viewing_time"":1203.5}]","1204","","","","","","","","","","","","","","","","","","","","","","","",""
"pit-comprehension","5","14987","0.0-2.0-2.0-0.0","battery-v0.2","","""event"",""trial"",""time""
""fullscreenenter"",""1"",""2742""
","
","
","""event"",""trial"",""time""
""fullscreenenter"",""1"",""2742""
","
","","","3215.7000000476837","[""tiger""]","0","22","17243","6353","","","","","","","","","","","","","","","","","","",""
"pit-instructions","6","18246","0.0-2.0-2.0-1.0","battery-v0.2","","""event"",""trial"",""time""
""fullscreenenter"",""1"",""2742""
","
","
","""event"",""trial"",""time""
""fullscreenenter"",""1"",""2742""
","
","","[{""page_index"":0,""viewing_time"":3254.399999976158}]","3254.7999999523163","","","","","","","","","","","","","","","","","","","","","","","",""
"pit-instructions","7","148712","0.0-2.0-3.0","battery-v0.2","","""event"",""trial"",""time""
""fullscreenenter"",""1"",""2742""
","
","
","""event"",""trial"",""time""
""fullscreenenter"",""1"",""2742""
","
","","[{""page_index"":0,""viewing_time"":10190},{""page_index"":1,""viewing_time"":8360.199999928474},{""page_index"":2,""viewing_time"":11319.100000023842},{""page_index"":3,""viewing_time"":6875.399999976158},{""page_index"":4,""viewing_time"":10284.600000023842},{""page_index"":5,""viewing_time"":9917.700000047684},{""page_index"":6,""viewing_time"":11894.199999928474},{""page_index"":7,""viewing_time"":9066},{""page_index"":8,""viewing_time"":9284.899999976158},{""page_index"":9,""viewing_time"":11255.300000071526},{""page_index"":10,""viewing_time"":9249.799999952316},{""page_index"":11,""viewing_time"":10186.700000047684},{""page_index"":12,""viewing_time"":6690.5},{""page_index"":13,""viewing_time"":5889.899999976158}]","130464.69999992847","","","","","","","","","","","","","","","","","","","","","","","",""
"pit-trial","8","152156","0.0-2.0-4.0-0.0","battery-v0.2","","""event"",""trial"",""time""
""fullscreenenter"",""1"",""2742""
","
","
","""event"",""trial"",""time""
""fullscreenenter"",""1"",""2742""
","
","","","573.8999999761581","","","22","17243","6353","&#9784;","elianto","#FFFFF080"," "," ","1","&#10004","[1427.1000000238419]","1","0","0","","","","","","","",""
"pit-trial","9","156014","0.0-2.0-4.1-0.1","battery-v0.2","","""event"",""trial"",""time""
""fullscreenenter"",""1"",""2742""
","
","
","""event"",""trial"",""time""
""fullscreenenter"",""1"",""2742""
","
","","","1000.5","","","22","17243","6353","&#9784;","elianto","#FFFFF080"," "," ","1","&#10004","[1853.8000000715256]","1","0","0","","","","","","","",""
"pit-trial","10","159758","0.0-2.0-4.2-0.2","battery-v0.2","","""event"",""trial"",""time""
""fullscreenenter"",""1"",""2742""
","
","
","""event"",""trial"",""time""
""fullscreenenter"",""1"",""2742""
","
","","","886.5","","","22","17243","6353","&#9784;","elianto","#FFFFF080"," "," ","1","&#10004","[1737.1999999284744]","1","0","0","","","","","","","",""
"pit-trial","11","163272","0.0-2.0-4.3-0.3","battery-v0.2","","""event"",""trial"",""time""
""fullscreenenter"",""1"",""2742""
","
","
","""event"",""trial"",""time""
""fullscreenenter"",""1"",""2742""
","
","","","646.3000000715256","","","22","17243","6353","&#9784;","elianto","#FFFFF080"," "," ","1","&#10004","[1504.5]","1","0","0","","","","","","","",""
"pit-trial","12","166840","0.0-2.0-4.4-0.4","battery-v0.2","","""event"",""trial"",""time""
""fullscreenenter"",""1"",""2742""
","
","
","""event"",""trial"",""time""
""fullscreenenter"",""1"",""2742""
","
","","","701.9000000953674","","","22","17243","6353","&#9784;","elianto","#FFFFF080"," "," ","1","&#10004","[1560.2000000476837]","1","0","0","","","","","","","",""
"pit-instructions","13","191286","0.0-2.0-5.0","battery-v0.2","","""event"",""trial"",""time""
""fullscreenenter"",""1"",""2742""
","
","
","""event"",""trial"",""time""
""fullscreenenter"",""1"",""2742""
","
","","[{""page_index"":0,""viewing_time"":5411.899999976158},{""page_index"":1,""viewing_time"":5903.700000047684},{""page_index"":2,""viewing_time"":5918.399999976158},{""page_index"":3,""viewing_time"":7208.299999952316}]","24442.5","","","","","","","","","","","","","","","","","","","","","","","",""
"pit-trial","14","196156","0.0-2.0-6.0-0.0","battery-v0.2","","""event"",""trial"",""time""
""fullscreenenter"",""1"",""2742""
","
","
","""event"",""trial"",""time""
""fullscreenenter"",""1"",""2742""
","
","","","-1","","","22","17243","6353","&#9854;","elianto","#FFFFF080","-1","-1","1","&#10004","[]","0","0","1","","","","","","","",""
"pit-trial","15","201023","0.0-2.0-6.1-0.1","battery-v0.2","","""event"",""trial"",""time""
""fullscreenenter"",""1"",""2742""
","
","
","""event"",""trial"",""time""
""fullscreenenter"",""1"",""2742""
","
","","","-1","","","22","17243","6353","&#9854;","elianto","#FFFFF080","-1","-1","1","&#10004","[]","0","0","1","","","","","","","",""
"pit-trial","16","205887","0.0-2.0-6.2-0.2","battery-v0.2","","""event"",""trial"",""time""
""fullscreenenter"",""1"",""2742""
","
","
","""event"",""trial"",""time""
""fullscreenenter"",""1"",""2742""
","
","","","-1","","","22","17243","6353","&#9854;","elianto","#FFFFF080","-1","-1","1","&#10004","[]","0","0","1","","","","","","","",""
"pit-trial","17","210752","0.0-2.0-6.3-0.3","battery-v0.2","","""event"",""trial"",""time""
""fullscreenenter"",""1"",""2742""
","
","
","""event"",""trial"",""time""
""fullscreenenter"",""1"",""2742""
","
","","","-1","","","22","17243","6353","&#9854;","elianto","#FFFFF080","-1","-1","1","&#10004","[]","0","0","1","","","","","","","",""
"pit-trial","18","215615","0.0-2.0-6.4-0.4","battery-v0.2","","""event"",""trial"",""time""
""fullscreenenter"",""1"",""2742""
","
","
","""event"",""trial"",""time""
""fullscreenenter"",""1"",""2742""
","
","","","-1","","","22","17243","6353","&#9854;","elianto","#FFFFF080","-1","-1","1","&#10004","[]","0","0","1","","","","","","","",""
"pit-instructions","19","342676","0.0-2.0-7.0","battery-v0.2","","""event"",""trial"",""time""
""fullscreenenter"",""1"",""2742""
","
","
","""event"",""trial"",""time""
""fullscreenenter"",""1"",""2742""
","
","","[{""page_index"":0,""viewing_time"":6724.5},{""page_index"":1,""viewing_time"":9223.800000071526},{""page_index"":2,""viewing_time"":7343},{""page_index"":3,""viewing_time"":7434.600000023842},{""page_index"":4,""viewing_time"":7003},{""page_index"":5,""viewing_time"":6053.399999976158},{""page_index"":6,""viewing_time"":4565},{""page_index"":7,""viewing_time"":7762.399999976158},{""page_index"":8,""viewing_time"":6472},{""page_index"":9,""viewing_time"":5684.799999952316},{""page_index"":10,""viewing_time"":6337},{""page_index"":11,""viewing_time"":5805.200000047684},{""page_index"":12,""viewing_time"":7158.200000047684},{""page_index"":13,""viewing_time"":8414.699999928474},{""page_index"":14,""viewing_time"":7584.700000047684},{""page_index"":15,""viewing_time"":6996.100000023842},{""page_index"":16,""viewing_time"":7811.299999952316},{""page_index"":17,""viewing_time"":8683.100000023842}]","127057.40000009537","","","","","","","","","","","","","","","","","","","","","","","",""
"pit-trial","20","346127","0.0-2.0-8.0-0.0","battery-v0.2","","""event"",""trial"",""time""
""fullscreenenter"",""1"",""2742""
","
","
","""event"",""trial"",""time""
""fullscreenenter"",""1"",""2742""
","
","","","586.8000000715256","","","22","17243","6353","&#9776;","elianto","#3366ff99"," "," ","1","+10","[1439.3000000715256]","1","0","1","","","","","","","",""
"pit-trial","21","349576","0.0-2.0-8.0-1.0","battery-v0.2","","""event"",""trial"",""time""
""fullscreenenter"",""1"",""2742""
","
","
","""event"",""trial"",""time""
""fullscreenenter"",""1"",""2742""
","
","","","593.2999999523163","","","22","17243","6353","&#9776;","elianto","#3366ff99"," "," ","1","+10","[1444]","1","0","1","","","","","","","",""
"pit-trial","22","353184","0.0-2.0-8.0-2.0","battery-v0.2","","""event"",""trial"",""time""
""fullscreenenter"",""1"",""2742""
","
","
","""event"",""trial"",""time""
""fullscreenenter"",""1"",""2742""
","
","","","740.5999999046326","","","22","17243","6353","&#9776;","elianto","#3366ff99"," "," ","1","+10","[1590.6999999284744]","1","0","1","","","","","","","",""
"pit-trial","23","356501","0.0-2.0-8.0-3.0","battery-v0.2","","""event"",""trial"",""time""
""fullscreenenter"",""1"",""2742""
","
","
","""event"",""trial"",""time""
""fullscreenenter"",""1"",""2742""
","
","","","457.59999990463257","","","22","17243","6353","&#9776;","elianto","#3366ff99"," "," ","1","0","[1312.3999999761581]","1","0","1","","","","","","","",""
"pit-trial","24","359662","0.0-2.0-8.0-4.0","battery-v0.2","","""event"",""trial"",""time""
""fullscreenenter"",""1"",""2742""
","
","
","""event"",""trial"",""time""
""fullscreenenter"",""1"",""2742""
","
","","","294.39999997615814","","","22","17243","6353","&#9776;","elianto","#3366ff99"," "," ","1","+10","[1150.8999999761581]","1","0","1","","","","","","","",""
"pit-trial","25","362949","0.0-2.0-8.1-0.1","battery-v0.2","","""event"",""trial"",""time""
""fullscreenenter"",""1"",""2742""
","
","
","""event"",""trial"",""time""
""fullscreenenter"",""1"",""2742""
","
","","","417","","","22","17243","6353","&#9776;","elianto","#3366ff99"," "," ","1","+10","[1272.8000000715256]","1","0","1","","","","","","","",""
"pit-trial","26","366250","0.0-2.0-8.1-1.1","battery-v0.2","","""event"",""trial"",""time""
""fullscreenenter"",""1"",""2742""
","
","
","""event"",""trial"",""time""
""fullscreenenter"",""1"",""2742""
","
","","","443.7999999523163","","","22","17243","6353","&#9776;","elianto","#3366ff99"," "," ","1","+10","[1295.9000000953674]","1","0","1","","","","","","","",""
"pit-trial","27","369572","0.0-2.0-8.1-2.1","battery-v0.2","","""event"",""trial"",""time""
""fullscreenenter"",""1"",""2742""
","
","
","""event"",""trial"",""time""
""fullscreenenter"",""1"",""2742""
","
","","","460.60000002384186","","","22","17243","6353","&#9776;","elianto","#3366ff99"," "," ","1","+10","[1312]","1","0","1","","","","","","","",""
"pit-trial","28","373308","0.0-2.0-8.1-3.1","battery-v0.2","","""event"",""trial"",""time""
""fullscreenenter"",""1"",""2742""
","
","
","""event"",""trial"",""time""
""fullscreenenter"",""1"",""2742""
","
","","","881.6999999284744","","","22","17243","6353","&#9776;","elianto","#3366ff99"," "," ","1","0","[1733.2000000476837]","1","0","1","","","","","","","",""
"pit-trial","29","376701","0.0-2.0-8.1-4.1","battery-v0.2","","""event"",""trial"",""time""
""fullscreenenter"",""1"",""2742""
","
","
","""event"",""trial"",""time""
""fullscreenenter"",""1"",""2742""
","
","","","540.3000000715256","","","22","17243","6353","&#9776;","elianto","#3366ff99"," "," ","1","+10","[1390.5]","1","0","1","","","","","","","",""
"pit-trial","30","380123","0.0-2.0-8.2-0.2","battery-v0.2","","""event"",""trial"",""time""
""fullscreenenter"",""1"",""2742""
","
","
","""event"",""trial"",""time""
""fullscreenenter"",""1"",""2742""
","
","","","567.3000000715256","","","22","17243","6353","&#9776;","elianto","#3366ff99"," "," ","1","+10","[1418]","1","0","1","","","","","","","",""
"pit-trial","31","383460","0.0-2.0-8.2-1.2","battery-v0.2","","""event"",""trial"",""time""
""fullscreenenter"",""1"",""2742""
","
","
","""event"",""trial"",""time""
""fullscreenenter"",""1"",""2742""
","
","","","483.6999999284744","","","22","17243","6353","&#9776;","elianto","#3366ff99"," "," ","1","+10","[1334.4000000953674]","1","0","1","","","","","","","",""
"pit-trial","32","386681","0.0-2.0-8.2-2.2","battery-v0.2","","""event"",""trial"",""time""
""fullscreenenter"",""1"",""2742""
","
","
","""event"",""trial"",""time""
""fullscreenenter"",""1"",""2742""
","
","","","368","","","22","17243","6353","&#9776;","elianto","#3366ff99"," "," ","1","+10","[1218.3999999761581]","1","0","1","","","","","","","",""
"pit-trial","33","390001","0.0-2.0-8.2-3.2","battery-v0.2","","""event"",""trial"",""time""
""fullscreenenter"",""1"",""2742""
","
","
","""event"",""trial"",""time""
""fullscreenenter"",""1"",""2742""
","
","","","466.5","","","22","17243","6353","&#9776;","elianto","#3366ff99"," "," ","1","0","[1317.3000000715256]","1","0","1","","","","","","","",""
"pit-trial","34","393074","0.0-2.0-8.2-4.2","battery-v0.2","","""event"",""trial"",""time""
""fullscreenenter"",""1"",""2742""
","
","
","""event"",""trial"",""time""
""fullscreenenter"",""1"",""2742""
","
","","","219.89999997615814","","","22","17243","6353","&#9776;","elianto","#3366ff99"," "," ","1","+10","[1070.3999999761581]","1","0","1","","","","","","","",""
"call-function","35","393076","0.0-2.0-9.0","battery-v0.2","","""event"",""trial"",""time""
""fullscreenenter"",""1"",""2742""
","
","
","""event"",""trial"",""time""
""fullscreenenter"",""1"",""2742""
","
","","","","","","","","","","","","","","","","","","","","","","","","","","",""
"pit-instructions","36","437528","0.0-2.0-10.0","battery-v0.2","","""event"",""trial"",""time""
""fullscreenenter"",""1"",""2742""
","
","
","""event"",""trial"",""time""
""fullscreenenter"",""1"",""2742""
","
","","[{""page_index"":0,""viewing_time"":10727.100000023842},{""page_index"":1,""viewing_time"":7548.200000047684},{""page_index"":2,""viewing_time"":10021.799999952316},{""page_index"":3,""viewing_time"":8493},{""page_index"":4,""viewing_time"":7660.800000071526}]","44451.40000009537","","","","","","","","","","","","","","","","","","","","","","","",""
"pit-trial","37","442396","0.0-2.0-11.0-0.0","battery-v0.2","","""event"",""trial"",""time""
""fullscreenenter"",""1"",""2742""
","
","
","""event"",""trial"",""time""
""fullscreenenter"",""1"",""2742""
","
","","","-1","","","22","17243","6353","&#9761;","elianto","#3366ff99","-1","-1","1","+10","[]","0","0","2","","","","","","","",""
"pit-trial","38","447263","0.0-2.0-11.0-1.0","battery-v0.2","","""event"",""trial"",""time""
""fullscreenenter"",""1"",""2742""
","
","
","""event"",""trial"",""time""
""fullscreenenter"",""1"",""2742""
","
","","","-1","","","22","17243","6353","&#9761;","elianto","#3366ff99","-1","-1","1","+10","[]","0","0","2","","","","","","","",""
"pit-trial","39","452137","0.0-2.0-11.0-2.0","battery-v0.2","","""event"",""trial"",""time""
""fullscreenenter"",""1"",""2742""
","
","
","""event"",""trial"",""time""
""fullscreenenter"",""1"",""2742""
","
","","","-1","","","22","17243","6353","&#9761;","elianto","#3366ff99","-1","-1","1","+10","[]","0","0","2","","","","","","","",""
"pit-trial","40","457003","0.0-2.0-11.0-3.0","battery-v0.2","","""event"",""trial"",""time""
""fullscreenenter"",""1"",""2742""
","
","
","""event"",""trial"",""time""
""fullscreenenter"",""1"",""2742""
","
","","","-1","","","22","17243","6353","&#9761;","elianto","#3366ff99","-1","-1","1","0","[]","0","0","2","","","","","","","",""
"pit-trial","41","461868","0.0-2.0-11.0-4.0","battery-v0.2","","""event"",""trial"",""time""
""fullscreenenter"",""1"",""2742""
","
","
","""event"",""trial"",""time""
""fullscreenenter"",""1"",""2742""
","
","","","-1","","","22","17243","6353","&#9761;","elianto","#3366ff99","-1","-1","1","+10","[]","0","0","2","","","","","","","",""
"pit-trial","42","466750","0.0-2.0-11.1-0.1","battery-v0.2","","""event"",""trial"",""time""
""fullscreenenter"",""1"",""2742""
","
","
","""event"",""trial"",""time""
""fullscreenenter"",""1"",""2742""
","
","","","-1","","","22","17243","6353","&#9761;","elianto","#3366ff99","-1","-1","1","+10","[]","0","0","2","","","","","","","",""
"pit-trial","43","471603","0.0-2.0-11.1-1.1","battery-v0.2","","""event"",""trial"",""time""
""fullscreenenter"",""1"",""2742""
","
","
","""event"",""trial"",""time""
""fullscreenenter"",""1"",""2742""
","
","","","-1","","","22","17243","6353","&#9761;","elianto","#3366ff99","-1","-1","1","+10","[]","0","0","2","","","","","","","",""
"pit-trial","44","476463","0.0-2.0-11.1-2.1","battery-v0.2","","""event"",""trial"",""time""
""fullscreenenter"",""1"",""2742""
","
","
","""event"",""trial"",""time""
""fullscreenenter"",""1"",""2742""
","
","","","-1","","","22","17243","6353","&#9761;","elianto","#3366ff99","-1","-1","1","+10","[]","0","0","2","","","","","","","",""
"pit-trial","45","481317","0.0-2.0-11.1-3.1","battery-v0.2","","""event"",""trial"",""time""
""fullscreenenter"",""1"",""2742""
","
","
","""event"",""trial"",""time""
""fullscreenenter"",""1"",""2742""
","
","","","-1","","","22","17243","6353","&#9761;","elianto","#3366ff99","-1","-1","1","0","[]","0","0","2","","","","","","","",""
"pit-trial","46","486170","0.0-2.0-11.1-4.1","battery-v0.2","","""event"",""trial"",""time""
""fullscreenenter"",""1"",""2742""
","
","
","""event"",""trial"",""time""
""fullscreenenter"",""1"",""2742""
","
","","","-1","","","22","17243","6353","&#9761;","elianto","#3366ff99","-1","-1","1","+10","[]","0","0","2","","","","","","","",""
"pit-trial","47","491024","0.0-2.0-11.2-0.2","battery-v0.2","","""event"",""trial"",""time""
""fullscreenenter"",""1"",""2742""
","
","
","""event"",""trial"",""time""
""fullscreenenter"",""1"",""2742""
","
","","","-1","","","22","17243","6353","&#9761;","elianto","#3366ff99","-1","-1","1","+10","[]","0","0","2","","","","","","","",""
"pit-trial","48","495887","0.0-2.0-11.2-1.2","battery-v0.2","","""event"",""trial"",""time""
""fullscreenenter"",""1"",""2742""
","
","
","""event"",""trial"",""time""
""fullscreenenter"",""1"",""2742""
","
","","","-1","","","22","17243","6353","&#9761;","elianto","#3366ff99","-1","-1","1","+10","[]","0","0","2","","","","","","","",""
"pit-trial","49","500741","0.0-2.0-11.2-2.2","battery-v0.2","","""event"",""trial"",""time""
""fullscreenenter"",""1"",""2742""
","
","
","""event"",""trial"",""time""
""fullscreenenter"",""1"",""2742""
","
","","","-1","","","22","17243","6353","&#9761;","elianto","#3366ff99","-1","-1","1","+10","[]","0","0","2","","","","","","","",""
"pit-trial","50","505604","0.0-2.0-11.2-3.2","battery-v0.2","","""event"",""trial"",""time""
""fullscreenenter"",""1"",""2742""
","
","
","""event"",""trial"",""time""
""fullscreenenter"",""1"",""2742""
","
","","","-1","","","22","17243","6353","&#9761;","elianto","#3366ff99","-1","-1","1","0","[]","0","0","2","","","","","","","",""
"pit-trial","51","510458","0.0-2.0-11.2-4.2","battery-v0.2","","""event"",""trial"",""time""
""fullscreenenter"",""1"",""2742""
","
","
","""event"",""trial"",""time""
""fullscreenenter"",""1"",""2742""
","
","","","-1","","","22","17243","6353","&#9761;","elianto","#3366ff99","-1","-1","1","+10","[]","0","0","2","","","","","","","",""
"pit-trial","52","515312","0.0-2.0-11.3-0.3","battery-v0.2","","""event"",""trial"",""time""
""fullscreenenter"",""1"",""2742""
","
","
","""event"",""trial"",""time""
""fullscreenenter"",""1"",""2742""
","
","","","-1","","","22","17243","6353","&#9761;","elianto","#3366ff99","-1","-1","1","+10","[]","0","0","2","","","","","","","",""
"pit-trial","53","520164","0.0-2.0-11.3-1.3","battery-v0.2","","""event"",""trial"",""time""
""fullscreenenter"",""1"",""2742""
","
","
","""event"",""trial"",""time""
""fullscreenenter"",""1"",""2742""
","
","","","-1","","","22","17243","6353","&#9761;","elianto","#3366ff99","-1","-1","1","+10","[]","0","0","2","","","","","","","",""
"pit-trial","54","525017","0.0-2.0-11.3-2.3","battery-v0.2","","""event"",""trial"",""time""
""fullscreenenter"",""1"",""2742""
","
","
","""event"",""trial"",""time""
""fullscreenenter"",""1"",""2742""
","
","","","-1","","","22","17243","6353","&#9761;","elianto","#3366ff99","-1","-1","1","+10","[]","0","0","2","","","","","","","",""
"pit-trial","55","529871","0.0-2.0-11.3-3.3","battery-v0.2","","""event"",""trial"",""time""
""fullscreenenter"",""1"",""2742""
","
","
","""event"",""trial"",""time""
""fullscreenenter"",""1"",""2742""
","
","","","-1","","","22","17243","6353","&#9761;","elianto","#3366ff99","-1","-1","1","0","[]","0","0","2","","","","","","","",""
"pit-trial","56","534724","0.0-2.0-11.3-4.3","battery-v0.2","","""event"",""trial"",""time""
""fullscreenenter"",""1"",""2742""
","
","
","""event"",""trial"",""time""
""fullscreenenter"",""1"",""2742""
","
","","","-1","","","22","17243","6353","&#9761;","elianto","#3366ff99","-1","-1","1","+10","[]","0","0","2","","","","","","","",""
"call-function","57","534726","0.0-2.0-12.0","battery-v0.2","","""event"",""trial"",""time""
""fullscreenenter"",""1"",""2742""
","
","
","""event"",""trial"",""time""
""fullscreenenter"",""1"",""2742""
","
","","","","","","","","","","","","","","","","","","","","","","","","","","",""
"pit-instructions","58","571396","0.0-2.0-13.0","battery-v0.2","","""event"",""trial"",""time""
""fullscreenenter"",""1"",""2742""
","
","
","""event"",""trial"",""time""
""fullscreenenter"",""1"",""2742""
","
","","[{""page_index"":0,""viewing_time"":9178.399999976158},{""page_index"":1,""viewing_time"":7806.300000071526},{""page_index"":2,""viewing_time"":4694},{""page_index"":3,""viewing_time"":10700.899999976158},{""page_index"":4,""viewing_time"":4288.699999928474}]","36668.89999997616","","","","","","","","","","","","","","","","","","","","","","","",""
"pit-trial","59","574682","0.0-2.0-14.0-0.0","battery-v0.2","","""event"",""trial"",""time""
""fullscreenenter"",""1"",""2742""
","
","
","""event"",""trial"",""time""
""fullscreenenter"",""1"",""2742""
","
","","","422.5","","","22","17243","6353","&#9826;","elianto","#f73b6a7A","-1"," ","0","-10","[1278.3000000715256]","1","0","3","","","","","","","",""
"pit-trial","60","577745","0.0-2.0-14.0-1.0","battery-v0.2","","""event"",""trial"",""time""
""fullscreenenter"",""1"",""2742""
","
","
","""event"",""trial"",""time""
""fullscreenenter"",""1"",""2742""
","
","","","206.89999997615814","","","22","17243","6353","&#9826;","elianto","#f73b6a7A","-1"," ","0","-10","[1058.7000000476837]","1","0","3","","","","","","","",""
"pit-trial","61","582621","0.0-2.0-14.0-2.0","battery-v0.2","","""event"",""trial"",""time""
""fullscreenenter"",""1"",""2742""
","
","
","""event"",""trial"",""time""
""fullscreenenter"",""1"",""2742""
","
","","","-1","","","22","17243","6353","&#9826;","elianto","#f73b6a7A","-1","-1","1","0","[]","0","0","3","","","","","","","",""
"pit-trial","62","587484","0.0-2.0-14.0-3.0","battery-v0.2","","""event"",""trial"",""time""
""fullscreenenter"",""1"",""2742""
","
","
","""event"",""trial"",""time""
""fullscreenenter"",""1"",""2742""
","
","","","-1","","","22","17243","6353","&#9826;","elianto","#f73b6a7A","-1","-1","1","-10","[]","0","0","3","","","","","","","",""
"pit-trial","63","592353","0.0-2.0-14.0-4.0","battery-v0.2","","""event"",""trial"",""time""
""fullscreenenter"",""1"",""2742""
","
","
","""event"",""trial"",""time""
""fullscreenenter"",""1"",""2742""
","
","","","-1","","","22","17243","6353","&#9826;","elianto","#f73b6a7A","-1","-1","1","0","[]","0","0","3","","","","","","","",""
"pit-trial","64","597225","0.0-2.0-14.1-0.1","battery-v0.2","","""event"",""trial"",""time""
""fullscreenenter"",""1"",""2742""
","
","
","""event"",""trial"",""time""
""fullscreenenter"",""1"",""2742""
","
","","","-1","","","22","17243","6353","&#9826;","elianto","#f73b6a7A","-1","-1","1","0","[]","0","0","3","","","","","","","",""
"pit-trial","65","602088","0.0-2.0-14.1-1.1","battery-v0.2","","""event"",""trial"",""time""
""fullscreenenter"",""1"",""2742""
","
","
","""event"",""trial"",""time""
""fullscreenenter"",""1"",""2742""
","
","","","-1","","","22","17243","6353","&#9826;","elianto","#f73b6a7A","-1","-1","1","0","[]","0","0","3","","","","","","","",""
"pit-trial","66","606941","0.0-2.0-14.1-2.1","battery-v0.2","","""event"",""trial"",""time""
""fullscreenenter"",""1"",""2742""
","
","
","""event"",""trial"",""time""
""fullscreenenter"",""1"",""2742""
","
","","","-1","","","22","17243","6353","&#9826;","elianto","#f73b6a7A","-1","-1","1","0","[]","0","0","3","","","","","","","",""
"pit-trial","67","611793","0.0-2.0-14.1-3.1","battery-v0.2","","""event"",""trial"",""time""
""fullscreenenter"",""1"",""2742""
","
","
","""event"",""trial"",""time""
""fullscreenenter"",""1"",""2742""
","
","","","-1","","","22","17243","6353","&#9826;","elianto","#f73b6a7A","-1","-1","1","-10","[]","0","0","3","","","","","","","",""
"pit-trial","68","616646","0.0-2.0-14.1-4.1","battery-v0.2","","""event"",""trial"",""time""
""fullscreenenter"",""1"",""2742""
","
","
","""event"",""trial"",""time""
""fullscreenenter"",""1"",""2742""
","
","","","-1","","","22","17243","6353","&#9826;","elianto","#f73b6a7A","-1","-1","1","0","[]","0","0","3","","","","","","","",""
"pit-trial","69","621500","0.0-2.0-14.2-0.2","battery-v0.2","","""event"",""trial"",""time""
""fullscreenenter"",""1"",""2742""
","
","
","""event"",""trial"",""time""
""fullscreenenter"",""1"",""2742""
","
","","","-1","","","22","17243","6353","&#9826;","elianto","#f73b6a7A","-1","-1","1","0","[]","0","0","3","","","","","","","",""
"pit-trial","70","626353","0.0-2.0-14.2-1.2","battery-v0.2","","""event"",""trial"",""time""
""fullscreenenter"",""1"",""2742""
","
","
","""event"",""trial"",""time""
""fullscreenenter"",""1"",""2742""
","
","","","-1","","","22","17243","6353","&#9826;","elianto","#f73b6a7A","-1","-1","1","0","[]","0","0","3","","","","","","","",""
"pit-trial","71","631207","0.0-2.0-14.2-2.2","battery-v0.2","","""event"",""trial"",""time""
""fullscreenenter"",""1"",""2742""
","
","
","""event"",""trial"",""time""
""fullscreenenter"",""1"",""2742""
","
","","","-1","","","22","17243","6353","&#9826;","elianto","#f73b6a7A","-1","-1","1","0","[]","0","0","3","","","","","","","",""
"pit-trial","72","636060","0.0-2.0-14.2-3.2","battery-v0.2","","""event"",""trial"",""time""
""fullscreenenter"",""1"",""2742""
","
","
","""event"",""trial"",""time""
""fullscreenenter"",""1"",""2742""
","
","","","-1","","","22","17243","6353","&#9826;","elianto","#f73b6a7A","-1","-1","1","-10","[]","0","0","3","","","","","","","",""
"pit-trial","73","640914","0.0-2.0-14.2-4.2","battery-v0.2","","""event"",""trial"",""time""
""fullscreenenter"",""1"",""2742""
","
","
","""event"",""trial"",""time""
""fullscreenenter"",""1"",""2742""
","
","","","-1","","","22","17243","6353","&#9826;","elianto","#f73b6a7A","-1","-1","1","0","[]","0","0","3","","","","","","","",""
"pit-trial","74","645781","0.0-2.0-14.3-0.3","battery-v0.2","","""event"",""trial"",""time""
""fullscreenenter"",""1"",""2742""
","
","
","""event"",""trial"",""time""
""fullscreenenter"",""1"",""2742""
","
","","","-1","","","22","17243","6353","&#9826;","elianto","#f73b6a7A","-1","-1","1","0","[]","0","0","3","","","","","","","",""
"pit-trial","75","650649","0.0-2.0-14.3-1.3","battery-v0.2","","""event"",""trial"",""time""
""fullscreenenter"",""1"",""2742""
","
","
","""event"",""trial"",""time""
""fullscreenenter"",""1"",""2742""
","
","","","-1","","","22","17243","6353","&#9826;","elianto","#f73b6a7A","-1","-1","1","0","[]","0","0","3","","","","","","","",""
"pit-trial","76","655502","0.0-2.0-14.3-2.3","battery-v0.2","","""event"",""trial"",""time""
""fullscreenenter"",""1"",""2742""
","
","
","""event"",""trial"",""time""
""fullscreenenter"",""1"",""2742""
","
","","","-1","","","22","17243","6353","&#9826;","elianto","#f73b6a7A","-1","-1","1","0","[]","0","0","3","","","","","","","",""
"pit-trial","77","660356","0.0-2.0-14.3-3.3","battery-v0.2","","""event"",""trial"",""time""
""fullscreenenter"",""1"",""2742""
","
","
","""event"",""trial"",""time""
""fullscreenenter"",""1"",""2742""
","
","","","-1","","","22","17243","6353","&#9826;","elianto","#f73b6a7A","-1","-1","1","-10","[]","0","0","3","","","","","","","",""
"pit-trial","78","665210","0.0-2.0-14.3-4.3","battery-v0.2","","""event"",""trial"",""time""
""fullscreenenter"",""1"",""2742""
","
","
","""event"",""trial"",""time""
""fullscreenenter"",""1"",""2742""
","
","","","-1","","","22","17243","6353","&#9826;","elianto","#f73b6a7A","-1","-1","1","0","[]","0","0","3","","","","","","","",""
"call-function","79","665212","0.0-2.0-15.0","battery-v0.2","","""event"",""trial"",""time""
""fullscreenenter"",""1"",""2742""
","
","
","""event"",""trial"",""time""
""fullscreenenter"",""1"",""2742""
","
","","","","","","","","","","","","","","","","","","","","","","","","","","",""
"pit-instructions","80","695695","0.0-2.0-16.0","battery-v0.2","","""event"",""trial"",""time""
""fullscreenenter"",""1"",""2742""
","
","
","""event"",""trial"",""time""
""fullscreenenter"",""1"",""2742""
","
","","[{""page_index"":0,""viewing_time"":10302.099999904633},{""page_index"":1,""viewing_time"":9865.600000023842},{""page_index"":2,""viewing_time"":4613.5},{""page_index"":3,""viewing_time"":5700.800000071526}]","30482.699999928474","","","","","","","","","","","","","","","","","","","","","","","",""
"pit-trial","81","698735","0.0-2.0-17.0-0.0","battery-v0.2","","""event"",""trial"",""time""
""fullscreenenter"",""1"",""2742""
","
","
","""event"",""trial"",""time""
""fullscreenenter"",""1"",""2742""
","
","","","180.20000004768372","","","22","17243","6353","&#9789;","elianto","#f73b6a7A"," "," ","1","0","[1033.5]","1","0","4","","","","","","","",""
"pit-trial","82","701709","0.0-2.0-17.0-1.0","battery-v0.2","","""event"",""trial"",""time""
""fullscreenenter"",""1"",""2742""
","
","
","""event"",""trial"",""time""
""fullscreenenter"",""1"",""2742""
","
","","","114.30000007152557","","","22","17243","6353","&#9789;","elianto","#f73b6a7A"," "," ","1","0","[964.8999999761581]","1","0","4","","","","","","","",""
"pit-trial","83","704901","0.0-2.0-17.0-2.0","battery-v0.2","","""event"",""trial"",""time""
""fullscreenenter"",""1"",""2742""
","
","
","""event"",""trial"",""time""
""fullscreenenter"",""1"",""2742""
","
","","","329.2999999523163","","","22","17243","6353","&#9789;","elianto","#f73b6a7A"," "," ","1","0","[1181.7999999523163]","1","0","4","","","","","","","",""
"pit-trial","84","708062","0.0-2.0-17.0-3.0","battery-v0.2","","""event"",""trial"",""time""
""fullscreenenter"",""1"",""2742""
","
","
","""event"",""trial"",""time""
""fullscreenenter"",""1"",""2742""
","
","","","298.7000000476837","","","22","17243","6353","&#9789;","elianto","#f73b6a7A"," "," ","1","-10","[1148.7999999523163]","1","0","4","","","","","","","",""
"pit-trial","85","711108","0.0-2.0-17.0-4.0","battery-v0.2","","""event"",""trial"",""time""
""fullscreenenter"",""1"",""2742""
","
","
","""event"",""trial"",""time""
""fullscreenenter"",""1"",""2742""
","
","","","174.70000004768372","","","22","17243","6353","&#9789;","elianto","#f73b6a7A"," "," ","1","0","[1029.1000000238419]","1","0","4","","","","","","","",""
"pit-trial","86","714352","0.0-2.0-17.1-0.1","battery-v0.2","","""event"",""trial"",""time""
""fullscreenenter"",""1"",""2742""
","
","
","""event"",""trial"",""time""
""fullscreenenter"",""1"",""2742""
","
","","","386.7000000476837","","","22","17243","6353","&#9789;","elianto","#f73b6a7A"," "," ","1","0","[1240.3999999761581]","1","0","4","","","","","","","",""
"pit-trial","87","717580","0.0-2.0-17.1-1.1","battery-v0.2","","""event"",""trial"",""time""
""fullscreenenter"",""1"",""2742""
","
","
","""event"",""trial"",""time""
""fullscreenenter"",""1"",""2742""
","
","","","362.6999999284744","","","22","17243","6353","&#9789;","elianto","#f73b6a7A"," "," ","1","0","[1215.3999999761581]","1","0","4","","","","","","","",""
"pit-trial","88","720581","0.0-2.0-17.1-2.1","battery-v0.2","","""event"",""trial"",""time""
""fullscreenenter"",""1"",""2742""
","
","
","""event"",""trial"",""time""
""fullscreenenter"",""1"",""2742""
","
","","","133.39999997615814","","","22","17243","6353","&#9789;","elianto","#f73b6a7A"," "," ","1","0","[986.3999999761581]","1","0","4","","","","","","","",""
"pit-trial","89","723620","0.0-2.0-17.1-3.1","battery-v0.2","","""event"",""trial"",""time""
""fullscreenenter"",""1"",""2742""
","
","
","""event"",""trial"",""time""
""fullscreenenter"",""1"",""2742""
","
","","","172.20000004768372","","","22","17243","6353","&#9789;","elianto","#f73b6a7A"," "," ","1","-10","[1022.5]","1","0","4","","","","","","","",""
"pit-trial","90","726660","0.0-2.0-17.1-4.1","battery-v0.2","","""event"",""trial"",""time""
""fullscreenenter"",""1"",""2742""
","
","
","""event"",""trial"",""time""
""fullscreenenter"",""1"",""2742""
","
","","","175.89999997615814","","","22","17243","6353","&#9789;","elianto","#f73b6a7A"," "," ","1","0","[1038.1000000238419]","1","0","4","","","","","","","",""
"pit-trial","91","729899","0.0-2.0-17.2-0.2","battery-v0.2","","""event"",""trial"",""time""
""fullscreenenter"",""1"",""2742""
","
","
","""event"",""trial"",""time""
""fullscreenenter"",""1"",""2742""
","
","","","384.7000000476837","","","22","17243","6353","&#9789;","elianto","#f73b6a7A"," "," ","1","0","[1235.8999999761581]","1","0","4","","","","","","","",""
"pit-trial","92","733078","0.0-2.0-17.2-1.2","battery-v0.2","","""event"",""trial"",""time""
""fullscreenenter"",""1"",""2742""
","
","
","""event"",""trial"",""time""
""fullscreenenter"",""1"",""2742""
","
","","","326.5","","","22","17243","6353","&#9789;","elianto","#f73b6a7A"," "," ","1","0","[1177.3999999761581]","1","0","4","","","","","","","",""
"pit-trial","93","736169","0.0-2.0-17.2-2.2","battery-v0.2","","""event"",""trial"",""time""
""fullscreenenter"",""1"",""2742""
","
","
","""event"",""trial"",""time""
""fullscreenenter"",""1"",""2742""
","
","","","236.39999997615814","","","22","17243","6353","&#9789;","elianto","#f73b6a7A"," "," ","1","0","[1087.2000000476837]","1","0","4","","","","","","","",""
"pit-trial","94","739144","0.0-2.0-17.2-3.2","battery-v0.2","","""event"",""trial"",""time""
""fullscreenenter"",""1"",""2742""
","
","
","""event"",""trial"",""time""
""fullscreenenter"",""1"",""2742""
","
","","","121","","","22","17243","6353","&#9789;","elianto","#f73b6a7A"," "," ","1","-10","[971.9000000953674]","1","0","4","","","","","","","",""
"pit-trial","95","742117","0.0-2.0-17.2-4.2","battery-v0.2","","""event"",""trial"",""time""
""fullscreenenter"",""1"",""2742""
","
","
","""event"",""trial"",""time""
""fullscreenenter"",""1"",""2742""
","
","","","120.19999992847443","","","22","17243","6353","&#9789;","elianto","#f73b6a7A"," "," ","1","0","[971.2000000476837]","1","0","4","","","","","","","",""
"pit-trial","96","745301","0.0-2.0-17.3-0.3","battery-v0.2","","""event"",""trial"",""time""
""fullscreenenter"",""1"",""2742""
","
","
","""event"",""trial"",""time""
""fullscreenenter"",""1"",""2742""
","
","","","330.10000002384186","","","22","17243","6353","&#9789;","elianto","#f73b6a7A"," "," ","1","0","[1180.5999999046326]","1","0","4","","","","","","","",""
"pit-trial","97","748253","0.0-2.0-17.3-1.3","battery-v0.2","","""event"",""trial"",""time""
""fullscreenenter"",""1"",""2742""
","
","
","""event"",""trial"",""time""
""fullscreenenter"",""1"",""2742""
","
","","","98.09999990463257","","","22","17243","6353","&#9789;","elianto","#f73b6a7A"," "," ","1","0","[948.8999999761581]","1","0","4","","","","","","","",""
"pit-trial","98","751479","0.0-2.0-17.3-2.3","battery-v0.2","","""event"",""trial"",""time""
""fullscreenenter"",""1"",""2742""
","
","
","""event"",""trial"",""time""
""fullscreenenter"",""1"",""2742""
","
","","","373.39999997615814","","","22","17243","6353","&#9789;","elianto","#f73b6a7A"," "," ","1","0","[1224.1000000238419]","1","0","4","","","","","","","",""
"pit-trial","99","754578","0.0-2.0-17.3-3.3","battery-v0.2","","""event"",""trial"",""time""
""fullscreenenter"",""1"",""2742""
","
","
","""event"",""trial"",""time""
""fullscreenenter"",""1"",""2742""
","
","","","246.89999997615814","","","22","17243","6353","&#9789;","elianto","#f73b6a7A"," "," ","1","-10","[1097.1000000238419]","1","0","4","","","","","","","",""
"pit-trial","100","757850","0.0-2.0-17.3-4.3","battery-v0.2","","""event"",""trial"",""time""
""fullscreenenter"",""1"",""2742""
","
","
","""event"",""trial"",""time""
""fullscreenenter"",""1"",""2742""
","
","","","419.10000002384186","","","22","17243","6353","&#9789;","elianto","#f73b6a7A"," "," ","1","0","[1269.7000000476837]","1","0","4","","","","","","","",""
"call-function","101","757851","0.0-2.0-18.0","battery-v0.2","","""event"",""trial"",""time""
""fullscreenenter"",""1"",""2742""
","
","
","""event"",""trial"",""time""
""fullscreenenter"",""1"",""2742""
","
","","","","","","","","","","","","","","","","","","","","","","","","","","",""
"pit-instructions","102","923704","0.0-2.0-19.0","battery-v0.2","","""event"",""trial"",""time""
""fullscreenenter"",""1"",""2742""
","
","
","""event"",""trial"",""time""
""fullscreenenter"",""1"",""2742""
","
","","[{""page_index"":0,""viewing_time"":12206.399999976158},{""page_index"":1,""viewing_time"":13949.700000047684},{""page_index"":2,""viewing_time"":19069},{""page_index"":3,""viewing_time"":16676.799999952316},{""page_index"":4,""viewing_time"":41094.200000047684},{""page_index"":5,""viewing_time"":9895},{""page_index"":6,""viewing_time"":40089.60000002384},{""page_index"":7,""viewing_time"":6684},{""page_index"":8,""viewing_time"":6187}]","165852.5","","","","","","","","","","","","","","","","","","","","","","","",""
"pit-comprehension","103","929192","0.0-2.0-20.0-0.0","battery-v0.2","","""event"",""trial"",""time""
""fullscreenenter"",""1"",""2742""
","
","
","""event"",""trial"",""time""
""fullscreenenter"",""1"",""2742""
","
","","","5482","[""SPACE""]","0","22","17243","6353","","","","","","","","","","","","","","","","","","",""
"pit-instructions","104","933883","0.0-2.0-20.0-1.0","battery-v0.2","","""event"",""trial"",""time""
""fullscreenenter"",""1"",""2742""
","
","
","""event"",""trial"",""time""
""fullscreenenter"",""1"",""2742""
","
","","[{""page_index"":0,""viewing_time"":4656.5}]","4657.199999928474","","","","","","","","","","","","","","","","","","","","","","","",""
"pit-comprehension","105","941136","0.0-2.0-21.0-0.0","battery-v0.2","","""event"",""trial"",""time""
""fullscreenenter"",""1"",""2742""
","
","
","""event"",""trial"",""time""
""fullscreenenter"",""1"",""2742""
","
","","","7248.800000071526","[""10""]","0","22","17243","6353","","","","","","","","","","","","","","","","","","",""
"pit-instructions","106","945841","0.0-2.0-21.0-1.0","battery-v0.2","","""event"",""trial"",""time""
""fullscreenenter"",""1"",""2742""
","
","
","""event"",""trial"",""time""
""fullscreenenter"",""1"",""2742""
","
","","[{""page_index"":0,""viewing_time"":4677.199999928474}]","4677.699999928474","","","","","","","","","","","","","","","","","","","","","","","",""
"pit-comprehension","107","953704","0.0-2.0-22.0-0.0","battery-v0.2","","""event"",""trial"",""time""
""fullscreenenter"",""1"",""2742""
","
","
","""event"",""trial"",""time""
""fullscreenenter"",""1"",""2742""
","
","","","7858.299999952316","[""0""]","0","22","17243","6353","","","","","","","","","","","","","","","","","","",""
"pit-instructions","108","957529","0.0-2.0-22.0-1.0","battery-v0.2","","""event"",""trial"",""time""
""fullscreenenter"",""1"",""2742""
","
","
","""event"",""trial"",""time""
""fullscreenenter"",""1"",""2742""
","
","","[{""page_index"":0,""viewing_time"":3796.5}]","3797","","","","","","","","","","","","","","","","","","","","","","","",""
"pit-comprehension","109","967347","0.0-2.0-23.0-0.0","battery-v0.2","","""event"",""trial"",""time""
""fullscreenenter"",""1"",""2742""
","
","
","""event"",""trial"",""time""
""fullscreenenter"",""1"",""2742""
","
","","","9813.599999904633","[""True""]","0","22","17243","6353","","","","","","","","","","","","","","","","","","",""
"pit-instructions","110","970734","0.0-2.0-23.0-1.0","battery-v0.2","","""event"",""trial"",""time""
""fullscreenenter"",""1"",""2742""
","
","
","""event"",""trial"",""time""
""fullscreenenter"",""1"",""2742""
","
","","[{""page_index"":0,""viewing_time"":3354.0999999046326}]","3354.5","","","","","","","","","","","","","","","","","","","","","","","",""
"pit-comprehension","111","982828","0.0-2.0-24.0-0.0","battery-v0.2","","""event"",""trial"",""time""
""fullscreenenter"",""1"",""2742""
","
","
","""event"",""trial"",""time""
""fullscreenenter"",""1"",""2742""
","
","","","12091.299999952316","[""True""]","0","22","17243","6353","","","","","","","","","","","","","","","","","","",""
"pit-instructions","112","993011","0.0-2.0-24.0-1.0","battery-v0.2","","""event"",""trial"",""time""
""fullscreenenter"",""1"",""2742""
","
","
","""event"",""trial"",""time""
""fullscreenenter"",""1"",""2742""
","
","","[{""page_index"":0,""viewing_time"":10160.299999952316}]","10160.699999928474","","","","","","","","","","","","","","","","","","","","","","","",""
"pit-comprehension","113","1004873","0.0-2.0-25.0-0.0","battery-v0.2","","""event"",""trial"",""time""
""fullscreenenter"",""1"",""2742""
","
","
","""event"",""trial"",""time""
""fullscreenenter"",""1"",""2742""
","
","","","11858.199999928474","[""True""]","0","22","17243","6353","","","","","","","","","","","","","","","","","","",""
"pit-instructions","114","1007800","0.0-2.0-25.0-1.0","battery-v0.2","","""event"",""trial"",""time""
""fullscreenenter"",""1"",""2742""
","
","
","""event"",""trial"",""time""
""fullscreenenter"",""1"",""2742""
","
","","[{""page_index"":0,""viewing_time"":2888.600000023842}]","2889","","","","","","","","","","","","","","","","","","","","","","","",""
"pit-comprehension","115","1014847","0.0-2.0-26.0-0.0","battery-v0.2","","""event"",""trial"",""time""
""fullscreenenter"",""1"",""2742""
","
","
","""event"",""trial"",""time""
""fullscreenenter"",""1"",""2742""
","
","","","7042.700000047684","[""False""]","0","22","17243","6353","","","","","","","","","","","","","","","","","","",""
"pit-instructions","116","1018688","0.0-2.0-26.0-1.0","battery-v0.2","","""event"",""trial"",""time""
""fullscreenenter"",""1"",""2742""
","
","
","""event"",""trial"",""time""
""fullscreenenter"",""1"",""2742""
","
","","[{""page_index"":0,""viewing_time"":3807.2999999523163}]","3808","","","","","","","","","","","","","","","","","","","","","","","",""
"pit-instructions","117","1034567","0.0-3.0","battery-v0.2","","""event"",""trial"",""time""
""fullscreenenter"",""1"",""2742""
","
","
","""event"",""trial"",""time""
""fullscreenenter"",""1"",""2742""
","
","","[{""page_index"":0,""viewing_time"":3768.7000000476837},{""page_index"":1,""viewing_time"":5195.399999976158},{""page_index"":2,""viewing_time"":6911.699999928474}]","15876.399999976158","","","","","","","","","","","","","","","","","","","","","","","",""
"pit-trial","118","1038321","0.0-4.0","battery-v0.2","","""event"",""trial"",""time""
""fullscreenenter"",""1"",""2742""
","
","
","""event"",""trial"",""time""
""fullscreenenter"",""1"",""2742""
","
","","","879.3999999761581","","","22","17243","6353","&#9733;","elianto","#3366ff99","-1"," ","0","0","[1735.8999999761581]","1","1","","","17243","1","2","2","win","no-go","0"
"pit-trial","119","1043185","0.0-5.0","battery-v0.2","","""event"",""trial"",""time""
""fullscreenenter"",""1"",""2742""
","
","
","""event"",""trial"",""time""
""fullscreenenter"",""1"",""2742""
","
","","","-1","","","22","17243","6353","&#9752;","elianto","#f73b6a7A"," ","-1","0","-10","[]","0","1","","","17243","2","3","3","lose","go","0"
"pit-trial","120","1047094","0.0-6.0","battery-v0.2","","""event"",""trial"",""time""
""fullscreenenter"",""1"",""2742""
","
","
","""event"",""trial"",""time""
""fullscreenenter"",""1"",""2742""
","
","","","1048.1000000238419","","","22","17243","6353","&#9728;","elianto","#f73b6a7A","-1"," ","0","-10","[1901.8999999761581]","1","1","","","17243","3","0","4","lose","no-go","0"
"pit-trial","121","1051167","0.0-7.0","battery-v0.2","","""event"",""trial"",""time""
""fullscreenenter"",""1"",""2742""
","
","
","""event"",""trial"",""time""
""fullscreenenter"",""1"",""2742""
","
","","","1212.0999999046326","","","22","17243","6353","&#9730;","elianto","#3366ff99"," "," ","1","+10","[2070.7999999523163]","1","1","","","17243","4","1","1","win","go","0"
"pit-trial","122","1054788","0.0-8.0","battery-v0.2","","""event"",""trial"",""time""
""fullscreenenter"",""1"",""2742""
","
","
","""event"",""trial"",""time""
""fullscreenenter"",""1"",""2742""
","
","","","755.8999999761581","","","22","17243","6353","&#9730;","elianto","#3366ff99"," "," ","1","+10","[1608.6000000238419]","1","1","","","17243","5","1","1","win","go","0"
"pit-trial","123","1059213","0.0-9.0","battery-v0.2","","""event"",""trial"",""time""
""fullscreenenter"",""1"",""2742""
","
","
","""event"",""trial"",""time""
""fullscreenenter"",""1"",""2742""
","
","","","1562.6000000238419","","","22","17243","6353","&#9728;","elianto","#f73b6a7A","-1"," ","0","-10","[2413.399999976158]","1","1","","","17243","6","0","4","lose","no-go","0"
"pit-trial","124","1064083","0.0-10.0","battery-v0.2","","""event"",""trial"",""time""
""fullscreenenter"",""1"",""2742""
","
","
","""event"",""trial"",""time""
""fullscreenenter"",""1"",""2742""
","
","","","-1","","","22","17243","6353","&#9752;","elianto","#f73b6a7A"," ","-1","0","-10","[]","0","1","","","17243","7","3","3","lose","go","0"
"pit-trial","125","1068937","0.0-11.0","battery-v0.2","","""event"",""trial"",""time""
""fullscreenenter"",""1"",""2742""
","
","
","""event"",""trial"",""time""
""fullscreenenter"",""1"",""2742""
","
","","","-1","","","22","17243","6353","&#9733;","elianto","#3366ff99","-1","-1","1","+10","[]","0","1","","","17243","8","2","2","win","no-go","0"
"pit-trial","126","1073790","0.0-12.0","battery-v0.2","","""event"",""trial"",""time""
""fullscreenenter"",""1"",""2742""
","
","
","""event"",""trial"",""time""
""fullscreenenter"",""1"",""2742""
","
","","","-1","","","22","17243","6353","&#9728;","elianto","#f73b6a7A","-1","-1","1","0","[]","0","1","","","17243","9","0","4","lose","no-go","0"
"pit-trial","127","1077832","0.0-13.0","battery-v0.2","","""event"",""trial"",""time""
""fullscreenenter"",""1"",""2742""
","
","
","""event"",""trial"",""time""
""fullscreenenter"",""1"",""2742""
","
","","","1188.2000000476837","","","22","17243","6353","&#9752;","elianto","#f73b6a7A"," "," ","1","0","[2039.3999999761581]","1","1","","","17243","10","3","3","lose","go","0"
"pit-trial","128","1082686","0.0-14.0","battery-v0.2","","""event"",""trial"",""time""
""fullscreenenter"",""1"",""2742""
","
","
","""event"",""trial"",""time""
""fullscreenenter"",""1"",""2742""
","
","","","-1","","","22","17243","6353","&#9733;","elianto","#3366ff99","-1","-1","1","0","[]","0","1","","","17243","11","2","2","win","no-go","1"
"pit-trial","129","1086077","0.0-15.0","battery-v0.2","","""event"",""trial"",""time""
""fullscreenenter"",""1"",""2742""
","
","
","""event"",""trial"",""time""
""fullscreenenter"",""1"",""2742""
","
","","","537.3000000715256","","","22","17243","6353","&#9730;","elianto","#3366ff99"," "," ","1","+10","[1388]","1","1","","","17243","12","1","1","win","go","0"
"pit-trial","130","1090930","0.0-16.0","battery-v0.2","","""event"",""trial"",""time""
""fullscreenenter"",""1"",""2742""
","
","
","""event"",""trial"",""time""
""fullscreenenter"",""1"",""2742""
","
","","","-1","","","22","17243","6353","&#9728;","elianto","#f73b6a7A","-1","-1","1","0","[]","0","1","","","17243","13","0","4","lose","no-go","0"
"pit-trial","131","1094291","0.0-17.0","battery-v0.2","","""event"",""trial"",""time""
""fullscreenenter"",""1"",""2742""
","
","
","""event"",""trial"",""time""
""fullscreenenter"",""1"",""2742""
","
","","","508","","","22","17243","6353","&#9752;","elianto","#f73b6a7A"," "," ","1","0","[1358.8000000715256]","1","1","","","17243","14","3","3","lose","go","0"
"pit-trial","132","1099146","0.0-18.0","battery-v0.2","","""event"",""trial"",""time""
""fullscreenenter"",""1"",""2742""
","
","
","""event"",""trial"",""time""
""fullscreenenter"",""1"",""2742""
","
","","","-1","","","22","17243","6353","&#9733;","elianto","#3366ff99","-1","-1","1","+10","[]","0","1","","","17243","15","2","2","win","no-go","0"
"pit-trial","133","1102825","0.0-19.0","battery-v0.2","","""event"",""trial"",""time""
""fullscreenenter"",""1"",""2742""
","
","
","""event"",""trial"",""time""
""fullscreenenter"",""1"",""2742""
","
","","","825.7000000476837","","","22","17243","6353","&#9730;","elianto","#3366ff99"," "," ","1","+10","[1677.2999999523163]","1","1","","","17243","16","1","1","win","go","0"
"pit-trial","134","1106533","0.0-20.0","battery-v0.2","","""event"",""trial"",""time""
""fullscreenenter"",""1"",""2742""
","
","
","""event"",""trial"",""time""
""fullscreenenter"",""1"",""2742""
","
","","","854.5","","","22","17243","6353","&#9730;","elianto","#3366ff99"," "," ","1","+10","[1704.9000000953674]","1","1","","","17243","17","1","1","win","go","0"
"pit-trial","135","1111387","0.0-21.0","battery-v0.2","","""event"",""trial"",""time""
""fullscreenenter"",""1"",""2742""
","
","
","""event"",""trial"",""time""
""fullscreenenter"",""1"",""2742""
","
","","","-1","","","22","17243","6353","&#9728;","elianto","#f73b6a7A","-1","-1","1","0","[]","0","1","","","17243","18","0","4","lose","no-go","0"
"pit-trial","136","1116240","0.0-22.0","battery-v0.2","","""event"",""trial"",""time""
""fullscreenenter"",""1"",""2742""
","
","
","""event"",""trial"",""time""
""fullscreenenter"",""1"",""2742""
","
","","","-1","","","22","17243","6353","&#9733;","elianto","#3366ff99","-1","-1","1","+10","[]","0","1","","","17243","19","2","2","win","no-go","0"
"pit-trial","137","1120299","0.0-23.0","battery-v0.2","","""event"",""trial"",""time""
""fullscreenenter"",""1"",""2742""
","
","
","""event"",""trial"",""time""
""fullscreenenter"",""1"",""2742""
","
","","","1206.6000000238419","","","22","17243","6353","&#9752;","elianto","#f73b6a7A"," "," ","1","0","[2056.7000000476837]","1","1","","","17243","20","3","3","lose","go","0"
"pit-instructions","138","1160639","0.0-24.0","battery-v0.2","","""event"",""trial"",""time""
""fullscreenenter"",""1"",""2742""
","
","
","""event"",""trial"",""time""
""fullscreenenter"",""1"",""2742""
","
","","[{""page_index"":0,""viewing_time"":29819.399999976158},{""page_index"":1,""viewing_time"":10518.100000023842}]","40337.89999997616","","","","","","","","","","","","","","","","","","","","","","","",""
"pit-trial","139","1164160","0.0-25.0","battery-v0.2","","""event"",""trial"",""time""
""fullscreenenter"",""1"",""2742""
","
","
","""event"",""trial"",""time""
""fullscreenenter"",""1"",""2742""
","
","","","657.5","","","22","17243","6353","r","elianto","#3366ff99"," "," ","1","+10","[1515]","1","2","","","17243","21","1","1","win","go","0"
"pit-trial","140","1167878","0.0-26.0","battery-v0.2","","""event"",""trial"",""time""
""fullscreenenter"",""1"",""2742""
","
","
","""event"",""trial"",""time""
""fullscreenenter"",""1"",""2742""
","
","","","848.7999999523163","","","22","17243","6353","y","elianto","#f73b6a7A","-1"," ","0","-10","[1702.8999999761581]","1","2","","","17243","22","2","4","lose","no-go","0"
"pit-trial","141","1171846","0.0-27.0","battery-v0.2","","""event"",""trial"",""time""
""fullscreenenter"",""1"",""2742""
","
","
","""event"",""trial"",""time""
""fullscreenenter"",""1"",""2742""
","
","","","1107.7000000476837","","","22","17243","6353","m","elianto","#f73b6a7A","-1"," ","0","-10","[1960.1000000238419]","1","2","","","17243","23","0","4","lose","no-go","0"
"pit-trial","142","1175549","0.0-28.0","battery-v0.2","","""event"",""trial"",""time""
""fullscreenenter"",""1"",""2742""
","
","
","""event"",""trial"",""time""
""fullscreenenter"",""1"",""2742""
","
","","","835.8999999761581","","","22","17243","6353","h","elianto","#f73b6a7A"," "," ","1","0","[1686.6000000238419]","1","2","","","17243","24","3","3","lose","go","0"
"pit-trial","143","1180418","0.0-29.0","battery-v0.2","","""event"",""trial"",""time""
""fullscreenenter"",""1"",""2742""
","
","
","""event"",""trial"",""time""
""fullscreenenter"",""1"",""2742""
","
","","","-1","","","22","17243","6353","y","elianto","#f73b6a7A","-1","-1","1","0","[]","0","2","","","17243","25","2","4","lose","no-go","0"
"pit-trial","144","1185278","0.0-30.0","battery-v0.2","","""event"",""trial"",""time""
""fullscreenenter"",""1"",""2742""
","
","
","""event"",""trial"",""time""
""fullscreenenter"",""1"",""2742""
","
","","","-1","","","22","17243","6353","h","elianto","#f73b6a7A"," ","-1","0","-10","[]","0","2","","","17243","26","3","3","lose","go","0"
"pit-trial","145","1190132","0.0-31.0","battery-v0.2","","""event"",""trial"",""time""
""fullscreenenter"",""1"",""2742""
","
","
","""event"",""trial"",""time""
""fullscreenenter"",""1"",""2742""
","
","","","-1","","","22","17243","6353","m","elianto","#f73b6a7A","-1","-1","1","0","[]","0","2","","","17243","27","0","4","lose","no-go","0"
"pit-trial","146","1193841","0.0-32.0","battery-v0.2","","""event"",""trial"",""time""
""fullscreenenter"",""1"",""2742""
","
","
","""event"",""trial"",""time""
""fullscreenenter"",""1"",""2742""
","
","","","856.6000000238419","","","22","17243","6353","r","elianto","#3366ff99"," "," ","1","+10","[1707.2000000476837]","1","2","","","17243","28","1","1","win","go","0"
"pit-trial","147","1198694","0.0-33.0","battery-v0.2","","""event"",""trial"",""time""
""fullscreenenter"",""1"",""2742""
","
","
","""event"",""trial"",""time""
""fullscreenenter"",""1"",""2742""
","
","","","-1","","","22","17243","6353","m","elianto","#f73b6a7A","-1","-1","1","0","[]","0","2","","","17243","29","0","4","lose","no-go","0"
"pit-trial","148","1203548","0.0-34.0","battery-v0.2","","""event"",""trial"",""time""
""fullscreenenter"",""1"",""2742""
","
","
","""event"",""trial"",""time""
""fullscreenenter"",""1"",""2742""
","
","","","-1","","","22","17243","6353","y","elianto","#f73b6a7A","-1","-1","1","0","[]","0","2","","","17243","30","2","4","lose","no-go","0"
"pit-trial","149","1208109","0.0-35.0","battery-v0.2","","""event"",""trial"",""time""
""fullscreenenter"",""1"",""2742""
","
","
","""event"",""trial"",""time""
""fullscreenenter"",""1"",""2742""
","
","","","1706.5","","","22","17243","6353","h","elianto","#f73b6a7A"," "," ","1","0","[2557.7000000476837]","1","2","","","17243","31","3","3","lose","go","0"
"pit-trial","150","1211575","0.0-36.0","battery-v0.2","","""event"",""trial"",""time""
""fullscreenenter"",""1"",""2742""
","
","
","""event"",""trial"",""time""
""fullscreenenter"",""1"",""2742""
","
","","","612.4000000953674","","","22","17243","6353","r","elianto","#3366ff99"," "," ","1","0","[1463.4000000953674]","1","2","","","17243","32","1","1","win","go","1"
"pit-trial","151","1216429","0.0-37.0","battery-v0.2","","""event"",""trial"",""time""
""fullscreenenter"",""1"",""2742""
","
","
","""event"",""trial"",""time""
""fullscreenenter"",""1"",""2742""
","
","","","-1","","","22","17243","6353","m","elianto","#f73b6a7A","-1","-1","1","-10","[]","0","2","","","17243","33","0","4","lose","no-go","1"
"pit-trial","152","1221284","0.0-38.0","battery-v0.2","","""event"",""trial"",""time""
""fullscreenenter"",""1"",""2742""
","
","
","""event"",""trial"",""time""
""fullscreenenter"",""1"",""2742""
","
","","","-1","","","22","17243","6353","y","elianto","#f73b6a7A","-1","-1","1","0","[]","0","2","","","17243","34","2","4","lose","no-go","0"
"pit-trial","153","1224683","0.0-39.0","battery-v0.2","","""event"",""trial"",""time""
""fullscreenenter"",""1"",""2742""
","
","
","""event"",""trial"",""time""
""fullscreenenter"",""1"",""2742""
","
","","","545.8000000715256","","","22","17243","6353","r","elianto","#3366ff99"," "," ","1","+10","[1396.5]","1","2","","","17243","35","1","1","win","go","0"
"pit-trial","154","1228525","0.0-40.0","battery-v0.2","","""event"",""trial"",""time""
""fullscreenenter"",""1"",""2742""
","
","
","""event"",""trial"",""time""
""fullscreenenter"",""1"",""2742""
","
","","","990.2999999523163","","","22","17243","6353","h","elianto","#f73b6a7A"," "," ","1","0","[1840.3999999761581]","1","2","","","17243","36","3","3","lose","go","0"
"pit-trial","155","1233379","0.0-41.0","battery-v0.2","","""event"",""trial"",""time""
""fullscreenenter"",""1"",""2742""
","
","
","""event"",""trial"",""time""
""fullscreenenter"",""1"",""2742""
","
","","","-1","","","22","17243","6353","m","elianto","#f73b6a7A","-1","-1","1","0","[]","0","2","","","17243","37","0","4","lose","no-go","0"
"pit-trial","156","1236859","0.0-42.0","battery-v0.2","","""event"",""trial"",""time""
""fullscreenenter"",""1"",""2742""
","
","
","""event"",""trial"",""time""
""fullscreenenter"",""1"",""2742""
","
","","","624.8000000715256","","","22","17243","6353","h","elianto","#f73b6a7A"," "," ","1","0","[1475.7000000476837]","1","2","","","17243","38","3","3","lose","go","0"
"pit-trial","157","1241712","0.0-43.0","battery-v0.2","","""event"",""trial"",""time""
""fullscreenenter"",""1"",""2742""
","
","
","""event"",""trial"",""time""
""fullscreenenter"",""1"",""2742""
","
","","","-1","","","22","17243","6353","y","elianto","#f73b6a7A","-1","-1","1","0","[]","0","2","","","17243","39","2","4","lose","no-go","0"
"pit-trial","158","1245091","0.0-44.0","battery-v0.2","","""event"",""trial"",""time""
""fullscreenenter"",""1"",""2742""
","
","
","""event"",""trial"",""time""
""fullscreenenter"",""1"",""2742""
","
","","","526.3999999761581","","","22","17243","6353","r","elianto","#3366ff99"," "," ","1","+10","[1376.7000000476837]","1","2","","","17243","40","1","1","win","go","0"
"pit-trial","159","1248651","0.0-45.0","battery-v0.2","","""event"",""trial"",""time""
""fullscreenenter"",""1"",""2742""
","
","
","""event"",""trial"",""time""
""fullscreenenter"",""1"",""2742""
","
","","","706.6000000238419","","","22","17243","6353","r","elianto","#3366ff99"," "," ","1","+10","[1557.6000000238419]","1","2","","","17243","41","1","1","win","go","0"
"pit-trial","160","1253505","0.0-46.0","battery-v0.2","","""event"",""trial"",""time""
""fullscreenenter"",""1"",""2742""
","
","
","""event"",""trial"",""time""
""fullscreenenter"",""1"",""2742""
","
","","","-1","","","22","17243","6353","y","elianto","#f73b6a7A","-1","-1","1","-10","[]","0","2","","","17243","42","2","4","lose","no-go","1"
"pit-trial","161","1257134","0.0-47.0","battery-v0.2","","""event"",""trial"",""time""
""fullscreenenter"",""1"",""2742""
","
","
","""event"",""trial"",""time""
""fullscreenenter"",""1"",""2742""
","
","","","775.2999999523163","","","22","17243","6353","h","elianto","#f73b6a7A"," "," ","1","-10","[1625.8999999761581]","1","2","","","17243","43","3","3","lose","go","1"
"pit-trial","162","1261987","0.0-48.0","battery-v0.2","","""event"",""trial"",""time""
""fullscreenenter"",""1"",""2742""
","
","
","""event"",""trial"",""time""
""fullscreenenter"",""1"",""2742""
","
","","","-1","","","22","17243","6353","m","elianto","#f73b6a7A","-1","-1","1","0","[]","0","2","","","17243","44","0","4","lose","no-go","0"
"pit-trial","163","1265706","0.0-49.0","battery-v0.2","","""event"",""trial"",""time""
""fullscreenenter"",""1"",""2742""
","
","
","""event"",""trial"",""time""
""fullscreenenter"",""1"",""2742""
","
","","","863.7000000476837","","","22","17243","6353","z","elianto","#3366ff99","-1"," ","0","0","[1714.6000000238419]","1","2","","","17243","45","4","2","win","no-go","0"
"pit-trial","164","1270559","0.0-50.0","battery-v0.2","","""event"",""trial"",""time""
""fullscreenenter"",""1"",""2742""
","
","
","""event"",""trial"",""time""
""fullscreenenter"",""1"",""2742""
","
","","","-1","","","22","17243","6353","y","elianto","#f73b6a7A","-1","-1","1","0","[]","0","2","","","17243","46","2","4","lose","no-go","0"
"pit-trial","165","1274396","0.0-51.0","battery-v0.2","","""event"",""trial"",""time""
""fullscreenenter"",""1"",""2742""
","
","
","""event"",""trial"",""time""
""fullscreenenter"",""1"",""2742""
","
","","","981.2000000476837","","","22","17243","6353","h","elianto","#f73b6a7A"," "," ","1","0","[1834]","1","2","","","17243","47","3","3","lose","go","0"
"pit-trial","166","1279254","0.0-52.0","battery-v0.2","","""event"",""trial"",""time""
""fullscreenenter"",""1"",""2742""
","
","
","""event"",""trial"",""time""
""fullscreenenter"",""1"",""2742""
","
","","","-1","","","22","17243","6353","m","elianto","#f73b6a7A","-1","-1","1","0","[]","0","2","","","17243","48","0","4","lose","no-go","0"
"pit-trial","167","1282717","0.0-53.0","battery-v0.2","","""event"",""trial"",""time""
""fullscreenenter"",""1"",""2742""
","
","
","""event"",""trial"",""time""
""fullscreenenter"",""1"",""2742""
","
","","","609.7999999523163","","","22","17243","6353","r","elianto","#3366ff99"," "," ","1","+10","[1460.8999999761581]","1","2","","","17243","49","1","1","win","go","0"
"pit-trial","168","1287570","0.0-54.0","battery-v0.2","","""event"",""trial"",""time""
""fullscreenenter"",""1"",""2742""
","
","
","""event"",""trial"",""time""
""fullscreenenter"",""1"",""2742""
","
","","","-1","","","22","17243","6353","m","elianto","#f73b6a7A","-1","-1","1","0","[]","0","2","","","17243","50","0","4","lose","no-go","0"
"pit-trial","169","1291212","0.0-55.0","battery-v0.2","","""event"",""trial"",""time""
""fullscreenenter"",""1"",""2742""
","
","
","""event"",""trial"",""time""
""fullscreenenter"",""1"",""2742""
","
","","","789.5","","","22","17243","6353","z","elianto","#3366ff99","-1"," ","0","0","[1640]","1","2","","","17243","51","4","2","win","no-go","0"
"pit-trial","170","1295332","0.0-56.0","battery-v0.2","","""event"",""trial"",""time""
""fullscreenenter"",""1"",""2742""
","
","
","""event"",""trial"",""time""
""fullscreenenter"",""1"",""2742""
","
","","","1266.5","","","22","17243","6353","h","elianto","#f73b6a7A"," "," ","1","0","[2117.0999999046326]","1","2","","","17243","52","3","3","lose","go","0"
"pit-trial","171","1300185","0.0-57.0","battery-v0.2","","""event"",""trial"",""time""
""fullscreenenter"",""1"",""2742""
","
","
","""event"",""trial"",""time""
""fullscreenenter"",""1"",""2742""
","
","","","-1","","","22","17243","6353","m","elianto","#f73b6a7A","-1","-1","1","0","[]","0","2","","","17243","53","0","4","lose","no-go","0"
"pit-trial","172","1303666","0.0-58.0","battery-v0.2","","""event"",""trial"",""time""
""fullscreenenter"",""1"",""2742""
","
","
","""event"",""trial"",""time""
""fullscreenenter"",""1"",""2742""
","
","","","627.2999999523163","","","22","17243","6353","r","elianto","#3366ff99"," "," ","1","+10","[1477.5]","1","2","","","17243","54","1","1","win","go","0"
"pit-trial","173","1308520","0.0-59.0","battery-v0.2","","""event"",""trial"",""time""
""fullscreenenter"",""1"",""2742""
","
","
","""event"",""trial"",""time""
""fullscreenenter"",""1"",""2742""
","
","","","-1","","","22","17243","6353","y","elianto","#f73b6a7A","-1","-1","1","0","[]","0","2","","","17243","55","2","4","lose","no-go","0"
"pit-trial","174","1312395","0.0-60.0","battery-v0.2","","""event"",""trial"",""time""
""fullscreenenter"",""1"",""2742""
","
","
","""event"",""trial"",""time""
""fullscreenenter"",""1"",""2742""
","
","","","1020.3999999761581","","","22","17243","6353","z","elianto","#3366ff99","-1"," ","0","0","[1871.5]","1","2","","","17243","56","4","2","win","no-go","0"
"pit-trial","175","1317248","0.0-61.0","battery-v0.2","","""event"",""trial"",""time""
""fullscreenenter"",""1"",""2742""
","
","
","""event"",""trial"",""time""
""fullscreenenter"",""1"",""2742""
","
","","","-1","","","22","17243","6353","z","elianto","#3366ff99","-1","-1","1","+10","[]","0","2","","","17243","57","4","2","win","no-go","0"
"pit-trial","176","1322102","0.0-62.0","battery-v0.2","","""event"",""trial"",""time""
""fullscreenenter"",""1"",""2742""
","
","
","""event"",""trial"",""time""
""fullscreenenter"",""1"",""2742""
","
","","","-1","","","22","17243","6353","m","elianto","#f73b6a7A","-1","-1","1","0","[]","0","2","","","17243","58","0","4","lose","no-go","0"
"pit-trial","177","1326125","0.0-63.0","battery-v0.2","","""event"",""trial"",""time""
""fullscreenenter"",""1"",""2742""
","
","
","""event"",""trial"",""time""
""fullscreenenter"",""1"",""2742""
","
","","","1169.5","","","22","17243","6353","h","elianto","#f73b6a7A"," "," ","1","0","[2019.8000000715256]","1","2","","","17243","59","3","3","lose","go","0"
"pit-trial","178","1329649","0.0-64.0","battery-v0.2","","""event"",""trial"",""time""
""fullscreenenter"",""1"",""2742""
","
","
","""event"",""trial"",""time""
""fullscreenenter"",""1"",""2742""
","
","","","671.8999999761581","","","22","17243","6353","r","elianto","#3366ff99"," "," ","1","+10","[1522]","1","2","","","17243","60","1","1","win","go","0"
"pit-trial","179","1334504","0.0-65.0","battery-v0.2","","""event"",""trial"",""time""
""fullscreenenter"",""1"",""2742""
","
","
","""event"",""trial"",""time""
""fullscreenenter"",""1"",""2742""
","
","","","-1","","","22","17243","6353","z","elianto","#3366ff99","-1","-1","1","+10","[]","0","2","","","17243","61","4","2","win","no-go","0"
"pit-trial","180","1339358","0.0-66.0","battery-v0.2","","""event"",""trial"",""time""
""fullscreenenter"",""1"",""2742""
","
","
","""event"",""trial"",""time""
""fullscreenenter"",""1"",""2742""
","
","","","-1","","","22","17243","6353","y","elianto","#f73b6a7A","-1","-1","1","0","[]","0","2","","","17243","62","2","4","lose","no-go","0"
"pit-trial","181","1342884","0.0-67.0","battery-v0.2","","""event"",""trial"",""time""
""fullscreenenter"",""1"",""2742""
","
","
","""event"",""trial"",""time""
""fullscreenenter"",""1"",""2742""
","
","","","671.8000000715256","","","22","17243","6353","r","elianto","#3366ff99"," "," ","1","+10","[1523.5]","1","2","","","17243","63","1","1","win","go","0"
"pit-trial","182","1347037","0.0-68.0","battery-v0.2","","""event"",""trial"",""time""
""fullscreenenter"",""1"",""2742""
","
","
","""event"",""trial"",""time""
""fullscreenenter"",""1"",""2742""
","
","","","1300.1000000238419","","","22","17243","6353","h","elianto","#f73b6a7A"," "," ","1","0","[2150.5]","1","2","","","17243","64","3","3","lose","go","0"
"pit-trial","183","1350482","0.0-69.0","battery-v0.2","","""event"",""trial"",""time""
""fullscreenenter"",""1"",""2742""
","
","
","""event"",""trial"",""time""
""fullscreenenter"",""1"",""2742""
","
","","","590.5999999046326","","","22","17243","6353","r","elianto","#3366ff99"," "," ","1","+10","[1442.5]","1","2","","","17243","65","1","1","win","go","0"
"pit-trial","184","1355348","0.0-70.0","battery-v0.2","","""event"",""trial"",""time""
""fullscreenenter"",""1"",""2742""
","
","
","""event"",""trial"",""time""
""fullscreenenter"",""1"",""2742""
","
","","","-1","","","22","17243","6353","y","elianto","#f73b6a7A","-1","-1","1","0","[]","0","2","","","17243","66","2","4","lose","no-go","0"
"pit-trial","185","1358819","0.0-71.0","battery-v0.2","","""event"",""trial"",""time""
""fullscreenenter"",""1"",""2742""
","
","
","""event"",""trial"",""time""
""fullscreenenter"",""1"",""2742""
","
","","","616.2000000476837","","","22","17243","6353","h","elianto","#f73b6a7A"," "," ","1","0","[1467.2000000476837]","1","2","","","17243","67","3","3","lose","go","0"
"pit-trial","186","1363673","0.0-72.0","battery-v0.2","","""event"",""trial"",""time""
""fullscreenenter"",""1"",""2742""
","
","
","""event"",""trial"",""time""
""fullscreenenter"",""1"",""2742""
","
","","","-1","","","22","17243","6353","z","elianto","#3366ff99","-1","-1","1","+10","[]","0","2","","","17243","68","4","2","win","no-go","0"
"pit-trial","187","1367163","0.0-73.0","battery-v0.2","","""event"",""trial"",""time""
""fullscreenenter"",""1"",""2742""
","
","
","""event"",""trial"",""time""
""fullscreenenter"",""1"",""2742""
","
","","","637","","","22","17243","6353","r","elianto","#3366ff99"," "," ","1","+10","[1487.7000000476837]","1","2","","","17243","69","1","1","win","go","0"
"pit-trial","188","1371008","0.0-74.0","battery-v0.2","","""event"",""trial"",""time""
""fullscreenenter"",""1"",""2742""
","
","
","""event"",""trial"",""time""
""fullscreenenter"",""1"",""2742""
","
","","","990.5","","","22","17243","6353","c","elianto","#3366ff99"," "," ","1","+10","[1842]","1","2","","","17243","70","5","1","win","go","0"
"pit-trial","189","1375336","0.0-75.0","battery-v0.2","","""event"",""trial"",""time""
""fullscreenenter"",""1"",""2742""
","
","
","""event"",""trial"",""time""
""fullscreenenter"",""1"",""2742""
","
","","","1475.5","","","22","17243","6353","h","elianto","#f73b6a7A"," "," ","1","-10","[2326.100000023842]","1","2","","","17243","71","3","3","lose","go","1"
"pit-trial","190","1380189","0.0-76.0","battery-v0.2","","""event"",""trial"",""time""
""fullscreenenter"",""1"",""2742""
","
","
","""event"",""trial"",""time""
""fullscreenenter"",""1"",""2742""
","
","","","-1","","","22","17243","6353","z","elianto","#3366ff99","-1","-1","1","+10","[]","0","2","","","17243","72","4","2","win","no-go","0"
"pit-trial","191","1383940","0.0-77.0","battery-v0.2","","""event"",""trial"",""time""
""fullscreenenter"",""1"",""2742""
","
","
","""event"",""trial"",""time""
""fullscreenenter"",""1"",""2742""
","
","","","897.6000000238419","","","22","17243","6353","c","elianto","#3366ff99"," "," ","1","+10","[1748.1000000238419]","1","2","","","17243","73","5","1","win","go","0"
"pit-trial","192","1388793","0.0-78.0","battery-v0.2","","""event"",""trial"",""time""
""fullscreenenter"",""1"",""2742""
","
","
","""event"",""trial"",""time""
""fullscreenenter"",""1"",""2742""
","
","","","-1","","","22","17243","6353","z","elianto","#3366ff99","-1","-1","1","+10","[]","0","2","","","17243","74","4","2","win","no-go","0"
"pit-trial","193","1392477","0.0-79.0","battery-v0.2","","""event"",""trial"",""time""
""fullscreenenter"",""1"",""2742""
","
","
","""event"",""trial"",""time""
""fullscreenenter"",""1"",""2742""
","
","","","831.1000000238419","","","22","17243","6353","h","elianto","#f73b6a7A"," "," ","1","0","[1682.1000000238419]","1","2","","","17243","75","3","3","lose","go","0"
"pit-trial","194","1396001","0.0-80.0","battery-v0.2","","""event"",""trial"",""time""
""fullscreenenter"",""1"",""2742""
","
","
","""event"",""trial"",""time""
""fullscreenenter"",""1"",""2742""
","
","","","672.2000000476837","","","22","17243","6353","r","elianto","#3366ff99"," "," ","1","+10","[1522.3000000715256]","1","2","","","17243","76","1","1","win","go","0"
"pit-trial","195","1400053","0.0-81.0","battery-v0.2","","""event"",""trial"",""time""
""fullscreenenter"",""1"",""2742""
","
","
","""event"",""trial"",""time""
""fullscreenenter"",""1"",""2742""
","
","","","1199","","","22","17243","6353","h","elianto","#f73b6a7A"," "," ","1","0","[2050.3000000715256]","1","2","","","17243","77","3","3","lose","go","0"
"pit-trial","196","1403584","0.0-82.0","battery-v0.2","","""event"",""trial"",""time""
""fullscreenenter"",""1"",""2742""
","
","
","""event"",""trial"",""time""
""fullscreenenter"",""1"",""2742""
","
","","","678.1999999284744","","","22","17243","6353","c","elianto","#3366ff99"," "," ","1","0","[1529.0999999046326]","1","2","","","17243","78","5","1","win","go","1"
"pit-trial","197","1408067","0.0-83.0","battery-v0.2","","""event"",""trial"",""time""
""fullscreenenter"",""1"",""2742""
","
","
","""event"",""trial"",""time""
""fullscreenenter"",""1"",""2742""
","
","","","1629.5","","","22","17243","6353","b","elianto","#f73b6a7A","-1"," ","0","-10","[2479.899999976158]","1","2","","","17243","79","6","4","lose","no-go","0"
"pit-trial","198","1412920","0.0-84.0","battery-v0.2","","""event"",""trial"",""time""
""fullscreenenter"",""1"",""2742""
","
","
","""event"",""trial"",""time""
""fullscreenenter"",""1"",""2742""
","
","","","-1","","","22","17243","6353","z","elianto","#3366ff99","-1","-1","1","+10","[]","0","2","","","17243","80","4","2","win","no-go","0"
"pit-trial","199","1416710","0.0-85.0","battery-v0.2","","""event"",""trial"",""time""
""fullscreenenter"",""1"",""2742""
","
","
","""event"",""trial"",""time""
""fullscreenenter"",""1"",""2742""
","
","","","937.3999999761581","","","22","17243","6353","t","elianto","#f73b6a7A"," "," ","1","0","[1787.8999999761581]","1","2","","","17243","81","7","3","lose","go","0"
"pit-trial","200","1421565","0.0-86.0","battery-v0.2","","""event"",""trial"",""time""
""fullscreenenter"",""1"",""2742""
","
","
","""event"",""trial"",""time""
""fullscreenenter"",""1"",""2742""
","
","","","-1","","","22","17243","6353","b","elianto","#f73b6a7A","-1","-1","1","0","[]","0","2","","","17243","82","6","4","lose","no-go","0"
"pit-trial","201","1426419","0.0-87.0","battery-v0.2","","""event"",""trial"",""time""
""fullscreenenter"",""1"",""2742""
","
","
","""event"",""trial"",""time""
""fullscreenenter"",""1"",""2742""
","
","","","-1","","","22","17243","6353","z","elianto","#3366ff99","-1","-1","1","0","[]","0","2","","","17243","83","4","2","win","no-go","1"
"pit-trial","202","1430521","0.0-88.0","battery-v0.2","","""event"",""trial"",""time""
""fullscreenenter"",""1"",""2742""
","
","
","""event"",""trial"",""time""
""fullscreenenter"",""1"",""2742""
","
","","","1249.5","","","22","17243","6353","c","elianto","#3366ff99"," "," ","1","0","[2099.6999999284744]","1","2","","","17243","84","5","1","win","go","1"
"pit-trial","203","1434291","0.0-89.0","battery-v0.2","","""event"",""trial"",""time""
""fullscreenenter"",""1"",""2742""
","
","
","""event"",""trial"",""time""
""fullscreenenter"",""1"",""2742""
","
","","","916.5","","","22","17243","6353","t","elianto","#f73b6a7A"," "," ","1","0","[1766.6000000238419]","1","2","","","17243","85","7","3","lose","go","0"
"pit-trial","204","1438030","0.0-90.0","battery-v0.2","","""event"",""trial"",""time""
""fullscreenenter"",""1"",""2742""
","
","
","""event"",""trial"",""time""
""fullscreenenter"",""1"",""2742""
","
","","","884.7999999523163","","","22","17243","6353","z","elianto","#3366ff99","-1"," ","0","0","[1736.3999999761581]","1","2","","","17243","86","4","2","win","no-go","0"
"pit-trial","205","1441671","0.0-91.0","battery-v0.2","","""event"",""trial"",""time""
""fullscreenenter"",""1"",""2742""
","
","
","""event"",""trial"",""time""
""fullscreenenter"",""1"",""2742""
","
","","","786.5","","","22","17243","6353","c","elianto","#3366ff99"," "," ","1","0","[1637.5]","1","2","","","17243","87","5","1","win","go","1"
"pit-trial","206","1446524","0.0-92.0","battery-v0.2","","""event"",""trial"",""time""
""fullscreenenter"",""1"",""2742""
","
","
","""event"",""trial"",""time""
""fullscreenenter"",""1"",""2742""
","
","","","-1","","","22","17243","6353","b","elianto","#f73b6a7A","-1","-1","1","-10","[2980]","1","2","","","17243","88","6","4","lose","no-go","1"
"pit-trial","207","1451378","0.0-93.0","battery-v0.2","","""event"",""trial"",""time""
""fullscreenenter"",""1"",""2742""
","
","
","""event"",""trial"",""time""
""fullscreenenter"",""1"",""2742""
","
","","","-1","","","22","17243","6353","t","elianto","#f73b6a7A"," ","-1","0","-10","[]","0","2","","","17243","89","7","3","lose","go","0"
"pit-trial","208","1456232","0.0-94.0","battery-v0.2","","""event"",""trial"",""time""
""fullscreenenter"",""1"",""2742""
","
","
","""event"",""trial"",""time""
""fullscreenenter"",""1"",""2742""
","
","","","-1","","","22","17243","6353","b","elianto","#f73b6a7A","-1","-1","1","-10","[]","0","2","","","17243","90","6","4","lose","no-go","1"
"pit-trial","209","1461096","0.0-95.0","battery-v0.2","","""event"",""trial"",""time""
""fullscreenenter"",""1"",""2742""
","
","
","""event"",""trial"",""time""
""fullscreenenter"",""1"",""2742""
","
","","","-1","","","22","17243","6353","z","elianto","#3366ff99","-1","-1","1","+10","[]","0","2","","","17243","91","4","2","win","no-go","0"
"pit-trial","210","1464729","0.0-96.0","battery-v0.2","","""event"",""trial"",""time""
""fullscreenenter"",""1"",""2742""
","
","
","""event"",""trial"",""time""
""fullscreenenter"",""1"",""2742""
","
","","","779.1000000238419","","","22","17243","6353","c","elianto","#3366ff99"," "," ","1","0","[1629.6000000238419]","1","2","","","17243","92","5","1","win","go","1"
"pit-trial","211","1469581","0.0-97.0","battery-v0.2","","""event"",""trial"",""time""
""fullscreenenter"",""1"",""2742""
","
","
","""event"",""trial"",""time""
""fullscreenenter"",""1"",""2742""
","
","","","-1","","","22","17243","6353","t","elianto","#f73b6a7A"," ","-1","0","-10","[]","0","2","","","17243","93","7","3","lose","go","0"
"pit-trial","212","1473266","0.0-98.0","battery-v0.2","","""event"",""trial"",""time""
""fullscreenenter"",""1"",""2742""
","
","
","""event"",""trial"",""time""
""fullscreenenter"",""1"",""2742""
","
","","","831.2000000476837","","","22","17243","6353","f","elianto","#3366ff99","-1"," ","0","0","[1682.1999999284744]","1","2","","","17243","94","8","2","win","no-go","0"
"pit-trial","213","1477202","0.0-99.0","battery-v0.2","","""event"",""trial"",""time""
""fullscreenenter"",""1"",""2742""
","
","
","""event"",""trial"",""time""
""fullscreenenter"",""1"",""2742""
","
","","","1081.7999999523163","","","22","17243","6353","b","elianto","#f73b6a7A","-1"," ","0","-10","[1932.8999999761581]","1","2","","","17243","95","6","4","lose","no-go","0"
"pit-trial","214","1481209","0.0-100.0","battery-v0.2","","""event"",""trial"",""time""
""fullscreenenter"",""1"",""2742""
","
","
","""event"",""trial"",""time""
""fullscreenenter"",""1"",""2742""
","
","","","1154.6000000238419","","","22","17243","6353","c","elianto","#3366ff99"," "," ","1","+10","[2004.6000000238419]","1","2","","","17243","96","5","1","win","go","0"
"pit-trial","215","1485406","0.0-101.0","battery-v0.2","","""event"",""trial"",""time""
""fullscreenenter"",""1"",""2742""
","
","
","""event"",""trial"",""time""
""fullscreenenter"",""1"",""2742""
","
","","","1342.7999999523163","","","22","17243","6353","b","elianto","#f73b6a7A","-1"," ","0","-10","[2193.6999999284744]","1","2","","","17243","97","6","4","lose","no-go","0"
"pit-trial","216","1489287","0.0-102.0","battery-v0.2","","""event"",""trial"",""time""
""fullscreenenter"",""1"",""2742""
","
","
","""event"",""trial"",""time""
""fullscreenenter"",""1"",""2742""
","
","","","1028.8000000715256","","","22","17243","6353","t","elianto","#f73b6a7A"," "," ","1","0","[1879]","1","2","","","17243","98","7","3","lose","go","0"
"pit-trial","217","1492996","0.0-103.0","battery-v0.2","","""event"",""trial"",""time""
""fullscreenenter"",""1"",""2742""
","
","
","""event"",""trial"",""time""
""fullscreenenter"",""1"",""2742""
","
","","","854.3000000715256","","","22","17243","6353","f","elianto","#3366ff99","-1"," ","0","0","[1706.6000000238419]","1","2","","","17243","99","8","2","win","no-go","0"
"pit-trial","218","1496504","0.0-104.0","battery-v0.2","","""event"",""trial"",""time""
""fullscreenenter"",""1"",""2742""
","
","
","""event"",""trial"",""time""
""fullscreenenter"",""1"",""2742""
","
","","","654.7999999523163","","","22","17243","6353","c","elianto","#3366ff99"," "," ","1","+10","[1505.0999999046326]","1","2","","","17243","100","5","1","win","go","0"
"pit-trial","219","1500212","0.0-105.0","battery-v0.2","","""event"",""trial"",""time""
""fullscreenenter"",""1"",""2742""
","
","
","""event"",""trial"",""time""
""fullscreenenter"",""1"",""2742""
","
","","","854.2000000476837","","","22","17243","6353","n","elianto","#3366ff99","-1"," ","0","0","[1704.3999999761581]","1","2","","","17243","101","9","2","win","no-go","0"
"pit-trial","220","1504147","0.0-106.0","battery-v0.2","","""event"",""trial"",""time""
""fullscreenenter"",""1"",""2742""
","
","
","""event"",""trial"",""time""
""fullscreenenter"",""1"",""2742""
","
","","","1081.1999999284744","","","22","17243","6353","b","elianto","#f73b6a7A","-1"," ","0","0","[1931.5999999046326]","1","2","","","17243","102","6","4","lose","no-go","1"
"pit-trial","221","1507725","0.0-107.0","battery-v0.2","","""event"",""trial"",""time""
""fullscreenenter"",""1"",""2742""
","
","
","""event"",""trial"",""time""
""fullscreenenter"",""1"",""2742""
","
","","","724","","","22","17243","6353","c","elianto","#3366ff99"," "," ","1","0","[1574.8999999761581]","1","2","","","17243","103","5","1","win","go","1"
"pit-trial","222","1511304","0.0-108.0","battery-v0.2","","""event"",""trial"",""time""
""fullscreenenter"",""1"",""2742""
","
","
","""event"",""trial"",""time""
""fullscreenenter"",""1"",""2742""
","
","","","725.7999999523163","","","22","17243","6353","f","elianto","#3366ff99","-1"," ","0","0","[1577.6999999284744]","1","2","","","17243","104","8","2","win","no-go","0"
"pit-trial","223","1514905","0.0-109.0","battery-v0.2","","""event"",""trial"",""time""
""fullscreenenter"",""1"",""2742""
","
","
","""event"",""trial"",""time""
""fullscreenenter"",""1"",""2742""
","
","","","746.5","","","22","17243","6353","b","elianto","#f73b6a7A","-1"," ","0","-10","[1597]","1","2","","","17243","105","6","4","lose","no-go","0"
"pit-trial","224","1518469","0.0-110.0","battery-v0.2","","""event"",""trial"",""time""
""fullscreenenter"",""1"",""2742""
","
","
","""event"",""trial"",""time""
""fullscreenenter"",""1"",""2742""
","
","","","709.6000000238419","","","22","17243","6353","f","elianto","#3366ff99","-1"," ","0","0","[1561.1000000238419]","1","2","","","17243","106","8","2","win","no-go","0"
"pit-trial","225","1522144","0.0-111.0","battery-v0.2","","""event"",""trial"",""time""
""fullscreenenter"",""1"",""2742""
","
","
","""event"",""trial"",""time""
""fullscreenenter"",""1"",""2742""
","
","","","822.3999999761581","","","22","17243","6353","c","elianto","#3366ff99"," "," ","1","+10","[1673]","1","2","","","17243","107","5","1","win","go","0"
"pit-trial","226","1526997","0.0-112.0","battery-v0.2","","""event"",""trial"",""time""
""fullscreenenter"",""1"",""2742""
","
","
","""event"",""trial"",""time""
""fullscreenenter"",""1"",""2742""
","
","","","-1","","","22","17243","6353","n","elianto","#3366ff99","-1","-1","1","+10","[]","0","2","","","17243","108","9","2","win","no-go","0"
"pit-trial","227","1531850","0.0-113.0","battery-v0.2","","""event"",""trial"",""time""
""fullscreenenter"",""1"",""2742""
","
","
","""event"",""trial"",""time""
""fullscreenenter"",""1"",""2742""
","
","","","-1","","","22","17243","6353","n","elianto","#3366ff99","-1","-1","1","+10","[]","0","2","","","17243","109","9","2","win","no-go","0"
"pit-trial","228","1536520","0.0-114.0","battery-v0.2","","""event"",""trial"",""time""
""fullscreenenter"",""1"",""2742""
","
","
","""event"",""trial"",""time""
""fullscreenenter"",""1"",""2742""
","
","","","1815.1999999284744","","","22","17243","6353","b","elianto","#f73b6a7A","-1"," ","0","0","[2666.2999999523163]","1","2","","","17243","110","6","4","lose","no-go","1"
"pit-trial","229","1541373","0.0-115.0","battery-v0.2","","""event"",""trial"",""time""
""fullscreenenter"",""1"",""2742""
","
","
","""event"",""trial"",""time""
""fullscreenenter"",""1"",""2742""
","
","","","-1","","","22","17243","6353","f","elianto","#3366ff99","-1","-1","1","+10","[]","0","2","","","17243","111","8","2","win","no-go","0"
"pit-trial","230","1545397","0.0-116.0","battery-v0.2","","""event"",""trial"",""time""
""fullscreenenter"",""1"",""2742""
","
","
","""event"",""trial"",""time""
""fullscreenenter"",""1"",""2742""
","
","","","1171","","","22","17243","6353","c","elianto","#3366ff99"," "," ","1","0","[2022]","1","2","","","17243","112","5","1","win","go","1"
"pit-trial","231","1550257","0.0-117.0","battery-v0.2","","""event"",""trial"",""time""
""fullscreenenter"",""1"",""2742""
","
","
","""event"",""trial"",""time""
""fullscreenenter"",""1"",""2742""
","
","","","-1","","","22","17243","6353","f","elianto","#3366ff99","-1","-1","1","+10","[]","0","2","","","17243","113","8","2","win","no-go","0"
"pit-trial","232","1554337","0.0-118.0","battery-v0.2","","""event"",""trial"",""time""
""fullscreenenter"",""1"",""2742""
","
","
","""event"",""trial"",""time""
""fullscreenenter"",""1"",""2742""
","
","","","1226","","","22","17243","6353","n","elianto","#3366ff99","-1"," ","0","0","[2077.7999999523163]","1","2","","","17243","114","9","2","win","no-go","0"
"pit-trial","233","1558263","0.0-119.0","battery-v0.2","","""event"",""trial"",""time""
""fullscreenenter"",""1"",""2742""
","
","
","""event"",""trial"",""time""
""fullscreenenter"",""1"",""2742""
","
","","","1072.8999999761581","","","22","17243","6353","t","elianto","#f73b6a7A"," "," ","1","0","[1923.8999999761581]","1","2","","","17243","115","7","3","lose","go","0"
"pit-trial","234","1562245","0.0-120.0","battery-v0.2","","""event"",""trial"",""time""
""fullscreenenter"",""1"",""2742""
","
","
","""event"",""trial"",""time""
""fullscreenenter"",""1"",""2742""
","
","","","1128.6999999284744","","","22","17243","6353","c","elianto","#3366ff99"," "," ","1","+10","[1979.3999999761581]","1","2","","","17243","116","5","1","win","go","0"
"pit-trial","235","1565832","0.0-121.0","battery-v0.2","","""event"",""trial"",""time""
""fullscreenenter"",""1"",""2742""
","
","
","""event"",""trial"",""time""
""fullscreenenter"",""1"",""2742""
","
","","","733","","","22","17243","6353","b","elianto","#f73b6a7A","-1"," ","0","-10","[1583.7000000476837]","1","2","","","17243","117","6","4","lose","no-go","0"
"pit-trial","236","1569384","0.0-122.0","battery-v0.2","","""event"",""trial"",""time""
""fullscreenenter"",""1"",""2742""
","
","
","""event"",""trial"",""time""
""fullscreenenter"",""1"",""2742""
","
","","","698.2000000476837","","","22","17243","6353","c","elianto","#3366ff99"," "," ","1","0","[1549.4000000953674]","1","2","","","17243","118","5","1","win","go","1"
"pit-trial","237","1573263","0.0-123.0","battery-v0.2","","""event"",""trial"",""time""
""fullscreenenter"",""1"",""2742""
","
","
","""event"",""trial"",""time""
""fullscreenenter"",""1"",""2742""
","
","","","1025.6000000238419","","","22","17243","6353","n","elianto","#3366ff99","-1"," ","0","0","[1875.8999999761581]","1","2","","","17243","119","9","2","win","no-go","0"
"pit-trial","238","1576889","0.0-124.0","battery-v0.2","","""event"",""trial"",""time""
""fullscreenenter"",""1"",""2742""
","
","
","""event"",""trial"",""time""
""fullscreenenter"",""1"",""2742""
","
","","","771.7999999523163","","","22","17243","6353","f","elianto","#3366ff99","-1"," ","0","0","[1623.1000000238419]","1","2","","","17243","120","8","2","win","no-go","0"
"pit-trial","239","1580385","0.0-125.0","battery-v0.2","","""event"",""trial"",""time""
""fullscreenenter"",""1"",""2742""
","
","
","""event"",""trial"",""time""
""fullscreenenter"",""1"",""2742""
","
","","","643.2000000476837","","","22","17243","6353","f","elianto","#3366ff99","-1"," ","0","0","[1493.5]","1","2","","","17243","121","8","2","win","no-go","0"
"pit-trial","240","1584169","0.0-126.0","battery-v0.2","","""event"",""trial"",""time""
""fullscreenenter"",""1"",""2742""
","
","
","""event"",""trial"",""time""
""fullscreenenter"",""1"",""2742""
","
","","","930.6000000238419","","","22","17243","6353","n","elianto","#3366ff99","-1"," ","0","0","[1780.7000000476837]","1","2","","","17243","122","9","2","win","no-go","0"
"pit-trial","241","1589021","0.0-127.0","battery-v0.2","","""event"",""trial"",""time""
""fullscreenenter"",""1"",""2742""
","
","
","""event"",""trial"",""time""
""fullscreenenter"",""1"",""2742""
","
","","","-1","","","22","17243","6353","c","elianto","#3366ff99"," ","-1","0","+10","[]","0","2","","","17243","123","5","1","win","go","1"
"pit-trial","242","1592556","0.0-128.0","battery-v0.2","","""event"",""trial"",""time""
""fullscreenenter"",""1"",""2742""
","
","
","""event"",""trial"",""time""
""fullscreenenter"",""1"",""2742""
","
","","","681.6999999284744","","","22","17243","6353","t","elianto","#f73b6a7A"," "," ","1","0","[1532.6000000238419]","1","2","","","17243","124","7","3","lose","go","0"
"pit-trial","243","1596238","0.0-129.0","battery-v0.2","","""event"",""trial"",""time""
""fullscreenenter"",""1"",""2742""
","
","
","""event"",""trial"",""time""
""fullscreenenter"",""1"",""2742""
","
","","","828.5","","","22","17243","6353","b","elianto","#f73b6a7A","-1"," ","0","0","[1679.1999999284744]","1","2","","","17243","125","6","4","lose","no-go","1"
"pit-trial","244","1599761","0.0-130.0","battery-v0.2","","""event"",""trial"",""time""
""fullscreenenter"",""1"",""2742""
","
","
","""event"",""trial"",""time""
""fullscreenenter"",""1"",""2742""
","
","","","668.0999999046326","","","22","17243","6353","t","elianto","#f73b6a7A"," "," ","1","-10","[1519.8999999761581]","1","2","","","17243","126","7","3","lose","go","1"
"pit-trial","245","1603364","0.0-131.0","battery-v0.2","","""event"",""trial"",""time""
""fullscreenenter"",""1"",""2742""
","
","
","""event"",""trial"",""time""
""fullscreenenter"",""1"",""2742""
","
","","","749.6000000238419","","","22","17243","6353","f","elianto","#3366ff99","-1"," ","0","+10","[1600.7000000476837]","1","2","","","17243","127","8","2","win","no-go","1"
"pit-trial","246","1607086","0.0-132.0","battery-v0.2","","""event"",""trial"",""time""
""fullscreenenter"",""1"",""2742""
","
","
","""event"",""trial"",""time""
""fullscreenenter"",""1"",""2742""
","
","","","868.1000000238419","","","22","17243","6353","n","elianto","#3366ff99","-1"," ","0","0","[1718.3999999761581]","1","2","","","17243","128","9","2","win","no-go","0"
"pit-trial","247","1610927","0.0-133.0","battery-v0.2","","""event"",""trial"",""time""
""fullscreenenter"",""1"",""2742""
","
","
","""event"",""trial"",""time""
""fullscreenenter"",""1"",""2742""
","
","","","986.7000000476837","","","22","17243","6353","f","elianto","#3366ff99","-1"," ","0","0","[1838.5]","1","2","","","17243","129","8","2","win","no-go","0"
"pit-trial","248","1614415","0.0-134.0","battery-v0.2","","""event"",""trial"",""time""
""fullscreenenter"",""1"",""2742""
","
","
","""event"",""trial"",""time""
""fullscreenenter"",""1"",""2742""
","
","","","634.8999999761581","","","22","17243","6353","b","elianto","#f73b6a7A","-1"," ","0","-10","[1485.7999999523163]","1","2","","","17243","130","6","4","lose","no-go","0"
"pit-trial","249","1618109","0.0-135.0","battery-v0.2","","""event"",""trial"",""time""
""fullscreenenter"",""1"",""2742""
","
","
","""event"",""trial"",""time""
""fullscreenenter"",""1"",""2742""
","
","","","840.6000000238419","","","22","17243","6353","t","elianto","#f73b6a7A"," "," ","1","0","[1691.3000000715256]","1","2","","","17243","131","7","3","lose","go","0"
"pit-trial","250","1621905","0.0-136.0","battery-v0.2","","""event"",""trial"",""time""
""fullscreenenter"",""1"",""2742""
","
","
","""event"",""trial"",""time""
""fullscreenenter"",""1"",""2742""
","
","","","943","","","22","17243","6353","n","elianto","#3366ff99","-1"," ","0","0","[1793.2000000476837]","1","2","","","17243","132","9","2","win","no-go","0"
"pit-trial","251","1625443","0.0-137.0","battery-v0.2","","""event"",""trial"",""time""
""fullscreenenter"",""1"",""2742""
","
","
","""event"",""trial"",""time""
""fullscreenenter"",""1"",""2742""
","
","","","684.3999999761581","","","22","17243","6353","f","elianto","#3366ff99","-1"," ","0","0","[1535]","1","2","","","17243","133","8","2","win","no-go","0"
"pit-trial","252","1629075","0.0-138.0","battery-v0.2","","""event"",""trial"",""time""
""fullscreenenter"",""1"",""2742""
","
","
","""event"",""trial"",""time""
""fullscreenenter"",""1"",""2742""
","
","","","777.8000000715256","","","22","17243","6353","b","elianto","#f73b6a7A","-1"," ","0","-10","[1629.6000000238419]","1","2","","","17243","134","6","4","lose","no-go","0"
"pit-trial","253","1632641","0.0-139.0","battery-v0.2","","""event"",""trial"",""time""
""fullscreenenter"",""1"",""2742""
","
","
","""event"",""trial"",""time""
""fullscreenenter"",""1"",""2742""
","
","","","712.3999999761581","","","22","17243","6353","t","elianto","#f73b6a7A"," "," ","1","-10","[1563.2000000476837]","1","2","","","17243","135","7","3","lose","go","1"
"pit-trial","254","1636313","0.0-140.0","battery-v0.2","","""event"",""trial"",""time""
""fullscreenenter"",""1"",""2742""
","
","
","""event"",""trial"",""time""
""fullscreenenter"",""1"",""2742""
","
","","","810.7999999523163","","","22","17243","6353","n","elianto","#3366ff99","-1"," ","0","0","[1668.3999999761581]","1","2","","","17243","136","9","2","win","no-go","0"
"pit-trial","255","1641181","0.0-141.0","battery-v0.2","","""event"",""trial"",""time""
""fullscreenenter"",""1"",""2742""
","
","
","""event"",""trial"",""time""
""fullscreenenter"",""1"",""2742""
","
","","","-1","","","22","17243","6353","n","elianto","#3366ff99","-1","-1","1","0","[]","0","2","","","17243","137","9","2","win","no-go","1"
"pit-trial","256","1644679","0.0-142.0","battery-v0.2","","""event"",""trial"",""time""
""fullscreenenter"",""1"",""2742""
","
","
","""event"",""trial"",""time""
""fullscreenenter"",""1"",""2742""
","
","","","646","","","22","17243","6353","b","elianto","#f73b6a7A","-1"," ","0","0","[1496.1000000238419]","1","2","","","17243","138","6","4","lose","no-go","1"
"pit-trial","257","1648222","0.0-143.0","battery-v0.2","","""event"",""trial"",""time""
""fullscreenenter"",""1"",""2742""
","
","
","""event"",""trial"",""time""
""fullscreenenter"",""1"",""2742""
","
","","","688.7999999523163","","","22","17243","6353","t","elianto","#f73b6a7A"," "," ","1","0","[1539.5]","1","2","","","17243","139","7","3","lose","go","0"
"pit-trial","258","1651742","0.0-144.0","battery-v0.2","","""event"",""trial"",""time""
""fullscreenenter"",""1"",""2742""
","
","
","""event"",""trial"",""time""
""fullscreenenter"",""1"",""2742""
","
","","","666","","","22","17243","6353","f","elianto","#3366ff99","-1"," ","0","0","[1516.7000000476837]","1","2","","","17243","140","8","2","win","no-go","0"
"pit-instructions","259","1665855","0.0-145.0","battery-v0.2","","""event"",""trial"",""time""
""fullscreenenter"",""1"",""2742""
","
","
","""event"",""trial"",""time""
""fullscreenenter"",""1"",""2742""
","
","","[{""page_index"":0,""viewing_time"":5952.5},{""page_index"":1,""viewing_time"":8158.700000047684}]","14111.5","","","","","","","","","","","","","","","","","","","","","","","",""
"pit-trial","260","1669356","0.0-146.0","battery-v0.2","","""event"",""trial"",""time""
""fullscreenenter"",""1"",""2742""
","
","
","""event"",""trial"",""time""
""fullscreenenter"",""1"",""2742""
","
","","","628","","","22","17243","6353","d","elianto","#3366ff99","-1"," ","0","0","[1486]","1","3","","","17243","141","1","2","win","no-go","0"
"pit-trial","261","1673152","0.0-147.0","battery-v0.2","","""event"",""trial"",""time""
""fullscreenenter"",""1"",""2742""
","
","
","""event"",""trial"",""time""
""fullscreenenter"",""1"",""2742""
","
","","","927","","","22","17243","6353","j","elianto","#f73b6a7A"," "," ","1","-10","[1782.8000000715256]","1","3","","","17243","142","0","3","lose","go","1"
"pit-trial","262","1677134","0.0-148.0","battery-v0.2","","""event"",""trial"",""time""
""fullscreenenter"",""1"",""2742""
","
","
","""event"",""trial"",""time""
""fullscreenenter"",""1"",""2742""
","
","","","1116.5","","","22","17243","6353","e","elianto","#f73b6a7A"," "," ","1","0","[1967.8999999761581]","1","3","","","17243","143","2","3","lose","go","0"
"pit-trial","263","1681354","0.0-149.0","battery-v0.2","","""event"",""trial"",""time""
""fullscreenenter"",""1"",""2742""
","
","
","""event"",""trial"",""time""
""fullscreenenter"",""1"",""2742""
","
","","","1353.1000000238419","","","22","17243","6353","w","elianto","#f73b6a7A","-1"," ","0","0","[2209.7000000476837]","1","3","","","17243","144","3","4","lose","no-go","1"
"pit-trial","264","1685338","0.0-150.0","battery-v0.2","","""event"",""trial"",""time""
""fullscreenenter"",""1"",""2742""
","
","
","""event"",""trial"",""time""
""fullscreenenter"",""1"",""2742""
","
","","","1115.2999999523163","","","22","17243","6353","w","elianto","#f73b6a7A","-1"," ","0","-10","[1971.1000000238419]","1","3","","","17243","145","3","4","lose","no-go","0"
"pit-trial","265","1690202","0.0-151.0","battery-v0.2","","""event"",""trial"",""time""
""fullscreenenter"",""1"",""2742""
","
","
","""event"",""trial"",""time""
""fullscreenenter"",""1"",""2742""
","
","","","-1","","","22","17243","6353","j","elianto","#f73b6a7A"," ","-1","0","-10","[]","0","3","","","17243","146","0","3","lose","go","0"
"pit-trial","266","1693818","0.0-152.0","battery-v0.2","","""event"",""trial"",""time""
""fullscreenenter"",""1"",""2742""
","
","
