"trial_type","trial_index","time_elapsed","internal_node_id","task_version","subject_id","interactions","blur_events","focus_events","fullscreenenter_events","fullscreenexit_events","success","view_history","rt","responses","num_errors","age","subject","participantId","rune","rune_set","hex","correct","choice","accuracy","outcome","keys","total_keys","block","practice","value","sub","trial","stimulus","robot","valence","action","sham"
"pavlovia","0","37","0.0-0.0","battery-v0.2","","""event"",""trial"",""time""
""focus"",""0"",""3""
""blur"",""1"",""3008""
""focus"",""1"",""3197""
""fullscreenenter"",""1"",""3219""
","""event"",""trial"",""time""
""blur"",""1"",""3008""
","""event"",""trial"",""time""
""focus"",""0"",""3""
""focus"",""1"",""3197""
","""event"",""trial"",""time""
""fullscreenenter"",""1"",""3219""
","
","","","","","","","","","","","","","","","","","","","","","","","","","","",""
"fullscreen","1","3636","0.0-1.0","battery-v0.2","","""event"",""trial"",""time""
""focus"",""0"",""3""
""blur"",""1"",""3008""
""focus"",""1"",""3197""
""fullscreenenter"",""1"",""3219""
","""event"",""trial"",""time""
""blur"",""1"",""3008""
","""event"",""trial"",""time""
""focus"",""0"",""3""
""focus"",""1"",""3197""
","""event"",""trial"",""time""
""fullscreenenter"",""1"",""3219""
","
","true","","","","","","","","","","","","","","","","","","","","","","","","","",""
"pit-instructions","2","11796","0.0-2.0-0.0","battery-v0.2","","""event"",""trial"",""time""
""focus"",""0"",""3""
""blur"",""1"",""3008""
""focus"",""1"",""3197""
""fullscreenenter"",""1"",""3219""
","""event"",""trial"",""time""
""blur"",""1"",""3008""
","""event"",""trial"",""time""
""focus"",""0"",""3""
""focus"",""1"",""3197""
","""event"",""trial"",""time""
""fullscreenenter"",""1"",""3219""
","
","","[{""page_index"":0,""viewing_time"":8154}]","8155","","","","","","","","","","","","","","","","","","","","","","","",""
"pit-comprehension","3","14561","0.0-2.0-1.0-0.0","battery-v0.2","","""event"",""trial"",""time""
""focus"",""0"",""3""
""blur"",""1"",""3008""
""focus"",""1"",""3197""
""fullscreenenter"",""1"",""3219""
","""event"",""trial"",""time""
""blur"",""1"",""3008""
","""event"",""trial"",""time""
""focus"",""0"",""3""
""focus"",""1"",""3197""
","""event"",""trial"",""time""
""fullscreenenter"",""1"",""3219""
","
","","","2760","[""shark""]","0","21","10179","3882","","","","","","","","","","","","","","","","","","",""
"pit-instructions","4","19561","0.0-2.0-1.0-1.0","battery-v0.2","","""event"",""trial"",""time""
""focus"",""0"",""3""
""blur"",""1"",""3008""
""focus"",""1"",""3197""
""fullscreenenter"",""1"",""3219""
","""event"",""trial"",""time""
""blur"",""1"",""3008""
","""event"",""trial"",""time""
""focus"",""0"",""3""
""focus"",""1"",""3197""
","""event"",""trial"",""time""
""fullscreenenter"",""1"",""3219""
","
","","[{""page_index"":0,""viewing_time"":4986}]","4986","","","","","","","","","","","","","","","","","","","","","","","",""
"pit-comprehension","5","22711","0.0-2.0-2.0-0.0","battery-v0.2","","""event"",""trial"",""time""
""focus"",""0"",""3""
""blur"",""1"",""3008""
""focus"",""1"",""3197""
""fullscreenenter"",""1"",""3219""
","""event"",""trial"",""time""
""blur"",""1"",""3008""
","""event"",""trial"",""time""
""focus"",""0"",""3""
""focus"",""1"",""3197""
","""event"",""trial"",""time""
""fullscreenenter"",""1"",""3219""
","
","","","3145","[""tiger""]","0","21","10179","3882","","","","","","","","","","","","","","","","","","",""
"pit-instructions","6","23962","0.0-2.0-2.0-1.0","battery-v0.2","","""event"",""trial"",""time""
""focus"",""0"",""3""
""blur"",""1"",""3008""
""focus"",""1"",""3197""
""fullscreenenter"",""1"",""3219""
","""event"",""trial"",""time""
""blur"",""1"",""3008""
","""event"",""trial"",""time""
""focus"",""0"",""3""
""focus"",""1"",""3197""
","""event"",""trial"",""time""
""fullscreenenter"",""1"",""3219""
","
","","[{""page_index"":0,""viewing_time"":1247}]","1247","","","","","","","","","","","","","","","","","","","","","","","",""
"pit-instructions","7","120972","0.0-2.0-3.0","battery-v0.2","","""event"",""trial"",""time""
""focus"",""0"",""3""
""blur"",""1"",""3008""
""focus"",""1"",""3197""
""fullscreenenter"",""1"",""3219""
","""event"",""trial"",""time""
""blur"",""1"",""3008""
","""event"",""trial"",""time""
""focus"",""0"",""3""
""focus"",""1"",""3197""
","""event"",""trial"",""time""
""fullscreenenter"",""1"",""3219""
","
","","[{""page_index"":0,""viewing_time"":7893},{""page_index"":1,""viewing_time"":5534},{""page_index"":2,""viewing_time"":6367},{""page_index"":3,""viewing_time"":5752},{""page_index"":4,""viewing_time"":5016},{""page_index"":5,""viewing_time"":7051},{""page_index"":6,""viewing_time"":7017},{""page_index"":7,""viewing_time"":7300},{""page_index"":8,""viewing_time"":7187},{""page_index"":9,""viewing_time"":8913},{""page_index"":10,""viewing_time"":7203},{""page_index"":11,""viewing_time"":7167},{""page_index"":12,""viewing_time"":7565},{""page_index"":13,""viewing_time"":7039}]","97004","","","","","","","","","","","","","","","","","","","","","","","",""
"pit-trial","8","123848","0.0-2.0-4.0-0.0","battery-v0.2","","""event"",""trial"",""time""
""focus"",""0"",""3""
""blur"",""1"",""3008""
""focus"",""1"",""3197""
""fullscreenenter"",""1"",""3219""
","""event"",""trial"",""time""
""blur"",""1"",""3008""
","""event"",""trial"",""time""
""focus"",""0"",""3""
""focus"",""1"",""3197""
","""event"",""trial"",""time""
""fullscreenenter"",""1"",""3219""
","
","","","13","","","21","10179","3882","&#9784;","elianto","#FFFFF080"," "," ","1","&#10004","[867,1577]","2","0","0","","","","","","","",""
"pit-trial","9","127271","0.0-2.0-4.1-0.1","battery-v0.2","","""event"",""trial"",""time""
""focus"",""0"",""3""
""blur"",""1"",""3008""
""focus"",""1"",""3197""
""fullscreenenter"",""1"",""3219""
","""event"",""trial"",""time""
""blur"",""1"",""3008""
","""event"",""trial"",""time""
""focus"",""0"",""3""
""focus"",""1"",""3197""
","""event"",""trial"",""time""
""fullscreenenter"",""1"",""3219""
","
","","","458","","","21","10179","3882","&#9784;","elianto","#FFFFF080"," "," ","1","&#10004","[1312]","1","0","0","","","","","","","",""
"pit-trial","10","130544","0.0-2.0-4.2-0.2","battery-v0.2","","""event"",""trial"",""time""
""focus"",""0"",""3""
""blur"",""1"",""3008""
""focus"",""1"",""3197""
""fullscreenenter"",""1"",""3219""
","""event"",""trial"",""time""
""blur"",""1"",""3008""
","""event"",""trial"",""time""
""focus"",""0"",""3""
""focus"",""1"",""3197""
","""event"",""trial"",""time""
""fullscreenenter"",""1"",""3219""
","
","","","413","","","21","10179","3882","&#9784;","elianto","#FFFFF080"," "," ","1","&#10004","[1267,1834,3095]","3","0","0","","","","","","","",""
"pit-trial","11","133979","0.0-2.0-4.3-0.3","battery-v0.2","","""event"",""trial"",""time""
""focus"",""0"",""3""
""blur"",""1"",""3008""
""focus"",""1"",""3197""
""fullscreenenter"",""1"",""3219""
","""event"",""trial"",""time""
""blur"",""1"",""3008""
","""event"",""trial"",""time""
""focus"",""0"",""3""
""focus"",""1"",""3197""
","""event"",""trial"",""time""
""fullscreenenter"",""1"",""3219""
","
","","","579","","","21","10179","3882","&#9784;","elianto","#FFFFF080"," "," ","1","&#10004","[1431]","1","0","0","","","","","","","",""
"pit-trial","12","137331","0.0-2.0-4.4-0.4","battery-v0.2","","""event"",""trial"",""time""
""focus"",""0"",""3""
""blur"",""1"",""3008""
""focus"",""1"",""3197""
""fullscreenenter"",""1"",""3219""
","""event"",""trial"",""time""
""blur"",""1"",""3008""
","""event"",""trial"",""time""
""focus"",""0"",""3""
""focus"",""1"",""3197""
","""event"",""trial"",""time""
""fullscreenenter"",""1"",""3219""
","
","","","418","","","21","10179","3882","&#9784;","elianto","#FFFFF080"," "," ","1","&#10004","[1272]","1","0","0","","","","","","","",""
"pit-instructions","13","158872","0.0-2.0-5.0","battery-v0.2","","""event"",""trial"",""time""
""focus"",""0"",""3""
""blur"",""1"",""3008""
""focus"",""1"",""3197""
""fullscreenenter"",""1"",""3219""
","""event"",""trial"",""time""
""blur"",""1"",""3008""
","""event"",""trial"",""time""
""focus"",""0"",""3""
""focus"",""1"",""3197""
","""event"",""trial"",""time""
""fullscreenenter"",""1"",""3219""
","
","","[{""page_index"":0,""viewing_time"":5302},{""page_index"":1,""viewing_time"":6348},{""page_index"":2,""viewing_time"":4766},{""page_index"":3,""viewing_time"":5119}]","21537","","","","","","","","","","","","","","","","","","","","","","","",""
"pit-trial","14","163733","0.0-2.0-6.0-0.0","battery-v0.2","","""event"",""trial"",""time""
""focus"",""0"",""3""
""blur"",""1"",""3008""
""focus"",""1"",""3197""
""fullscreenenter"",""1"",""3219""
","""event"",""trial"",""time""
""blur"",""1"",""3008""
","""event"",""trial"",""time""
""focus"",""0"",""3""
""focus"",""1"",""3197""
","""event"",""trial"",""time""
""fullscreenenter"",""1"",""3219""
","
","","","-1","","","21","10179","3882","&#9854;","elianto","#FFFFF080","-1","-1","1","&#10004","[]","0","0","1","","","","","","","",""
"pit-trial","15","168785","0.0-2.0-6.1-0.1","battery-v0.2","","""event"",""trial"",""time""
""focus"",""0"",""3""
""blur"",""1"",""3008""
""focus"",""1"",""3197""
""fullscreenenter"",""1"",""3219""
","""event"",""trial"",""time""
""blur"",""1"",""3008""
","""event"",""trial"",""time""
""focus"",""0"",""3""
""focus"",""1"",""3197""
","""event"",""trial"",""time""
""fullscreenenter"",""1"",""3219""
","
","","","-1","","","21","10179","3882","&#9854;","elianto","#FFFFF080","-1","-1","1","&#10004","[]","0","0","1","","","","","","","",""
"pit-trial","16","173785","0.0-2.0-6.2-0.2","battery-v0.2","","""event"",""trial"",""time""
""focus"",""0"",""3""
""blur"",""1"",""3008""
""focus"",""1"",""3197""
""fullscreenenter"",""1"",""3219""
","""event"",""trial"",""time""
""blur"",""1"",""3008""
","""event"",""trial"",""time""
""focus"",""0"",""3""
""focus"",""1"",""3197""
","""event"",""trial"",""time""
""fullscreenenter"",""1"",""3219""
","
","","","-1","","","21","10179","3882","&#9854;","elianto","#FFFFF080","-1","-1","1","&#10004","[]","0","0","1","","","","","","","",""
"pit-trial","17","178849","0.0-2.0-6.3-0.3","battery-v0.2","","""event"",""trial"",""time""
""focus"",""0"",""3""
""blur"",""1"",""3008""
""focus"",""1"",""3197""
""fullscreenenter"",""1"",""3219""
","""event"",""trial"",""time""
""blur"",""1"",""3008""
","""event"",""trial"",""time""
""focus"",""0"",""3""
""focus"",""1"",""3197""
","""event"",""trial"",""time""
""fullscreenenter"",""1"",""3219""
","
","","","-1","","","21","10179","3882","&#9854;","elianto","#FFFFF080","-1","-1","1","&#10004","[]","0","0","1","","","","","","","",""
"pit-trial","18","183785","0.0-2.0-6.4-0.4","battery-v0.2","","""event"",""trial"",""time""
""focus"",""0"",""3""
""blur"",""1"",""3008""
""focus"",""1"",""3197""
""fullscreenenter"",""1"",""3219""
","""event"",""trial"",""time""
""blur"",""1"",""3008""
","""event"",""trial"",""time""
""focus"",""0"",""3""
""focus"",""1"",""3197""
","""event"",""trial"",""time""
""fullscreenenter"",""1"",""3219""
","
","","","-1","","","21","10179","3882","&#9854;","elianto","#FFFFF080","-1","-1","1","&#10004","[]","0","0","1","","","","","","","",""
"pit-instructions","19","307968","0.0-2.0-7.0","battery-v0.2","","""event"",""trial"",""time""
""focus"",""0"",""3""
""blur"",""1"",""3008""
""focus"",""1"",""3197""
""fullscreenenter"",""1"",""3219""
","""event"",""trial"",""time""
""blur"",""1"",""3008""
","""event"",""trial"",""time""
""focus"",""0"",""3""
""focus"",""1"",""3197""
","""event"",""trial"",""time""
""fullscreenenter"",""1"",""3219""
","
","","[{""page_index"":0,""viewing_time"":5702},{""page_index"":1,""viewing_time"":7484},{""page_index"":2,""viewing_time"":6149},{""page_index"":3,""viewing_time"":6118},{""page_index"":4,""viewing_time"":5871},{""page_index"":5,""viewing_time"":5897},{""page_index"":6,""viewing_time"":4371},{""page_index"":7,""viewing_time"":8047},{""page_index"":8,""viewing_time"":8330},{""page_index"":9,""viewing_time"":5952},{""page_index"":10,""viewing_time"":6786},{""page_index"":11,""viewing_time"":6633},{""page_index"":12,""viewing_time"":8569},{""page_index"":13,""viewing_time"":7532},{""page_index"":14,""viewing_time"":8433},{""page_index"":15,""viewing_time"":6867},{""page_index"":16,""viewing_time"":6351},{""page_index"":17,""viewing_time"":9085}]","124177","","","","","","","","","","","","","","","","","","","","","","","",""
"pit-trial","20","311879","0.0-2.0-8.0-0.0","battery-v0.2","","""event"",""trial"",""time""
""focus"",""0"",""3""
""blur"",""1"",""3008""
""focus"",""1"",""3197""
""fullscreenenter"",""1"",""3219""
","""event"",""trial"",""time""
""blur"",""1"",""3008""
","""event"",""trial"",""time""
""focus"",""0"",""3""
""focus"",""1"",""3197""
","""event"",""trial"",""time""
""fullscreenenter"",""1"",""3219""
","
","","","1047","","","21","10179","3882","&#9776;","elianto","#3366ff99"," "," ","1","+10","[1900]","1","0","1","","","","","","","",""
"pit-trial","21","315501","0.0-2.0-8.0-1.0","battery-v0.2","","""event"",""trial"",""time""
""focus"",""0"",""3""
""blur"",""1"",""3008""
""focus"",""1"",""3197""
""fullscreenenter"",""1"",""3219""
","""event"",""trial"",""time""
""blur"",""1"",""3008""
","""event"",""trial"",""time""
""focus"",""0"",""3""
""focus"",""1"",""3197""
","""event"",""trial"",""time""
""fullscreenenter"",""1"",""3219""
","
","","","764","","","21","10179","3882","&#9776;","elianto","#3366ff99"," "," ","1","+10","[1616]","1","0","1","","","","","","","",""
"pit-trial","22","318868","0.0-2.0-8.0-2.0","battery-v0.2","","""event"",""trial"",""time""
""focus"",""0"",""3""
""blur"",""1"",""3008""
""focus"",""1"",""3197""
""fullscreenenter"",""1"",""3219""
","""event"",""trial"",""time""
""blur"",""1"",""3008""
","""event"",""trial"",""time""
""focus"",""0"",""3""
""focus"",""1"",""3197""
","""event"",""trial"",""time""
""fullscreenenter"",""1"",""3219""
","
","","","510","","","21","10179","3882","&#9776;","elianto","#3366ff99"," "," ","1","+10","[1364]","1","0","1","","","","","","","",""
"pit-trial","23","322281","0.0-2.0-8.0-3.0","battery-v0.2","","""event"",""trial"",""time""
""focus"",""0"",""3""
""blur"",""1"",""3008""
""focus"",""1"",""3197""
""fullscreenenter"",""1"",""3219""
","""event"",""trial"",""time""
""blur"",""1"",""3008""
","""event"",""trial"",""time""
""focus"",""0"",""3""
""focus"",""1"",""3197""
","""event"",""trial"",""time""
""fullscreenenter"",""1"",""3219""
","
","","","556","","","21","10179","3882","&#9776;","elianto","#3366ff99"," "," ","1","0","[1407]","1","0","1","","","","","","","",""
"pit-trial","24","325614","0.0-2.0-8.0-4.0","battery-v0.2","","""event"",""trial"",""time""
""focus"",""0"",""3""
""blur"",""1"",""3008""
""focus"",""1"",""3197""
""fullscreenenter"",""1"",""3219""
","""event"",""trial"",""time""
""blur"",""1"",""3008""
","""event"",""trial"",""time""
""focus"",""0"",""3""
""focus"",""1"",""3197""
","""event"",""trial"",""time""
""fullscreenenter"",""1"",""3219""
","
","","","428","","","21","10179","3882","&#9776;","elianto","#3366ff99"," "," ","1","+10","[1278]","1","0","1","","","","","","","",""
"pit-trial","25","328919","0.0-2.0-8.1-0.1","battery-v0.2","","""event"",""trial"",""time""
""focus"",""0"",""3""
""blur"",""1"",""3008""
""focus"",""1"",""3197""
""fullscreenenter"",""1"",""3219""
","""event"",""trial"",""time""
""blur"",""1"",""3008""
","""event"",""trial"",""time""
""focus"",""0"",""3""
""focus"",""1"",""3197""
","""event"",""trial"",""time""
""fullscreenenter"",""1"",""3219""
","
","","","445","","","21","10179","3882","&#9776;","elianto","#3366ff99"," "," ","1","+10","[1297]","1","0","1","","","","","","","",""
"pit-trial","26","332431","0.0-2.0-8.1-1.1","battery-v0.2","","""event"",""trial"",""time""
""focus"",""0"",""3""
""blur"",""1"",""3008""
""focus"",""1"",""3197""
""fullscreenenter"",""1"",""3219""
","""event"",""trial"",""time""
""blur"",""1"",""3008""
","""event"",""trial"",""time""
""focus"",""0"",""3""
""focus"",""1"",""3197""
","""event"",""trial"",""time""
""fullscreenenter"",""1"",""3219""
","
","","","604","","","21","10179","3882","&#9776;","elianto","#3366ff99"," "," ","1","+10","[1454]","1","0","1","","","","","","","",""
"pit-trial","27","335781","0.0-2.0-8.1-2.1","battery-v0.2","","""event"",""trial"",""time""
""focus"",""0"",""3""
""blur"",""1"",""3008""
""focus"",""1"",""3197""
""fullscreenenter"",""1"",""3219""
","""event"",""trial"",""time""
""blur"",""1"",""3008""
","""event"",""trial"",""time""
""focus"",""0"",""3""
""focus"",""1"",""3197""
","""event"",""trial"",""time""
""fullscreenenter"",""1"",""3219""
","
","","","492","","","21","10179","3882","&#9776;","elianto","#3366ff99"," "," ","1","+10","[1347]","1","0","1","","","","","","","",""
"pit-trial","28","339198","0.0-2.0-8.1-3.1","battery-v0.2","","""event"",""trial"",""time""
""focus"",""0"",""3""
""blur"",""1"",""3008""
""focus"",""1"",""3197""
""fullscreenenter"",""1"",""3219""
","""event"",""trial"",""time""
""blur"",""1"",""3008""
","""event"",""trial"",""time""
""focus"",""0"",""3""
""focus"",""1"",""3197""
","""event"",""trial"",""time""
""fullscreenenter"",""1"",""3219""
","
","","","557","","","21","10179","3882","&#9776;","elianto","#3366ff99"," "," ","1","0","[1411]","1","0","1","","","","","","","",""
"pit-trial","29","342651","0.0-2.0-8.1-4.1","battery-v0.2","","""event"",""trial"",""time""
""focus"",""0"",""3""
""blur"",""1"",""3008""
""focus"",""1"",""3197""
""fullscreenenter"",""1"",""3219""
","""event"",""trial"",""time""
""blur"",""1"",""3008""
","""event"",""trial"",""time""
""focus"",""0"",""3""
""focus"",""1"",""3197""
","""event"",""trial"",""time""
""fullscreenenter"",""1"",""3219""
","
","","","431","","","21","10179","3882","&#9776;","elianto","#3366ff99"," "," ","1","+10","[1282]","1","0","1","","","","","","","",""
"pit-trial","30","345916","0.0-2.0-8.2-0.2","battery-v0.2","","""event"",""trial"",""time""
""focus"",""0"",""3""
""blur"",""1"",""3008""
""focus"",""1"",""3197""
""fullscreenenter"",""1"",""3219""
","""event"",""trial"",""time""
""blur"",""1"",""3008""
","""event"",""trial"",""time""
""focus"",""0"",""3""
""focus"",""1"",""3197""
","""event"",""trial"",""time""
""fullscreenenter"",""1"",""3219""
","
","","","406","","","21","10179","3882","&#9776;","elianto","#3366ff99"," "," ","1","+10","[1258]","1","0","1","","","","","","","",""
"pit-trial","31","349201","0.0-2.0-8.2-1.2","battery-v0.2","","""event"",""trial"",""time""
""focus"",""0"",""3""
""blur"",""1"",""3008""
""focus"",""1"",""3197""
""fullscreenenter"",""1"",""3219""
","""event"",""trial"",""time""
""blur"",""1"",""3008""
","""event"",""trial"",""time""
""focus"",""0"",""3""
""focus"",""1"",""3197""
","""event"",""trial"",""time""
""fullscreenenter"",""1"",""3219""
","
","","","259","","","21","10179","3882","&#9776;","elianto","#3366ff99"," "," ","1","+10","[1120]","1","0","1","","","","","","","",""
"pit-trial","32","352522","0.0-2.0-8.2-2.2","battery-v0.2","","""event"",""trial"",""time""
""focus"",""0"",""3""
""blur"",""1"",""3008""
""focus"",""1"",""3197""
""fullscreenenter"",""1"",""3219""
","""event"",""trial"",""time""
""blur"",""1"",""3008""
","""event"",""trial"",""time""
""focus"",""0"",""3""
""focus"",""1"",""3197""
","""event"",""trial"",""time""
""fullscreenenter"",""1"",""3219""
","
","","","464","","","21","10179","3882","&#9776;","elianto","#3366ff99"," "," ","1","+10","[1315]","1","0","1","","","","","","","",""
"pit-trial","33","355879","0.0-2.0-8.2-3.2","battery-v0.2","","""event"",""trial"",""time""
""focus"",""0"",""3""
""blur"",""1"",""3008""
""focus"",""1"",""3197""
""fullscreenenter"",""1"",""3219""
","""event"",""trial"",""time""
""blur"",""1"",""3008""
","""event"",""trial"",""time""
""focus"",""0"",""3""
""focus"",""1"",""3197""
","""event"",""trial"",""time""
""fullscreenenter"",""1"",""3219""
","
","","","408","","","21","10179","3882","&#9776;","elianto","#3366ff99"," "," ","1","0","[1350]","1","0","1","","","","","","","",""
"pit-trial","34","359225","0.0-2.0-8.2-4.2","battery-v0.2","","""event"",""trial"",""time""
""focus"",""0"",""3""
""blur"",""1"",""3008""
""focus"",""1"",""3197""
""fullscreenenter"",""1"",""3219""
","""event"",""trial"",""time""
""blur"",""1"",""3008""
","""event"",""trial"",""time""
""focus"",""0"",""3""
""focus"",""1"",""3197""
","""event"",""trial"",""time""
""fullscreenenter"",""1"",""3219""
","
","","","493","","","21","10179","3882","&#9776;","elianto","#3366ff99"," "," ","1","+10","[1343]","1","0","1","","","","","","","",""
"call-function","35","359227","0.0-2.0-9.0","battery-v0.2","","""event"",""trial"",""time""
""focus"",""0"",""3""
""blur"",""1"",""3008""
""focus"",""1"",""3197""
""fullscreenenter"",""1"",""3219""
","""event"",""trial"",""time""
""blur"",""1"",""3008""
","""event"",""trial"",""time""
""focus"",""0"",""3""
""focus"",""1"",""3197""
","""event"",""trial"",""time""
""fullscreenenter"",""1"",""3219""
","
","","","","","","","","","","","","","","","","","","","","","","","","","","",""
"pit-instructions","36","403559","0.0-2.0-10.0","battery-v0.2","","""event"",""trial"",""time""
""focus"",""0"",""3""
""blur"",""1"",""3008""
""focus"",""1"",""3197""
""fullscreenenter"",""1"",""3219""
","""event"",""trial"",""time""
""blur"",""1"",""3008""
","""event"",""trial"",""time""
""focus"",""0"",""3""
""focus"",""1"",""3197""
","""event"",""trial"",""time""
""fullscreenenter"",""1"",""3219""
","
","","[{""page_index"":0,""viewing_time"":5677},{""page_index"":1,""viewing_time"":7967},{""page_index"":2,""viewing_time"":11300},{""page_index"":3,""viewing_time"":9634},{""page_index"":4,""viewing_time"":9751}]","44330","","","","","","","","","","","","","","","","","","","","","","","",""
"pit-trial","37","406837","0.0-2.0-11.0-0.0","battery-v0.2","","""event"",""trial"",""time""
""focus"",""0"",""3""
""blur"",""1"",""3008""
""focus"",""1"",""3197""
""fullscreenenter"",""1"",""3219""
","""event"",""trial"",""time""
""blur"",""1"",""3008""
","""event"",""trial"",""time""
""focus"",""0"",""3""
""focus"",""1"",""3197""
","""event"",""trial"",""time""
""fullscreenenter"",""1"",""3219""
","
","","","418","","","21","10179","3882","&#9761;","elianto","#3366ff99","-1"," ","0","0","[1268]","1","0","2","","","","","","","",""
"pit-trial","38","410778","0.0-2.0-11.0-1.0","battery-v0.2","","""event"",""trial"",""time""
""focus"",""0"",""3""
""blur"",""1"",""3008""
""focus"",""1"",""3197""
""fullscreenenter"",""1"",""3219""
","""event"",""trial"",""time""
""blur"",""1"",""3008""
","""event"",""trial"",""time""
""focus"",""0"",""3""
""focus"",""1"",""3197""
","""event"",""trial"",""time""
""fullscreenenter"",""1"",""3219""
","
","","","907","","","21","10179","3882","&#9761;","elianto","#3366ff99","-1"," ","0","0","[1760]","1","0","2","","","","","","","",""
"pit-trial","39","415639","0.0-2.0-11.0-2.0","battery-v0.2","","""event"",""trial"",""time""
""focus"",""0"",""3""
""blur"",""1"",""3008""
""focus"",""1"",""3197""
""fullscreenenter"",""1"",""3219""
","""event"",""trial"",""time""
""blur"",""1"",""3008""
","""event"",""trial"",""time""
""focus"",""0"",""3""
""focus"",""1"",""3197""
","""event"",""trial"",""time""
""fullscreenenter"",""1"",""3219""
","
","","","-1","","","21","10179","3882","&#9761;","elianto","#3366ff99","-1","-1","1","+10","[]","0","0","2","","","","","","","",""
"pit-trial","40","420500","0.0-2.0-11.0-3.0","battery-v0.2","","""event"",""trial"",""time""
""focus"",""0"",""3""
""blur"",""1"",""3008""
""focus"",""1"",""3197""
""fullscreenenter"",""1"",""3219""
","""event"",""trial"",""time""
""blur"",""1"",""3008""
","""event"",""trial"",""time""
""focus"",""0"",""3""
""focus"",""1"",""3197""
","""event"",""trial"",""time""
""fullscreenenter"",""1"",""3219""
","
","","","-1","","","21","10179","3882","&#9761;","elianto","#3366ff99","-1","-1","1","0","[]","0","0","2","","","","","","","",""
"pit-trial","41","425641","0.0-2.0-11.0-4.0","battery-v0.2","","""event"",""trial"",""time""
""focus"",""0"",""3""
""blur"",""1"",""3008""
""focus"",""1"",""3197""
""fullscreenenter"",""1"",""3219""
","""event"",""trial"",""time""
""blur"",""1"",""3008""
","""event"",""trial"",""time""
""focus"",""0"",""3""
""focus"",""1"",""3197""
","""event"",""trial"",""time""
""fullscreenenter"",""1"",""3219""
","
","","","-1","","","21","10179","3882","&#9761;","elianto","#3366ff99","-1","-1","1","+10","[]","0","0","2","","","","","","","",""
"pit-trial","42","430500","0.0-2.0-11.1-0.1","battery-v0.2","","""event"",""trial"",""time""
""focus"",""0"",""3""
""blur"",""1"",""3008""
""focus"",""1"",""3197""
""fullscreenenter"",""1"",""3219""
","""event"",""trial"",""time""
""blur"",""1"",""3008""
","""event"",""trial"",""time""
""focus"",""0"",""3""
""focus"",""1"",""3197""
","""event"",""trial"",""time""
""fullscreenenter"",""1"",""3219""
","
","","","-1","","","21","10179","3882","&#9761;","elianto","#3366ff99","-1","-1","1","+10","[]","0","0","2","","","","","","","",""
"pit-trial","43","435361","0.0-2.0-11.1-1.1","battery-v0.2","","""event"",""trial"",""time""
""focus"",""0"",""3""
""blur"",""1"",""3008""
""focus"",""1"",""3197""
""fullscreenenter"",""1"",""3219""
","""event"",""trial"",""time""
""blur"",""1"",""3008""
","""event"",""trial"",""time""
""focus"",""0"",""3""
""focus"",""1"",""3197""
","""event"",""trial"",""time""
""fullscreenenter"",""1"",""3219""
","
","","","-1","","","21","10179","3882","&#9761;","elianto","#3366ff99","-1","-1","1","+10","[]","0","0","2","","","","","","","",""
"pit-trial","44","440220","0.0-2.0-11.1-2.1","battery-v0.2","","""event"",""trial"",""time""
""focus"",""0"",""3""
""blur"",""1"",""3008""
""focus"",""1"",""3197""
""fullscreenenter"",""1"",""3219""
","""event"",""trial"",""time""
""blur"",""1"",""3008""
","""event"",""trial"",""time""
""focus"",""0"",""3""
""focus"",""1"",""3197""
","""event"",""trial"",""time""
""fullscreenenter"",""1"",""3219""
","
","","","-1","","","21","10179","3882","&#9761;","elianto","#3366ff99","-1","-1","1","+10","[]","0","0","2","","","","","","","",""
"pit-trial","45","445077","0.0-2.0-11.1-3.1","battery-v0.2","","""event"",""trial"",""time""
""focus"",""0"",""3""
""blur"",""1"",""3008""
""focus"",""1"",""3197""
""fullscreenenter"",""1"",""3219""
","""event"",""trial"",""time""
""blur"",""1"",""3008""
","""event"",""trial"",""time""
""focus"",""0"",""3""
""focus"",""1"",""3197""
","""event"",""trial"",""time""
""fullscreenenter"",""1"",""3219""
","
","","","-1","","","21","10179","3882","&#9761;","elianto","#3366ff99","-1","-1","1","0","[]","0","0","2","","","","","","","",""
"pit-trial","46","449934","0.0-2.0-11.1-4.1","battery-v0.2","","""event"",""trial"",""time""
""focus"",""0"",""3""
""blur"",""1"",""3008""
""focus"",""1"",""3197""
""fullscreenenter"",""1"",""3219""
","""event"",""trial"",""time""
""blur"",""1"",""3008""
","""event"",""trial"",""time""
""focus"",""0"",""3""
""focus"",""1"",""3197""
","""event"",""trial"",""time""
""fullscreenenter"",""1"",""3219""
","
","","","-1","","","21","10179","3882","&#9761;","elianto","#3366ff99","-1","-1","1","+10","[]","0","0","2","","","","","","","",""
"pit-trial","47","454795","0.0-2.0-11.2-0.2","battery-v0.2","","""event"",""trial"",""time""
""focus"",""0"",""3""
""blur"",""1"",""3008""
""focus"",""1"",""3197""
""fullscreenenter"",""1"",""3219""
","""event"",""trial"",""time""
""blur"",""1"",""3008""
","""event"",""trial"",""time""
""focus"",""0"",""3""
""focus"",""1"",""3197""
","""event"",""trial"",""time""
""fullscreenenter"",""1"",""3219""
","
","","","-1","","","21","10179","3882","&#9761;","elianto","#3366ff99","-1","-1","1","+10","[]","0","0","2","","","","","","","",""
"pit-trial","48","459653","0.0-2.0-11.2-1.2","battery-v0.2","","""event"",""trial"",""time""
""focus"",""0"",""3""
""blur"",""1"",""3008""
""focus"",""1"",""3197""
""fullscreenenter"",""1"",""3219""
","""event"",""trial"",""time""
""blur"",""1"",""3008""
","""event"",""trial"",""time""
""focus"",""0"",""3""
""focus"",""1"",""3197""
","""event"",""trial"",""time""
""fullscreenenter"",""1"",""3219""
","
","","","-1","","","21","10179","3882","&#9761;","elianto","#3366ff99","-1","-1","1","+10","[]","0","0","2","","","","","","","",""
"pit-trial","49","464511","0.0-2.0-11.2-2.2","battery-v0.2","","""event"",""trial"",""time""
""focus"",""0"",""3""
""blur"",""1"",""3008""
""focus"",""1"",""3197""
""fullscreenenter"",""1"",""3219""
","""event"",""trial"",""time""
""blur"",""1"",""3008""
","""event"",""trial"",""time""
""focus"",""0"",""3""
""focus"",""1"",""3197""
","""event"",""trial"",""time""
""fullscreenenter"",""1"",""3219""
","
","","","-1","","","21","10179","3882","&#9761;","elianto","#3366ff99","-1","-1","1","+10","[]","0","0","2","","","","","","","",""
"pit-trial","50","469365","0.0-2.0-11.2-3.2","battery-v0.2","","""event"",""trial"",""time""
""focus"",""0"",""3""
""blur"",""1"",""3008""
""focus"",""1"",""3197""
""fullscreenenter"",""1"",""3219""
","""event"",""trial"",""time""
""blur"",""1"",""3008""
","""event"",""trial"",""time""
""focus"",""0"",""3""
""focus"",""1"",""3197""
","""event"",""trial"",""time""
""fullscreenenter"",""1"",""3219""
","
","","","-1","","","21","10179","3882","&#9761;","elianto","#3366ff99","-1","-1","1","0","[]","0","0","2","","","","","","","",""
"pit-trial","51","474221","0.0-2.0-11.2-4.2","battery-v0.2","","""event"",""trial"",""time""
""focus"",""0"",""3""
""blur"",""1"",""3008""
""focus"",""1"",""3197""
""fullscreenenter"",""1"",""3219""
","""event"",""trial"",""time""
""blur"",""1"",""3008""
","""event"",""trial"",""time""
""focus"",""0"",""3""
""focus"",""1"",""3197""
","""event"",""trial"",""time""
""fullscreenenter"",""1"",""3219""
","
","","","-1","","","21","10179","3882","&#9761;","elianto","#3366ff99","-1","-1","1","+10","[]","0","0","2","","","","","","","",""
"pit-trial","52","479080","0.0-2.0-11.3-0.3","battery-v0.2","","""event"",""trial"",""time""
""focus"",""0"",""3""
""blur"",""1"",""3008""
""focus"",""1"",""3197""
""fullscreenenter"",""1"",""3219""
","""event"",""trial"",""time""
""blur"",""1"",""3008""
","""event"",""trial"",""time""
""focus"",""0"",""3""
""focus"",""1"",""3197""
","""event"",""trial"",""time""
""fullscreenenter"",""1"",""3219""
","
","","","-1","","","21","10179","3882","&#9761;","elianto","#3366ff99","-1","-1","1","+10","[]","0","0","2","","","","","","","",""
"pit-trial","53","483936","0.0-2.0-11.3-1.3","battery-v0.2","","""event"",""trial"",""time""
""focus"",""0"",""3""
""blur"",""1"",""3008""
""focus"",""1"",""3197""
""fullscreenenter"",""1"",""3219""
","""event"",""trial"",""time""
""blur"",""1"",""3008""
","""event"",""trial"",""time""
""focus"",""0"",""3""
""focus"",""1"",""3197""
","""event"",""trial"",""time""
""fullscreenenter"",""1"",""3219""
","
","","","-1","","","21","10179","3882","&#9761;","elianto","#3366ff99","-1","-1","1","+10","[]","0","0","2","","","","","","","",""
"pit-trial","54","488792","0.0-2.0-11.3-2.3","battery-v0.2","","""event"",""trial"",""time""
""focus"",""0"",""3""
""blur"",""1"",""3008""
""focus"",""1"",""3197""
""fullscreenenter"",""1"",""3219""
","""event"",""trial"",""time""
""blur"",""1"",""3008""
","""event"",""trial"",""time""
""focus"",""0"",""3""
""focus"",""1"",""3197""
","""event"",""trial"",""time""
""fullscreenenter"",""1"",""3219""
","
","","","-1","","","21","10179","3882","&#9761;","elianto","#3366ff99","-1","-1","1","+10","[]","0","0","2","","","","","","","",""
"pit-trial","55","493654","0.0-2.0-11.3-3.3","battery-v0.2","","""event"",""trial"",""time""
""focus"",""0"",""3""
""blur"",""1"",""3008""
""focus"",""1"",""3197""
""fullscreenenter"",""1"",""3219""
","""event"",""trial"",""time""
""blur"",""1"",""3008""
","""event"",""trial"",""time""
""focus"",""0"",""3""
""focus"",""1"",""3197""
","""event"",""trial"",""time""
""fullscreenenter"",""1"",""3219""
","
","","","-1","","","21","10179","3882","&#9761;","elianto","#3366ff99","-1","-1","1","0","[]","0","0","2","","","","","","","",""
"pit-trial","56","498509","0.0-2.0-11.3-4.3","battery-v0.2","","""event"",""trial"",""time""
""focus"",""0"",""3""
""blur"",""1"",""3008""
""focus"",""1"",""3197""
""fullscreenenter"",""1"",""3219""
","""event"",""trial"",""time""
""blur"",""1"",""3008""
","""event"",""trial"",""time""
""focus"",""0"",""3""
""focus"",""1"",""3197""
","""event"",""trial"",""time""
""fullscreenenter"",""1"",""3219""
","
","","","-1","","","21","10179","3882","&#9761;","elianto","#3366ff99","-1","-1","1","+10","[]","0","0","2","","","","","","","",""
"call-function","57","498510","0.0-2.0-12.0","battery-v0.2","","""event"",""trial"",""time""
""focus"",""0"",""3""
""blur"",""1"",""3008""
""focus"",""1"",""3197""
""fullscreenenter"",""1"",""3219""
","""event"",""trial"",""time""
""blur"",""1"",""3008""
","""event"",""trial"",""time""
""focus"",""0"",""3""
""focus"",""1"",""3197""
","""event"",""trial"",""time""
""fullscreenenter"",""1"",""3219""
","
","","","","","","","","","","","","","","","","","","","","","","","","","","",""
"pit-instructions","58","553454","0.0-2.0-13.0","battery-v0.2","","""event"",""trial"",""time""
""focus"",""0"",""3""
""blur"",""1"",""3008""
""focus"",""1"",""3197""
""fullscreenenter"",""1"",""3219""
","""event"",""trial"",""time""
""blur"",""1"",""3008""
","""event"",""trial"",""time""
""focus"",""0"",""3""
""focus"",""1"",""3197""
","""event"",""trial"",""time""
""fullscreenenter"",""1"",""3219""
","
","","[{""page_index"":0,""viewing_time"":7572},{""page_index"":1,""viewing_time"":23985},{""page_index"":2,""viewing_time"":6868},{""page_index"":3,""viewing_time"":11282},{""page_index"":4,""viewing_time"":5235}]","54942","","","","","","","","","","","","","","","","","","","","","","","",""
"pit-trial","59","557129","0.0-2.0-14.0-0.0","battery-v0.2","","""event"",""trial"",""time""
""focus"",""0"",""3""
""blur"",""1"",""3008""
""focus"",""1"",""3197""
""fullscreenenter"",""1"",""3219""
","""event"",""trial"",""time""
""blur"",""1"",""3008""
","""event"",""trial"",""time""
""focus"",""0"",""3""
""focus"",""1"",""3197""
","""event"",""trial"",""time""
""fullscreenenter"",""1"",""3219""
","
","","","816","","","21","10179","3882","&#9826;","elianto","#f73b6a7A","-1"," ","0","-10","[1668]","1","0","3","","","","","","","",""
"pit-trial","60","561989","0.0-2.0-14.0-1.0","battery-v0.2","","""event"",""trial"",""time""
""focus"",""0"",""3""
""blur"",""1"",""3008""
""focus"",""1"",""3197""
""fullscreenenter"",""1"",""3219""
","""event"",""trial"",""time""
""blur"",""1"",""3008""
","""event"",""trial"",""time""
""focus"",""0"",""3""
""focus"",""1"",""3197""
","""event"",""trial"",""time""
""fullscreenenter"",""1"",""3219""
","
","","","-1","","","21","10179","3882","&#9826;","elianto","#f73b6a7A","-1","-1","1","0","[]","0","0","3","","","","","","","",""
"pit-trial","61","566850","0.0-2.0-14.0-2.0","battery-v0.2","","""event"",""trial"",""time""
""focus"",""0"",""3""
""blur"",""1"",""3008""
""focus"",""1"",""3197""
""fullscreenenter"",""1"",""3219""
","""event"",""trial"",""time""
""blur"",""1"",""3008""
","""event"",""trial"",""time""
""focus"",""0"",""3""
""focus"",""1"",""3197""
","""event"",""trial"",""time""
""fullscreenenter"",""1"",""3219""
","
","","","-1","","","21","10179","3882","&#9826;","elianto","#f73b6a7A","-1","-1","1","0","[]","0","0","3","","","","","","","",""
"pit-trial","62","571710","0.0-2.0-14.0-3.0","battery-v0.2","","""event"",""trial"",""time""
""focus"",""0"",""3""
""blur"",""1"",""3008""
""focus"",""1"",""3197""
""fullscreenenter"",""1"",""3219""
","""event"",""trial"",""time""
""blur"",""1"",""3008""
","""event"",""trial"",""time""
""focus"",""0"",""3""
""focus"",""1"",""3197""
","""event"",""trial"",""time""
""fullscreenenter"",""1"",""3219""
","
","","","-1","","","21","10179","3882","&#9826;","elianto","#f73b6a7A","-1","-1","1","-10","[]","0","0","3","","","","","","","",""
"pit-trial","63","576568","0.0-2.0-14.0-4.0","battery-v0.2","","""event"",""trial"",""time""
""focus"",""0"",""3""
""blur"",""1"",""3008""
""focus"",""1"",""3197""
""fullscreenenter"",""1"",""3219""
","""event"",""trial"",""time""
""blur"",""1"",""3008""
","""event"",""trial"",""time""
""focus"",""0"",""3""
""focus"",""1"",""3197""
","""event"",""trial"",""time""
""fullscreenenter"",""1"",""3219""
","
","","","-1","","","21","10179","3882","&#9826;","elianto","#f73b6a7A","-1","-1","1","0","[]","0","0","3","","","","","","","",""
"pit-trial","64","581428","0.0-2.0-14.1-0.1","battery-v0.2","","""event"",""trial"",""time""
""focus"",""0"",""3""
""blur"",""1"",""3008""
""focus"",""1"",""3197""
""fullscreenenter"",""1"",""3219""
","""event"",""trial"",""time""
""blur"",""1"",""3008""
","""event"",""trial"",""time""
""focus"",""0"",""3""
""focus"",""1"",""3197""
","""event"",""trial"",""time""
""fullscreenenter"",""1"",""3219""
","
","","","-1","","","21","10179","3882","&#9826;","elianto","#f73b6a7A","-1","-1","1","0","[]","0","0","3","","","","","","","",""
"pit-trial","65","586285","0.0-2.0-14.1-1.1","battery-v0.2","","""event"",""trial"",""time""
""focus"",""0"",""3""
""blur"",""1"",""3008""
""focus"",""1"",""3197""
""fullscreenenter"",""1"",""3219""
","""event"",""trial"",""time""
""blur"",""1"",""3008""
","""event"",""trial"",""time""
""focus"",""0"",""3""
""focus"",""1"",""3197""
","""event"",""trial"",""time""
""fullscreenenter"",""1"",""3219""
","
","","","-1","","","21","10179","3882","&#9826;","elianto","#f73b6a7A","-1","-1","1","0","[]","0","0","3","","","","","","","",""
"pit-trial","66","591144","0.0-2.0-14.1-2.1","battery-v0.2","","""event"",""trial"",""time""
""focus"",""0"",""3""
""blur"",""1"",""3008""
""focus"",""1"",""3197""
""fullscreenenter"",""1"",""3219""
","""event"",""trial"",""time""
""blur"",""1"",""3008""
","""event"",""trial"",""time""
""focus"",""0"",""3""
""focus"",""1"",""3197""
","""event"",""trial"",""time""
""fullscreenenter"",""1"",""3219""
","
","","","-1","","","21","10179","3882","&#9826;","elianto","#f73b6a7A","-1","-1","1","0","[]","0","0","3","","","","","","","",""
"pit-trial","67","596002","0.0-2.0-14.1-3.1","battery-v0.2","","""event"",""trial"",""time""
""focus"",""0"",""3""
""blur"",""1"",""3008""
""focus"",""1"",""3197""
""fullscreenenter"",""1"",""3219""
","""event"",""trial"",""time""
""blur"",""1"",""3008""
","""event"",""trial"",""time""
""focus"",""0"",""3""
""focus"",""1"",""3197""
","""event"",""trial"",""time""
""fullscreenenter"",""1"",""3219""
","
","","","-1","","","21","10179","3882","&#9826;","elianto","#f73b6a7A","-1","-1","1","-10","[]","0","0","3","","","","","","","",""
"pit-trial","68","601087","0.0-2.0-14.1-4.1","battery-v0.2","","""event"",""trial"",""time""
""focus"",""0"",""3""
""blur"",""1"",""3008""
""focus"",""1"",""3197""
""fullscreenenter"",""1"",""3219""
","""event"",""trial"",""time""
""blur"",""1"",""3008""
","""event"",""trial"",""time""
""focus"",""0"",""3""
""focus"",""1"",""3197""
","""event"",""trial"",""time""
""fullscreenenter"",""1"",""3219""
","
","","","-1","","","21","10179","3882","&#9826;","elianto","#f73b6a7A","-1","-1","1","0","[]","0","0","3","","","","","","","",""
"pit-trial","69","606068","0.0-2.0-14.2-0.2","battery-v0.2","","""event"",""trial"",""time""
""focus"",""0"",""3""
""blur"",""1"",""3008""
""focus"",""1"",""3197""
""fullscreenenter"",""1"",""3219""
","""event"",""trial"",""time""
""blur"",""1"",""3008""
","""event"",""trial"",""time""
""focus"",""0"",""3""
""focus"",""1"",""3197""
","""event"",""trial"",""time""
""fullscreenenter"",""1"",""3219""
","
","","","-1","","","21","10179","3882","&#9826;","elianto","#f73b6a7A","-1","-1","1","0","[]","0","0","3","","","","","","","",""
"pit-trial","70","610924","0.0-2.0-14.2-1.2","battery-v0.2","","""event"",""trial"",""time""
""focus"",""0"",""3""
""blur"",""1"",""3008""
""focus"",""1"",""3197""
""fullscreenenter"",""1"",""3219""
","""event"",""trial"",""time""
""blur"",""1"",""3008""
","""event"",""trial"",""time""
""focus"",""0"",""3""
""focus"",""1"",""3197""
","""event"",""trial"",""time""
""fullscreenenter"",""1"",""3219""
","
","","","-1","","","21","10179","3882","&#9826;","elianto","#f73b6a7A","-1","-1","1","0","[]","0","0","3","","","","","","","",""
"pit-trial","71","615779","0.0-2.0-14.2-2.2","battery-v0.2","","""event"",""trial"",""time""
""focus"",""0"",""3""
""blur"",""1"",""3008""
""focus"",""1"",""3197""
""fullscreenenter"",""1"",""3219""
","""event"",""trial"",""time""
""blur"",""1"",""3008""
","""event"",""trial"",""time""
""focus"",""0"",""3""
""focus"",""1"",""3197""
","""event"",""trial"",""time""
""fullscreenenter"",""1"",""3219""
","
","","","-1","","","21","10179","3882","&#9826;","elianto","#f73b6a7A","-1","-1","1","0","[]","0","0","3","","","","","","","",""
"pit-trial","72","620641","0.0-2.0-14.2-3.2","battery-v0.2","","""event"",""trial"",""time""
""focus"",""0"",""3""
""blur"",""1"",""3008""
""focus"",""1"",""3197""
""fullscreenenter"",""1"",""3219""
","""event"",""trial"",""time""
""blur"",""1"",""3008""
","""event"",""trial"",""time""
""focus"",""0"",""3""
""focus"",""1"",""3197""
","""event"",""trial"",""time""
""fullscreenenter"",""1"",""3219""
","
","","","-1","","","21","10179","3882","&#9826;","elianto","#f73b6a7A","-1","-1","1","-10","[]","0","0","3","","","","","","","",""
"pit-trial","73","625501","0.0-2.0-14.2-4.2","battery-v0.2","","""event"",""trial"",""time""
""focus"",""0"",""3""
""blur"",""1"",""3008""
""focus"",""1"",""3197""
""fullscreenenter"",""1"",""3219""
","""event"",""trial"",""time""
""blur"",""1"",""3008""
","""event"",""trial"",""time""
""focus"",""0"",""3""
""focus"",""1"",""3197""
","""event"",""trial"",""time""
""fullscreenenter"",""1"",""3219""
","
","","","-1","","","21","10179","3882","&#9826;","elianto","#f73b6a7A","-1","-1","1","0","[]","0","0","3","","","","","","","",""
"pit-trial","74","630357","0.0-2.0-14.3-0.3","battery-v0.2","","""event"",""trial"",""time""
""focus"",""0"",""3""
""blur"",""1"",""3008""
""focus"",""1"",""3197""
""fullscreenenter"",""1"",""3219""
","""event"",""trial"",""time""
""blur"",""1"",""3008""
","""event"",""trial"",""time""
""focus"",""0"",""3""
""focus"",""1"",""3197""
","""event"",""trial"",""time""
""fullscreenenter"",""1"",""3219""
","
","","","-1","","","21","10179","3882","&#9826;","elianto","#f73b6a7A","-1","-1","1","0","[]","0","0","3","","","","","","","",""
"pit-trial","75","635217","0.0-2.0-14.3-1.3","battery-v0.2","","""event"",""trial"",""time""
""focus"",""0"",""3""
""blur"",""1"",""3008""
""focus"",""1"",""3197""
""fullscreenenter"",""1"",""3219""
","""event"",""trial"",""time""
""blur"",""1"",""3008""
","""event"",""trial"",""time""
""focus"",""0"",""3""
""focus"",""1"",""3197""
","""event"",""trial"",""time""
""fullscreenenter"",""1"",""3219""
","
","","","-1","","","21","10179","3882","&#9826;","elianto","#f73b6a7A","-1","-1","1","0","[]","0","0","3","","","","","","","",""
"pit-trial","76","640075","0.0-2.0-14.3-2.3","battery-v0.2","","""event"",""trial"",""time""
""focus"",""0"",""3""
""blur"",""1"",""3008""
""focus"",""1"",""3197""
""fullscreenenter"",""1"",""3219""
","""event"",""trial"",""time""
""blur"",""1"",""3008""
","""event"",""trial"",""time""
""focus"",""0"",""3""
""focus"",""1"",""3197""
","""event"",""trial"",""time""
""fullscreenenter"",""1"",""3219""
","
","","","-1","","","21","10179","3882","&#9826;","elianto","#f73b6a7A","-1","-1","1","0","[]","0","0","3","","","","","","","",""
"pit-trial","77","644928","0.0-2.0-14.3-3.3","battery-v0.2","","""event"",""trial"",""time""
""focus"",""0"",""3""
""blur"",""1"",""3008""
""focus"",""1"",""3197""
""fullscreenenter"",""1"",""3219""
","""event"",""trial"",""time""
""blur"",""1"",""3008""
","""event"",""trial"",""time""
""focus"",""0"",""3""
""focus"",""1"",""3197""
","""event"",""trial"",""time""
""fullscreenenter"",""1"",""3219""
","
","","","-1","","","21","10179","3882","&#9826;","elianto","#f73b6a7A","-1","-1","1","-10","[]","0","0","3","","","","","","","",""
"pit-trial","78","649790","0.0-2.0-14.3-4.3","battery-v0.2","","""event"",""trial"",""time""
""focus"",""0"",""3""
""blur"",""1"",""3008""
""focus"",""1"",""3197""
""fullscreenenter"",""1"",""3219""
","""event"",""trial"",""time""
""blur"",""1"",""3008""
","""event"",""trial"",""time""
""focus"",""0"",""3""
""focus"",""1"",""3197""
","""event"",""trial"",""time""
""fullscreenenter"",""1"",""3219""
","
","","","-1","","","21","10179","3882","&#9826;","elianto","#f73b6a7A","-1","-1","1","0","[]","0","0","3","","","","","","","",""
"call-function","79","649792","0.0-2.0-15.0","battery-v0.2","","""event"",""trial"",""time""
""focus"",""0"",""3""
""blur"",""1"",""3008""
""focus"",""1"",""3197""
""fullscreenenter"",""1"",""3219""
""blur"",""80"",""672464""
""focus"",""80"",""673315""
","""event"",""trial"",""time""
""blur"",""1"",""3008""
""blur"",""80"",""672464""
","""event"",""trial"",""time""
""focus"",""0"",""3""
""focus"",""1"",""3197""
""focus"",""80"",""673315""
","""event"",""trial"",""time""
""fullscreenenter"",""1"",""3219""
","
","","","","","","","","","","","","","","","","","","","","","","","","","","",""
"pit-instructions","80","678353","0.0-2.0-16.0","battery-v0.2","","""event"",""trial"",""time""
""focus"",""0"",""3""
""blur"",""1"",""3008""
""focus"",""1"",""3197""
""fullscreenenter"",""1"",""3219""
""blur"",""80"",""672464""
""focus"",""80"",""673315""
","""event"",""trial"",""time""
""blur"",""1"",""3008""
""blur"",""80"",""672464""
","""event"",""trial"",""time""
""focus"",""0"",""3""
""focus"",""1"",""3197""
""focus"",""80"",""673315""
","""event"",""trial"",""time""
""fullscreenenter"",""1"",""3219""
","
","","[{""page_index"":0,""viewing_time"":7155},{""page_index"":1,""viewing_time"":8750},{""page_index"":2,""viewing_time"":7733},{""page_index"":3,""viewing_time"":4923}]","28561","","","","","","","","","","","","","","","","","","","","","","","",""
"pit-trial","81","681625","0.0-2.0-17.0-0.0","battery-v0.2","","""event"",""trial"",""time""
""focus"",""0"",""3""
""blur"",""1"",""3008""
""focus"",""1"",""3197""
""fullscreenenter"",""1"",""3219""
""blur"",""80"",""672464""
""focus"",""80"",""673315""
","""event"",""trial"",""time""
""blur"",""1"",""3008""
""blur"",""80"",""672464""
","""event"",""trial"",""time""
""focus"",""0"",""3""
""focus"",""1"",""3197""
""focus"",""80"",""673315""
","""event"",""trial"",""time""
""fullscreenenter"",""1"",""3219""
","
","","","231","","","21","10179","3882","&#9789;","elianto","#f73b6a7A"," "," ","1","0","[428,1086]","2","0","4","","","","","","","",""
"pit-trial","82","684911","0.0-2.0-17.0-1.0","battery-v0.2","","""event"",""trial"",""time""
""focus"",""0"",""3""
""blur"",""1"",""3008""
""focus"",""1"",""3197""
""fullscreenenter"",""1"",""3219""
""blur"",""80"",""672464""
""focus"",""80"",""673315""
","""event"",""trial"",""time""
""blur"",""1"",""3008""
""blur"",""80"",""672464""
","""event"",""trial"",""time""
""focus"",""0"",""3""
""focus"",""1"",""3197""
""focus"",""80"",""673315""
","""event"",""trial"",""time""
""fullscreenenter"",""1"",""3219""
","
","","","428","","","21","10179","3882","&#9789;","elianto","#f73b6a7A"," "," ","1","0","[1278]","1","0","4","","","","","","","",""
"pit-trial","83","688196","0.0-2.0-17.0-2.0","battery-v0.2","","""event"",""trial"",""time""
""focus"",""0"",""3""
""blur"",""1"",""3008""
""focus"",""1"",""3197""
""fullscreenenter"",""1"",""3219""
""blur"",""80"",""672464""
""focus"",""80"",""673315""
","""event"",""trial"",""time""
""blur"",""1"",""3008""
""blur"",""80"",""672464""
","""event"",""trial"",""time""
""focus"",""0"",""3""
""focus"",""1"",""3197""
""focus"",""80"",""673315""
","""event"",""trial"",""time""
""fullscreenenter"",""1"",""3219""
","
","","","423","","","21","10179","3882","&#9789;","elianto","#f73b6a7A"," "," ","1","0","[1278]","1","0","4","","","","","","","",""
"pit-trial","84","691455","0.0-2.0-17.0-3.0","battery-v0.2","","""event"",""trial"",""time""
""focus"",""0"",""3""
""blur"",""1"",""3008""
""focus"",""1"",""3197""
""fullscreenenter"",""1"",""3219""
""blur"",""80"",""672464""
""focus"",""80"",""673315""
","""event"",""trial"",""time""
""blur"",""1"",""3008""
""blur"",""80"",""672464""
","""event"",""trial"",""time""
""focus"",""0"",""3""
""focus"",""1"",""3197""
""focus"",""80"",""673315""
","""event"",""trial"",""time""
""fullscreenenter"",""1"",""3219""
","
","","","400","","","21","10179","3882","&#9789;","elianto","#f73b6a7A"," "," ","1","-10","[1252]","1","0","4","","","","","","","",""
"pit-trial","85","694724","0.0-2.0-17.0-4.0","battery-v0.2","","""event"",""trial"",""time""
""focus"",""0"",""3""
""blur"",""1"",""3008""
""focus"",""1"",""3197""
""fullscreenenter"",""1"",""3219""
""blur"",""80"",""672464""
""focus"",""80"",""673315""
","""event"",""trial"",""time""
""blur"",""1"",""3008""
""blur"",""80"",""672464""
","""event"",""trial"",""time""
""focus"",""0"",""3""
""focus"",""1"",""3197""
""focus"",""80"",""673315""
","""event"",""trial"",""time""
""fullscreenenter"",""1"",""3219""
","
","","","407","","","21","10179","3882","&#9789;","elianto","#f73b6a7A"," "," ","1","0","[1261]","1","0","4","","","","","","","",""
"pit-trial","86","697989","0.0-2.0-17.1-0.1","battery-v0.2","","""event"",""trial"",""time""
""focus"",""0"",""3""
""blur"",""1"",""3008""
""focus"",""1"",""3197""
""fullscreenenter"",""1"",""3219""
""blur"",""80"",""672464""
""focus"",""80"",""673315""
","""event"",""trial"",""time""
""blur"",""1"",""3008""
""blur"",""80"",""672464""
","""event"",""trial"",""time""
""focus"",""0"",""3""
""focus"",""1"",""3197""
""focus"",""80"",""673315""
","""event"",""trial"",""time""
""fullscreenenter"",""1"",""3219""
","
","","","405","","","21","10179","3882","&#9789;","elianto","#f73b6a7A"," "," ","1","0","[1258]","1","0","4","","","","","","","",""
"pit-trial","87","701459","0.0-2.0-17.1-1.1","battery-v0.2","","""event"",""trial"",""time""
""focus"",""0"",""3""
""blur"",""1"",""3008""
""focus"",""1"",""3197""
""fullscreenenter"",""1"",""3219""
""blur"",""80"",""672464""
""focus"",""80"",""673315""
","""event"",""trial"",""time""
""blur"",""1"",""3008""
""blur"",""80"",""672464""
","""event"",""trial"",""time""
""focus"",""0"",""3""
""focus"",""1"",""3197""
""focus"",""80"",""673315""
","""event"",""trial"",""time""
""fullscreenenter"",""1"",""3219""
","
","","","494","","","21","10179","3882","&#9789;","elianto","#f73b6a7A"," "," ","1","0","[1349]","1","0","4","","","","","","","",""
"pit-trial","88","704870","0.0-2.0-17.1-2.1","battery-v0.2","","""event"",""trial"",""time""
""focus"",""0"",""3""
""blur"",""1"",""3008""
""focus"",""1"",""3197""
""fullscreenenter"",""1"",""3219""
""blur"",""80"",""672464""
""focus"",""80"",""673315""
","""event"",""trial"",""time""
""blur"",""1"",""3008""
""blur"",""80"",""672464""
","""event"",""trial"",""time""
""focus"",""0"",""3""
""focus"",""1"",""3197""
""focus"",""80"",""673315""
","""event"",""trial"",""time""
""fullscreenenter"",""1"",""3219""
","
","","","427","","","21","10179","3882","&#9789;","elianto","#f73b6a7A"," "," ","1","0","[1281]","1","0","4","","","","","","","",""
"pit-trial","89","708152","0.0-2.0-17.1-3.1","battery-v0.2","","""event"",""trial"",""time""
""focus"",""0"",""3""
""blur"",""1"",""3008""
""focus"",""1"",""3197""
""fullscreenenter"",""1"",""3219""
""blur"",""80"",""672464""
""focus"",""80"",""673315""
","""event"",""trial"",""time""
""blur"",""1"",""3008""
""blur"",""80"",""672464""
","""event"",""trial"",""time""
""focus"",""0"",""3""
""focus"",""1"",""3197""
""focus"",""80"",""673315""
","""event"",""trial"",""time""
""fullscreenenter"",""1"",""3219""
","
","","","423","","","21","10179","3882","&#9789;","elianto","#f73b6a7A"," "," ","1","-10","[1279]","1","0","4","","","","","","","",""
"pit-trial","90","711612","0.0-2.0-17.1-4.1","battery-v0.2","","""event"",""trial"",""time""
""focus"",""0"",""3""
""blur"",""1"",""3008""
""focus"",""1"",""3197""
""fullscreenenter"",""1"",""3219""
""blur"",""80"",""672464""
""focus"",""80"",""673315""
","""event"",""trial"",""time""
""blur"",""1"",""3008""
""blur"",""80"",""672464""
","""event"",""trial"",""time""
""focus"",""0"",""3""
""focus"",""1"",""3197""
""focus"",""80"",""673315""
","""event"",""trial"",""time""
""fullscreenenter"",""1"",""3219""
","
","","","430","","","21","10179","3882","&#9789;","elianto","#f73b6a7A"," "," ","1","0","[1280]","1","0","4","","","","","","","",""
"pit-trial","91","714984","0.0-2.0-17.2-0.2","battery-v0.2","","""event"",""trial"",""time""
""focus"",""0"",""3""
""blur"",""1"",""3008""
""focus"",""1"",""3197""
""fullscreenenter"",""1"",""3219""
""blur"",""80"",""672464""
""focus"",""80"",""673315""
","""event"",""trial"",""time""
""blur"",""1"",""3008""
""blur"",""80"",""672464""
","""event"",""trial"",""time""
""focus"",""0"",""3""
""focus"",""1"",""3197""
""focus"",""80"",""673315""
","""event"",""trial"",""time""
""fullscreenenter"",""1"",""3219""
","
","","","278","","","21","10179","3882","&#9789;","elianto","#f73b6a7A"," "," ","1","0","[840,1130]","2","0","4","","","","","","","",""
"pit-trial","92","718094","0.0-2.0-17.2-1.2","battery-v0.2","","""event"",""trial"",""time""
""focus"",""0"",""3""
""blur"",""1"",""3008""
""focus"",""1"",""3197""
""fullscreenenter"",""1"",""3219""
""blur"",""80"",""672464""
""focus"",""80"",""673315""
","""event"",""trial"",""time""
""blur"",""1"",""3008""
""blur"",""80"",""672464""
","""event"",""trial"",""time""
""focus"",""0"",""3""
""focus"",""1"",""3197""
""focus"",""80"",""673315""
","""event"",""trial"",""time""
""fullscreenenter"",""1"",""3219""
","
","","","253","","","21","10179","3882","&#9789;","elianto","#f73b6a7A"," "," ","1","0","[1103]","1","0","4","","","","","","","",""
"pit-trial","93","721265","0.0-2.0-17.2-2.2","battery-v0.2","","""event"",""trial"",""time""
""focus"",""0"",""3""
""blur"",""1"",""3008""
""focus"",""1"",""3197""
""fullscreenenter"",""1"",""3219""
""blur"",""80"",""672464""
""focus"",""80"",""673315""
","""event"",""trial"",""time""
""blur"",""1"",""3008""
""blur"",""80"",""672464""
","""event"",""trial"",""time""
""focus"",""0"",""3""
""focus"",""1"",""3197""
""focus"",""80"",""673315""
","""event"",""trial"",""time""
""fullscreenenter"",""1"",""3219""
","
","","","220","","","21","10179","3882","&#9789;","elianto","#f73b6a7A"," "," ","1","0","[1071]","1","0","4","","","","","","","",""
"pit-trial","94","724264","0.0-2.0-17.2-3.2","battery-v0.2","","""event"",""trial"",""time""
""focus"",""0"",""3""
""blur"",""1"",""3008""
""focus"",""1"",""3197""
""fullscreenenter"",""1"",""3219""
""blur"",""80"",""672464""
""focus"",""80"",""673315""
","""event"",""trial"",""time""
""blur"",""1"",""3008""
""blur"",""80"",""672464""
","""event"",""trial"",""time""
""focus"",""0"",""3""
""focus"",""1"",""3197""
""focus"",""80"",""673315""
","""event"",""trial"",""time""
""fullscreenenter"",""1"",""3219""
","
","","","143","","","21","10179","3882","&#9789;","elianto","#f73b6a7A"," "," ","1","-10","[994,1560]","2","0","4","","","","","","","",""
"pit-trial","95","727929","0.0-2.0-17.2-4.2","battery-v0.2","","""event"",""trial"",""time""
""focus"",""0"",""3""
""blur"",""1"",""3008""
""focus"",""1"",""3197""
""fullscreenenter"",""1"",""3219""
""blur"",""80"",""672464""
""focus"",""80"",""673315""
","""event"",""trial"",""time""
""blur"",""1"",""3008""
""blur"",""80"",""672464""
","""event"",""trial"",""time""
""focus"",""0"",""3""
""focus"",""1"",""3197""
""focus"",""80"",""673315""
","""event"",""trial"",""time""
""fullscreenenter"",""1"",""3219""
","
","","","643","","","21","10179","3882","&#9789;","elianto","#f73b6a7A"," "," ","1","0","[1495,1895]","2","0","4","","","","","","","",""
"pit-trial","96","731218","0.0-2.0-17.3-0.3","battery-v0.2","","""event"",""trial"",""time""
""focus"",""0"",""3""
""blur"",""1"",""3008""
""focus"",""1"",""3197""
""fullscreenenter"",""1"",""3219""
""blur"",""80"",""672464""
""focus"",""80"",""673315""
","""event"",""trial"",""time""
""blur"",""1"",""3008""
""blur"",""80"",""672464""
","""event"",""trial"",""time""
""focus"",""0"",""3""
""focus"",""1"",""3197""
""focus"",""80"",""673315""
","""event"",""trial"",""time""
""fullscreenenter"",""1"",""3219""
","
","","","424","","","21","10179","3882","&#9789;","elianto","#f73b6a7A"," "," ","1","0","[1283]","1","0","4","","","","","","","",""
"pit-trial","97","734540","0.0-2.0-17.3-1.3","battery-v0.2","","""event"",""trial"",""time""
""focus"",""0"",""3""
""blur"",""1"",""3008""
""focus"",""1"",""3197""
""fullscreenenter"",""1"",""3219""
""blur"",""80"",""672464""
""focus"",""80"",""673315""
","""event"",""trial"",""time""
""blur"",""1"",""3008""
""blur"",""80"",""672464""
","""event"",""trial"",""time""
""focus"",""0"",""3""
""focus"",""1"",""3197""
""focus"",""80"",""673315""
","""event"",""trial"",""time""
""fullscreenenter"",""1"",""3219""
","
","","","412","","","21","10179","3882","&#9789;","elianto","#f73b6a7A"," "," ","1","0","[1272]","1","0","4","","","","","","","",""
"pit-trial","98","737849","0.0-2.0-17.3-2.3","battery-v0.2","","""event"",""trial"",""time""
""focus"",""0"",""3""
""blur"",""1"",""3008""
""focus"",""1"",""3197""
""fullscreenenter"",""1"",""3219""
""blur"",""80"",""672464""
""focus"",""80"",""673315""
","""event"",""trial"",""time""
""blur"",""1"",""3008""
""blur"",""80"",""672464""
","""event"",""trial"",""time""
""focus"",""0"",""3""
""focus"",""1"",""3197""
""focus"",""80"",""673315""
","""event"",""trial"",""time""
""fullscreenenter"",""1"",""3219""
","
","","","449","","","21","10179","3882","&#9789;","elianto","#f73b6a7A"," "," ","1","0","[1306]","1","0","4","","","","","","","",""
"pit-trial","99","741223","0.0-2.0-17.3-3.3","battery-v0.2","","""event"",""trial"",""time""
""focus"",""0"",""3""
""blur"",""1"",""3008""
""focus"",""1"",""3197""
""fullscreenenter"",""1"",""3219""
""blur"",""80"",""672464""
""focus"",""80"",""673315""
","""event"",""trial"",""time""
""blur"",""1"",""3008""
""blur"",""80"",""672464""
","""event"",""trial"",""time""
""focus"",""0"",""3""
""focus"",""1"",""3197""
""focus"",""80"",""673315""
","""event"",""trial"",""time""
""fullscreenenter"",""1"",""3219""
","
","","","390","","","21","10179","3882","&#9789;","elianto","#f73b6a7A"," "," ","1","-10","[1241]","1","0","4","","","","","","","",""
"pit-trial","100","744468","0.0-2.0-17.3-4.3","battery-v0.2","","""event"",""trial"",""time""
""focus"",""0"",""3""
""blur"",""1"",""3008""
""focus"",""1"",""3197""
""fullscreenenter"",""1"",""3219""
""blur"",""80"",""672464""
""focus"",""80"",""673315""
","""event"",""trial"",""time""
""blur"",""1"",""3008""
""blur"",""80"",""672464""
","""event"",""trial"",""time""
""focus"",""0"",""3""
""focus"",""1"",""3197""
""focus"",""80"",""673315""
","""event"",""trial"",""time""
""fullscreenenter"",""1"",""3219""
","
","","","388","","","21","10179","3882","&#9789;","elianto","#f73b6a7A"," "," ","1","0","[1242]","1","0","4","","","","","","","",""
"call-function","101","744469","0.0-2.0-18.0","battery-v0.2","","""event"",""trial"",""time""
""focus"",""0"",""3""
""blur"",""1"",""3008""
""focus"",""1"",""3197""
""fullscreenenter"",""1"",""3219""
""blur"",""80"",""672464""
""focus"",""80"",""673315""
","""event"",""trial"",""time""
""blur"",""1"",""3008""
""blur"",""80"",""672464""
","""event"",""trial"",""time""
""focus"",""0"",""3""
""focus"",""1"",""3197""
""focus"",""80"",""673315""
","""event"",""trial"",""time""
""fullscreenenter"",""1"",""3219""
","
","","","","","","","","","","","","","","","","","","","","","","","","","","",""
"pit-instructions","102","812027","0.0-2.0-19.0","battery-v0.2","","""event"",""trial"",""time""
""focus"",""0"",""3""
""blur"",""1"",""3008""
""focus"",""1"",""3197""
""fullscreenenter"",""1"",""3219""
""blur"",""80"",""672464""
""focus"",""80"",""673315""
","""event"",""trial"",""time""
""blur"",""1"",""3008""
""blur"",""80"",""672464""
","""event"",""trial"",""time""
""focus"",""0"",""3""
""focus"",""1"",""3197""
""focus"",""80"",""673315""
","""event"",""trial"",""time""
""fullscreenenter"",""1"",""3219""
","
","","[{""page_index"":0,""viewing_time"":7469},{""page_index"":1,""viewing_time"":4701},{""page_index"":2,""viewing_time"":9884},{""page_index"":3,""viewing_time"":6233},{""page_index"":4,""viewing_time"":9752},{""page_index"":5,""viewing_time"":8800},{""page_index"":6,""viewing_time"":10966},{""page_index"":7,""viewing_time"":5317},{""page_index"":8,""viewing_time"":4433}]","67556","","","","","","","","","","","","","","","","","","","","","","","",""
"pit-comprehension","103","818265","0.0-2.0-20.0-0.0","battery-v0.2","","""event"",""trial"",""time""
""focus"",""0"",""3""
""blur"",""1"",""3008""
""focus"",""1"",""3197""
""fullscreenenter"",""1"",""3219""
""blur"",""80"",""672464""
""focus"",""80"",""673315""
","""event"",""trial"",""time""
""blur"",""1"",""3008""
""blur"",""80"",""672464""
","""event"",""trial"",""time""
""focus"",""0"",""3""
""focus"",""1"",""3197""
""focus"",""80"",""673315""
","""event"",""trial"",""time""
""fullscreenenter"",""1"",""3219""
","
","","","6234","[""SPACE""]","0","21","10179","3882","","","","","","","","","","","","","","","","","","",""
"pit-instructions","104","852948","0.0-2.0-20.0-1.0","battery-v0.2","","""event"",""trial"",""time""
""focus"",""0"",""3""
""blur"",""1"",""3008""
""focus"",""1"",""3197""
""fullscreenenter"",""1"",""3219""
""blur"",""80"",""672464""
""focus"",""80"",""673315""
""blur"",""105"",""856101""
""focus"",""105"",""858849""
","""event"",""trial"",""time""
""blur"",""1"",""3008""
""blur"",""80"",""672464""
""blur"",""105"",""856101""
","""event"",""trial"",""time""
""focus"",""0"",""3""
""focus"",""1"",""3197""
""focus"",""80"",""673315""
""focus"",""105"",""858849""
","""event"",""trial"",""time""
""fullscreenenter"",""1"",""3219""
","
","","[{""page_index"":0,""viewing_time"":34632}]","34633","","","","","","","","","","","","","","","","","","","","","","","",""
"pit-comprehension","105","862717","0.0-2.0-21.0-0.0","battery-v0.2","","""event"",""trial"",""time""
""focus"",""0"",""3""
""blur"",""1"",""3008""
""focus"",""1"",""3197""
""fullscreenenter"",""1"",""3219""
""blur"",""80"",""672464""
""focus"",""80"",""673315""
""blur"",""105"",""856101""
""focus"",""105"",""858849""
","""event"",""trial"",""time""
""blur"",""1"",""3008""
""blur"",""80"",""672464""
""blur"",""105"",""856101""
","""event"",""trial"",""time""
""focus"",""0"",""3""
""focus"",""1"",""3197""
""focus"",""80"",""673315""
""focus"",""105"",""858849""
","""event"",""trial"",""time""
""fullscreenenter"",""1"",""3219""
","
","","","9763","[""10""]","0","21","10179","3882","","","","","","","","","","","","","","","","","","",""
"pit-instructions","106","864615","0.0-2.0-21.0-1.0","battery-v0.2","","""event"",""trial"",""time""
""focus"",""0"",""3""
""blur"",""1"",""3008""
""focus"",""1"",""3197""
""fullscreenenter"",""1"",""3219""
""blur"",""80"",""672464""
""focus"",""80"",""673315""
""blur"",""105"",""856101""
""focus"",""105"",""858849""
","""event"",""trial"",""time""
""blur"",""1"",""3008""
""blur"",""80"",""672464""
""blur"",""105"",""856101""
","""event"",""trial"",""time""
""focus"",""0"",""3""
""focus"",""1"",""3197""
""focus"",""80"",""673315""
""focus"",""105"",""858849""
","""event"",""trial"",""time""
""fullscreenenter"",""1"",""3219""
","
","","[{""page_index"":0,""viewing_time"":1859}]","1859","","","","","","","","","","","","","","","","","","","","","","","",""
"pit-comprehension","107","871318","0.0-2.0-22.0-0.0","battery-v0.2","","""event"",""trial"",""time""
""focus"",""0"",""3""
""blur"",""1"",""3008""
""focus"",""1"",""3197""
""fullscreenenter"",""1"",""3219""
""blur"",""80"",""672464""
""focus"",""80"",""673315""
""blur"",""105"",""856101""
""focus"",""105"",""858849""
","""event"",""trial"",""time""
""blur"",""1"",""3008""
""blur"",""80"",""672464""
""blur"",""105"",""856101""
","""event"",""trial"",""time""
""focus"",""0"",""3""
""focus"",""1"",""3197""
""focus"",""80"",""673315""
""focus"",""105"",""858849""
","""event"",""trial"",""time""
""fullscreenenter"",""1"",""3219""
","
","","","6698","[""0""]","0","21","10179","3882","","","","","","","","","","","","","","","","","","",""
"pit-instructions","108","872733","0.0-2.0-22.0-1.0","battery-v0.2","","""event"",""trial"",""time""
""focus"",""0"",""3""
""blur"",""1"",""3008""
""focus"",""1"",""3197""
""fullscreenenter"",""1"",""3219""
""blur"",""80"",""672464""
""focus"",""80"",""673315""
""blur"",""105"",""856101""
""focus"",""105"",""858849""
","""event"",""trial"",""time""
""blur"",""1"",""3008""
""blur"",""80"",""672464""
""blur"",""105"",""856101""
","""event"",""trial"",""time""
""focus"",""0"",""3""
""focus"",""1"",""3197""
""focus"",""80"",""673315""
""focus"",""105"",""858849""
","""event"",""trial"",""time""
""fullscreenenter"",""1"",""3219""
","
","","[{""page_index"":0,""viewing_time"":1376}]","1376","","","","","","","","","","","","","","","","","","","","","","","",""
"pit-comprehension","109","881551","0.0-2.0-23.0-0.0","battery-v0.2","","""event"",""trial"",""time""
""focus"",""0"",""3""
""blur"",""1"",""3008""
""focus"",""1"",""3197""
""fullscreenenter"",""1"",""3219""
""blur"",""80"",""672464""
""focus"",""80"",""673315""
""blur"",""105"",""856101""
""focus"",""105"",""858849""
","""event"",""trial"",""time""
""blur"",""1"",""3008""
""blur"",""80"",""672464""
""blur"",""105"",""856101""
","""event"",""trial"",""time""
""focus"",""0"",""3""
""focus"",""1"",""3197""
""focus"",""80"",""673315""
""focus"",""105"",""858849""
","""event"",""trial"",""time""
""fullscreenenter"",""1"",""3219""
","
","","","8814","[""True""]","0","21","10179","3882","","","","","","","","","","","","","","","","","","",""
"pit-instructions","110","883933","0.0-2.0-23.0-1.0","battery-v0.2","","""event"",""trial"",""time""
""focus"",""0"",""3""
""blur"",""1"",""3008""
""focus"",""1"",""3197""
""fullscreenenter"",""1"",""3219""
""blur"",""80"",""672464""
""focus"",""80"",""673315""
""blur"",""105"",""856101""
""focus"",""105"",""858849""
","""event"",""trial"",""time""
""blur"",""1"",""3008""
""blur"",""80"",""672464""
""blur"",""105"",""856101""
","""event"",""trial"",""time""
""focus"",""0"",""3""
""focus"",""1"",""3197""
""focus"",""80"",""673315""
""focus"",""105"",""858849""
","""event"",""trial"",""time""
""fullscreenenter"",""1"",""3219""
","
","","[{""page_index"":0,""viewing_time"":2343}]","2343","","","","","","","","","","","","","","","","","","","","","","","",""
"pit-comprehension","111","893484","0.0-2.0-24.0-0.0","battery-v0.2","","""event"",""trial"",""time""
""focus"",""0"",""3""
""blur"",""1"",""3008""
""focus"",""1"",""3197""
""fullscreenenter"",""1"",""3219""
""blur"",""80"",""672464""
""focus"",""80"",""673315""
""blur"",""105"",""856101""
""focus"",""105"",""858849""
","""event"",""trial"",""time""
""blur"",""1"",""3008""
""blur"",""80"",""672464""
""blur"",""105"",""856101""
","""event"",""trial"",""time""
""focus"",""0"",""3""
""focus"",""1"",""3197""
""focus"",""80"",""673315""
""focus"",""105"",""858849""
","""event"",""trial"",""time""
""fullscreenenter"",""1"",""3219""
","
","","","9546","[""True""]","0","21","10179","3882","","","","","","","","","","","","","","","","","","",""
"pit-instructions","112","907236","0.0-2.0-24.0-1.0","battery-v0.2","","""event"",""trial"",""time""
""focus"",""0"",""3""
""blur"",""1"",""3008""
""focus"",""1"",""3197""
""fullscreenenter"",""1"",""3219""
""blur"",""80"",""672464""
""focus"",""80"",""673315""
""blur"",""105"",""856101""
""focus"",""105"",""858849""
","""event"",""trial"",""time""
""blur"",""1"",""3008""
""blur"",""80"",""672464""
""blur"",""105"",""856101""
","""event"",""trial"",""time""
""focus"",""0"",""3""
""focus"",""1"",""3197""
""focus"",""80"",""673315""
""focus"",""105"",""858849""
","""event"",""trial"",""time""
""fullscreenenter"",""1"",""3219""
","
","","[{""page_index"":0,""viewing_time"":13710}]","13711","","","","","","","","","","","","","","","","","","","","","","","",""
"pit-comprehension","113","915736","0.0-2.0-25.0-0.0","battery-v0.2","","""event"",""trial"",""time""
""focus"",""0"",""3""
""blur"",""1"",""3008""
""focus"",""1"",""3197""
""fullscreenenter"",""1"",""3219""
""blur"",""80"",""672464""
""focus"",""80"",""673315""
""blur"",""105"",""856101""
""focus"",""105"",""858849""
","""event"",""trial"",""time""
""blur"",""1"",""3008""
""blur"",""80"",""672464""
""blur"",""105"",""856101""
","""event"",""trial"",""time""
""focus"",""0"",""3""
""focus"",""1"",""3197""
""focus"",""80"",""673315""
""focus"",""105"",""858849""
","""event"",""trial"",""time""
""fullscreenenter"",""1"",""3219""
","
","","","8496","[""True""]","0","21","10179","3882","","","","","","","","","","","","","","","","","","",""
"pit-instructions","114","918220","0.0-2.0-25.0-1.0","battery-v0.2","","""event"",""trial"",""time""
""focus"",""0"",""3""
""blur"",""1"",""3008""
""focus"",""1"",""3197""
""fullscreenenter"",""1"",""3219""
""blur"",""80"",""672464""
""focus"",""80"",""673315""
""blur"",""105"",""856101""
""focus"",""105"",""858849""
","""event"",""trial"",""time""
""blur"",""1"",""3008""
""blur"",""80"",""672464""
""blur"",""105"",""856101""
","""event"",""trial"",""time""
""focus"",""0"",""3""
""focus"",""1"",""3197""
""focus"",""80"",""673315""
""focus"",""105"",""858849""
","""event"",""trial"",""time""
""fullscreenenter"",""1"",""3219""
","
","","[{""page_index"":0,""viewing_time"":2441}]","2441","","","","","","","","","","","","","","","","","","","","","","","",""
"pit-comprehension","115","923806","0.0-2.0-26.0-0.0","battery-v0.2","","""event"",""trial"",""time""
""focus"",""0"",""3""
""blur"",""1"",""3008""
""focus"",""1"",""3197""
""fullscreenenter"",""1"",""3219""
""blur"",""80"",""672464""
""focus"",""80"",""673315""
""blur"",""105"",""856101""
""focus"",""105"",""858849""
","""event"",""trial"",""time""
""blur"",""1"",""3008""
""blur"",""80"",""672464""
""blur"",""105"",""856101""
","""event"",""trial"",""time""
""focus"",""0"",""3""
""focus"",""1"",""3197""
""focus"",""80"",""673315""
""focus"",""105"",""858849""
","""event"",""trial"",""time""
""fullscreenenter"",""1"",""3219""
","
","","","5580","[""False""]","0","21","10179","3882","","","","","","","","","","","","","","","","","","",""
"pit-instructions","116","925504","0.0-2.0-26.0-1.0","battery-v0.2","","""event"",""trial"",""time""
""focus"",""0"",""3""
""blur"",""1"",""3008""
""focus"",""1"",""3197""
""fullscreenenter"",""1"",""3219""
""blur"",""80"",""672464""
""focus"",""80"",""673315""
""blur"",""105"",""856101""
""focus"",""105"",""858849""
","""event"",""trial"",""time""
""blur"",""1"",""3008""
""blur"",""80"",""672464""
""blur"",""105"",""856101""
","""event"",""trial"",""time""
""focus"",""0"",""3""
""focus"",""1"",""3197""
""focus"",""80"",""673315""
""focus"",""105"",""858849""
","""event"",""trial"",""time""
""fullscreenenter"",""1"",""3219""
","
","","[{""page_index"":0,""viewing_time"":1658}]","1658","","","","","","","","","","","","","","","","","","","","","","","",""
"pit-instructions","117","942955","0.0-3.0","battery-v0.2","","""event"",""trial"",""time""
""focus"",""0"",""3""
""blur"",""1"",""3008""
""focus"",""1"",""3197""
""fullscreenenter"",""1"",""3219""
""blur"",""80"",""672464""
""focus"",""80"",""673315""
""blur"",""105"",""856101""
""focus"",""105"",""858849""
","""event"",""trial"",""time""
""blur"",""1"",""3008""
""blur"",""80"",""672464""
""blur"",""105"",""856101""
","""event"",""trial"",""time""
""focus"",""0"",""3""
""focus"",""1"",""3197""
""focus"",""80"",""673315""
""focus"",""105"",""858849""
","""event"",""trial"",""time""
""fullscreenenter"",""1"",""3219""
","
","","[{""page_index"":0,""viewing_time"":3929},{""page_index"":1,""viewing_time"":5567},{""page_index"":2,""viewing_time"":7950}]","17448","","","","","","","","","","","","","","","","","","","","","","","",""
"pit-trial","118","947814","0.0-4.0","battery-v0.2","","""event"",""trial"",""time""
""focus"",""0"",""3""
""blur"",""1"",""3008""
""focus"",""1"",""3197""
""fullscreenenter"",""1"",""3219""
""blur"",""80"",""672464""
""focus"",""80"",""673315""
""blur"",""105"",""856101""
""focus"",""105"",""858849""
","""event"",""trial"",""time""
""blur"",""1"",""3008""
""blur"",""80"",""672464""
""blur"",""105"",""856101""
","""event"",""trial"",""time""
""focus"",""0"",""3""
""focus"",""1"",""3197""
""focus"",""80"",""673315""
""focus"",""105"",""858849""
","""event"",""trial"",""time""
""fullscreenenter"",""1"",""3219""
","
","","","-1","","","21","10179","3882","&#9730;","elianto","#3366ff99"," ","-1","0","0","[]","0","1","","","10179","1","1","1","win","go","0"
"pit-trial","119","951767","0.0-5.0","battery-v0.2","","""event"",""trial"",""time""
""focus"",""0"",""3""
""blur"",""1"",""3008""
""focus"",""1"",""3197""
""fullscreenenter"",""1"",""3219""
""blur"",""80"",""672464""
""focus"",""80"",""673315""
""blur"",""105"",""856101""
""focus"",""105"",""858849""
","""event"",""trial"",""time""
""blur"",""1"",""3008""
""blur"",""80"",""672464""
""blur"",""105"",""856101""
","""event"",""trial"",""time""
""focus"",""0"",""3""
""focus"",""1"",""3197""
""focus"",""80"",""673315""
""focus"",""105"",""858849""
","""event"",""trial"",""time""
""fullscreenenter"",""1"",""3219""
","
","","","1092","","","21","10179","3882","&#9733;","elianto","#3366ff99","-1"," ","0","0","[1946]","1","1","","","10179","2","2","2","win","no-go","0"
"pit-trial","120","955447","0.0-6.0","battery-v0.2","","""event"",""trial"",""time""
""focus"",""0"",""3""
""blur"",""1"",""3008""
""focus"",""1"",""3197""
""fullscreenenter"",""1"",""3219""
""blur"",""80"",""672464""
""focus"",""80"",""673315""
""blur"",""105"",""856101""
""focus"",""105"",""858849""
","""event"",""trial"",""time""
""blur"",""1"",""3008""
""blur"",""80"",""672464""
""blur"",""105"",""856101""
","""event"",""trial"",""time""
""focus"",""0"",""3""
""focus"",""1"",""3197""
""focus"",""80"",""673315""
""focus"",""105"",""858849""
","""event"",""trial"",""time""
""fullscreenenter"",""1"",""3219""
","
","","","823","","","21","10179","3882","&#9728;","elianto","#f73b6a7A","-1"," ","0","-10","[1673]","1","1","","","10179","3","0","4","lose","no-go","0"
"pit-trial","121","959849","0.0-7.0","battery-v0.2","","""event"",""trial"",""time""
""focus"",""0"",""3""
""blur"",""1"",""3008""
""focus"",""1"",""3197""
""fullscreenenter"",""1"",""3219""
""blur"",""80"",""672464""
""focus"",""80"",""673315""
""blur"",""105"",""856101""
""focus"",""105"",""858849""
","""event"",""trial"",""time""
""blur"",""1"",""3008""
""blur"",""80"",""672464""
""blur"",""105"",""856101""
","""event"",""trial"",""time""
""focus"",""0"",""3""
""focus"",""1"",""3197""
""focus"",""80"",""673315""
""focus"",""105"",""858849""
","""event"",""trial"",""time""
""fullscreenenter"",""1"",""3219""
","
","","","1543","","","21","10179","3882","&#9752;","elianto","#f73b6a7A"," "," ","1","0","[2394]","1","1","","","10179","4","3","3","lose","go","0"
"pit-trial","122","964706","0.0-8.0","battery-v0.2","","""event"",""trial"",""time""
""focus"",""0"",""3""
""blur"",""1"",""3008""
""focus"",""1"",""3197""
""fullscreenenter"",""1"",""3219""
""blur"",""80"",""672464""
""focus"",""80"",""673315""
""blur"",""105"",""856101""
""focus"",""105"",""858849""
","""event"",""trial"",""time""
""blur"",""1"",""3008""
""blur"",""80"",""672464""
""blur"",""105"",""856101""
","""event"",""trial"",""time""
""focus"",""0"",""3""
""focus"",""1"",""3197""
""focus"",""80"",""673315""
""focus"",""105"",""858849""
","""event"",""trial"",""time""
""fullscreenenter"",""1"",""3219""
","
","","","-1","","","21","10179","3882","&#9728;","elianto","#f73b6a7A","-1","-1","1","-10","[3171]","1","1","","","10179","5","0","4","lose","no-go","1"
"pit-trial","123","968325","0.0-9.0","battery-v0.2","","""event"",""trial"",""time""
""focus"",""0"",""3""
""blur"",""1"",""3008""
""focus"",""1"",""3197""
""fullscreenenter"",""1"",""3219""
""blur"",""80"",""672464""
""focus"",""80"",""673315""
""blur"",""105"",""856101""
""focus"",""105"",""858849""
","""event"",""trial"",""time""
""blur"",""1"",""3008""
""blur"",""80"",""672464""
""blur"",""105"",""856101""
","""event"",""trial"",""time""
""focus"",""0"",""3""
""focus"",""1"",""3197""
""focus"",""80"",""673315""
""focus"",""105"",""858849""
","""event"",""trial"",""time""
""fullscreenenter"",""1"",""3219""
","
","","","761","","","21","10179","3882","&#9733;","elianto","#3366ff99","-1"," ","0","0","[1615]","1","1","","","10179","6","2","2","win","no-go","0"
"pit-trial","124","972349","0.0-10.0","battery-v0.2","","""event"",""trial"",""time""
""focus"",""0"",""3""
""blur"",""1"",""3008""
""focus"",""1"",""3197""
""fullscreenenter"",""1"",""3219""
""blur"",""80"",""672464""
""focus"",""80"",""673315""
""blur"",""105"",""856101""
""focus"",""105"",""858849""
","""event"",""trial"",""time""
""blur"",""1"",""3008""
""blur"",""80"",""672464""
""blur"",""105"",""856101""
","""event"",""trial"",""time""
""focus"",""0"",""3""
""focus"",""1"",""3197""
""focus"",""80"",""673315""
""focus"",""105"",""858849""
","""event"",""trial"",""time""
""fullscreenenter"",""1"",""3219""
","
","","","1170","","","21","10179","3882","&#9752;","elianto","#f73b6a7A"," "," ","1","0","[2019]","1","1","","","10179","7","3","3","lose","go","0"
"pit-trial","125","976194","0.0-11.0","battery-v0.2","","""event"",""trial"",""time""
""focus"",""0"",""3""
""blur"",""1"",""3008""
""focus"",""1"",""3197""
""fullscreenenter"",""1"",""3219""
""blur"",""80"",""672464""
""focus"",""80"",""673315""
""blur"",""105"",""856101""
""focus"",""105"",""858849""
","""event"",""trial"",""time""
""blur"",""1"",""3008""
""blur"",""80"",""672464""
""blur"",""105"",""856101""
","""event"",""trial"",""time""
""focus"",""0"",""3""
""focus"",""1"",""3197""
""focus"",""80"",""673315""
""focus"",""105"",""858849""
","""event"",""trial"",""time""
""fullscreenenter"",""1"",""3219""
","
","","","914","","","21","10179","3882","&#9730;","elianto","#3366ff99"," "," ","1","0","[1769]","1","1","","","10179","8","1","1","win","go","1"
"pit-trial","126","980415","0.0-12.0","battery-v0.2","","""event"",""trial"",""time""
""focus"",""0"",""3""
""blur"",""1"",""3008""
""focus"",""1"",""3197""
""fullscreenenter"",""1"",""3219""
""blur"",""80"",""672464""
""focus"",""80"",""673315""
""blur"",""105"",""856101""
""focus"",""105"",""858849""
","""event"",""trial"",""time""
""blur"",""1"",""3008""
""blur"",""80"",""672464""
""blur"",""105"",""856101""
","""event"",""trial"",""time""
""focus"",""0"",""3""
""focus"",""1"",""3197""
""focus"",""80"",""673315""
""focus"",""105"",""858849""
","""event"",""trial"",""time""
""fullscreenenter"",""1"",""3219""
","
","","","1362","","","21","10179","3882","&#9730;","elianto","#3366ff99"," "," ","1","+10","[2217]","1","1","","","10179","9","1","1","win","go","0"
"pit-trial","127","985271","0.0-13.0","battery-v0.2","","""event"",""trial"",""time""
""focus"",""0"",""3""
""blur"",""1"",""3008""
""focus"",""1"",""3197""
""fullscreenenter"",""1"",""3219""
""blur"",""80"",""672464""
""focus"",""80"",""673315""
""blur"",""105"",""856101""
""focus"",""105"",""858849""
","""event"",""trial"",""time""
""blur"",""1"",""3008""
""blur"",""80"",""672464""
""blur"",""105"",""856101""
","""event"",""trial"",""time""
""focus"",""0"",""3""
""focus"",""1"",""3197""
""focus"",""80"",""673315""
""focus"",""105"",""858849""
","""event"",""trial"",""time""
""fullscreenenter"",""1"",""3219""
","
","","","-1","","","21","10179","3882","&#9728;","elianto","#f73b6a7A","-1","-1","1","0","[]","0","1","","","10179","10","0","4","lose","no-go","0"
"pit-trial","128","989042","0.0-14.0","battery-v0.2","","""event"",""trial"",""time""
""focus"",""0"",""3""
""blur"",""1"",""3008""
""focus"",""1"",""3197""
""fullscreenenter"",""1"",""3219""
""blur"",""80"",""672464""
""focus"",""80"",""673315""
""blur"",""105"",""856101""
""focus"",""105"",""858849""
","""event"",""trial"",""time""
""blur"",""1"",""3008""
""blur"",""80"",""672464""
""blur"",""105"",""856101""
","""event"",""trial"",""time""
""focus"",""0"",""3""
""focus"",""1"",""3197""
""focus"",""80"",""673315""
""focus"",""105"",""858849""
","""event"",""trial"",""time""
""fullscreenenter"",""1"",""3219""
","
","","","909","","","21","10179","3882","&#9752;","elianto","#f73b6a7A"," "," ","1","-10","[1761]","1","1","","","10179","11","3","3","lose","go","1"
"pit-trial","129","993900","0.0-15.0","battery-v0.2","","""event"",""trial"",""time""
""focus"",""0"",""3""
""blur"",""1"",""3008""
""focus"",""1"",""3197""
""fullscreenenter"",""1"",""3219""
""blur"",""80"",""672464""
""focus"",""80"",""673315""
""blur"",""105"",""856101""
""focus"",""105"",""858849""
","""event"",""trial"",""time""
""blur"",""1"",""3008""
""blur"",""80"",""672464""
""blur"",""105"",""856101""
","""event"",""trial"",""time""
""focus"",""0"",""3""
""focus"",""1"",""3197""
""focus"",""80"",""673315""
""focus"",""105"",""858849""
","""event"",""trial"",""time""
""fullscreenenter"",""1"",""3219""
","
","","","-1","","","21","10179","3882","&#9733;","elianto","#3366ff99","-1","-1","1","+10","[]","0","1","","","10179","12","2","2","win","no-go","0"
"pit-trial","130","998762","0.0-16.0","battery-v0.2","","""event"",""trial"",""time""
""focus"",""0"",""3""
""blur"",""1"",""3008""
""focus"",""1"",""3197""
""fullscreenenter"",""1"",""3219""
""blur"",""80"",""672464""
""focus"",""80"",""673315""
""blur"",""105"",""856101""
""focus"",""105"",""858849""
","""event"",""trial"",""time""
""blur"",""1"",""3008""
""blur"",""80"",""672464""
""blur"",""105"",""856101""
","""event"",""trial"",""time""
""focus"",""0"",""3""
""focus"",""1"",""3197""
""focus"",""80"",""673315""
""focus"",""105"",""858849""
","""event"",""trial"",""time""
""fullscreenenter"",""1"",""3219""
","
","","","-1","","","21","10179","3882","&#9730;","elianto","#3366ff99"," ","-1","0","0","[]","0","1","","","10179","13","1","1","win","go","0"
"pit-trial","131","1003619","0.0-17.0","battery-v0.2","","""event"",""trial"",""time""
""focus"",""0"",""3""
""blur"",""1"",""3008""
""focus"",""1"",""3197""
""fullscreenenter"",""1"",""3219""
""blur"",""80"",""672464""
""focus"",""80"",""673315""
""blur"",""105"",""856101""
""focus"",""105"",""858849""
","""event"",""trial"",""time""
""blur"",""1"",""3008""
""blur"",""80"",""672464""
""blur"",""105"",""856101""
","""event"",""trial"",""time""
""focus"",""0"",""3""
""focus"",""1"",""3197""
""focus"",""80"",""673315""
""focus"",""105"",""858849""
","""event"",""trial"",""time""
""fullscreenenter"",""1"",""3219""
","
","","","-1","","","21","10179","3882","&#9752;","elianto","#f73b6a7A"," ","-1","0","-10","[]","0","1","","","10179","14","3","3","lose","go","0"
"pit-trial","132","1008476","0.0-18.0","battery-v0.2","","""event"",""trial"",""time""
""focus"",""0"",""3""
""blur"",""1"",""3008""
""focus"",""1"",""3197""
""fullscreenenter"",""1"",""3219""
""blur"",""80"",""672464""
""focus"",""80"",""673315""
""blur"",""105"",""856101""
""focus"",""105"",""858849""
","""event"",""trial"",""time""
""blur"",""1"",""3008""
""blur"",""80"",""672464""
""blur"",""105"",""856101""
","""event"",""trial"",""time""
""focus"",""0"",""3""
""focus"",""1"",""3197""
""focus"",""80"",""673315""
""focus"",""105"",""858849""
","""event"",""trial"",""time""
""fullscreenenter"",""1"",""3219""
","
","","","-1","","","21","10179","3882","&#9733;","elianto","#3366ff99","-1","-1","1","0","[]","0","1","","","10179","15","2","2","win","no-go","1"
"pit-trial","133","1013210","0.0-19.0","battery-v0.2","","""event"",""trial"",""time""
""focus"",""0"",""3""
""blur"",""1"",""3008""
""focus"",""1"",""3197""
""fullscreenenter"",""1"",""3219""
""blur"",""80"",""672464""
""focus"",""80"",""673315""
""blur"",""105"",""856101""
""focus"",""105"",""858849""
","""event"",""trial"",""time""
""blur"",""1"",""3008""
""blur"",""80"",""672464""
""blur"",""105"",""856101""
","""event"",""trial"",""time""
""focus"",""0"",""3""
""focus"",""1"",""3197""
""focus"",""80"",""673315""
""focus"",""105"",""858849""
","""event"",""trial"",""time""
""fullscreenenter"",""1"",""3219""
","
","","","1880","","","21","10179","3882","&#9728;","elianto","#f73b6a7A","-1"," ","0","-10","[2730]","1","1","","","10179","16","0","4","lose","no-go","0"
"pit-trial","134","1018211","0.0-20.0","battery-v0.2","","""event"",""trial"",""time""
""focus"",""0"",""3""
""blur"",""1"",""3008""
""focus"",""1"",""3197""
""fullscreenenter"",""1"",""3219""
""blur"",""80"",""672464""
""focus"",""80"",""673315""
""blur"",""105"",""856101""
""focus"",""105"",""858849""
","""event"",""trial"",""time""
""blur"",""1"",""3008""
""blur"",""80"",""672464""
""blur"",""105"",""856101""
","""event"",""trial"",""time""
""focus"",""0"",""3""
""focus"",""1"",""3197""
""focus"",""80"",""673315""
""focus"",""105"",""858849""
","""event"",""trial"",""time""
""fullscreenenter"",""1"",""3219""
","
","","","-1","","","21","10179","3882","&#9752;","elianto","#f73b6a7A"," ","-1","0","-10","[]","0","1","","","10179","17","3","3","lose","go","0"
"pit-trial","135","1023097","0.0-21.0","battery-v0.2","","""event"",""trial"",""time""
""focus"",""0"",""3""
""blur"",""1"",""3008""
""focus"",""1"",""3197""
""fullscreenenter"",""1"",""3219""
""blur"",""80"",""672464""
""focus"",""80"",""673315""
""blur"",""105"",""856101""
""focus"",""105"",""858849""
","""event"",""trial"",""time""
""blur"",""1"",""3008""
""blur"",""80"",""672464""
""blur"",""105"",""856101""
","""event"",""trial"",""time""
""focus"",""0"",""3""
""focus"",""1"",""3197""
""focus"",""80"",""673315""
""focus"",""105"",""858849""
","""event"",""trial"",""time""
""fullscreenenter"",""1"",""3219""
","
","","","-1","","","21","10179","3882","&#9728;","elianto","#f73b6a7A","-1","-1","1","0","[]","0","1","","","10179","18","0","4","lose","no-go","0"
"pit-trial","136","1027958","0.0-22.0","battery-v0.2","","""event"",""trial"",""time""
""focus"",""0"",""3""
""blur"",""1"",""3008""
""focus"",""1"",""3197""
""fullscreenenter"",""1"",""3219""
""blur"",""80"",""672464""
""focus"",""80"",""673315""
""blur"",""105"",""856101""
""focus"",""105"",""858849""
","""event"",""trial"",""time""
""blur"",""1"",""3008""
""blur"",""80"",""672464""
""blur"",""105"",""856101""
","""event"",""trial"",""time""
""focus"",""0"",""3""
""focus"",""1"",""3197""
""focus"",""80"",""673315""
""focus"",""105"",""858849""
","""event"",""trial"",""time""
""fullscreenenter"",""1"",""3219""
","
","","","-1","","","21","10179","3882","&#9730;","elianto","#3366ff99"," ","-1","0","+10","[3308]","1","1","","","10179","19","1","1","win","go","1"
"pit-trial","137","1032872","0.0-23.0","battery-v0.2","","""event"",""trial"",""time""
""focus"",""0"",""3""
""blur"",""1"",""3008""
""focus"",""1"",""3197""
""fullscreenenter"",""1"",""3219""
""blur"",""80"",""672464""
""focus"",""80"",""673315""
""blur"",""105"",""856101""
""focus"",""105"",""858849""
","""event"",""trial"",""time""
""blur"",""1"",""3008""
""blur"",""80"",""672464""
""blur"",""105"",""856101""
","""event"",""trial"",""time""
""focus"",""0"",""3""
""focus"",""1"",""3197""
""focus"",""80"",""673315""
""focus"",""105"",""858849""
","""event"",""trial"",""time""
""fullscreenenter"",""1"",""3219""
","
","","","-1","","","21","10179","3882","&#9733;","elianto","#3366ff99","-1","-1","1","+10","[]","0","1","","","10179","20","2","2","win","no-go","0"
"pit-instructions","138","1053597","0.0-24.0","battery-v0.2","","""event"",""trial"",""time""
""focus"",""0"",""3""
""blur"",""1"",""3008""
""focus"",""1"",""3197""
""fullscreenenter"",""1"",""3219""
""blur"",""80"",""672464""
""focus"",""80"",""673315""
""blur"",""105"",""856101""
""focus"",""105"",""858849""
","""event"",""trial"",""time""
""blur"",""1"",""3008""
""blur"",""80"",""672464""
""blur"",""105"",""856101""
","""event"",""trial"",""time""
""focus"",""0"",""3""
""focus"",""1"",""3197""
""focus"",""80"",""673315""
""focus"",""105"",""858849""
","""event"",""trial"",""time""
""fullscreenenter"",""1"",""3219""
","
","","[{""page_index"":0,""viewing_time"":13740},{""page_index"":1,""viewing_time"":6983}]","20724","","","","","","","","","","","","","","","","","","","","","","","",""
"pit-trial","139","1057639","0.0-25.0","battery-v0.2","","""event"",""trial"",""time""
""focus"",""0"",""3""
""blur"",""1"",""3008""
""focus"",""1"",""3197""
""fullscreenenter"",""1"",""3219""
""blur"",""80"",""672464""
""focus"",""80"",""673315""
""blur"",""105"",""856101""
""focus"",""105"",""858849""
","""event"",""trial"",""time""
""blur"",""1"",""3008""
""blur"",""80"",""672464""
""blur"",""105"",""856101""
","""event"",""trial"",""time""
""focus"",""0"",""3""
""focus"",""1"",""3197""
""focus"",""80"",""673315""
""focus"",""105"",""858849""
","""event"",""trial"",""time""
""fullscreenenter"",""1"",""3219""
","
","","","1181","","","21","10179","3882","d","elianto","#3366ff99"," "," ","1","+10","[2036]","1","2","","","10179","21","1","1","win","go","0"
"pit-trial","140","1062640","0.0-26.0","battery-v0.2","","""event"",""trial"",""time""
""focus"",""0"",""3""
""blur"",""1"",""3008""
""focus"",""1"",""3197""
""fullscreenenter"",""1"",""3219""
""blur"",""80"",""672464""
""focus"",""80"",""673315""
""blur"",""105"",""856101""
""focus"",""105"",""858849""
","""event"",""trial"",""time""
""blur"",""1"",""3008""
""blur"",""80"",""672464""
""blur"",""105"",""856101""
","""event"",""trial"",""time""
""focus"",""0"",""3""
""focus"",""1"",""3197""
""focus"",""80"",""673315""
""focus"",""105"",""858849""
","""event"",""trial"",""time""
""fullscreenenter"",""1"",""3219""
","
","","","-1","","","21","10179","3882","e","elianto","#f73b6a7A","-1","-1","1","0","[]","0","2","","","10179","22","2","4","lose","no-go","0"
"pit-trial","141","1066754","0.0-27.0","battery-v0.2","","""event"",""trial"",""time""
""focus"",""0"",""3""
""blur"",""1"",""3008""
""focus"",""1"",""3197""
""fullscreenenter"",""1"",""3219""
""blur"",""80"",""672464""
""focus"",""80"",""673315""
""blur"",""105"",""856101""
""focus"",""105"",""858849""
","""event"",""trial"",""time""
""blur"",""1"",""3008""
""blur"",""80"",""672464""
""blur"",""105"",""856101""
","""event"",""trial"",""time""
""focus"",""0"",""3""
""focus"",""1"",""3197""
""focus"",""80"",""673315""
""focus"",""105"",""858849""
","""event"",""trial"",""time""
""fullscreenenter"",""1"",""3219""
","
","","","1252","","","21","10179","3882","j","elianto","#f73b6a7A","-1"," ","0","-10","[2107]","1","2","","","10179","23","0","4","lose","no-go","0"
"pit-trial","142","1071187","0.0-28.0","battery-v0.2","","""event"",""trial"",""time""
""focus"",""0"",""3""
""blur"",""1"",""3008""
""focus"",""1"",""3197""
""fullscreenenter"",""1"",""3219""
""blur"",""80"",""672464""
""focus"",""80"",""673315""
""blur"",""105"",""856101""
""focus"",""105"",""858849""
","""event"",""trial"",""time""
""blur"",""1"",""3008""
""blur"",""80"",""672464""
""blur"",""105"",""856101""
","""event"",""trial"",""time""
""focus"",""0"",""3""
""focus"",""1"",""3197""
""focus"",""80"",""673315""
""focus"",""105"",""858849""
","""event"",""trial"",""time""
""fullscreenenter"",""1"",""3219""
","
","","","1576","","","21","10179","3882","w","elianto","#f73b6a7A"," "," ","1","-10","[2428]","1","2","","","10179","24","3","3","lose","go","1"
"pit-trial","143","1076046","0.0-29.0","battery-v0.2","","""event"",""trial"",""time""
""focus"",""0"",""3""
""blur"",""1"",""3008""
""focus"",""1"",""3197""
""fullscreenenter"",""1"",""3219""
""blur"",""80"",""672464""
""focus"",""80"",""673315""
""blur"",""105"",""856101""
""focus"",""105"",""858849""
","""event"",""trial"",""time""
""blur"",""1"",""3008""
""blur"",""80"",""672464""
""blur"",""105"",""856101""
","""event"",""trial"",""time""
""focus"",""0"",""3""
""focus"",""1"",""3197""
""focus"",""80"",""673315""
""focus"",""105"",""858849""
","""event"",""trial"",""time""
""fullscreenenter"",""1"",""3219""
","
","","","-1","","","21","10179","3882","w","elianto","#f73b6a7A"," ","-1","0","-10","[]","0","2","","","10179","25","3","3","lose","go","0"
"pit-trial","144","1080908","0.0-30.0","battery-v0.2","","""event"",""trial"",""time""
""focus"",""0"",""3""
""blur"",""1"",""3008""
""focus"",""1"",""3197""
""fullscreenenter"",""1"",""3219""
""blur"",""80"",""672464""
""focus"",""80"",""673315""
""blur"",""105"",""856101""
""focus"",""105"",""858849""
","""event"",""trial"",""time""
""blur"",""1"",""3008""
""blur"",""80"",""672464""
""blur"",""105"",""856101""
","""event"",""trial"",""time""
""focus"",""0"",""3""
""focus"",""1"",""3197""
""focus"",""80"",""673315""
""focus"",""105"",""858849""
","""event"",""trial"",""time""
""fullscreenenter"",""1"",""3219""
","
","","","-1","","","21","10179","3882","j","elianto","#f73b6a7A","-1","-1","1","-10","[]","0","2","","","10179","26","0","4","lose","no-go","1"
"pit-trial","145","1085958","0.0-31.0","battery-v0.2","","""event"",""trial"",""time""
""focus"",""0"",""3""
""blur"",""1"",""3008""
""focus"",""1"",""3197""
""fullscreenenter"",""1"",""3219""
""blur"",""80"",""672464""
""focus"",""80"",""673315""
""blur"",""105"",""856101""
""focus"",""105"",""858849""
","""event"",""trial"",""time""
""blur"",""1"",""3008""
""blur"",""80"",""672464""
""blur"",""105"",""856101""
","""event"",""trial"",""time""
""focus"",""0"",""3""
""focus"",""1"",""3197""
""focus"",""80"",""673315""
""focus"",""105"",""858849""
","""event"",""trial"",""time""
""fullscreenenter"",""1"",""3219""
","
","","","-1","","","21","10179","3882","e","elianto","#f73b6a7A","-1","-1","1","0","[]","0","2","","","10179","27","2","4","lose","no-go","0"
"pit-trial","146","1090003","0.0-32.0","battery-v0.2","","""event"",""trial"",""time""
""focus"",""0"",""3""
""blur"",""1"",""3008""
""focus"",""1"",""3197""
""fullscreenenter"",""1"",""3219""
""blur"",""80"",""672464""
""focus"",""80"",""673315""
""blur"",""105"",""856101""
""focus"",""105"",""858849""
","""event"",""trial"",""time""
""blur"",""1"",""3008""
""blur"",""80"",""672464""
""blur"",""105"",""856101""
","""event"",""trial"",""time""
""focus"",""0"",""3""
""focus"",""1"",""3197""
""focus"",""80"",""673315""
""focus"",""105"",""858849""
","""event"",""trial"",""time""
""fullscreenenter"",""1"",""3219""
","
","","","1069","","","21","10179","3882","d","elianto","#3366ff99"," "," ","1","+10","[1919]","1","2","","","10179","28","1","1","win","go","0"
"pit-trial","147","1094032","0.0-33.0","battery-v0.2","","""event"",""trial"",""time""
""focus"",""0"",""3""
""blur"",""1"",""3008""
""focus"",""1"",""3197""
""fullscreenenter"",""1"",""3219""
""blur"",""80"",""672464""
""focus"",""80"",""673315""
""blur"",""105"",""856101""
""focus"",""105"",""858849""
","""event"",""trial"",""time""
""blur"",""1"",""3008""
""blur"",""80"",""672464""
""blur"",""105"",""856101""
","""event"",""trial"",""time""
""focus"",""0"",""3""
""focus"",""1"",""3197""
""focus"",""80"",""673315""
""focus"",""105"",""858849""
","""event"",""trial"",""time""
""fullscreenenter"",""1"",""3219""
","
","","","1168","","","21","10179","3882","w","elianto","#f73b6a7A"," "," ","1","-10","[2024]","1","2","","","10179","29","3","3","lose","go","1"
"pit-trial","148","1098908","0.0-34.0","battery-v0.2","","""event"",""trial"",""time""
""focus"",""0"",""3""
""blur"",""1"",""3008""
""focus"",""1"",""3197""
""fullscreenenter"",""1"",""3219""
""blur"",""80"",""672464""
""focus"",""80"",""673315""
""blur"",""105"",""856101""
""focus"",""105"",""858849""
","""event"",""trial"",""time""
""blur"",""1"",""3008""
""blur"",""80"",""672464""
""blur"",""105"",""856101""
","""event"",""trial"",""time""
""focus"",""0"",""3""
""focus"",""1"",""3197""
""focus"",""80"",""673315""
""focus"",""105"",""858849""
","""event"",""trial"",""time""
""fullscreenenter"",""1"",""3219""
","
","","","-1","","","21","10179","3882","e","elianto","#f73b6a7A","-1","-1","1","-10","[4123]","1","2","","","10179","30","2","4","lose","no-go","1"
"pit-trial","149","1102693","0.0-35.0","battery-v0.2","","""event"",""trial"",""time""
""focus"",""0"",""3""
""blur"",""1"",""3008""
""focus"",""1"",""3197""
""fullscreenenter"",""1"",""3219""
""blur"",""80"",""672464""
""focus"",""80"",""673315""
""blur"",""105"",""856101""
""focus"",""105"",""858849""
","""event"",""trial"",""time""
""blur"",""1"",""3008""
""blur"",""80"",""672464""
""blur"",""105"",""856101""
","""event"",""trial"",""time""
""focus"",""0"",""3""
""focus"",""1"",""3197""
""focus"",""80"",""673315""
""focus"",""105"",""858849""
","""event"",""trial"",""time""
""fullscreenenter"",""1"",""3219""
","
","","","923","","","21","10179","3882","d","elianto","#3366ff99"," "," ","1","+10","[1779]","1","2","","","10179","31","1","1","win","go","0"
"pit-trial","150","1107556","0.0-36.0","battery-v0.2","","""event"",""trial"",""time""
""focus"",""0"",""3""
""blur"",""1"",""3008""
""focus"",""1"",""3197""
""fullscreenenter"",""1"",""3219""
""blur"",""80"",""672464""
""focus"",""80"",""673315""
""blur"",""105"",""856101""
""focus"",""105"",""858849""
","""event"",""trial"",""time""
""blur"",""1"",""3008""
""blur"",""80"",""672464""
""blur"",""105"",""856101""
","""event"",""trial"",""time""
""focus"",""0"",""3""
""focus"",""1"",""3197""
""focus"",""80"",""673315""
""focus"",""105"",""858849""
","""event"",""trial"",""time""
""fullscreenenter"",""1"",""3219""
","
","","","-1","","","21","10179","3882","j","elianto","#f73b6a7A","-1","-1","1","0","[]","0","2","","","10179","32","0","4","lose","no-go","0"
"pit-trial","151","1111830","0.0-37.0","battery-v0.2","","""event"",""trial"",""time""
""focus"",""0"",""3""
""blur"",""1"",""3008""
""focus"",""1"",""3197""
""fullscreenenter"",""1"",""3219""
""blur"",""80"",""672464""
""focus"",""80"",""673315""
""blur"",""105"",""856101""
""focus"",""105"",""858849""
","""event"",""trial"",""time""
""blur"",""1"",""3008""
