"trial_type","trial_index","time_elapsed","internal_node_id","task_version","subject_id","interactions","blur_events","focus_events","fullscreenenter_events","fullscreenexit_events","success","view_history","rt","responses","num_errors","age","subject","participantId","rune","rune_set","hex","correct","choice","accuracy","outcome","keys","total_keys","block","practice","value","sub","trial","stimulus","robot","valence","action","sham"
"pavlovia","0","12","0.0-0.0","battery-v0.2","","""event"",""trial"",""time""
""fullscreenenter"",""1"",""2711""
","
","
","""event"",""trial"",""time""
""fullscreenenter"",""1"",""2711""
","
","","","","","","","","","","","","","","","","","","","","","","","","","","",""
"fullscreen","1","3704","0.0-1.0","battery-v0.2","","""event"",""trial"",""time""
""fullscreenenter"",""1"",""2711""
","
","
","""event"",""trial"",""time""
""fullscreenenter"",""1"",""2711""
","
","true","","","","","","","","","","","","","","","","","","","","","","","","","",""
"pit-instructions","2","10639","0.0-2.0-0.0","battery-v0.2","","""event"",""trial"",""time""
""fullscreenenter"",""1"",""2711""
","
","
","""event"",""trial"",""time""
""fullscreenenter"",""1"",""2711""
","
","","[{""page_index"":0,""viewing_time"":6925.4000000059605}]","6925.600000008941","","","","","","","","","","","","","","","","","","","","","","","",""
"pit-comprehension","3","15368","0.0-2.0-1.0-0.0","battery-v0.2","","""event"",""trial"",""time""
""fullscreenenter"",""1"",""2711""
","
","
","""event"",""trial"",""time""
""fullscreenenter"",""1"",""2711""
","
","","","4723.5999999940395","[""shark""]","0","23","5154","973","","","","","","","","","","","","","","","","","","",""
"pit-instructions","4","16631","0.0-2.0-1.0-1.0","battery-v0.2","","""event"",""trial"",""time""
""fullscreenenter"",""1"",""2711""
","
","
","""event"",""trial"",""time""
""fullscreenenter"",""1"",""2711""
","
","","[{""page_index"":0,""viewing_time"":1235.1000000089407}]","1235.2999999970198","","","","","","","","","","","","","","","","","","","","","","","",""
"pit-comprehension","5","18716","0.0-2.0-2.0-0.0","battery-v0.2","","""event"",""trial"",""time""
""fullscreenenter"",""1"",""2711""
","
","
","""event"",""trial"",""time""
""fullscreenenter"",""1"",""2711""
","
","","","2080.6000000089407","[""tiger""]","0","23","5154","973","","","","","","","","","","","","","","","","","","",""
"pit-instructions","6","19403","0.0-2.0-2.0-1.0","battery-v0.2","","""event"",""trial"",""time""
""fullscreenenter"",""1"",""2711""
","
","
","""event"",""trial"",""time""
""fullscreenenter"",""1"",""2711""
","
","","[{""page_index"":0,""viewing_time"":682.7999999970198}]","683","","","","","","","","","","","","","","","","","","","","","","","",""
"pit-instructions","7","123783","0.0-2.0-3.0","battery-v0.2","","""event"",""trial"",""time""
""fullscreenenter"",""1"",""2711""
","
","
","""event"",""trial"",""time""
""fullscreenenter"",""1"",""2711""
","
","","[{""page_index"":0,""viewing_time"":9864.300000011921},{""page_index"":1,""viewing_time"":5668.0999999940395},{""page_index"":2,""viewing_time"":6600},{""page_index"":3,""viewing_time"":5847.70000000298},{""page_index"":4,""viewing_time"":6128.0999999940395},{""page_index"":5,""viewing_time"":5475.4000000059605},{""page_index"":6,""viewing_time"":7060.20000000298},{""page_index"":7,""viewing_time"":11315.699999988079},{""page_index"":8,""viewing_time"":7568.600000008941},{""page_index"":9,""viewing_time"":8167.79999999702},{""page_index"":10,""viewing_time"":7552.20000000298},{""page_index"":11,""viewing_time"":7923.5},{""page_index"":12,""viewing_time"":6088.5},{""page_index"":13,""viewing_time"":9115.79999999702}]","104376.30000001192","","","","","","","","","","","","","","","","","","","","","","","",""
"pit-trial","8","127378","0.0-2.0-4.0-0.0","battery-v0.2","","""event"",""trial"",""time""
""fullscreenenter"",""1"",""2711""
","
","
","""event"",""trial"",""time""
""fullscreenenter"",""1"",""2711""
","
","","","729.1999999880791","","","23","5154","973","&#9784;","elianto","#FFFFF080"," "," ","1","&#10004","[1582.7000000029802]","1","0","0","","","","","","","",""
"pit-trial","9","130689","0.0-2.0-4.1-0.1","battery-v0.2","","""event"",""trial"",""time""
""fullscreenenter"",""1"",""2711""
","
","
","""event"",""trial"",""time""
""fullscreenenter"",""1"",""2711""
","
","","","438.79999999701977","","","23","5154","973","&#9784;","elianto","#FFFFF080"," "," ","1","&#10004","[1289.7000000029802]","1","0","0","","","","","","","",""
"pit-trial","10","133971","0.0-2.0-4.2-0.2","battery-v0.2","","""event"",""trial"",""time""
""fullscreenenter"",""1"",""2711""
","
","
","""event"",""trial"",""time""
""fullscreenenter"",""1"",""2711""
","
","","","418.40000000596046","","","23","5154","973","&#9784;","elianto","#FFFFF080"," "," ","1","&#10004","[1269.0999999940395]","1","0","0","","","","","","","",""
"pit-trial","11","137201","0.0-2.0-4.3-0.3","battery-v0.2","","""event"",""trial"",""time""
""fullscreenenter"",""1"",""2711""
","
","
","""event"",""trial"",""time""
""fullscreenenter"",""1"",""2711""
","
","","","359.20000000298023","","","23","5154","973","&#9784;","elianto","#FFFFF080"," "," ","1","&#10004","[1216.6000000089407]","1","0","0","","","","","","","",""
"pit-trial","12","140450","0.0-2.0-4.4-0.4","battery-v0.2","","""event"",""trial"",""time""
""fullscreenenter"",""1"",""2711""
","
","
","""event"",""trial"",""time""
""fullscreenenter"",""1"",""2711""
","
","","","383.20000000298023","","","23","5154","973","&#9784;","elianto","#FFFFF080"," "," ","1","&#10004","[1239.5999999940395]","1","0","0","","","","","","","",""
"pit-instructions","13","160959","0.0-2.0-5.0","battery-v0.2","","""event"",""trial"",""time""
""fullscreenenter"",""1"",""2711""
","
","
","""event"",""trial"",""time""
""fullscreenenter"",""1"",""2711""
","
","","[{""page_index"":0,""viewing_time"":4532.29999999702},{""page_index"":1,""viewing_time"":5631.5999999940395},{""page_index"":2,""viewing_time"":4599.800000011921},{""page_index"":3,""viewing_time"":5728.699999988079}]","20492.79999999702","","","","","","","","","","","","","","","","","","","","","","","",""
"pit-trial","14","165825","0.0-2.0-6.0-0.0","battery-v0.2","","""event"",""trial"",""time""
""fullscreenenter"",""1"",""2711""
","
","
","""event"",""trial"",""time""
""fullscreenenter"",""1"",""2711""
","
","","","-1","","","23","5154","973","&#9854;","elianto","#FFFFF080","-1","-1","1","&#10004","[]","0","0","1","","","","","","","",""
"pit-trial","15","170698","0.0-2.0-6.1-0.1","battery-v0.2","","""event"",""trial"",""time""
""fullscreenenter"",""1"",""2711""
","
","
","""event"",""trial"",""time""
""fullscreenenter"",""1"",""2711""
","
","","","-1","","","23","5154","973","&#9854;","elianto","#FFFFF080","-1","-1","1","&#10004","[]","0","0","1","","","","","","","",""
"pit-trial","16","175568","0.0-2.0-6.2-0.2","battery-v0.2","","""event"",""trial"",""time""
""fullscreenenter"",""1"",""2711""
","
","
","""event"",""trial"",""time""
""fullscreenenter"",""1"",""2711""
","
","","","-1","","","23","5154","973","&#9854;","elianto","#FFFFF080","-1","-1","1","&#10004","[]","0","0","1","","","","","","","",""
"pit-trial","17","180442","0.0-2.0-6.3-0.3","battery-v0.2","","""event"",""trial"",""time""
""fullscreenenter"",""1"",""2711""
","
","
","""event"",""trial"",""time""
""fullscreenenter"",""1"",""2711""
","
","","","-1","","","23","5154","973","&#9854;","elianto","#FFFFF080","-1","-1","1","&#10004","[]","0","0","1","","","","","","","",""
"pit-trial","18","185312","0.0-2.0-6.4-0.4","battery-v0.2","","""event"",""trial"",""time""
""fullscreenenter"",""1"",""2711""
","
","
","""event"",""trial"",""time""
""fullscreenenter"",""1"",""2711""
","
","","","-1","","","23","5154","973","&#9854;","elianto","#FFFFF080","-1","-1","1","&#10004","[]","0","0","1","","","","","","","",""
"pit-instructions","19","296530","0.0-2.0-7.0","battery-v0.2","","""event"",""trial"",""time""
""fullscreenenter"",""1"",""2711""
","
","
","""event"",""trial"",""time""
""fullscreenenter"",""1"",""2711""
","
","","[{""page_index"":0,""viewing_time"":5476.4000000059605},{""page_index"":1,""viewing_time"":6383.9000000059605},{""page_index"":2,""viewing_time"":5587.5},{""page_index"":3,""viewing_time"":5743.899999991059},{""page_index"":4,""viewing_time"":5511.9000000059605},{""page_index"":5,""viewing_time"":5620.0999999940395},{""page_index"":6,""viewing_time"":4508.100000008941},{""page_index"":7,""viewing_time"":7424.0999999940395},{""page_index"":8,""viewing_time"":6588.20000000298},{""page_index"":9,""viewing_time"":6331.79999999702},{""page_index"":10,""viewing_time"":6292.0999999940395},{""page_index"":11,""viewing_time"":4307.4000000059605},{""page_index"":12,""viewing_time"":8127.9000000059605},{""page_index"":13,""viewing_time"":7124.699999988079},{""page_index"":14,""viewing_time"":6859.9000000059605},{""page_index"":15,""viewing_time"":6543.79999999702},{""page_index"":16,""viewing_time"":6168.100000008941},{""page_index"":17,""viewing_time"":6611.399999991059}]","111211.70000000298","","","","","","","","","","","","","","","","","","","","","","","",""
"pit-trial","20","300249","0.0-2.0-8.0-0.0","battery-v0.2","","""event"",""trial"",""time""
""fullscreenenter"",""1"",""2711""
","
","
","""event"",""trial"",""time""
""fullscreenenter"",""1"",""2711""
","
","","","863.2000000029802","","","23","5154","973","&#9776;","elianto","#3366ff99"," "," ","1","+10","[1713.2999999970198]","1","0","1","","","","","","","",""
"pit-trial","21","303810","0.0-2.0-8.0-1.0","battery-v0.2","","""event"",""trial"",""time""
""fullscreenenter"",""1"",""2711""
","
","
","""event"",""trial"",""time""
""fullscreenenter"",""1"",""2711""
","
","","","687.2999999970198","","","23","5154","973","&#9776;","elianto","#3366ff99"," "," ","1","+10","[1545.199999988079]","1","0","1","","","","","","","",""
"pit-trial","22","307298","0.0-2.0-8.0-2.0","battery-v0.2","","""event"",""trial"",""time""
""fullscreenenter"",""1"",""2711""
","
","
","""event"",""trial"",""time""
""fullscreenenter"",""1"",""2711""
","
","","","622.5","","","23","5154","973","&#9776;","elianto","#3366ff99"," "," ","1","+10","[1474.7999999970198]","1","0","1","","","","","","","",""
"pit-trial","23","310793","0.0-2.0-8.0-3.0","battery-v0.2","","""event"",""trial"",""time""
""fullscreenenter"",""1"",""2711""
","
","
","""event"",""trial"",""time""
""fullscreenenter"",""1"",""2711""
","
","","","630.1999999880791","","","23","5154","973","&#9776;","elianto","#3366ff99"," "," ","1","0","[1483.7999999970198]","1","0","1","","","","","","","",""
"pit-trial","24","314361","0.0-2.0-8.0-4.0","battery-v0.2","","""event"",""trial"",""time""
""fullscreenenter"",""1"",""2711""
","
","
","""event"",""trial"",""time""
""fullscreenenter"",""1"",""2711""
","
","","","705.8999999910593","","","23","5154","973","&#9776;","elianto","#3366ff99"," "," ","1","+10","[1557.3999999910593]","1","0","1","","","","","","","",""
"pit-trial","25","317889","0.0-2.0-8.1-0.1","battery-v0.2","","""event"",""trial"",""time""
""fullscreenenter"",""1"",""2711""
","
","
","""event"",""trial"",""time""
""fullscreenenter"",""1"",""2711""
","
","","","664.5999999940395","","","23","5154","973","&#9776;","elianto","#3366ff99"," "," ","1","+10","[1514.7000000029802]","1","0","1","","","","","","","",""
"pit-trial","26","321330","0.0-2.0-8.1-1.1","battery-v0.2","","""event"",""trial"",""time""
""fullscreenenter"",""1"",""2711""
","
","
","""event"",""trial"",""time""
""fullscreenenter"",""1"",""2711""
","
","","","574.1000000089407","","","23","5154","973","&#9776;","elianto","#3366ff99"," "," ","1","+10","[1429.2999999970198]","1","0","1","","","","","","","",""
"pit-trial","27","324730","0.0-2.0-8.1-2.1","battery-v0.2","","""event"",""trial"",""time""
""fullscreenenter"",""1"",""2711""
","
","
","""event"",""trial"",""time""
""fullscreenenter"",""1"",""2711""
","
","","","539.9000000059605","","","23","5154","973","&#9776;","elianto","#3366ff99"," "," ","1","+10","[1391.7000000029802]","1","0","1","","","","","","","",""
"pit-trial","28","328016","0.0-2.0-8.1-3.1","battery-v0.2","","""event"",""trial"",""time""
""fullscreenenter"",""1"",""2711""
","
","
","""event"",""trial"",""time""
""fullscreenenter"",""1"",""2711""
","
","","","423.29999999701977","","","23","5154","973","&#9776;","elianto","#3366ff99"," "," ","1","0","[1275.199999988079]","1","0","1","","","","","","","",""
"pit-trial","29","331329","0.0-2.0-8.1-4.1","battery-v0.2","","""event"",""trial"",""time""
""fullscreenenter"",""1"",""2711""
","
","
","""event"",""trial"",""time""
""fullscreenenter"",""1"",""2711""
","
","","","448.6000000089407","","","23","5154","973","&#9776;","elianto","#3366ff99"," "," ","1","+10","[1300.9000000059605]","1","0","1","","","","","","","",""
"pit-trial","30","334633","0.0-2.0-8.2-0.2","battery-v0.2","","""event"",""trial"",""time""
""fullscreenenter"",""1"",""2711""
","
","
","""event"",""trial"",""time""
""fullscreenenter"",""1"",""2711""
","
","","","439.59999999403954","","","23","5154","973","&#9776;","elianto","#3366ff99"," "," ","1","+10","[1291.7999999970198]","1","0","1","","","","","","","",""
"pit-trial","31","338121","0.0-2.0-8.2-1.2","battery-v0.2","","""event"",""trial"",""time""
""fullscreenenter"",""1"",""2711""
","
","
","""event"",""trial"",""time""
""fullscreenenter"",""1"",""2711""
","
","","","627.3999999910593","","","23","5154","973","&#9776;","elianto","#3366ff99"," "," ","1","+10","[1477.5999999940395]","1","0","1","","","","","","","",""
"pit-trial","32","341521","0.0-2.0-8.2-2.2","battery-v0.2","","""event"",""trial"",""time""
""fullscreenenter"",""1"",""2711""
","
","
","""event"",""trial"",""time""
""fullscreenenter"",""1"",""2711""
","
","","","534.5999999940395","","","23","5154","973","&#9776;","elianto","#3366ff99"," "," ","1","+10","[1389.2999999970198]","1","0","1","","","","","","","",""
"pit-trial","33","344857","0.0-2.0-8.2-3.2","battery-v0.2","","""event"",""trial"",""time""
""fullscreenenter"",""1"",""2711""
","
","
","""event"",""trial"",""time""
""fullscreenenter"",""1"",""2711""
","
","","","472.90000000596046","","","23","5154","973","&#9776;","elianto","#3366ff99"," "," ","1","0","[1323.9000000059605]","1","0","1","","","","","","","",""
"pit-trial","34","348208","0.0-2.0-8.2-4.2","battery-v0.2","","""event"",""trial"",""time""
""fullscreenenter"",""1"",""2711""
","
","
","""event"",""trial"",""time""
""fullscreenenter"",""1"",""2711""
","
","","","490.8999999910593","","","23","5154","973","&#9776;","elianto","#3366ff99"," "," ","1","+10","[1341.0999999940395]","1","0","1","","","","","","","",""
"call-function","35","348220","0.0-2.0-9.0","battery-v0.2","","""event"",""trial"",""time""
""fullscreenenter"",""1"",""2711""
","
","
","""event"",""trial"",""time""
""fullscreenenter"",""1"",""2711""
","
","","","","","","","","","","","","","","","","","","","","","","","","","","",""
"pit-instructions","36","387034","0.0-2.0-10.0","battery-v0.2","","""event"",""trial"",""time""
""fullscreenenter"",""1"",""2711""
","
","
","""event"",""trial"",""time""
""fullscreenenter"",""1"",""2711""
","
","","[{""page_index"":0,""viewing_time"":5992.100000008941},{""page_index"":1,""viewing_time"":6995.5999999940395},{""page_index"":2,""viewing_time"":10015.79999999702},{""page_index"":3,""viewing_time"":8688.40000000596},{""page_index"":4,""viewing_time"":7119.70000000298}]","38812","","","","","","","","","","","","","","","","","","","","","","","",""
"pit-trial","37","390418","0.0-2.0-11.0-0.0","battery-v0.2","","""event"",""trial"",""time""
""fullscreenenter"",""1"",""2711""
","
","
","""event"",""trial"",""time""
""fullscreenenter"",""1"",""2711""
","
","","","525.0999999940395","","","23","5154","973","&#9761;","elianto","#3366ff99","-1"," ","0","0","[1377.4000000059605]","1","0","2","","","","","","","",""
"pit-trial","38","393763","0.0-2.0-11.0-1.0","battery-v0.2","","""event"",""trial"",""time""
""fullscreenenter"",""1"",""2711""
","
","
","""event"",""trial"",""time""
""fullscreenenter"",""1"",""2711""
","
","","","475.70000000298023","","","23","5154","973","&#9761;","elianto","#3366ff99","-1"," ","0","0","[1331.2000000029802]","1","0","2","","","","","","","",""
"pit-trial","39","398634","0.0-2.0-11.0-2.0","battery-v0.2","","""event"",""trial"",""time""
""fullscreenenter"",""1"",""2711""
","
","
","""event"",""trial"",""time""
""fullscreenenter"",""1"",""2711""
","
","","","-1","","","23","5154","973","&#9761;","elianto","#3366ff99","-1","-1","1","+10","[]","0","0","2","","","","","","","",""
"pit-trial","40","403506","0.0-2.0-11.0-3.0","battery-v0.2","","""event"",""trial"",""time""
""fullscreenenter"",""1"",""2711""
","
","
","""event"",""trial"",""time""
""fullscreenenter"",""1"",""2711""
","
","","","-1","","","23","5154","973","&#9761;","elianto","#3366ff99","-1","-1","1","0","[]","0","0","2","","","","","","","",""
"pit-trial","41","408378","0.0-2.0-11.0-4.0","battery-v0.2","","""event"",""trial"",""time""
""fullscreenenter"",""1"",""2711""
","
","
","""event"",""trial"",""time""
""fullscreenenter"",""1"",""2711""
","
","","","-1","","","23","5154","973","&#9761;","elianto","#3366ff99","-1","-1","1","+10","[]","0","0","2","","","","","","","",""
"pit-trial","42","413249","0.0-2.0-11.1-0.1","battery-v0.2","","""event"",""trial"",""time""
""fullscreenenter"",""1"",""2711""
","
","
","""event"",""trial"",""time""
""fullscreenenter"",""1"",""2711""
","
","","","-1","","","23","5154","973","&#9761;","elianto","#3366ff99","-1","-1","1","+10","[]","0","0","2","","","","","","","",""
"pit-trial","43","418121","0.0-2.0-11.1-1.1","battery-v0.2","","""event"",""trial"",""time""
""fullscreenenter"",""1"",""2711""
","
","
","""event"",""trial"",""time""
""fullscreenenter"",""1"",""2711""
","
","","","-1","","","23","5154","973","&#9761;","elianto","#3366ff99","-1","-1","1","+10","[]","0","0","2","","","","","","","",""
"pit-trial","44","422994","0.0-2.0-11.1-2.1","battery-v0.2","","""event"",""trial"",""time""
""fullscreenenter"",""1"",""2711""
","
","
","""event"",""trial"",""time""
""fullscreenenter"",""1"",""2711""
","
","","","-1","","","23","5154","973","&#9761;","elianto","#3366ff99","-1","-1","1","+10","[]","0","0","2","","","","","","","",""
"pit-trial","45","427865","0.0-2.0-11.1-3.1","battery-v0.2","","""event"",""trial"",""time""
""fullscreenenter"",""1"",""2711""
","
","
","""event"",""trial"",""time""
""fullscreenenter"",""1"",""2711""
","
","","","-1","","","23","5154","973","&#9761;","elianto","#3366ff99","-1","-1","1","0","[]","0","0","2","","","","","","","",""
"pit-trial","46","432738","0.0-2.0-11.1-4.1","battery-v0.2","","""event"",""trial"",""time""
""fullscreenenter"",""1"",""2711""
","
","
","""event"",""trial"",""time""
""fullscreenenter"",""1"",""2711""
","
","","","-1","","","23","5154","973","&#9761;","elianto","#3366ff99","-1","-1","1","+10","[]","0","0","2","","","","","","","",""
"pit-trial","47","437610","0.0-2.0-11.2-0.2","battery-v0.2","","""event"",""trial"",""time""
""fullscreenenter"",""1"",""2711""
","
","
","""event"",""trial"",""time""
""fullscreenenter"",""1"",""2711""
","
","","","-1","","","23","5154","973","&#9761;","elianto","#3366ff99","-1","-1","1","+10","[]","0","0","2","","","","","","","",""
"pit-trial","48","442483","0.0-2.0-11.2-1.2","battery-v0.2","","""event"",""trial"",""time""
""fullscreenenter"",""1"",""2711""
","
","
","""event"",""trial"",""time""
""fullscreenenter"",""1"",""2711""
","
","","","-1","","","23","5154","973","&#9761;","elianto","#3366ff99","-1","-1","1","+10","[]","0","0","2","","","","","","","",""
"pit-trial","49","447354","0.0-2.0-11.2-2.2","battery-v0.2","","""event"",""trial"",""time""
""fullscreenenter"",""1"",""2711""
","
","
","""event"",""trial"",""time""
""fullscreenenter"",""1"",""2711""
","
","","","-1","","","23","5154","973","&#9761;","elianto","#3366ff99","-1","-1","1","+10","[]","0","0","2","","","","","","","",""
"pit-trial","50","452226","0.0-2.0-11.2-3.2","battery-v0.2","","""event"",""trial"",""time""
""fullscreenenter"",""1"",""2711""
","
","
","""event"",""trial"",""time""
""fullscreenenter"",""1"",""2711""
","
","","","-1","","","23","5154","973","&#9761;","elianto","#3366ff99","-1","-1","1","0","[]","0","0","2","","","","","","","",""
"pit-trial","51","457098","0.0-2.0-11.2-4.2","battery-v0.2","","""event"",""trial"",""time""
""fullscreenenter"",""1"",""2711""
","
","
","""event"",""trial"",""time""
""fullscreenenter"",""1"",""2711""
","
","","","-1","","","23","5154","973","&#9761;","elianto","#3366ff99","-1","-1","1","+10","[]","0","0","2","","","","","","","",""
"pit-trial","52","461977","0.0-2.0-11.3-0.3","battery-v0.2","","""event"",""trial"",""time""
""fullscreenenter"",""1"",""2711""
","
","
","""event"",""trial"",""time""
""fullscreenenter"",""1"",""2711""
","
","","","-1","","","23","5154","973","&#9761;","elianto","#3366ff99","-1","-1","1","+10","[]","0","0","2","","","","","","","",""
"pit-trial","53","466850","0.0-2.0-11.3-1.3","battery-v0.2","","""event"",""trial"",""time""
""fullscreenenter"",""1"",""2711""
","
","
","""event"",""trial"",""time""
""fullscreenenter"",""1"",""2711""
","
","","","-1","","","23","5154","973","&#9761;","elianto","#3366ff99","-1","-1","1","+10","[]","0","0","2","","","","","","","",""
"pit-trial","54","471722","0.0-2.0-11.3-2.3","battery-v0.2","","""event"",""trial"",""time""
""fullscreenenter"",""1"",""2711""
","
","
","""event"",""trial"",""time""
""fullscreenenter"",""1"",""2711""
","
","","","-1","","","23","5154","973","&#9761;","elianto","#3366ff99","-1","-1","1","+10","[]","0","0","2","","","","","","","",""
"pit-trial","55","476593","0.0-2.0-11.3-3.3","battery-v0.2","","""event"",""trial"",""time""
""fullscreenenter"",""1"",""2711""
","
","
","""event"",""trial"",""time""
""fullscreenenter"",""1"",""2711""
","
","","","-1","","","23","5154","973","&#9761;","elianto","#3366ff99","-1","-1","1","0","[]","0","0","2","","","","","","","",""
"pit-trial","56","481466","0.0-2.0-11.3-4.3","battery-v0.2","","""event"",""trial"",""time""
""fullscreenenter"",""1"",""2711""
","
","
","""event"",""trial"",""time""
""fullscreenenter"",""1"",""2711""
","
","","","-1","","","23","5154","973","&#9761;","elianto","#3366ff99","-1","-1","1","+10","[]","0","0","2","","","","","","","",""
"call-function","57","481475","0.0-2.0-12.0","battery-v0.2","","""event"",""trial"",""time""
""fullscreenenter"",""1"",""2711""
","
","
","""event"",""trial"",""time""
""fullscreenenter"",""1"",""2711""
","
","","","","","","","","","","","","","","","","","","","","","","","","","","",""
"pit-instructions","58","515297","0.0-2.0-13.0","battery-v0.2","","""event"",""trial"",""time""
""fullscreenenter"",""1"",""2711""
","
","
","""event"",""trial"",""time""
""fullscreenenter"",""1"",""2711""
","
","","[{""page_index"":0,""viewing_time"":7608.600000008941},{""page_index"":1,""viewing_time"":6736.29999999702},{""page_index"":2,""viewing_time"":4340},{""page_index"":3,""viewing_time"":10407.39999999106},{""page_index"":4,""viewing_time"":4727.9000000059605}]","33820.60000000894","","","","","","","","","","","","","","","","","","","","","","","",""
"pit-trial","59","520161","0.0-2.0-14.0-0.0","battery-v0.2","","""event"",""trial"",""time""
""fullscreenenter"",""1"",""2711""
","
","
","""event"",""trial"",""time""
""fullscreenenter"",""1"",""2711""
","
","","","-1","","","23","5154","973","&#9826;","elianto","#f73b6a7A","-1","-1","1","0","[]","0","0","3","","","","","","","",""
"pit-trial","60","525033","0.0-2.0-14.0-1.0","battery-v0.2","","""event"",""trial"",""time""
""fullscreenenter"",""1"",""2711""
","
","
","""event"",""trial"",""time""
""fullscreenenter"",""1"",""2711""
","
","","","-1","","","23","5154","973","&#9826;","elianto","#f73b6a7A","-1","-1","1","0","[]","0","0","3","","","","","","","",""
"pit-trial","61","529905","0.0-2.0-14.0-2.0","battery-v0.2","","""event"",""trial"",""time""
""fullscreenenter"",""1"",""2711""
","
","
","""event"",""trial"",""time""
""fullscreenenter"",""1"",""2711""
","
","","","-1","","","23","5154","973","&#9826;","elianto","#f73b6a7A","-1","-1","1","0","[]","0","0","3","","","","","","","",""
"pit-trial","62","534777","0.0-2.0-14.0-3.0","battery-v0.2","","""event"",""trial"",""time""
""fullscreenenter"",""1"",""2711""
","
","
","""event"",""trial"",""time""
""fullscreenenter"",""1"",""2711""
","
","","","-1","","","23","5154","973","&#9826;","elianto","#f73b6a7A","-1","-1","1","-10","[]","0","0","3","","","","","","","",""
"pit-trial","63","539650","0.0-2.0-14.0-4.0","battery-v0.2","","""event"",""trial"",""time""
""fullscreenenter"",""1"",""2711""
","
","
","""event"",""trial"",""time""
""fullscreenenter"",""1"",""2711""
","
","","","-1","","","23","5154","973","&#9826;","elianto","#f73b6a7A","-1","-1","1","0","[]","0","0","3","","","","","","","",""
"pit-trial","64","544521","0.0-2.0-14.1-0.1","battery-v0.2","","""event"",""trial"",""time""
""fullscreenenter"",""1"",""2711""
","
","
","""event"",""trial"",""time""
""fullscreenenter"",""1"",""2711""
","
","","","-1","","","23","5154","973","&#9826;","elianto","#f73b6a7A","-1","-1","1","0","[]","0","0","3","","","","","","","",""
"pit-trial","65","549394","0.0-2.0-14.1-1.1","battery-v0.2","","""event"",""trial"",""time""
""fullscreenenter"",""1"",""2711""
","
","
","""event"",""trial"",""time""
""fullscreenenter"",""1"",""2711""
","
","","","-1","","","23","5154","973","&#9826;","elianto","#f73b6a7A","-1","-1","1","0","[]","0","0","3","","","","","","","",""
"pit-trial","66","554265","0.0-2.0-14.1-2.1","battery-v0.2","","""event"",""trial"",""time""
""fullscreenenter"",""1"",""2711""
","
","
","""event"",""trial"",""time""
""fullscreenenter"",""1"",""2711""
","
","","","-1","","","23","5154","973","&#9826;","elianto","#f73b6a7A","-1","-1","1","0","[]","0","0","3","","","","","","","",""
"pit-trial","67","559137","0.0-2.0-14.1-3.1","battery-v0.2","","""event"",""trial"",""time""
""fullscreenenter"",""1"",""2711""
","
","
","""event"",""trial"",""time""
""fullscreenenter"",""1"",""2711""
","
","","","-1","","","23","5154","973","&#9826;","elianto","#f73b6a7A","-1","-1","1","-10","[]","0","0","3","","","","","","","",""
"pit-trial","68","564010","0.0-2.0-14.1-4.1","battery-v0.2","","""event"",""trial"",""time""
""fullscreenenter"",""1"",""2711""
","
","
","""event"",""trial"",""time""
""fullscreenenter"",""1"",""2711""
","
","","","-1","","","23","5154","973","&#9826;","elianto","#f73b6a7A","-1","-1","1","0","[]","0","0","3","","","","","","","",""
"pit-trial","69","568881","0.0-2.0-14.2-0.2","battery-v0.2","","""event"",""trial"",""time""
""fullscreenenter"",""1"",""2711""
","
","
","""event"",""trial"",""time""
""fullscreenenter"",""1"",""2711""
","
","","","-1","","","23","5154","973","&#9826;","elianto","#f73b6a7A","-1","-1","1","0","[]","0","0","3","","","","","","","",""
"pit-trial","70","573754","0.0-2.0-14.2-1.2","battery-v0.2","","""event"",""trial"",""time""
""fullscreenenter"",""1"",""2711""
","
","
","""event"",""trial"",""time""
""fullscreenenter"",""1"",""2711""
","
","","","-1","","","23","5154","973","&#9826;","elianto","#f73b6a7A","-1","-1","1","0","[]","0","0","3","","","","","","","",""
"pit-trial","71","578626","0.0-2.0-14.2-2.2","battery-v0.2","","""event"",""trial"",""time""
""fullscreenenter"",""1"",""2711""
","
","
","""event"",""trial"",""time""
""fullscreenenter"",""1"",""2711""
","
","","","-1","","","23","5154","973","&#9826;","elianto","#f73b6a7A","-1","-1","1","0","[]","0","0","3","","","","","","","",""
"pit-trial","72","583498","0.0-2.0-14.2-3.2","battery-v0.2","","""event"",""trial"",""time""
""fullscreenenter"",""1"",""2711""
","
","
","""event"",""trial"",""time""
""fullscreenenter"",""1"",""2711""
","
","","","-1","","","23","5154","973","&#9826;","elianto","#f73b6a7A","-1","-1","1","-10","[]","0","0","3","","","","","","","",""
"pit-trial","73","588371","0.0-2.0-14.2-4.2","battery-v0.2","","""event"",""trial"",""time""
""fullscreenenter"",""1"",""2711""
","
","
","""event"",""trial"",""time""
""fullscreenenter"",""1"",""2711""
","
","","","-1","","","23","5154","973","&#9826;","elianto","#f73b6a7A","-1","-1","1","0","[]","0","0","3","","","","","","","",""
"pit-trial","74","593241","0.0-2.0-14.3-0.3","battery-v0.2","","""event"",""trial"",""time""
""fullscreenenter"",""1"",""2711""
","
","
","""event"",""trial"",""time""
""fullscreenenter"",""1"",""2711""
","
","","","-1","","","23","5154","973","&#9826;","elianto","#f73b6a7A","-1","-1","1","0","[]","0","0","3","","","","","","","",""
"pit-trial","75","598114","0.0-2.0-14.3-1.3","battery-v0.2","","""event"",""trial"",""time""
""fullscreenenter"",""1"",""2711""
","
","
","""event"",""trial"",""time""
""fullscreenenter"",""1"",""2711""
","
","","","-1","","","23","5154","973","&#9826;","elianto","#f73b6a7A","-1","-1","1","0","[]","0","0","3","","","","","","","",""
"pit-trial","76","602985","0.0-2.0-14.3-2.3","battery-v0.2","","""event"",""trial"",""time""
""fullscreenenter"",""1"",""2711""
","
","
","""event"",""trial"",""time""
""fullscreenenter"",""1"",""2711""
","
","","","-1","","","23","5154","973","&#9826;","elianto","#f73b6a7A","-1","-1","1","0","[]","0","0","3","","","","","","","",""
"pit-trial","77","607858","0.0-2.0-14.3-3.3","battery-v0.2","","""event"",""trial"",""time""
""fullscreenenter"",""1"",""2711""
","
","
","""event"",""trial"",""time""
""fullscreenenter"",""1"",""2711""
","
","","","-1","","","23","5154","973","&#9826;","elianto","#f73b6a7A","-1","-1","1","-10","[]","0","0","3","","","","","","","",""
"pit-trial","78","612729","0.0-2.0-14.3-4.3","battery-v0.2","","""event"",""trial"",""time""
""fullscreenenter"",""1"",""2711""
","
","
","""event"",""trial"",""time""
""fullscreenenter"",""1"",""2711""
","
","","","-1","","","23","5154","973","&#9826;","elianto","#f73b6a7A","-1","-1","1","0","[]","0","0","3","","","","","","","",""
"call-function","79","612740","0.0-2.0-15.0","battery-v0.2","","""event"",""trial"",""time""
""fullscreenenter"",""1"",""2711""
","
","
","""event"",""trial"",""time""
""fullscreenenter"",""1"",""2711""
","
","","","","","","","","","","","","","","","","","","","","","","","","","","",""
"pit-instructions","80","637033","0.0-2.0-16.0","battery-v0.2","","""event"",""trial"",""time""
""fullscreenenter"",""1"",""2711""
","
","
","""event"",""trial"",""time""
""fullscreenenter"",""1"",""2711""
","
","","[{""page_index"":0,""viewing_time"":6462.9000000059605},{""page_index"":1,""viewing_time"":8619.79999999702},{""page_index"":2,""viewing_time"":4064.2999999970198},{""page_index"":3,""viewing_time"":5144.0999999940395}]","24291.5","","","","","","","","","","","","","","","","","","","","","","","",""
"pit-trial","81","640793","0.0-2.0-17.0-0.0","battery-v0.2","","""event"",""trial"",""time""
""fullscreenenter"",""1"",""2711""
","
","
","""event"",""trial"",""time""
""fullscreenenter"",""1"",""2711""
","
","","","902.2000000029802","","","23","5154","973","&#9789;","elianto","#f73b6a7A"," "," ","1","0","[1753.3999999910593]","1","0","4","","","","","","","",""
"pit-trial","82","644122","0.0-2.0-17.0-1.0","battery-v0.2","","""event"",""trial"",""time""
""fullscreenenter"",""1"",""2711""
","
","
","""event"",""trial"",""time""
""fullscreenenter"",""1"",""2711""
","
","","","459.79999999701977","","","23","5154","973","&#9789;","elianto","#f73b6a7A"," "," ","1","0","[1313.3999999910593]","1","0","4","","","","","","","",""
"pit-trial","83","647426","0.0-2.0-17.0-2.0","battery-v0.2","","""event"",""trial"",""time""
""fullscreenenter"",""1"",""2711""
","
","
","""event"",""trial"",""time""
""fullscreenenter"",""1"",""2711""
","
","","","436.59999999403954","","","23","5154","973","&#9789;","elianto","#f73b6a7A"," "," ","1","0","[1289.7000000029802]","1","0","4","","","","","","","",""
"pit-trial","84","650642","0.0-2.0-17.0-3.0","battery-v0.2","","""event"",""trial"",""time""
""fullscreenenter"",""1"",""2711""
","
","
","""event"",""trial"",""time""
""fullscreenenter"",""1"",""2711""
","
","","","349.20000000298023","","","23","5154","973","&#9789;","elianto","#f73b6a7A"," "," ","1","-10","[1203.4000000059605]","1","0","4","","","","","","","",""
"pit-trial","85","653825","0.0-2.0-17.0-4.0","battery-v0.2","","""event"",""trial"",""time""
""fullscreenenter"",""1"",""2711""
","
","
","""event"",""trial"",""time""
""fullscreenenter"",""1"",""2711""
","
","","","315.69999998807907","","","23","5154","973","&#9789;","elianto","#f73b6a7A"," "," ","1","0","[1170.2000000029802]","1","0","4","","","","","","","",""
"pit-trial","86","657177","0.0-2.0-17.1-0.1","battery-v0.2","","""event"",""trial"",""time""
""fullscreenenter"",""1"",""2711""
","
","
","""event"",""trial"",""time""
""fullscreenenter"",""1"",""2711""
","
","","","485.1000000089407","","","23","5154","973","&#9789;","elianto","#f73b6a7A"," "," ","1","0","[1340.2999999970198]","1","0","4","","","","","","","",""
"pit-trial","87","660376","0.0-2.0-17.1-1.1","battery-v0.2","","""event"",""trial"",""time""
""fullscreenenter"",""1"",""2711""
","
","
","""event"",""trial"",""time""
""fullscreenenter"",""1"",""2711""
","
","","","331.70000000298023","","","23","5154","973","&#9789;","elianto","#f73b6a7A"," "," ","1","0","[1185.8999999910593]","1","0","4","","","","","","","",""
"pit-trial","88","663480","0.0-2.0-17.1-2.1","battery-v0.2","","""event"",""trial"",""time""
""fullscreenenter"",""1"",""2711""
","
","
","""event"",""trial"",""time""
""fullscreenenter"",""1"",""2711""
","
","","","246.90000000596046","","","23","5154","973","&#9789;","elianto","#f73b6a7A"," "," ","1","0","[1098.3999999910593]","1","0","4","","","","","","","",""
"pit-trial","89","666714","0.0-2.0-17.1-3.1","battery-v0.2","","""event"",""trial"",""time""
""fullscreenenter"",""1"",""2711""
","
","
","""event"",""trial"",""time""
""fullscreenenter"",""1"",""2711""
","
","","","371.59999999403954","","","23","5154","973","&#9789;","elianto","#f73b6a7A"," "," ","1","-10","[1224]","1","0","4","","","","","","","",""
"pit-trial","90","669985","0.0-2.0-17.1-4.1","battery-v0.2","","""event"",""trial"",""time""
""fullscreenenter"",""1"",""2711""
","
","
","""event"",""trial"",""time""
""fullscreenenter"",""1"",""2711""
","
","","","404.79999999701977","","","23","5154","973","&#9789;","elianto","#f73b6a7A"," "," ","1","0","[1257.9000000059605]","1","0","4","","","","","","","",""
"pit-trial","91","673353","0.0-2.0-17.2-0.2","battery-v0.2","","""event"",""trial"",""time""
""fullscreenenter"",""1"",""2711""
","
","
","""event"",""trial"",""time""
""fullscreenenter"",""1"",""2711""
","
","","","499.20000000298023","","","23","5154","973","&#9789;","elianto","#f73b6a7A"," "," ","1","0","[1353.2999999970198]","1","0","4","","","","","","","",""
"pit-trial","92","676617","0.0-2.0-17.2-1.2","battery-v0.2","","""event"",""trial"",""time""
""fullscreenenter"",""1"",""2711""
","
","
","""event"",""trial"",""time""
""fullscreenenter"",""1"",""2711""
","
","","","400.09999999403954","","","23","5154","973","&#9789;","elianto","#f73b6a7A"," "," ","1","0","[1254.199999988079]","1","0","4","","","","","","","",""
"pit-trial","93","679817","0.0-2.0-17.2-2.2","battery-v0.2","","""event"",""trial"",""time""
""fullscreenenter"",""1"",""2711""
","
","
","""event"",""trial"",""time""
""fullscreenenter"",""1"",""2711""
","
","","","340.90000000596046","","","23","5154","973","&#9789;","elianto","#f73b6a7A"," "," ","1","0","[1192.7000000029802]","1","0","4","","","","","","","",""
"pit-trial","94","683008","0.0-2.0-17.2-3.2","battery-v0.2","","""event"",""trial"",""time""
""fullscreenenter"",""1"",""2711""
","
","
","""event"",""trial"",""time""
""fullscreenenter"",""1"",""2711""
","
","","","324.90000000596046","","","23","5154","973","&#9789;","elianto","#f73b6a7A"," "," ","1","-10","[1181.800000011921]","1","0","4","","","","","","","",""
"pit-trial","95","686289","0.0-2.0-17.2-4.2","battery-v0.2","","""event"",""trial"",""time""
""fullscreenenter"",""1"",""2711""
","
","
","""event"",""trial"",""time""
""fullscreenenter"",""1"",""2711""
","
","","","413.5","","","23","5154","973","&#9789;","elianto","#f73b6a7A"," "," ","1","0","[1267.3999999910593]","1","0","4","","","","","","","",""
"pit-trial","96","689465","0.0-2.0-17.3-0.3","battery-v0.2","","""event"",""trial"",""time""
""fullscreenenter"",""1"",""2711""
","
","
","""event"",""trial"",""time""
""fullscreenenter"",""1"",""2711""
","
","","","307.79999999701977","","","23","5154","973","&#9789;","elianto","#f73b6a7A"," "," ","1","0","[1159.7000000029802]","1","0","4","","","","","","","",""
"pit-trial","97","692729","0.0-2.0-17.3-1.3","battery-v0.2","","""event"",""trial"",""time""
""fullscreenenter"",""1"",""2711""
","
","
","""event"",""trial"",""time""
""fullscreenenter"",""1"",""2711""
","
","","","396.20000000298023","","","23","5154","973","&#9789;","elianto","#f73b6a7A"," "," ","1","0","[1250.8999999910593]","1","0","4","","","","","","","",""
"pit-trial","98","696017","0.0-2.0-17.3-2.3","battery-v0.2","","""event"",""trial"",""time""
""fullscreenenter"",""1"",""2711""
","
","
","""event"",""trial"",""time""
""fullscreenenter"",""1"",""2711""
","
","","","421","","","23","5154","973","&#9789;","elianto","#f73b6a7A"," "," ","1","0","[1274.300000011921]","1","0","4","","","","","","","",""
"pit-trial","99","699217","0.0-2.0-17.3-3.3","battery-v0.2","","""event"",""trial"",""time""
""fullscreenenter"",""1"",""2711""
","
","
","""event"",""trial"",""time""
""fullscreenenter"",""1"",""2711""
","
","","","332.20000000298023","","","23","5154","973","&#9789;","elianto","#f73b6a7A"," "," ","1","-10","[1186.2000000029802]","1","0","4","","","","","","","",""
"pit-trial","100","702313","0.0-2.0-17.3-4.3","battery-v0.2","","""event"",""trial"",""time""
""fullscreenenter"",""1"",""2711""
","
","
","""event"",""trial"",""time""
""fullscreenenter"",""1"",""2711""
","
","","","227.5","","","23","5154","973","&#9789;","elianto","#f73b6a7A"," "," ","1","0","[1081.8999999910593]","1","0","4","","","","","","","",""
"call-function","101","702325","0.0-2.0-18.0","battery-v0.2","","""event"",""trial"",""time""
""fullscreenenter"",""1"",""2711""
","
","
","""event"",""trial"",""time""
""fullscreenenter"",""1"",""2711""
","
","","","","","","","","","","","","","","","","","","","","","","","","","","",""
"pit-instructions","102","779844","0.0-2.0-19.0","battery-v0.2","","""event"",""trial"",""time""
""fullscreenenter"",""1"",""2711""
","
","
","""event"",""trial"",""time""
""fullscreenenter"",""1"",""2711""
","
","","[{""page_index"":0,""viewing_time"":7277.800000011921},{""page_index"":1,""viewing_time"":7623.899999991059},{""page_index"":2,""viewing_time"":17176},{""page_index"":3,""viewing_time"":8991.90000000596},{""page_index"":4,""viewing_time"":8692.09999999404},{""page_index"":5,""viewing_time"":8807.79999999702},{""page_index"":6,""viewing_time"":9591.90000000596},{""page_index"":7,""viewing_time"":5743.5999999940395},{""page_index"":8,""viewing_time"":3612.300000011921}]","77517.80000001192","","","","","","","","","","","","","","","","","","","","","","","",""
"pit-comprehension","103","784405","0.0-2.0-20.0-0.0","battery-v0.2","","""event"",""trial"",""time""
""fullscreenenter"",""1"",""2711""
","
","
","""event"",""trial"",""time""
""fullscreenenter"",""1"",""2711""
","
","","","4555.79999999702","[""SPACE""]","0","23","5154","973","","","","","","","","","","","","","","","","","","",""
"pit-instructions","104","787968","0.0-2.0-20.0-1.0","battery-v0.2","","""event"",""trial"",""time""
""fullscreenenter"",""1"",""2711""
","
","
","""event"",""trial"",""time""
""fullscreenenter"",""1"",""2711""
","
","","[{""page_index"":0,""viewing_time"":3512.2000000029802}]","3512.6000000089407","","","","","","","","","","","","","","","","","","","","","","","",""
"pit-comprehension","105","793649","0.0-2.0-21.0-0.0","battery-v0.2","","""event"",""trial"",""time""
""fullscreenenter"",""1"",""2711""
","
","
","""event"",""trial"",""time""
""fullscreenenter"",""1"",""2711""
","
","","","5676.29999999702","[""10""]","0","23","5154","973","","","","","","","","","","","","","","","","","","",""
"pit-instructions","106","796152","0.0-2.0-21.0-1.0","battery-v0.2","","""event"",""trial"",""time""
""fullscreenenter"",""1"",""2711""
","
","
","""event"",""trial"",""time""
""fullscreenenter"",""1"",""2711""
","
","","[{""page_index"":0,""viewing_time"":2448.2999999970198}]","2448.5999999940395","","","","","","","","","","","","","","","","","","","","","","","",""
"pit-comprehension","107","802964","0.0-2.0-22.0-0.0","battery-v0.2","","""event"",""trial"",""time""
""fullscreenenter"",""1"",""2711""
","
","
","""event"",""trial"",""time""
""fullscreenenter"",""1"",""2711""
","
","","","6808.4000000059605","[""0""]","0","23","5154","973","","","","","","","","","","","","","","","","","","",""
"pit-instructions","108","804528","0.0-2.0-22.0-1.0","battery-v0.2","","""event"",""trial"",""time""
""fullscreenenter"",""1"",""2711""
","
","
","""event"",""trial"",""time""
""fullscreenenter"",""1"",""2711""
","
","","[{""page_index"":0,""viewing_time"":1516.0999999940395}]","1516.2999999970198","","","","","","","","","","","","","","","","","","","","","","","",""
"pit-comprehension","109","819941","0.0-2.0-23.0-0.0","battery-v0.2","","""event"",""trial"",""time""
""fullscreenenter"",""1"",""2711""
","
","
","""event"",""trial"",""time""
""fullscreenenter"",""1"",""2711""
","
","","","15408.20000000298","[""True""]","0","23","5154","973","","","","","","","","","","","","","","","","","","",""
"pit-instructions","110","821620","0.0-2.0-23.0-1.0","battery-v0.2","","""event"",""trial"",""time""
""fullscreenenter"",""1"",""2711""
","
","
","""event"",""trial"",""time""
""fullscreenenter"",""1"",""2711""
","
","","[{""page_index"":0,""viewing_time"":1631.2000000029802}]","1631.4000000059605","","","","","","","","","","","","","","","","","","","","","","","",""
"pit-comprehension","111","829148","0.0-2.0-24.0-0.0","battery-v0.2","","""event"",""trial"",""time""
""fullscreenenter"",""1"",""2711""
","
","
","""event"",""trial"",""time""
""fullscreenenter"",""1"",""2711""
","
","","","7524.5","[""True""]","0","23","5154","973","","","","","","","","","","","","","","","","","","",""
"pit-instructions","112","830804","0.0-2.0-24.0-1.0","battery-v0.2","","""event"",""trial"",""time""
""fullscreenenter"",""1"",""2711""
","
","
","""event"",""trial"",""time""
""fullscreenenter"",""1"",""2711""
","
","","[{""page_index"":0,""viewing_time"":1606.2999999970198}]","1606.5999999940395","","","","","","","","","","","","","","","","","","","","","","","",""
"pit-comprehension","113","837208","0.0-2.0-25.0-0.0","battery-v0.2","","""event"",""trial"",""time""
""fullscreenenter"",""1"",""2711""
","
","
","""event"",""trial"",""time""
""fullscreenenter"",""1"",""2711""
","
","","","6400.5999999940395","[""True""]","0","23","5154","973","","","","","","","","","","","","","","","","","","",""
"pit-instructions","114","839324","0.0-2.0-25.0-1.0","battery-v0.2","","""event"",""trial"",""time""
""fullscreenenter"",""1"",""2711""
","
","
","""event"",""trial"",""time""
""fullscreenenter"",""1"",""2711""
","
","","[{""page_index"":0,""viewing_time"":2063.4000000059605}]","2063.5999999940395","","","","","","","","","","","","","","","","","","","","","","","",""
"pit-comprehension","115","843924","0.0-2.0-26.0-0.0","battery-v0.2","","""event"",""trial"",""time""
""fullscreenenter"",""1"",""2711""
","
","
","""event"",""trial"",""time""
""fullscreenenter"",""1"",""2711""
","
","","","4596.300000011921","[""False""]","0","23","5154","973","","","","","","","","","","","","","","","","","","",""
"pit-instructions","116","845436","0.0-2.0-26.0-1.0","battery-v0.2","","""event"",""trial"",""time""
""fullscreenenter"",""1"",""2711""
","
","
","""event"",""trial"",""time""
""fullscreenenter"",""1"",""2711""
","
","","[{""page_index"":0,""viewing_time"":1466}]","1466.2999999970198","","","","","","","","","","","","","","","","","","","","","","","",""
"pit-instructions","117","861628","0.0-3.0","battery-v0.2","","""event"",""trial"",""time""
""fullscreenenter"",""1"",""2711""
","
","
","""event"",""trial"",""time""
""fullscreenenter"",""1"",""2711""
","
","","[{""page_index"":0,""viewing_time"":4252},{""page_index"":1,""viewing_time"":5172.4000000059605},{""page_index"":2,""viewing_time"":6763.699999988079}]","16188.40000000596","","","","","","","","","","","","","","","","","","","","","","","",""
"pit-trial","118","865152","0.0-4.0","battery-v0.2","","""event"",""trial"",""time""
""fullscreenenter"",""1"",""2711""
","
","
","""event"",""trial"",""time""
""fullscreenenter"",""1"",""2711""
","
","","","660.9000000059605","","","23","5154","973","&#9733;","elianto","#3366ff99","-1"," ","0","0","[1515.3999999910593]","1","1","","","5154","1","2","2","win","no-go","0"
"pit-trial","119","868674","0.0-5.0","battery-v0.2","","""event"",""trial"",""time""
""fullscreenenter"",""1"",""2711""
","
","
","""event"",""trial"",""time""
""fullscreenenter"",""1"",""2711""
","
","","","652.2999999970198","","","23","5154","973","&#9730;","elianto","#3366ff99"," "," ","1","+10","[1507.5999999940395]","1","1","","","5154","2","1","1","win","go","0"
"pit-trial","120","873546","0.0-6.0","battery-v0.2","","""event"",""trial"",""time""
""fullscreenenter"",""1"",""2711""
","
","
","""event"",""trial"",""time""
""fullscreenenter"",""1"",""2711""
","
","","","-1","","","23","5154","973","&#9728;","elianto","#f73b6a7A","-1","-1","1","0","[]","0","1","","","5154","3","0","4","lose","no-go","0"
"pit-trial","121","878417","0.0-7.0","battery-v0.2","","""event"",""trial"",""time""
""fullscreenenter"",""1"",""2711""
","
","
","""event"",""trial"",""time""
""fullscreenenter"",""1"",""2711""
","
","","","-1","","","23","5154","973","&#9752;","elianto","#f73b6a7A"," ","-1","0","0","[]","0","1","","","5154","4","3","3","lose","go","1"
"pit-trial","122","883289","0.0-8.0","battery-v0.2","","""event"",""trial"",""time""
""fullscreenenter"",""1"",""2711""
","
","
","""event"",""trial"",""time""
""fullscreenenter"",""1"",""2711""
","
","","","-1","","","23","5154","973","&#9728;","elianto","#f73b6a7A","-1","-1","1","0","[]","0","1","","","5154","5","0","4","lose","no-go","0"
"pit-trial","123","888153","0.0-9.0","battery-v0.2","","""event"",""trial"",""time""
""fullscreenenter"",""1"",""2711""
","
","
","""event"",""trial"",""time""
""fullscreenenter"",""1"",""2711""
","
","","","-1","","","23","5154","973","&#9733;","elianto","#3366ff99","-1","-1","1","+10","[]","0","1","","","5154","6","2","2","win","no-go","0"
"pit-trial","124","891850","0.0-10.0","battery-v0.2","","""event"",""trial"",""time""
""fullscreenenter"",""1"",""2711""
","
","
","""event"",""trial"",""time""
""fullscreenenter"",""1"",""2711""
","
","","","832.7000000029802","","","23","5154","973","&#9730;","elianto","#3366ff99"," "," ","1","0","[1682.8999999910593]","1","1","","","5154","7","1","1","win","go","1"
"pit-trial","125","895777","0.0-11.0","battery-v0.2","","""event"",""trial"",""time""
""fullscreenenter"",""1"",""2711""
","
","
","""event"",""trial"",""time""
""fullscreenenter"",""1"",""2711""
","
","","","1059.0999999940395","","","23","5154","973","&#9752;","elianto","#f73b6a7A"," "," ","1","-10","[1913.5]","1","1","","","5154","8","3","3","lose","go","1"
"pit-trial","126","900650","0.0-12.0","battery-v0.2","","""event"",""trial"",""time""
""fullscreenenter"",""1"",""2711""
","
","
","""event"",""trial"",""time""
""fullscreenenter"",""1"",""2711""
","
","","","-1","","","23","5154","973","&#9728;","elianto","#f73b6a7A","-1","-1","1","0","[]","0","1","","","5154","9","0","4","lose","no-go","0"
"pit-trial","127","904209","0.0-13.0","battery-v0.2","","""event"",""trial"",""time""
""fullscreenenter"",""1"",""2711""
","
","
","""event"",""trial"",""time""
""fullscreenenter"",""1"",""2711""
","
","","","693","","","23","5154","973","&#9733;","elianto","#3366ff99","-1"," ","0","0","[1546.7999999970198]","1","1","","","5154","10","2","2","win","no-go","0"
"pit-trial","128","907705","0.0-14.0","battery-v0.2","","""event"",""trial"",""time""
""fullscreenenter"",""1"",""2711""
","
","
","""event"",""trial"",""time""
""fullscreenenter"",""1"",""2711""
","
","","","630.0999999940395","","","23","5154","973","&#9730;","elianto","#3366ff99"," "," ","1","+10","[1482.0999999940395]","1","1","","","5154","11","1","1","win","go","0"
"pit-trial","129","912578","0.0-15.0","battery-v0.2","","""event"",""trial"",""time""
""fullscreenenter"",""1"",""2711""
","
","
","""event"",""trial"",""time""
""fullscreenenter"",""1"",""2711""
","
","","","-1","","","23","5154","973","&#9752;","elianto","#f73b6a7A"," ","-1","0","-10","[]","0","1","","","5154","12","3","3","lose","go","0"
"pit-trial","130","917449","0.0-16.0","battery-v0.2","","""event"",""trial"",""time""
""fullscreenenter"",""1"",""2711""
","
","
","""event"",""trial"",""time""
""fullscreenenter"",""1"",""2711""
","
","","","-1","","","23","5154","973","&#9733;","elianto","#3366ff99","-1","-1","1","+10","[]","0","1","","","5154","13","2","2","win","no-go","0"
"pit-trial","131","922322","0.0-17.0","battery-v0.2","","""event"",""trial"",""time""
""fullscreenenter"",""1"",""2711""
","
","
","""event"",""trial"",""time""
""fullscreenenter"",""1"",""2711""
","
","","","-1","","","23","5154","973","&#9752;","elianto","#f73b6a7A"," ","-1","0","-10","[]","0","1","","","5154","14","3","3","lose","go","0"
"pit-trial","132","927194","0.0-18.0","battery-v0.2","","""event"",""trial"",""time""
""fullscreenenter"",""1"",""2711""
","
","
","""event"",""trial"",""time""
""fullscreenenter"",""1"",""2711""
","
","","","-1","","","23","5154","973","&#9728;","elianto","#f73b6a7A","-1","-1","1","0","[]","0","1","","","5154","15","0","4","lose","no-go","0"
"pit-trial","133","931041","0.0-19.0","battery-v0.2","","""event"",""trial"",""time""
""fullscreenenter"",""1"",""2711""
","
","
","""event"",""trial"",""time""
""fullscreenenter"",""1"",""2711""
","
","","","980.2999999970198","","","23","5154","973","&#9730;","elianto","#3366ff99"," "," ","1","+10","[1834.2999999970198]","1","1","","","5154","16","1","1","win","go","0"
"pit-trial","134","935913","0.0-20.0","battery-v0.2","","""event"",""trial"",""time""
""fullscreenenter"",""1"",""2711""
","
","
","""event"",""trial"",""time""
""fullscreenenter"",""1"",""2711""
","
","","","-1","","","23","5154","973","&#9752;","elianto","#f73b6a7A"," ","-1","0","0","[]","0","1","","","5154","17","3","3","lose","go","1"
"pit-trial","135","940786","0.0-21.0","battery-v0.2","","""event"",""trial"",""time""
""fullscreenenter"",""1"",""2711""
","
","
","""event"",""trial"",""time""
""fullscreenenter"",""1"",""2711""
","
","","","-1","","","23","5154","973","&#9733;","elianto","#3366ff99","-1","-1","1","+10","[]","0","1","","","5154","18","2","2","win","no-go","0"
"pit-trial","136","945658","0.0-22.0","battery-v0.2","","""event"",""trial"",""time""
""fullscreenenter"",""1"",""2711""
","
","
","""event"",""trial"",""time""
""fullscreenenter"",""1"",""2711""
","
","","","-1","","","23","5154","973","&#9728;","elianto","#f73b6a7A","-1","-1","1","-10","[]","0","1","","","5154","19","0","4","lose","no-go","1"
"pit-trial","137","949153","0.0-23.0","battery-v0.2","","""event"",""trial"",""time""
""fullscreenenter"",""1"",""2711""
","
","
","""event"",""trial"",""time""
""fullscreenenter"",""1"",""2711""
","
","","","630.7999999970198","","","23","5154","973","&#9730;","elianto","#3366ff99"," "," ","1","+10","[1482.7000000029802]","1","1","","","5154","20","1","1","win","go","0"
"pit-instructions","138","962016","0.0-24.0","battery-v0.2","","""event"",""trial"",""time""
""fullscreenenter"",""1"",""2711""
","
","
","""event"",""trial"",""time""
""fullscreenenter"",""1"",""2711""
","
","","[{""page_index"":0,""viewing_time"":6131.9000000059605},{""page_index"":1,""viewing_time"":6727.79999999702}]","12860","","","","","","","","","","","","","","","","","","","","","","","",""
"pit-trial","139","966882","0.0-25.0","battery-v0.2","","""event"",""trial"",""time""
""fullscreenenter"",""1"",""2711""
","
","
","""event"",""trial"",""time""
""fullscreenenter"",""1"",""2711""
","
","","","-1","","","23","5154","973","y","elianto","#f73b6a7A"," ","-1","0","-10","[]","0","2","","","5154","21","2","3","lose","go","0"
"pit-trial","140","971754","0.0-26.0","battery-v0.2","","""event"",""trial"",""time""
""fullscreenenter"",""1"",""2711""
","
","
","""event"",""trial"",""time""
""fullscreenenter"",""1"",""2711""
","
","","","-1","","","23","5154","973","m","elianto","#f73b6a7A"," ","-1","0","0","[]","0","2","","","5154","22","0","3","lose","go","1"
"pit-trial","141","975458","0.0-27.0","battery-v0.2","","""event"",""trial"",""time""
""fullscreenenter"",""1"",""2711""
","
","
","""event"",""trial"",""time""
""fullscreenenter"",""1"",""2711""
","
","","","835.2999999970198","","","23","5154","973","r","elianto","#3366ff99","-1"," ","0","0","[1689.0999999940395]","1","2","","","5154","23","1","2","win","no-go","0"
"pit-trial","142","980329","0.0-28.0","battery-v0.2","","""event"",""trial"",""time""
""fullscreenenter"",""1"",""2711""
","
","
","""event"",""trial"",""time""
""fullscreenenter"",""1"",""2711""
","
","","","-1","","","23","5154","973","h","elianto","#f73b6a7A","-1","-1","1","0","[]","0","2","","","5154","24","3","4","lose","no-go","0"
"pit-trial","143","984057","0.0-29.0","battery-v0.2","","""event"",""trial"",""time""
""fullscreenenter"",""1"",""2711""
","
","
","""event"",""trial"",""time""
""fullscreenenter"",""1"",""2711""
","
","","","860.5999999940395","","","23","5154","973","y","elianto","#f73b6a7A"," "," ","1","0","[1712.7999999970198]","1","2","","","5154","25","2","3","lose","go","0"
"pit-trial","144","988929","0.0-30.0","battery-v0.2","","""event"",""trial"",""time""
""fullscreenenter"",""1"",""2711""
","
","
","""event"",""trial"",""time""
""fullscreenenter"",""1"",""2711""
","
","","","-1","","","23","5154","973","h","elianto","#f73b6a7A","-1","-1","1","-10","[]","0","2","","","5154","26","3","4","lose","no-go","1"
"pit-trial","145","993801","0.0-31.0","battery-v0.2","","""event"",""trial"",""time""
""fullscreenenter"",""1"",""2711""
","
","
","""event"",""trial"",""time""
""fullscreenenter"",""1"",""2711""
","
","","","-1","","","23","5154","973","m","elianto","#f73b6a7A"," ","-1","0","-10","[]","0","2","","","5154","27","0","3","lose","go","0"
"pit-trial","146","997850","0.0-32.0","battery-v0.2","","""event"",""trial"",""time""
""fullscreenenter"",""1"",""2711""
","
","
","""event"",""trial"",""time""
""fullscreenenter"",""1"",""2711""
","
","","","1183.6000000089407","","","23","5154","973","r","elianto","#3366ff99","-1"," ","0","+10","[2035]","1","2","","","5154","28","1","2","win","no-go","1"
"pit-trial","147","1001642","0.0-33.0","battery-v0.2","","""event"",""trial"",""time""
""fullscreenenter"",""1"",""2711""
","
","
","""event"",""trial"",""time""
""fullscreenenter"",""1"",""2711""
","
","","","923.7000000029802","","","23","5154","973","r","elianto","#3366ff99","-1"," ","0","0","[1777.7000000029802]","1","2","","","5154","29","1","2","win","no-go","0"
"pit-trial","148","1006001","0.0-34.0","battery-v0.2","","""event"",""trial"",""time""
""fullscreenenter"",""1"",""2711""
","
","
","""event"",""trial"",""time""
""fullscreenenter"",""1"",""2711""
","
","","","1492.5","","","23","5154","973","m","elianto","#f73b6a7A"," "," ","1","0","[2345.5]","1","2","","","5154","30","0","3","lose","go","0"
"pit-trial","149","1009714","0.0-35.0","battery-v0.2","","""event"",""trial"",""time""
""fullscreenenter"",""1"",""2711""
","
","
","""event"",""trial"",""time""
""fullscreenenter"",""1"",""2711""
","
","","","842.3999999910593","","","23","5154","973","y","elianto","#f73b6a7A"," "," ","1","0","[1698.0999999940395]","1","2","","","5154","31","2","3","lose","go","0"
"pit-trial","150","1014586","0.0-36.0","battery-v0.2","","""event"",""trial"",""time""
""fullscreenenter"",""1"",""2711""
","
","
","""event"",""trial"",""time""
""fullscreenenter"",""1"",""2711""
","
","","","-1","","","23","5154","973","h","elianto","#f73b6a7A","-1","-1","1","0","[]","0","2","","","5154","32","3","4","lose","no-go","0"
"pit-trial","151","1018105","0.0-37.0","battery-v0.2","","""event"",""trial"",""time""
""fullscreenenter"",""1"",""2711""
","
","
","""event"",""trial"",""time""
""fullscreenenter"",""1"",""2711""
","
","","","651.4000000059605","","","23","5154","973","m","elianto","#f73b6a7A"," "," ","1","-10","[1505.4000000059605]","1","2","","","5154","33","0","3","lose","go","1"
"pit-trial","152","1021586","0.0-38.0","battery-v0.2","","""event"",""trial"",""time""
""fullscreenenter"",""1"",""2711""
","
","
","""event"",""trial"",""time""
""fullscreenenter"",""1"",""2711""
","
","","","612.2999999970198","","","23","5154","973","y","elianto","#f73b6a7A"," "," ","1","0","[1466.0999999940395]","1","2","","","5154","34","2","3","lose","go","0"
"pit-trial","153","1026458","0.0-39.0","battery-v0.2","","""event"",""trial"",""time""
""fullscreenenter"",""1"",""2711""
","
","
","""event"",""trial"",""time""
""fullscreenenter"",""1"",""2711""
","
","","","-1","","","23","5154","973","h","elianto","#f73b6a7A","-1","-1","1","-10","[]","0","2","","","5154","35","3","4","lose","no-go","1"
"pit-trial","154","1030378","0.0-40.0","battery-v0.2","","""event"",""trial"",""time""
""fullscreenenter"",""1"",""2711""
","
","
","""event"",""trial"",""time""
""fullscreenenter"",""1"",""2711""
","
","","","1051.4000000059605","","","23","5154","973","r","elianto","#3366ff99","-1"," ","0","+10","[1905]","1","2","","","5154","36","1","2","win","no-go","1"
"pit-trial","155","1035249","0.0-41.0","battery-v0.2","","""event"",""trial"",""time""
""fullscreenenter"",""1"",""2711""
","
","
","""event"",""trial"",""time""
""fullscreenenter"",""1"",""2711""
","
","","","-1","","","23","5154","973","h","elianto","#f73b6a7A","-1","-1","1","0","[]","0","2","","","5154","37","3","4","lose","no-go","0"
"pit-trial","156","1038827","0.0-42.0","battery-v0.2","","""event"",""trial"",""time""
""fullscreenenter"",""1"",""2711""
","
","
","""event"",""trial"",""time""
""fullscreenenter"",""1"",""2711""
","
","","","710.3999999910593","","","23","5154","973","r","elianto","#3366ff99","-1"," ","0","0","[1561.9000000059605]","1","2","","","5154","38","1","2","win","no-go","0"
"pit-trial","157","1042345","0.0-43.0","battery-v0.2","","""event"",""trial"",""time""
""fullscreenenter"",""1"",""2711""
","
","
","""event"",""trial"",""time""
""fullscreenenter"",""1"",""2711""
","
","","","647.1000000089407","","","23","5154","973","m","elianto","#f73b6a7A"," "," ","1","-10","[1501.800000011921]","1","2","","","5154","39","0","3","lose","go","1"
"pit-trial","158","1045969","0.0-44.0","battery-v0.2","","""event"",""trial"",""time""
""fullscreenenter"",""1"",""2711""
","
","
","""event"",""trial"",""time""
""fullscreenenter"",""1"",""2711""
","
","","","755.2000000029802","","","23","5154","973","y","elianto","#f73b6a7A"," "," ","1","0","[1610.4000000059605]","1","2","","","5154","40","2","3","lose","go","0"
"pit-trial","159","1049554","0.0-45.0","battery-v0.2","","""event"",""trial"",""time""
""fullscreenenter"",""1"",""2711""
","
","
","""event"",""trial"",""time""
""fullscreenenter"",""1"",""2711""
","
","","","715","","","23","5154","973","r","elianto","#3366ff99","-1"," ","0","0","[1570.2000000029802]","1","2","","","5154","41","1","2","win","no-go","0"
"pit-trial","160","1054426","0.0-46.0","battery-v0.2","","""event"",""trial"",""time""
""fullscreenenter"",""1"",""2711""
","
","
","""event"",""trial"",""time""
""fullscreenenter"",""1"",""2711""
","
","","","-1","","","23","5154","973","m","elianto","#f73b6a7A"," ","-1","0","0","[]","0","2","","","5154","42","0","3","lose","go","1"
"pit-trial","161","1059297","0.0-47.0","battery-v0.2","","""event"",""trial"",""time""
""fullscreenenter"",""1"",""2711""
","
","
","""event"",""trial"",""time""
""fullscreenenter"",""1"",""2711""
","
","","","-1","","","23","5154","973","h","elianto","#f73b6a7A","-1","-1","1","0","[]","0","2","","","5154","43","3","4","lose","no-go","0"
"pit-trial","162","1062802","0.0-48.0","battery-v0.2","","""event"",""trial"",""time""
""fullscreenenter"",""1"",""2711""
","
","
","""event"",""trial"",""time""
""fullscreenenter"",""1"",""2711""
","
","","","635.9000000059605","","","23","5154","973","y","elianto","#f73b6a7A"," "," ","1","-10","[1490.6000000089407]","1","2","","","5154","44","2","3","lose","go","1"
"pit-trial","163","1067674","0.0-49.0","battery-v0.2","","""event"",""trial"",""time""
""fullscreenenter"",""1"",""2711""
","
","
","""event"",""trial"",""time""
""fullscreenenter"",""1"",""2711""
","
","","","-1","","","23","5154","973","r","elianto","#3366ff99","-1","-1","1","+10","[]","0","2","","","5154","45","1","2","win","no-go","0"
"pit-trial","164","1071225","0.0-50.0","battery-v0.2","","""event"",""trial"",""time""
""fullscreenenter"",""1"",""2711""
","
","
","""event"",""trial"",""time""
""fullscreenenter"",""1"",""2711""
","
","","","684.7000000029802","","","23","5154","973","y","elianto","#f73b6a7A"," "," ","1","0","[1537.5]","1","2","","","5154","46","2","3","lose","go","0"
"pit-trial","165","1076097","0.0-51.0","battery-v0.2","","""event"",""trial"",""time""
""fullscreenenter"",""1"",""2711""
","
","
","""event"",""trial"",""time""
""fullscreenenter"",""1"",""2711""
","
","","","-1","","","23","5154","973","h","elianto","#f73b6a7A","-1","-1","1","0","[]","0","2","","","5154","47","3","4","lose","no-go","0"
"pit-trial","166","1080969","0.0-52.0","battery-v0.2","","""event"",""trial"",""time""
""fullscreenenter"",""1"",""2711""
","
","
","""event"",""trial"",""time""
""fullscreenenter"",""1"",""2711""
","
","","","-1","","","23","5154","973","m","elianto","#f73b6a7A"," ","-1","0","-10","[]","0","2","","","5154","48","0","3","lose","go","0"
"pit-trial","167","1085842","0.0-53.0","battery-v0.2","","""event"",""trial"",""time""
""fullscreenenter"",""1"",""2711""
","
","
","""event"",""trial"",""time""
""fullscreenenter"",""1"",""2711""
","
","","","-1","","","23","5154","973","m","elianto","#f73b6a7A"," ","-1","0","-10","[]","0","2","","","5154","49","0","3","lose","go","0"
"pit-trial","168","1089954","0.0-54.0","battery-v0.2","","""event"",""trial"",""time""
""fullscreenenter"",""1"",""2711""
","
","
","""event"",""trial"",""time""
""fullscreenenter"",""1"",""2711""
","
","","","1244.2000000029802","","","23","5154","973","r","elianto","#3366ff99","-1"," ","0","+10","[2095.7000000029802]","1","2","","","5154","50","1","2","win","no-go","1"
"pit-trial","169","1093633","0.0-55.0","battery-v0.2","","""event"",""trial"",""time""
""fullscreenenter"",""1"",""2711""
","
","
","""event"",""trial"",""time""
""fullscreenenter"",""1"",""2711""
","
","","","811.3999999910593","","","23","5154","973","y","elianto","#f73b6a7A"," "," ","1","0","[1665]","1","2","","","5154","51","2","3","lose","go","0"
"pit-trial","170","1098505","0.0-56.0","battery-v0.2","","""event"",""trial"",""time""
""fullscreenenter"",""1"",""2711""
","
","
","""event"",""trial"",""time""
""fullscreenenter"",""1"",""2711""
","
","","","-1","","","23","5154","973","h","elianto","#f73b6a7A","-1","-1","1","-10","[]","0","2","","","5154","52","3","4","lose","no-go","1"
"pit-trial","171","1102082","0.0-57.0","battery-v0.2","","""event"",""trial"",""time""
""fullscreenenter"",""1"",""2711""
","
","
","""event"",""trial"",""time""
""fullscreenenter"",""1"",""2711""
","
","","","710.6999999880791","","","23","5154","973","y","elianto","#f73b6a7A"," "," ","1","0","[1562.5999999940395]","1","2","","","5154","53","2","3","lose","go","0"
"pit-trial","172","1105738","0.0-58.0","battery-v0.2","","""event"",""trial"",""time""
""fullscreenenter"",""1"",""2711""
","
","
","""event"",""trial"",""time""
""fullscreenenter"",""1"",""2711""
","
","","","786.4000000059605","","","23","5154","973","r","elianto","#3366ff99","-1"," ","0","0","[1639.1000000089407]","1","2","","","5154","54","1","2","win","no-go","0"
"pit-trial","173","1110609","0.0-59.0","battery-v0.2","","""event"",""trial"",""time""
""fullscreenenter"",""1"",""2711""
","
","
","""event"",""trial"",""time""
""fullscreenenter"",""1"",""2711""
","
","","","-1","","","23","5154","973","h","elianto","#f73b6a7A","-1","-1","1","-10","[]","0","2","","","5154","55","3","4","lose","no-go","1"
"pit-trial","174","1114234","0.0-60.0","battery-v0.2","","""event"",""trial"",""time""
""fullscreenenter"",""1"",""2711""
","
","
","""event"",""trial"",""time""
""fullscreenenter"",""1"",""2711""
","
","","","752.2999999970198","","","23","5154","973","m","elianto","#f73b6a7A"," "," ","1","-10","[1616.2999999970198]","1","2","","","5154","56","0","3","lose","go","1"
"pit-trial","175","1119106","0.0-61.0","battery-v0.2","","""event"",""trial"",""time""
""fullscreenenter"",""1"",""2711""
","
","
","""event"",""trial"",""time""
""fullscreenenter"",""1"",""2711""
","
","","","-1","","","23","5154","973","h","elianto","#f73b6a7A","-1","-1","1","0","[]","0","2","","","5154","57","3","4","lose","no-go","0"
"pit-trial","176","1122593","0.0-62.0","battery-v0.2","","""event"",""trial"",""time""
""fullscreenenter"",""1"",""2711""
","
","
","""event"",""trial"",""time""
""fullscreenenter"",""1"",""2711""
","
","","","621.0999999940395","","","23","5154","973","y","elianto","#f73b6a7A"," "," ","1","0","[1472.8999999910593]","1","2","","","5154","58","2","3","lose","go","0"
"pit-trial","177","1127466","0.0-63.0","battery-v0.2","","""event"",""trial"",""time""
""fullscreenenter"",""1"",""2711""
","
","
","""event"",""trial"",""time""
""fullscreenenter"",""1"",""2711""
","
","","","-1","","","23","5154","973","m","elianto","#f73b6a7A"," ","-1","0","-10","[]","0","2","","","5154","59","0","3","lose","go","0"
"pit-trial","178","1131962","0.0-64.0","battery-v0.2","","""event"",""trial"",""time""
""fullscreenenter"",""1"",""2711""
","
","
","""event"",""trial"",""time""
""fullscreenenter"",""1"",""2711""
","
","","","1630.8999999910593","","","23","5154","973","z","elianto","#3366ff99"," "," ","1","+10","[2481]","1","2","","","5154","60","4","1","win","go","0"
"pit-trial","179","1136146","0.0-65.0","battery-v0.2","","""event"",""trial"",""time""
""fullscreenenter"",""1"",""2711""
","
","
","""event"",""trial"",""time""
""fullscreenenter"",""1"",""2711""
","
","","","1315.5","","","23","5154","973","r","elianto","#3366ff99","-1"," ","0","0","[2167.5]","1","2","","","5154","61","1","2","win","no-go","0"
"pit-trial","180","1139953","0.0-66.0","battery-v0.2","","""event"",""trial"",""time""
""fullscreenenter"",""1"",""2711""
","
","
","""event"",""trial"",""time""
""fullscreenenter"",""1"",""2711""
","
","","","939.2999999970198","","","23","5154","973","z","elianto","#3366ff99"," "," ","1","+10","[1791.1000000089407]","1","2","","","5154","62","4","1","win","go","0"
"pit-trial","181","1143697","0.0-67.0","battery-v0.2","","""event"",""trial"",""time""
""fullscreenenter"",""1"",""2711""
","
","
","""event"",""trial"",""time""
""fullscreenenter"",""1"",""2711""
","
","","","880.8999999910593","","","23","5154","973","y","elianto","#f73b6a7A"," "," ","1","0","[1731.5]","1","2","","","5154","63","2","3","lose","go","0"
"pit-trial","182","1148570","0.0-68.0","battery-v0.2","","""event"",""trial"",""time""
""fullscreenenter"",""1"",""2711""
","
","
","""event"",""trial"",""time""
""fullscreenenter"",""1"",""2711""
","
","","","-1","","","23","5154","973","h","elianto","#f73b6a7A","-1","-1","1","0","[]","0","2","","","5154","64","3","4","lose","no-go","0"
"pit-trial","183","1152114","0.0-69.0","battery-v0.2","","""event"",""trial"",""time""
""fullscreenenter"",""1"",""2711""
","
","
","""event"",""trial"",""time""
""fullscreenenter"",""1"",""2711""
","
","","","675.9000000059605","","","23","5154","973","z","elianto","#3366ff99"," "," ","1","+10","[1529.2999999970198]","1","2","","","5154","65","4","1","win","go","0"
"pit-trial","184","1156985","0.0-70.0","battery-v0.2","","""event"",""trial"",""time""
""fullscreenenter"",""1"",""2711""
","
","
","""event"",""trial"",""time""
""fullscreenenter"",""1"",""2711""
","
","","","-1","","","23","5154","973","h","elianto","#f73b6a7A","-1","-1","1","0","[]","0","2","","","5154","66","3","4","lose","no-go","0"
"pit-trial","185","1161857","0.0-71.0","battery-v0.2","","""event"",""trial"",""time""
""fullscreenenter"",""1"",""2711""
","
","
","""event"",""trial"",""time""
""fullscreenenter"",""1"",""2711""
","
","","","-1","","","23","5154","973","r","elianto","#3366ff99","-1","-1","1","+10","[]","0","2","","","5154","67","1","2","win","no-go","0"
"pit-trial","186","1165945","0.0-72.0","battery-v0.2","","""event"",""trial"",""time""
""fullscreenenter"",""1"",""2711""
","
","
","""event"",""trial"",""time""
""fullscreenenter"",""1"",""2711""
","
","","","1219.699999988079","","","23","5154","973","c","elianto","#3366ff99","-1"," ","0","+10","[2073.699999988079]","1","2","","","5154","68","5","2","win","no-go","1"
"pit-trial","187","1170816","0.0-73.0","battery-v0.2","","""event"",""trial"",""time""
""fullscreenenter"",""1"",""2711""
","
","
","""event"",""trial"",""time""
""fullscreenenter"",""1"",""2711""
","
","","","-1","","","23","5154","973","r","elianto","#3366ff99","-1","-1","1","+10","[]","0","2","","","5154","69","1","2","win","no-go","0"
"pit-trial","188","1174602","0.0-74.0","battery-v0.2","","""event"",""trial"",""time""
""fullscreenenter"",""1"",""2711""
","
","
","""event"",""trial"",""time""
""fullscreenenter"",""1"",""2711""
","
","","","914.7000000029802","","","23","5154","973","c","elianto","#3366ff99","-1"," ","0","0","[1772.5999999940395]","1","2","","","5154","70","5","2","win","no-go","0"
"pit-trial","189","1178346","0.0-75.0","battery-v0.2","","""event"",""trial"",""time""
""fullscreenenter"",""1"",""2711""
","
","
","""event"",""trial"",""time""
""fullscreenenter"",""1"",""2711""
","
","","","875.2999999970198","","","23","5154","973","y","elianto","#f73b6a7A"," "," ","1","0","[1729.7000000029802]","1","2","","","5154","71","2","3","lose","go","0"
"pit-trial","190","1182257","0.0-76.0","battery-v0.2","","""event"",""trial"",""time""
""fullscreenenter"",""1"",""2711""
","
","
","""event"",""trial"",""time""
""fullscreenenter"",""1"",""2711""
","
","","","1043.7000000029802","","","23","5154","973","z","elianto","#3366ff99"," "," ","1","0","[1895.7000000029802]","1","2","","","5154","72","4","1","win","go","1"
"pit-trial","191","1187130","0.0-77.0","battery-v0.2","","""event"",""trial"",""time""
""fullscreenenter"",""1"",""2711""
","
","
","""event"",""trial"",""time""
""fullscreenenter"",""1"",""2711""
","
","","","-1","","","23","5154","973","r","elianto","#3366ff99","-1","-1","1","+10","[]","0","2","","","5154","73","1","2","win","no-go","0"
"pit-trial","192","1190921","0.0-78.0","battery-v0.2","","""event"",""trial"",""time""
""fullscreenenter"",""1"",""2711""
","
","
","""event"",""trial"",""time""
""fullscreenenter"",""1"",""2711""
","
","","","922.4000000059605","","","23","5154","973","z","elianto","#3366ff99"," "," ","1","+10","[1776.7000000029802]","1","2","","","5154","74","4","1","win","go","0"
"pit-trial","193","1195792","0.0-79.0","battery-v0.2","","""event"",""trial"",""time""
""fullscreenenter"",""1"",""2711""
","
","
","""event"",""trial"",""time""
""fullscreenenter"",""1"",""2711""
","
","","","-1","","","23","5154","973","h","elianto","#f73b6a7A","-1","-1","1","0","[]","0","2","","","5154","75","3","4","lose","no-go","0"
"pit-trial","194","1199770","0.0-80.0","battery-v0.2","","""event"",""trial"",""time""
""fullscreenenter"",""1"",""2711""
","
","
","""event"",""trial"",""time""
""fullscreenenter"",""1"",""2711""
","
","","","1106.3999999910593","","","23","5154","973","c","elianto","#3366ff99","-1"," ","0","0","[1961.2000000029802]","1","2","","","5154","76","5","2","win","no-go","0"
"pit-trial","195","1203578","0.0-81.0","battery-v0.2","","""event"",""trial"",""time""
""fullscreenenter"",""1"",""2711""
","
","
","""event"",""trial"",""time""
""fullscreenenter"",""1"",""2711""
","
","","","939","","","23","5154","973","z","elianto","#3366ff99"," "," ","1","+10","[1791.2000000029802]","1","2","","","5154","77","4","1","win","go","0"
"pit-trial","196","1208449","0.0-82.0","battery-v0.2","","""event"",""trial"",""time""
""fullscreenenter"",""1"",""2711""
","
","
","""event"",""trial"",""time""
""fullscreenenter"",""1"",""2711""
","
","","","-1","","","23","5154","973","c","elianto","#3366ff99","-1","-1","1","+10","[]","0","2","","","5154","78","5","2","win","no-go","0"
"pit-trial","197","1213321","0.0-83.0","battery-v0.2","","""event"",""trial"",""time""
""fullscreenenter"",""1"",""2711""
","
","
","""event"",""trial"",""time""
""fullscreenenter"",""1"",""2711""
","
","","","-1","","","23","5154","973","h","elianto","#f73b6a7A","-1","-1","1","-10","[]","0","2","","","5154","79","3","4","lose","no-go","1"
"pit-trial","198","1217042","0.0-84.0","battery-v0.2","","""event"",""trial"",""time""
""fullscreenenter"",""1"",""2711""
","
","
","""event"",""trial"",""time""
""fullscreenenter"",""1"",""2711""
","
","","","851.7999999970198","","","23","5154","973","z","elianto","#3366ff99"," "," ","1","+10","[1706.2999999970198]","1","2","","","5154","80","4","1","win","go","0"
"pit-trial","199","1221913","0.0-85.0","battery-v0.2","","""event"",""trial"",""time""
""fullscreenenter"",""1"",""2711""
","
","
","""event"",""trial"",""time""
""fullscreenenter"",""1"",""2711""
","
","","","-1","","","23","5154","973","c","elianto","#3366ff99","-1","-1","1","+10","[]","0","2","","","5154","81","5","2","win","no-go","0"
"pit-trial","200","1226784","0.0-86.0","battery-v0.2","","""event"",""trial"",""time""
""fullscreenenter"",""1"",""2711""
","
","
","""event"",""trial"",""time""
""fullscreenenter"",""1"",""2711""
","
","","","-1","","","23","5154","973","h","elianto","#f73b6a7A","-1","-1","1","-10","[]","0","2","","","5154","82","3","4","lose","no-go","1"
"pit-trial","201","1230937","0.0-87.0","battery-v0.2","","""event"",""trial"",""time""
""fullscreenenter"",""1"",""2711""
","
","
","""event"",""trial"",""time""
""fullscreenenter"",""1"",""2711""
","
","","","1291.6000000089407","","","23","5154","973","t","elianto","#f73b6a7A","-1"," ","0","-10","[2142.9000000059605]","1","2","","","5154","83","7","4","lose","no-go","0"
"pit-trial","202","1234688","0.0-88.0","battery-v0.2","","""event"",""trial"",""time""
""fullscreenenter"",""1"",""2711""
","
","
","""event"",""trial"",""time""
""fullscreenenter"",""1"",""2711""
","
","","","881.6999999880791","","","23","5154","973","z","elianto","#3366ff99"," "," ","1","+10","[1735.9000000059605]","1","2","","","5154","84","4","1","win","go","0"
"pit-trial","203","1239553","0.0-89.0","battery-v0.2","","""event"",""trial"",""time""
""fullscreenenter"",""1"",""2711""
","
","
","""event"",""trial"",""time""
""fullscreenenter"",""1"",""2711""
","
","","","-1","","","23","5154","973","c","elianto","#3366ff99","-1","-1","1","+10","[]","0","2","","","5154","85","5","2","win","no-go","0"
"pit-trial","204","1244426","0.0-90.0","battery-v0.2","","""event"",""trial"",""time""
""fullscreenenter"",""1"",""2711""
","
","
","""event"",""trial"",""time""
""fullscreenenter"",""1"",""2711""
","
","","","-1","","","23","5154","973","t","elianto","#f73b6a7A","-1","-1","1","0","[]","0","2","","","5154","86","7","4","lose","no-go","0"
"pit-trial","205","1249297","0.0-91.0","battery-v0.2","","""event"",""trial"",""time""
""fullscreenenter"",""1"",""2711""
","
","
","""event"",""trial"",""time""
""fullscreenenter"",""1"",""2711""
","
","","","-1","","","23","5154","973","b","elianto","#f73b6a7A"," ","-1","0","-10","[]","0","2","","","5154","87","6","3","lose","go","0"
"pit-trial","206","1252961","0.0-92.0","battery-v0.2","","""event"",""trial"",""time""
""fullscreenenter"",""1"",""2711""
","
","
","""event"",""trial"",""time""
""fullscreenenter"",""1"",""2711""
","
","","","799.0999999940395","","","23","5154","973","z","elianto","#3366ff99"," "," ","1","+10","[1649.2999999970198]","1","2","","","5154","88","4","1","win","go","0"
"pit-trial","207","1257018","0.0-93.0","battery-v0.2","","""event"",""trial"",""time""
""fullscreenenter"",""1"",""2711""
","
","
","""event"",""trial"",""time""
""fullscreenenter"",""1"",""2711""
","
","","","1186.0999999940395","","","23","5154","973","b","elianto","#f73b6a7A"," "," ","1","0","[2040.3999999910593]","1","2","","","5154","89","6","3","lose","go","0"
"pit-trial","208","1260762","0.0-94.0","battery-v0.2","","""event"",""trial"",""time""
""fullscreenenter"",""1"",""2711""
","
","
","""event"",""trial"",""time""
""fullscreenenter"",""1"",""2711""
","
","","","872.9000000059605","","","23","5154","973","z","elianto","#3366ff99"," "," ","1","+10","[1725.7000000029802]","1","2","","","5154","90","4","1","win","go","0"
"pit-trial","209","1265633","0.0-95.0","battery-v0.2","","""event"",""trial"",""time""
""fullscreenenter"",""1"",""2711""
","
","
","""event"",""trial"",""time""
""fullscreenenter"",""1"",""2711""
","
","","","-1","","","23","5154","973","t","elianto","#f73b6a7A","-1","-1","1","-10","[]","0","2","","","5154","91","7","4","lose","no-go","1"
"pit-trial","210","1270497","0.0-96.0","battery-v0.2","","""event"",""trial"",""time""
""fullscreenenter"",""1"",""2711""
","
","
","""event"",""trial"",""time""
""fullscreenenter"",""1"",""2711""
","
","","","-1","","","23","5154","973","c","elianto","#3366ff99","-1","-1","1","+10","[]","0","2","","","5154","92","5","2","win","no-go","0"
"pit-trial","211","1275369","0.0-97.0","battery-v0.2","","""event"",""trial"",""time""
""fullscreenenter"",""1"",""2711""
","
","
","""event"",""trial"",""time""
""fullscreenenter"",""1"",""2711""
","
","","","-1","","","23","5154","973","c","elianto","#3366ff99","-1","-1","1","+10","[]","0","2","","","5154","93","5","2","win","no-go","0"
"pit-trial","212","1280241","0.0-98.0","battery-v0.2","","""event"",""trial"",""time""
""fullscreenenter"",""1"",""2711""
","
","
","""event"",""trial"",""time""
""fullscreenenter"",""1"",""2711""
","
","","","-1","","","23","5154","973","t","elianto","#f73b6a7A","-1","-1","1","-10","[]","0","2","","","5154","94","7","4","lose","no-go","1"
"pit-trial","213","1284297","0.0-99.0","battery-v0.2","","""event"",""trial"",""time""
""fullscreenenter"",""1"",""2711""
","
","
","""event"",""trial"",""time""
""fullscreenenter"",""1"",""2711""
","
","","","1189.7999999970198","","","23","5154","973","b","elianto","#f73b6a7A"," "," ","1","-10","[2041.2999999970198]","1","2","","","5154","95","6","3","lose","go","1"
"pit-trial","214","1288546","0.0-100.0","battery-v0.2","","""event"",""trial"",""time""
""fullscreenenter"",""1"",""2711""
","
","
","""event"",""trial"",""time""
""fullscreenenter"",""1"",""2711""
","
","","","1381.7000000029802","","","23","5154","973","f","elianto","#3366ff99"," "," ","1","+10","[2236.4000000059605]","1","2","","","5154","96","8","1","win","go","0"
"pit-trial","215","1292554","0.0-101.0","battery-v0.2","","""event"",""trial"",""time""
""fullscreenenter"",""1"",""2711""
","
","
","""event"",""trial"",""time""
""fullscreenenter"",""1"",""2711""
","
","","","1139.8999999910593","","","23","5154","973","t","elianto","#f73b6a7A","-1"," ","0","-10","[1991]","1","2","","","5154","97","7","4","lose","no-go","0"
"pit-trial","216","1297424","0.0-102.0","battery-v0.2","","""event"",""trial"",""time""
""fullscreenenter"",""1"",""2711""
","
","
","""event"",""trial"",""time""
""fullscreenenter"",""1"",""2711""
","
","","","-1","","","23","5154","973","c","elianto","#3366ff99","-1","-1","1","0","[]","0","2","","","5154","98","5","2","win","no-go","1"
"pit-trial","217","1302297","0.0-103.0","battery-v0.2","","""event"",""trial"",""time""
""fullscreenenter"",""1"",""2711""
","
","
","""event"",""trial"",""time""
""fullscreenenter"",""1"",""2711""
","
","","","-1","","","23","5154","973","b","elianto","#f73b6a7A"," ","-1","0","-10","[]","0","2","","","5154","99","6","3","lose","go","0"
"pit-trial","218","1306169","0.0-104.0","battery-v0.2","","""event"",""trial"",""time""
""fullscreenenter"",""1"",""2711""
","
","
","""event"",""trial"",""time""
""fullscreenenter"",""1"",""2711""
","
","","","1006.0999999940395","","","23","5154","973","f","elianto","#3366ff99"," "," ","1","+10","[1857.7000000029802]","1","2","","","5154","100","8","1","win","go","0"
"pit-trial","219","1310065","0.0-105.0","battery-v0.2","","""event"",""trial"",""time""
""fullscreenenter"",""1"",""2711""
","
","
","""event"",""trial"",""time""
""fullscreenenter"",""1"",""2711""
","
","","","1029.9000000059605","","","23","5154","973","n","elianto","#3366ff99"," "," ","1","+10","[1880.7000000029802]","1","2","","","5154","101","9","1","win","go","0"
"pit-trial","220","1313689","0.0-106.0","battery-v0.2","","""event"",""trial"",""time""
""fullscreenenter"",""1"",""2711""
","
","
","""event"",""trial"",""time""
""fullscreenenter"",""1"",""2711""
","
","","","756.2000000029802","","","23","5154","973","f","elianto","#3366ff99"," "," ","1","+10","[1607.1000000089407]","1","2","","","5154","102","8","1","win","go","0"
"pit-trial","221","1317625","0.0-107.0","battery-v0.2","","""event"",""trial"",""time""
""fullscreenenter"",""1"",""2711""
","
","
","""event"",""trial"",""time""
""fullscreenenter"",""1"",""2711""
","
","","","1070.199999988079","","","23","5154","973","t","elianto","#f73b6a7A","-1"," ","0","0","[1921]","1","2","","","5154","103","7","4","lose","no-go","1"
"pit-trial","222","1322497","0.0-108.0","battery-v0.2","","""event"",""trial"",""time""
""fullscreenenter"",""1"",""2711""
","
","
","""event"",""trial"",""time""
""fullscreenenter"",""1"",""2711""
","
","","","-1","","","23","5154","973","c","elianto","#3366ff99","-1","-1","1","+10","[]","0","2","","","5154","104","5","2","win","no-go","0"
"pit-trial","223","1326577","0.0-109.0","battery-v0.2","","""event"",""trial"",""time""
""fullscreenenter"",""1"",""2711""
","
","
","""event"",""trial"",""time""
""fullscreenenter"",""1"",""2711""
","
","","","1210","","","23","5154","973","n","elianto","#3366ff99"," "," ","1","+10","[2064.4000000059605]","1","2","","","5154","105","9","1","win","go","0"
"pit-trial","224","1330193","0.0-110.0","battery-v0.2","","""event"",""trial"",""time""
""fullscreenenter"",""1"",""2711""
","
","
","""event"",""trial"",""time""
""fullscreenenter"",""1"",""2711""
","
","","","747","","","23","5154","973","b","elianto","#f73b6a7A"," "," ","1","-10","[1600]","1","2","","","5154","106","6","3","lose","go","1"
"pit-trial","225","1333865","0.0-111.0","battery-v0.2","","""event"",""trial"",""time""
""fullscreenenter"",""1"",""2711""
","
","
","""event"",""trial"",""time""
""fullscreenenter"",""1"",""2711""
","
","","","805.0999999940395","","","23","5154","973","f","elianto","#3366ff99"," "," ","1","+10","[1656]","1","2","","","5154","107","8","1","win","go","0"
"pit-trial","226","1337793","0.0-112.0","battery-v0.2","","""event"",""trial"",""time""
""fullscreenenter"",""1"",""2711""
","
","
","""event"",""trial"",""time""
""fullscreenenter"",""1"",""2711""
","
","","","1058.4000000059605","","","23","5154","973","z","elianto","#3366ff99"," "," ","1","+10","[1912]","1","2","","","5154","108","4","1","win","go","0"
"pit-trial","227","1341337","0.0-113.0","battery-v0.2","","""event"",""trial"",""time""
""fullscreenenter"",""1"",""2711""
","
","
","""event"",""trial"",""time""
""fullscreenenter"",""1"",""2711""
","
","","","675.5","","","23","5154","973","f","elianto","#3366ff99"," "," ","1","+10","[1529]","1","2","","","5154","109","8","1","win","go","0"
"pit-trial","228","1346209","0.0-114.0","battery-v0.2","","""event"",""trial"",""time""
""fullscreenenter"",""1"",""2711""
","
","
","""event"",""trial"",""time""
""fullscreenenter"",""1"",""2711""
","
","","","-1","","","23","5154","973","c","elianto","#3366ff99","-1","-1","1","0","[]","0","2","","","5154","110","5","2","win","no-go","1"
"pit-trial","229","1350362","0.0-115.0","battery-v0.2","","""event"",""trial"",""time""
""fullscreenenter"",""1"",""2711""
","
","
","""event"",""trial"",""time""
""fullscreenenter"",""1"",""2711""
","
","","","1284.5","","","23","5154","973","n","elianto","#3366ff99"," "," ","1","+10","[2136.0999999940395]","1","2","","","5154","111","9","1","win","go","0"
"pit-trial","230","1355233","0.0-116.0","battery-v0.2","","""event"",""trial"",""time""
""fullscreenenter"",""1"",""2711""
","
","
","""event"",""trial"",""time""
""fullscreenenter"",""1"",""2711""
","
","","","-1","","","23","5154","973","b","elianto","#f73b6a7A"," ","-1","0","-10","[]","0","2","","","5154","112","6","3","lose","go","0"
"pit-trial","231","1358962","0.0-117.0","battery-v0.2","","""event"",""trial"",""time""
""fullscreenenter"",""1"",""2711""
","
","
","""event"",""trial"",""time""
""fullscreenenter"",""1"",""2711""
","
","","","860.3999999910593","","","23","5154","973","b","elianto","#f73b6a7A"," "," ","1","0","[1712.7999999970198]","1","2","","","5154","113","6","3","lose","go","0"
"pit-trial","232","1363834","0.0-118.0","battery-v0.2","","""event"",""trial"",""time""
""fullscreenenter"",""1"",""2711""
","
","
","""event"",""trial"",""time""
""fullscreenenter"",""1"",""2711""
","
","","","-1","","","23","5154","973","c","elianto","#3366ff99","-1","-1","1","+10","[]","0","2","","","5154","114","5","2","win","no-go","0"
"pit-trial","233","1367513","0.0-119.0","battery-v0.2","","""event"",""trial"",""time""
""fullscreenenter"",""1"",""2711""
","
","
","""event"",""trial"",""time""
""fullscreenenter"",""1"",""2711""
","
","","","809.3999999910593","","","23","5154","973","f","elianto","#3366ff99"," "," ","1","+10","[1663.4000000059605]","1","2","","","5154","115","8","1","win","go","0"
"pit-trial","234","1371345","0.0-120.0","battery-v0.2","","""event"",""trial"",""time""
""fullscreenenter"",""1"",""2711""
","
","
","""event"",""trial"",""time""
""fullscreenenter"",""1"",""2711""
","
","","","962.0999999940395","","","23","5154","973","n","elianto","#3366ff99"," "," ","1","+10","[1817.6000000089407]","1","2","","","5154","116","9","1","win","go","0"
"pit-trial","235","1375145","0.0-121.0","battery-v0.2","","""event"",""trial"",""time""
""fullscreenenter"",""1"",""2711""
","
","
","""event"",""trial"",""time""
""fullscreenenter"",""1"",""2711""
","
","","","929.7000000029802","","","23","5154","973","b","elianto","#f73b6a7A"," "," ","1","0","[1783.9000000059605]","1","2","","","5154","117","6","3","lose","go","0"
"pit-trial","236","1378777","0.0-122.0","battery-v0.2","","""event"",""trial"",""time""
""fullscreenenter"",""1"",""2711""
","
","
","""event"",""trial"",""time""
""fullscreenenter"",""1"",""2711""
","
","","","762.2999999970198","","","23","5154","973","n","elianto","#3366ff99"," "," ","1","+10","[1616.3999999910593]","1","2","","","5154","118","9","1","win","go","0"
"pit-trial","237","1383650","0.0-123.0","battery-v0.2","","""event"",""trial"",""time""
""fullscreenenter"",""1"",""2711""
","
","
","""event"",""trial"",""time""
""fullscreenenter"",""1"",""2711""
","
","","","-1","","","23","5154","973","c","elianto","#3366ff99","-1","-1","1","0","[]","0","2","","","5154","119","5","2","win","no-go","1"
"pit-trial","238","1387321","0.0-124.0","battery-v0.2","","""event"",""trial"",""time""
""fullscreenenter"",""1"",""2711""
","
","
","""event"",""trial"",""time""
""fullscreenenter"",""1"",""2711""
","
","","","802.2000000029802","","","23","5154","973","f","elianto","#3366ff99"," "," ","1","+10","[1656.7999999970198]","1","2","","","5154","120","8","1","win","go","0"
"pit-trial","239","1391234","0.0-125.0","battery-v0.2","","""event"",""trial"",""time""
""fullscreenenter"",""1"",""2711""
","
","
","""event"",""trial"",""time""
""fullscreenenter"",""1"",""2711""
","
","","","1041.9000000059605","","","23","5154","973","n","elianto","#3366ff99"," "," ","1","0","[1894.7999999970198]","1","2","","","5154","121","9","1","win","go","1"
"pit-trial","240","1395618","0.0-126.0","battery-v0.2","","""event"",""trial"",""time""
""fullscreenenter"",""1"",""2711""
","
","
","""event"",""trial"",""time""
""fullscreenenter"",""1"",""2711""
","
","","","1513.199999988079","","","23","5154","973","t","elianto","#f73b6a7A","-1"," ","0","-10","[2368]","1","2","","","5154","122","7","4","lose","no-go","0"
"pit-trial","241","1399681","0.0-127.0","battery-v0.2","","""event"",""trial"",""time""
""fullscreenenter"",""1"",""2711""
","
","
","""event"",""trial"",""time""
""fullscreenenter"",""1"",""2711""
","
","","","1194.300000011921","","","23","5154","973","b","elianto","#f73b6a7A"," "," ","1","-10","[2048.300000011921]","1","2","","","5154","123","6","3","lose","go","1"
"pit-trial","242","1403209","0.0-128.0","battery-v0.2","","""event"",""trial"",""time""
""fullscreenenter"",""1"",""2711""
","
","
","""event"",""trial"",""time""
""fullscreenenter"",""1"",""2711""
","
","","","657.7000000029802","","","23","5154","973","f","elianto","#3366ff99"," "," ","1","0","[1508.9000000059605]","1","2","","","5154","124","8","1","win","go","1"
"pit-trial","243","1406762","0.0-129.0","battery-v0.2","","""event"",""trial"",""time""
""fullscreenenter"",""1"",""2711""
","
","
","""event"",""trial"",""time""
""fullscreenenter"",""1"",""2711""
","
","","","681.7999999970198","","","23","5154","973","f","elianto","#3366ff99"," "," ","1","0","[1536]","1","2","","","5154","125","8","1","win","go","1"
"pit-trial","244","1410449","0.0-130.0","battery-v0.2","","""event"",""trial"",""time""
""fullscreenenter"",""1"",""2711""
","
","
","""event"",""trial"",""time""
""fullscreenenter"",""1"",""2711""
","
","","","820.3000000119209","","","23","5154","973","t","elianto","#f73b6a7A","-1"," ","0","-10","[1672.0999999940395]","1","2","","","5154","126","7","4","lose","no-go","0"
"pit-trial","245","1415321","0.0-131.0","battery-v0.2","","""event"",""trial"",""time""
""fullscreenenter"",""1"",""2711""
","
","
","""event"",""trial"",""time""
""fullscreenenter"",""1"",""2711""
","
","","","-1","","","23","5154","973","b","elianto","#f73b6a7A"," ","-1","0","-10","[]","0","2","","","5154","127","6","3","lose","go","0"
"pit-trial","246","1418993","0.0-132.0","battery-v0.2","","""event"",""trial"",""time""
""fullscreenenter"",""1"",""2711""
","
","
","""event"",""trial"",""time""
""fullscreenenter"",""1"",""2711""
","
","","","805.1000000089407","","","23","5154","973","n","elianto","#3366ff99"," "," ","1","+10","[1655.9000000059605]","1","2","","","5154","128","9","1","win","go","0"
"pit-trial","247","1422721","0.0-133.0","battery-v0.2","","""event"",""trial"",""time""
""fullscreenenter"",""1"",""2711""
","
","
","""event"",""trial"",""time""
""fullscreenenter"",""1"",""2711""
","
","","","858.4000000059605","","","23","5154","973","b","elianto","#f73b6a7A"," "," ","1","0","[1711.4000000059605]","1","2","","","5154","129","6","3","lose","go","0"
"pit-trial","248","1426161","0.0-134.0","battery-v0.2","","""event"",""trial"",""time""
""fullscreenenter"",""1"",""2711""
","
","
","""event"",""trial"",""time""
""fullscreenenter"",""1"",""2711""
","
","","","571.7999999970198","","","23","5154","973","f","elianto","#3366ff99"," "," ","1","+10","[1423.699999988079]","1","2","","","5154","130","8","1","win","go","0"
"pit-trial","249","1429913","0.0-135.0","battery-v0.2","","""event"",""trial"",""time""
""fullscreenenter"",""1"",""2711""
","
","
","""event"",""trial"",""time""
""fullscreenenter"",""1"",""2711""
","
","","","880.8999999910593","","","23","5154","973","n","elianto","#3366ff99"," "," ","1","0","[1733.8999999910593]","1","2","","","5154","131","9","1","win","go","1"
"pit-trial","250","1433713","0.0-136.0","battery-v0.2","","""event"",""trial"",""time""
""fullscreenenter"",""1"",""2711""
","
","
","""event"",""trial"",""time""
""fullscreenenter"",""1"",""2711""
","
","","","930","","","23","5154","973","t","elianto","#f73b6a7A","-1"," ","0","-10","[1784.5999999940395]","1","2","","","5154","132","7","4","lose","no-go","0"
"pit-trial","251","1437353","0.0-137.0","battery-v0.2","","""event"",""trial"",""time""
""fullscreenenter"",""1"",""2711""
","
","
","""event"",""trial"",""time""
""fullscreenenter"",""1"",""2711""
","
","","","769.2999999970198","","","23","5154","973","b","elianto","#f73b6a7A"," "," ","1","-10","[1622.2999999970198]","1","2","","","5154","133","6","3","lose","go","1"
"pit-trial","252","1442226","0.0-138.0","battery-v0.2","","""event"",""trial"",""time""
""fullscreenenter"",""1"",""2711""
","
","
","""event"",""trial"",""time""
""fullscreenenter"",""1"",""2711""
","
","","","-1","","","23","5154","973","t","elianto","#f73b6a7A","-1","-1","1","-10","[]","0","2","","","5154","134","7","4","lose","no-go","1"
"pit-trial","253","1445761","0.0-139.0","battery-v0.2","","""event"",""trial"",""time""
""fullscreenenter"",""1"",""2711""
","
","
","""event"",""trial"",""time""
""fullscreenenter"",""1"",""2711""
","
","","","667","","","23","5154","973","n","elianto","#3366ff99"," "," ","1","+10","[1518.5999999940395]","1","2","","","5154","135","9","1","win","go","0"
"pit-trial","254","1449272","0.0-140.0","battery-v0.2","","""event"",""trial"",""time""
""fullscreenenter"",""1"",""2711""
","
","
","""event"",""trial"",""time""
""fullscreenenter"",""1"",""2711""
","
","","","642.2999999970198","","","23","5154","973","f","elianto","#3366ff99"," "," ","1","+10","[1496.1000000089407]","1","2","","","5154","136","8","1","win","go","0"
"pit-trial","255","1452881","0.0-141.0","battery-v0.2","","""event"",""trial"",""time""
""fullscreenenter"",""1"",""2711""
","
","
","""event"",""trial"",""time""
""fullscreenenter"",""1"",""2711""
","
","","","737.5","","","23","5154","973","b","elianto","#f73b6a7A"," "," ","1","0","[1592.2999999970198]","1","2","","","5154","137","6","3","lose","go","0"
"pit-trial","256","1456601","0.0-142.0","battery-v0.2","","""event"",""trial"",""time""
""fullscreenenter"",""1"",""2711""
","
","
","""event"",""trial"",""time""
""fullscreenenter"",""1"",""2711""
","
","","","854.2000000029802","","","23","5154","973","t","elianto","#f73b6a7A","-1"," ","0","-10","[1704.7999999970198]","1","2","","","5154","138","7","4","lose","no-go","0"
"pit-trial","257","1460073","0.0-143.0","battery-v0.2","","""event"",""trial"",""time""
""fullscreenenter"",""1"",""2711""
","
","
","""event"",""trial"",""time""
""fullscreenenter"",""1"",""2711""
","
","","","602.0999999940395","","","23","5154","973","f","elianto","#3366ff99"," "," ","1","+10","[1455.4000000059605]","1","2","","","5154","139","8","1","win","go","0"
"pit-trial","258","1463682","0.0-144.0","battery-v0.2","","""event"",""trial"",""time""
""fullscreenenter"",""1"",""2711""
","
","
","""event"",""trial"",""time""
""fullscreenenter"",""1"",""2711""
","
","","","744.4000000059605","","","23","5154","973","n","elianto","#3366ff99"," "," ","1","+10","[1597.4000000059605]","1","2","","","5154","140","9","1","win","go","0"
"pit-instructions","259","1498082","0.0-145.0","battery-v0.2","","""event"",""trial"",""time""
""fullscreenenter"",""1"",""2711""
","
","
","""event"",""trial"",""time""
""fullscreenenter"",""1"",""2711""
","
","","[{""page_index"":0,""viewing_time"":26334.5},{""page_index"":1,""viewing_time"":8056}]","34390.90000000596","","","","","","","","","","","","","","","","","","","","","","","",""
"pit-trial","260","1502953","0.0-146.0","battery-v0.2","","""event"",""trial"",""time""
""fullscreenenter"",""1"",""2711""
","
","
","""event"",""trial"",""time""
""fullscreenenter"",""1"",""2711""
","
","","","-1","","","23","5154","973","g","elianto","#f73b6a7A"," ","-1","0","-10","[]","0","3","","","5154","141","3","3","lose","go","0"
"pit-trial","261","1506713","0.0-147.0","battery-v0.2","","""event"",""trial"",""time""
""fullscreenenter"",""1"",""2711""
","
","
","""event"",""trial"",""time""
""fullscreenenter"",""1"",""2711""
","
","","","890.2000000029802","","","23","5154","973","l","elianto","#3366ff99"," "," ","1","+10","[1745.5]","1","3","","","5154","142","1","1","win","go","0"
"pit-trial","262","1510362","0.0-148.0","battery-v0.2","","""event"",""trial"",""time""
""fullscreenenter"",""1"",""2711""
","
","
","""event"",""trial"",""time""
""fullscreenenter"",""1"",""2711""
","
","","","784","","","23","5154","973","u","elianto","#f73b6a7A","-1"," ","0","-10","[1634.800000011921]","1","3","","","5154","143","0","4","lose","no-go","0"
"pit-trial","263","1514162","0.0-149.0","battery-v0.2","","""event"",""trial"",""time""
""fullscreenenter"",""1"",""2711""
","
","
","""event"",""trial"",""time""
""fullscreenenter"",""1"",""2711""
","
","","","932.3999999910593","","","23","5154","973","a","elianto","#f73b6a7A","-1"," ","0","-10","[1786.7000000029802]","1","3","","","5154","144","2","4","lose","no-go","0"
"pit-trial","264","1519034","0.0-150.0","battery-v0.2","","""event"",""trial"",""time""
""fullscreenenter"",""1"",""2711""
","
","
","""event"",""trial"",""time""
""fullscreenenter"",""1"",""2711""
","
","","","-1","","","23","5154","973","a","elianto","#f73b6a7A","-1","-1","1","0","[]","0","3","","","5154","145","2","4","lose","no-go","0"
"pit-trial","265","1523905","0.0-151.0","battery-v0.2","","""event"",""trial"",""time""
""fullscreenenter"",""1"",""2711""
","
","
","""event"",""trial"",""time""
""fullscreenenter"",""1"",""2711""
","
","","","-1","","","23","5154","973","u","elianto","#f73b6a7A","-1","-1","1","-10","[]","0","3","","","5154","146","0","4","lose","no-go","1"
"pit-trial","266","1527594","0.0-152.0","battery-v0.2","","""event"",""trial"",""time""
""fullscreenenter"",""1"",""2711""
","
","
","""event"",""trial"",""time""
""fullscreenenter"",""1"",""2711""
","
","","","816.5","","","23","5154","973","l","elianto","#3366ff99"," "," ","1","0","[1671.2000000029802]","1","3","","","5154","147","1","1","win","go","1"
"pit-trial","267","1531666","0.0-153.0","battery-v0.2","","""event"",""trial"",""time""
""fullscreenenter"",""1"",""2711""
","
","
","""event"",""trial"",""time""
""fullscreenenter"",""1"",""2711""
","
