"trial_type","trial_index","time_elapsed","internal_node_id","task_version","subject_id","interactions","blur_events","focus_events","fullscreenenter_events","fullscreenexit_events","success","view_history","rt","responses","num_errors","age","subject","participantId","rune","rune_set","hex","correct","choice","accuracy","outcome","keys","total_keys","block","practice","value","sub","trial","stimulus","robot","valence","action","sham"
"pavlovia","0","12","0.0-0.0","battery-v0.2","","""event"",""trial"",""time""
""fullscreenenter"",""1"",""1800""
","
","
","""event"",""trial"",""time""
""fullscreenenter"",""1"",""1800""
","
","","","","","","","","","","","","","","","","","","","","","","","","","","",""
"fullscreen","1","2755","0.0-1.0","battery-v0.2","","""event"",""trial"",""time""
""fullscreenenter"",""1"",""1800""
","
","
","""event"",""trial"",""time""
""fullscreenenter"",""1"",""1800""
","
","true","","","","","","","","","","","","","","","","","","","","","","","","","",""
"pit-instructions","2","6986","0.0-2.0-0.0","battery-v0.2","","""event"",""trial"",""time""
""fullscreenenter"",""1"",""1800""
","
","
","""event"",""trial"",""time""
""fullscreenenter"",""1"",""1800""
","
","","[{""page_index"":0,""viewing_time"":4223.9000000059605}]","4224.700000017881","","","","","","","","","","","","","","","","","","","","","","","",""
"pit-comprehension","3","11586","0.0-2.0-1.0-0.0","battery-v0.2","","""event"",""trial"",""time""
""fullscreenenter"",""1"",""1800""
","
","
","""event"",""trial"",""time""
""fullscreenenter"",""1"",""1800""
","
","","","4578.4000000059605","[""shark""]","0","12","14678","2613","","","","","","","","","","","","","","","","","","",""
"pit-instructions","4","13319","0.0-2.0-1.0-1.0","battery-v0.2","","""event"",""trial"",""time""
""fullscreenenter"",""1"",""1800""
","
","
","""event"",""trial"",""time""
""fullscreenenter"",""1"",""1800""
","
","","[{""page_index"":0,""viewing_time"":1701.7000000178814}]","1702.300000011921","","","","","","","","","","","","","","","","","","","","","","","",""
"pit-comprehension","5","15206","0.0-2.0-2.0-0.0","battery-v0.2","","""event"",""trial"",""time""
""fullscreenenter"",""1"",""1800""
","
","
","""event"",""trial"",""time""
""fullscreenenter"",""1"",""1800""
","
","","","1873.1000000238419","[""tiger""]","0","12","14678","2613","","","","","","","","","","","","","","","","","","",""
"pit-instructions","6","16290","0.0-2.0-2.0-1.0","battery-v0.2","","""event"",""trial"",""time""
""fullscreenenter"",""1"",""1800""
","
","
","""event"",""trial"",""time""
""fullscreenenter"",""1"",""1800""
","
","","[{""page_index"":0,""viewing_time"":1075.9000000059605}]","1076.800000011921","","","","","","","","","","","","","","","","","","","","","","","",""
"pit-instructions","7","115852","0.0-2.0-3.0","battery-v0.2","","""event"",""trial"",""time""
""fullscreenenter"",""1"",""1800""
","
","
","""event"",""trial"",""time""
""fullscreenenter"",""1"",""1800""
","
","","[{""page_index"":0,""viewing_time"":9219.199999988079},{""page_index"":1,""viewing_time"":5012.5},{""page_index"":2,""viewing_time"":8067.4000000059605},{""page_index"":3,""viewing_time"":5131.699999988079},{""page_index"":4,""viewing_time"":5613.9000000059605},{""page_index"":5,""viewing_time"":5544.700000017881},{""page_index"":6,""viewing_time"":7666.299999982119},{""page_index"":7,""viewing_time"":7218.5999999940395},{""page_index"":8,""viewing_time"":7471.5},{""page_index"":9,""viewing_time"":8219.300000011921},{""page_index"":10,""viewing_time"":7864.9000000059605},{""page_index"":11,""viewing_time"":7878.699999988079},{""page_index"":12,""viewing_time"":7884.300000011921},{""page_index"":13,""viewing_time"":6760.799999982119}]","99555.59999999404","","","","","","","","","","","","","","","","","","","","","","","",""
"pit-trial","8","119239","0.0-2.0-4.0-0.0","battery-v0.2","","""event"",""trial"",""time""
""fullscreenenter"",""1"",""1800""
","
","
","""event"",""trial"",""time""
""fullscreenenter"",""1"",""1800""
","
","","","522.6999999880791","","","12","14678","2613","&#9784;","elianto","#FFFFF080"," "," ","1","&#10004","[1379.0999999940395]","1","0","0","","","","","","","",""
"pit-trial","9","122420","0.0-2.0-4.1-0.1","battery-v0.2","","""event"",""trial"",""time""
""fullscreenenter"",""1"",""1800""
","
","
","""event"",""trial"",""time""
""fullscreenenter"",""1"",""1800""
","
","","","314.90000000596046","","","12","14678","2613","&#9784;","elianto","#FFFFF080"," "," ","1","&#10004","[1168.300000011921]","1","0","0","","","","","","","",""
"pit-trial","10","125813","0.0-2.0-4.2-0.2","battery-v0.2","","""event"",""trial"",""time""
""fullscreenenter"",""1"",""1800""
","
","
","""event"",""trial"",""time""
""fullscreenenter"",""1"",""1800""
","
","","","521.4000000059605","","","12","14678","2613","&#9784;","elianto","#FFFFF080"," "," ","1","&#10004","[1377.0999999940395]","1","0","0","","","","","","","",""
"pit-trial","11","129133","0.0-2.0-4.3-0.3","battery-v0.2","","""event"",""trial"",""time""
""fullscreenenter"",""1"",""1800""
","
","
","""event"",""trial"",""time""
""fullscreenenter"",""1"",""1800""
","
","","","462.59999999403954","","","12","14678","2613","&#9784;","elianto","#FFFFF080"," "," ","1","&#10004","[1313.7000000178814]","1","0","0","","","","","","","",""
"pit-trial","12","132677","0.0-2.0-4.4-0.4","battery-v0.2","","""event"",""trial"",""time""
""fullscreenenter"",""1"",""1800""
","
","
","""event"",""trial"",""time""
""fullscreenenter"",""1"",""1800""
","
","","","671.1000000238419","","","12","14678","2613","&#9784;","elianto","#FFFFF080"," "," ","1","&#10004","[1526.8999999761581]","1","0","0","","","","","","","",""
"pit-instructions","13","157601","0.0-2.0-5.0","battery-v0.2","","""event"",""trial"",""time""
""fullscreenenter"",""1"",""1800""
","
","
","""event"",""trial"",""time""
""fullscreenenter"",""1"",""1800""
","
","","[{""page_index"":0,""viewing_time"":5441.5},{""page_index"":1,""viewing_time"":5374.199999988079},{""page_index"":2,""viewing_time"":8104.800000011921},{""page_index"":3,""viewing_time"":5995.199999988079}]","24916.40000000596","","","","","","","","","","","","","","","","","","","","","","","",""
"pit-trial","14","162465","0.0-2.0-6.0-0.0","battery-v0.2","","""event"",""trial"",""time""
""fullscreenenter"",""1"",""1800""
","
","
","""event"",""trial"",""time""
""fullscreenenter"",""1"",""1800""
","
","","","-1","","","12","14678","2613","&#9854;","elianto","#FFFFF080","-1","-1","1","&#10004","[]","0","0","1","","","","","","","",""
"pit-trial","15","167347","0.0-2.0-6.1-0.1","battery-v0.2","","""event"",""trial"",""time""
""fullscreenenter"",""1"",""1800""
","
","
","""event"",""trial"",""time""
""fullscreenenter"",""1"",""1800""
","
","","","-1","","","12","14678","2613","&#9854;","elianto","#FFFFF080","-1","-1","1","&#10004","[]","0","0","1","","","","","","","",""
"pit-trial","16","172218","0.0-2.0-6.2-0.2","battery-v0.2","","""event"",""trial"",""time""
""fullscreenenter"",""1"",""1800""
","
","
","""event"",""trial"",""time""
""fullscreenenter"",""1"",""1800""
","
","","","-1","","","12","14678","2613","&#9854;","elianto","#FFFFF080","-1","-1","1","&#10004","[]","0","0","1","","","","","","","",""
"pit-trial","17","177105","0.0-2.0-6.3-0.3","battery-v0.2","","""event"",""trial"",""time""
""fullscreenenter"",""1"",""1800""
","
","
","""event"",""trial"",""time""
""fullscreenenter"",""1"",""1800""
","
","","","-1","","","12","14678","2613","&#9854;","elianto","#FFFFF080","-1","-1","1","&#10004","[]","0","0","1","","","","","","","",""
"pit-trial","18","181983","0.0-2.0-6.4-0.4","battery-v0.2","","""event"",""trial"",""time""
""fullscreenenter"",""1"",""1800""
","
","
","""event"",""trial"",""time""
""fullscreenenter"",""1"",""1800""
","
","","","-1","","","12","14678","2613","&#9854;","elianto","#FFFFF080","-1","-1","1","&#10004","[]","0","0","1","","","","","","","",""
"pit-instructions","19","307548","0.0-2.0-7.0","battery-v0.2","","""event"",""trial"",""time""
""fullscreenenter"",""1"",""1800""
","
","
","""event"",""trial"",""time""
""fullscreenenter"",""1"",""1800""
","
","","[{""page_index"":0,""viewing_time"":5889.0999999940395},{""page_index"":1,""viewing_time"":6954.9000000059605},{""page_index"":2,""viewing_time"":7453.800000011921},{""page_index"":3,""viewing_time"":6190.5},{""page_index"":4,""viewing_time"":7786},{""page_index"":5,""viewing_time"":6380.0999999940395},{""page_index"":6,""viewing_time"":5287.9000000059605},{""page_index"":7,""viewing_time"":7100.0999999940395},{""page_index"":8,""viewing_time"":7130.699999988079},{""page_index"":9,""viewing_time"":7258.5},{""page_index"":10,""viewing_time"":7241.100000023842},{""page_index"":11,""viewing_time"":7048},{""page_index"":12,""viewing_time"":6411.5},{""page_index"":13,""viewing_time"":6905.399999976158},{""page_index"":14,""viewing_time"":7371.800000011921},{""page_index"":15,""viewing_time"":7446},{""page_index"":16,""viewing_time"":7332.0999999940395},{""page_index"":17,""viewing_time"":8373.40000000596}]","125561.80000001192","","","","","","","","","","","","","","","","","","","","","","","",""
"pit-trial","20","311593","0.0-2.0-8.0-0.0","battery-v0.2","","""event"",""trial"",""time""
""fullscreenenter"",""1"",""1800""
","
","
","""event"",""trial"",""time""
""fullscreenenter"",""1"",""1800""
","
","","","1185.5999999940395","","","12","14678","2613","&#9776;","elianto","#3366ff99"," "," ","1","+10","[2036]","1","0","1","","","","","","","",""
"pit-trial","21","314885","0.0-2.0-8.0-1.0","battery-v0.2","","""event"",""trial"",""time""
""fullscreenenter"",""1"",""1800""
","
","
","""event"",""trial"",""time""
""fullscreenenter"",""1"",""1800""
","
","","","433.80000001192093","","","12","14678","2613","&#9776;","elianto","#3366ff99"," "," ","1","+10","[1284.0999999940395]","1","0","1","","","","","","","",""
"pit-trial","22","318191","0.0-2.0-8.0-2.0","battery-v0.2","","""event"",""trial"",""time""
""fullscreenenter"",""1"",""1800""
","
","
","""event"",""trial"",""time""
""fullscreenenter"",""1"",""1800""
","
","","","443.69999998807907","","","12","14678","2613","&#9776;","elianto","#3366ff99"," "," ","1","+10","[1294.9000000059605]","1","0","1","","","","","","","",""
"pit-trial","23","321551","0.0-2.0-8.0-3.0","battery-v0.2","","""event"",""trial"",""time""
""fullscreenenter"",""1"",""1800""
","
","
","""event"",""trial"",""time""
""fullscreenenter"",""1"",""1800""
","
","","","499.2000000178814","","","12","14678","2613","&#9776;","elianto","#3366ff99"," "," ","1","0","[1352.800000011921]","1","0","1","","","","","","","",""
"pit-trial","24","324575","0.0-2.0-8.0-4.0","battery-v0.2","","""event"",""trial"",""time""
""fullscreenenter"",""1"",""1800""
","
","
","""event"",""trial"",""time""
""fullscreenenter"",""1"",""1800""
","
","","","156.30000001192093","","","12","14678","2613","&#9776;","elianto","#3366ff99"," "," ","1","+10","[1008.2000000178814]","1","0","1","","","","","","","",""
"pit-trial","25","327739","0.0-2.0-8.1-0.1","battery-v0.2","","""event"",""trial"",""time""
""fullscreenenter"",""1"",""1800""
","
","
","""event"",""trial"",""time""
""fullscreenenter"",""1"",""1800""
","
","","","300.80000001192093","","","12","14678","2613","&#9776;","elianto","#3366ff99"," "," ","1","+10","[1153.800000011921]","1","0","1","","","","","","","",""
"pit-trial","26","330752","0.0-2.0-8.1-1.1","battery-v0.2","","""event"",""trial"",""time""
""fullscreenenter"",""1"",""1800""
","
","
","""event"",""trial"",""time""
""fullscreenenter"",""1"",""1800""
","
","","","139.59999999403954","","","12","14678","2613","&#9776;","elianto","#3366ff99"," "," ","1","+10","[999.8000000119209]","1","0","1","","","","","","","",""
"pit-trial","27","334157","0.0-2.0-8.1-2.1","battery-v0.2","","""event"",""trial"",""time""
""fullscreenenter"",""1"",""1800""
","
","
","""event"",""trial"",""time""
""fullscreenenter"",""1"",""1800""
","
","","","535.8000000119209","","","12","14678","2613","&#9776;","elianto","#3366ff99"," "," ","1","+10","[1387.7000000178814]","1","0","1","","","","","","","",""
"pit-trial","28","337536","0.0-2.0-8.1-3.1","battery-v0.2","","""event"",""trial"",""time""
""fullscreenenter"",""1"",""1800""
","
","
","""event"",""trial"",""time""
""fullscreenenter"",""1"",""1800""
","
","","","519","","","12","14678","2613","&#9776;","elianto","#3366ff99"," "," ","1","0","[1373.199999988079]","1","0","1","","","","","","","",""
"pit-trial","29","340711","0.0-2.0-8.1-4.1","battery-v0.2","","""event"",""trial"",""time""
""fullscreenenter"",""1"",""1800""
","
","
","""event"",""trial"",""time""
""fullscreenenter"",""1"",""1800""
","
","","","300.5","","","12","14678","2613","&#9776;","elianto","#3366ff99"," "," ","1","+10","[1157.2000000178814]","1","0","1","","","","","","","",""
"pit-trial","30","343825","0.0-2.0-8.2-0.2","battery-v0.2","","""event"",""trial"",""time""
""fullscreenenter"",""1"",""1800""
","
","
","""event"",""trial"",""time""
""fullscreenenter"",""1"",""1800""
","
","","","242.59999999403954","","","12","14678","2613","&#9776;","elianto","#3366ff99"," "," ","1","+10","[1099.4000000059605]","1","0","1","","","","","","","",""
"pit-trial","31","347450","0.0-2.0-8.2-1.2","battery-v0.2","","""event"",""trial"",""time""
""fullscreenenter"",""1"",""1800""
","
","
","""event"",""trial"",""time""
""fullscreenenter"",""1"",""1800""
","
","","","766.2000000178814","","","12","14678","2613","&#9776;","elianto","#3366ff99"," "," ","1","+10","[1617.5999999940395]","1","0","1","","","","","","","",""
"pit-trial","32","350898","0.0-2.0-8.2-2.2","battery-v0.2","","""event"",""trial"",""time""
""fullscreenenter"",""1"",""1800""
","
","
","""event"",""trial"",""time""
""fullscreenenter"",""1"",""1800""
","
","","","586.4000000059605","","","12","14678","2613","&#9776;","elianto","#3366ff99"," "," ","1","+10","[1438.2999999821186]","1","0","1","","","","","","","",""
"pit-trial","33","354092","0.0-2.0-8.2-3.2","battery-v0.2","","""event"",""trial"",""time""
""fullscreenenter"",""1"",""1800""
","
","
","""event"",""trial"",""time""
""fullscreenenter"",""1"",""1800""
","
","","","327.09999999403954","","","12","14678","2613","&#9776;","elianto","#3366ff99"," "," ","1","0","[1182.300000011921]","1","0","1","","","","","","","",""
"pit-trial","34","357131","0.0-2.0-8.2-4.2","battery-v0.2","","""event"",""trial"",""time""
""fullscreenenter"",""1"",""1800""
","
","
","""event"",""trial"",""time""
""fullscreenenter"",""1"",""1800""
","
","","","168.90000000596046","","","12","14678","2613","&#9776;","elianto","#3366ff99"," "," ","1","+10","[1030.0999999940395]","1","0","1","","","","","","","",""
"call-function","35","357135","0.0-2.0-9.0","battery-v0.2","","""event"",""trial"",""time""
""fullscreenenter"",""1"",""1800""
","
","
","""event"",""trial"",""time""
""fullscreenenter"",""1"",""1800""
","
","","","","","","","","","","","","","","","","","","","","","","","","","","",""
"pit-instructions","36","400307","0.0-2.0-10.0","battery-v0.2","","""event"",""trial"",""time""
""fullscreenenter"",""1"",""1800""
","
","
","""event"",""trial"",""time""
""fullscreenenter"",""1"",""1800""
","
","","[{""page_index"":0,""viewing_time"":8817.59999999404},{""page_index"":1,""viewing_time"":6305.699999988079},{""page_index"":2,""viewing_time"":10431.800000011921},{""page_index"":3,""viewing_time"":8996},{""page_index"":4,""viewing_time"":8618.5}]","43170.5","","","","","","","","","","","","","","","","","","","","","","","",""
"pit-trial","37","403395","0.0-2.0-11.0-0.0","battery-v0.2","","""event"",""trial"",""time""
""fullscreenenter"",""1"",""1800""
","
","
","""event"",""trial"",""time""
""fullscreenenter"",""1"",""1800""
","
","","","215.30000001192093","","","12","14678","2613","&#9761;","elianto","#3366ff99","-1"," ","0","0","[1068.4000000059605]","1","0","2","","","","","","","",""
"pit-trial","38","406383","0.0-2.0-11.0-1.0","battery-v0.2","","""event"",""trial"",""time""
""fullscreenenter"",""1"",""1800""
","
","
","""event"",""trial"",""time""
""fullscreenenter"",""1"",""1800""
","
","","","123.2000000178814","","","12","14678","2613","&#9761;","elianto","#3366ff99","-1"," ","0","0","[978.3999999761581]","1","0","2","","","","","","","",""
"pit-trial","39","409333","0.0-2.0-11.0-2.0","battery-v0.2","","""event"",""trial"",""time""
""fullscreenenter"",""1"",""1800""
","
","
","""event"",""trial"",""time""
""fullscreenenter"",""1"",""1800""
","
","","","86.7999999821186","","","12","14678","2613","&#9761;","elianto","#3366ff99","-1"," ","0","0","[942.7999999821186]","1","0","2","","","","","","","",""
"pit-trial","40","412362","0.0-2.0-11.0-3.0","battery-v0.2","","""event"",""trial"",""time""
""fullscreenenter"",""1"",""1800""
","
","
","""event"",""trial"",""time""
""fullscreenenter"",""1"",""1800""
","
","","","167.19999998807907","","","12","14678","2613","&#9761;","elianto","#3366ff99","-1"," ","0","+10","[1019.9000000059605]","1","0","2","","","","","","","",""
"pit-trial","41","415416","0.0-2.0-11.0-4.0","battery-v0.2","","""event"",""trial"",""time""
""fullscreenenter"",""1"",""1800""
","
","
","""event"",""trial"",""time""
""fullscreenenter"",""1"",""1800""
","
","","","187.7999999821186","","","12","14678","2613","&#9761;","elianto","#3366ff99","-1"," ","0","0","[1040]","1","0","2","","","","","","","",""
"pit-trial","42","418498","0.0-2.0-11.1-0.1","battery-v0.2","","""event"",""trial"",""time""
""fullscreenenter"",""1"",""1800""
","
","
","""event"",""trial"",""time""
""fullscreenenter"",""1"",""1800""
","
","","","214.5","","","12","14678","2613","&#9761;","elianto","#3366ff99","-1"," ","0","0","[1069.5]","1","0","2","","","","","","","",""
"pit-trial","43","423368","0.0-2.0-11.1-1.1","battery-v0.2","","""event"",""trial"",""time""
""fullscreenenter"",""1"",""1800""
","
","
","""event"",""trial"",""time""
""fullscreenenter"",""1"",""1800""
","
","","","-1","","","12","14678","2613","&#9761;","elianto","#3366ff99","-1","-1","1","+10","[]","0","0","2","","","","","","","",""
"pit-trial","44","428252","0.0-2.0-11.1-2.1","battery-v0.2","","""event"",""trial"",""time""
""fullscreenenter"",""1"",""1800""
","
","
","""event"",""trial"",""time""
""fullscreenenter"",""1"",""1800""
","
","","","-1","","","12","14678","2613","&#9761;","elianto","#3366ff99","-1","-1","1","+10","[]","0","0","2","","","","","","","",""
"pit-trial","45","433127","0.0-2.0-11.1-3.1","battery-v0.2","","""event"",""trial"",""time""
""fullscreenenter"",""1"",""1800""
","
","
","""event"",""trial"",""time""
""fullscreenenter"",""1"",""1800""
","
","","","-1","","","12","14678","2613","&#9761;","elianto","#3366ff99","-1","-1","1","0","[]","0","0","2","","","","","","","",""
"pit-trial","46","438002","0.0-2.0-11.1-4.1","battery-v0.2","","""event"",""trial"",""time""
""fullscreenenter"",""1"",""1800""
","
","
","""event"",""trial"",""time""
""fullscreenenter"",""1"",""1800""
","
","","","-1","","","12","14678","2613","&#9761;","elianto","#3366ff99","-1","-1","1","+10","[]","0","0","2","","","","","","","",""
"pit-trial","47","442867","0.0-2.0-11.2-0.2","battery-v0.2","","""event"",""trial"",""time""
""fullscreenenter"",""1"",""1800""
","
","
","""event"",""trial"",""time""
""fullscreenenter"",""1"",""1800""
","
","","","-1","","","12","14678","2613","&#9761;","elianto","#3366ff99","-1","-1","1","+10","[]","0","0","2","","","","","","","",""
"pit-trial","48","447730","0.0-2.0-11.2-1.2","battery-v0.2","","""event"",""trial"",""time""
""fullscreenenter"",""1"",""1800""
","
","
","""event"",""trial"",""time""
""fullscreenenter"",""1"",""1800""
","
","","","-1","","","12","14678","2613","&#9761;","elianto","#3366ff99","-1","-1","1","+10","[]","0","0","2","","","","","","","",""
"pit-trial","49","452591","0.0-2.0-11.2-2.2","battery-v0.2","","""event"",""trial"",""time""
""fullscreenenter"",""1"",""1800""
","
","
","""event"",""trial"",""time""
""fullscreenenter"",""1"",""1800""
","
","","","-1","","","12","14678","2613","&#9761;","elianto","#3366ff99","-1","-1","1","+10","[]","0","0","2","","","","","","","",""
"pit-trial","50","457463","0.0-2.0-11.2-3.2","battery-v0.2","","""event"",""trial"",""time""
""fullscreenenter"",""1"",""1800""
","
","
","""event"",""trial"",""time""
""fullscreenenter"",""1"",""1800""
","
","","","-1","","","12","14678","2613","&#9761;","elianto","#3366ff99","-1","-1","1","0","[]","0","0","2","","","","","","","",""
"pit-trial","51","462337","0.0-2.0-11.2-4.2","battery-v0.2","","""event"",""trial"",""time""
""fullscreenenter"",""1"",""1800""
","
","
","""event"",""trial"",""time""
""fullscreenenter"",""1"",""1800""
","
","","","-1","","","12","14678","2613","&#9761;","elianto","#3366ff99","-1","-1","1","+10","[]","0","0","2","","","","","","","",""
"pit-trial","52","467209","0.0-2.0-11.3-0.3","battery-v0.2","","""event"",""trial"",""time""
""fullscreenenter"",""1"",""1800""
","
","
","""event"",""trial"",""time""
""fullscreenenter"",""1"",""1800""
","
","","","-1","","","12","14678","2613","&#9761;","elianto","#3366ff99","-1","-1","1","+10","[]","0","0","2","","","","","","","",""
"pit-trial","53","472077","0.0-2.0-11.3-1.3","battery-v0.2","","""event"",""trial"",""time""
""fullscreenenter"",""1"",""1800""
","
","
","""event"",""trial"",""time""
""fullscreenenter"",""1"",""1800""
","
","","","-1","","","12","14678","2613","&#9761;","elianto","#3366ff99","-1","-1","1","+10","[]","0","0","2","","","","","","","",""
"pit-trial","54","476951","0.0-2.0-11.3-2.3","battery-v0.2","","""event"",""trial"",""time""
""fullscreenenter"",""1"",""1800""
","
","
","""event"",""trial"",""time""
""fullscreenenter"",""1"",""1800""
","
","","","-1","","","12","14678","2613","&#9761;","elianto","#3366ff99","-1","-1","1","+10","[]","0","0","2","","","","","","","",""
"pit-trial","55","481812","0.0-2.0-11.3-3.3","battery-v0.2","","""event"",""trial"",""time""
""fullscreenenter"",""1"",""1800""
","
","
","""event"",""trial"",""time""
""fullscreenenter"",""1"",""1800""
","
","","","-1","","","12","14678","2613","&#9761;","elianto","#3366ff99","-1","-1","1","0","[]","0","0","2","","","","","","","",""
"pit-trial","56","486675","0.0-2.0-11.3-4.3","battery-v0.2","","""event"",""trial"",""time""
""fullscreenenter"",""1"",""1800""
","
","
","""event"",""trial"",""time""
""fullscreenenter"",""1"",""1800""
","
","","","-1","","","12","14678","2613","&#9761;","elianto","#3366ff99","-1","-1","1","+10","[]","0","0","2","","","","","","","",""
"call-function","57","486678","0.0-2.0-12.0","battery-v0.2","","""event"",""trial"",""time""
""fullscreenenter"",""1"",""1800""
","
","
","""event"",""trial"",""time""
""fullscreenenter"",""1"",""1800""
","
","","","","","","","","","","","","","","","","","","","","","","","","","","",""
"pit-instructions","58","527691","0.0-2.0-13.0","battery-v0.2","","""event"",""trial"",""time""
""fullscreenenter"",""1"",""1800""
","
","
","""event"",""trial"",""time""
""fullscreenenter"",""1"",""1800""
","
","","[{""page_index"":0,""viewing_time"":9338.300000011921},{""page_index"":1,""viewing_time"":9091.90000000596},{""page_index"":2,""viewing_time"":5217.699999988079},{""page_index"":3,""viewing_time"":11675.40000000596},{""page_index"":4,""viewing_time"":5683.5999999940395}]","41007.5","","","","","","","","","","","","","","","","","","","","","","","",""
"pit-trial","59","531045","0.0-2.0-14.0-0.0","battery-v0.2","","""event"",""trial"",""time""
""fullscreenenter"",""1"",""1800""
","
","
","""event"",""trial"",""time""
""fullscreenenter"",""1"",""1800""
","
","","","474.5","","","12","14678","2613","&#9826;","elianto","#f73b6a7A","-1"," ","0","-10","[1338.7000000178814]","1","0","3","","","","","","","",""
"pit-trial","60","535923","0.0-2.0-14.0-1.0","battery-v0.2","","""event"",""trial"",""time""
""fullscreenenter"",""1"",""1800""
","
","
","""event"",""trial"",""time""
""fullscreenenter"",""1"",""1800""
","
","","","-1","","","12","14678","2613","&#9826;","elianto","#f73b6a7A","-1","-1","1","0","[]","0","0","3","","","","","","","",""
"pit-trial","61","540787","0.0-2.0-14.0-2.0","battery-v0.2","","""event"",""trial"",""time""
""fullscreenenter"",""1"",""1800""
","
","
","""event"",""trial"",""time""
""fullscreenenter"",""1"",""1800""
","
","","","-1","","","12","14678","2613","&#9826;","elianto","#f73b6a7A","-1","-1","1","0","[]","0","0","3","","","","","","","",""
"pit-trial","62","545653","0.0-2.0-14.0-3.0","battery-v0.2","","""event"",""trial"",""time""
""fullscreenenter"",""1"",""1800""
","
","
","""event"",""trial"",""time""
""fullscreenenter"",""1"",""1800""
","
","","","-1","","","12","14678","2613","&#9826;","elianto","#f73b6a7A","-1","-1","1","-10","[]","0","0","3","","","","","","","",""
"pit-trial","63","548912","0.0-2.0-14.0-4.0","battery-v0.2","","""event"",""trial"",""time""
""fullscreenenter"",""1"",""1800""
","
","
","""event"",""trial"",""time""
""fullscreenenter"",""1"",""1800""
","
","","","401.7000000178814","","","12","14678","2613","&#9826;","elianto","#f73b6a7A","-1"," ","0","-10","[1254.2999999821186]","1","0","3","","","","","","","",""
"pit-trial","64","553789","0.0-2.0-14.1-0.1","battery-v0.2","","""event"",""trial"",""time""
""fullscreenenter"",""1"",""1800""
","
","
","""event"",""trial"",""time""
""fullscreenenter"",""1"",""1800""
","
","","","-1","","","12","14678","2613","&#9826;","elianto","#f73b6a7A","-1","-1","1","0","[]","0","0","3","","","","","","","",""
"pit-trial","65","558661","0.0-2.0-14.1-1.1","battery-v0.2","","""event"",""trial"",""time""
""fullscreenenter"",""1"",""1800""
","
","
","""event"",""trial"",""time""
""fullscreenenter"",""1"",""1800""
","
","","","-1","","","12","14678","2613","&#9826;","elianto","#f73b6a7A","-1","-1","1","0","[]","0","0","3","","","","","","","",""
"pit-trial","66","563524","0.0-2.0-14.1-2.1","battery-v0.2","","""event"",""trial"",""time""
""fullscreenenter"",""1"",""1800""
","
","
","""event"",""trial"",""time""
""fullscreenenter"",""1"",""1800""
","
","","","-1","","","12","14678","2613","&#9826;","elianto","#f73b6a7A","-1","-1","1","0","[]","0","0","3","","","","","","","",""
"pit-trial","67","568398","0.0-2.0-14.1-3.1","battery-v0.2","","""event"",""trial"",""time""
""fullscreenenter"",""1"",""1800""
","
","
","""event"",""trial"",""time""
""fullscreenenter"",""1"",""1800""
","
","","","-1","","","12","14678","2613","&#9826;","elianto","#f73b6a7A","-1","-1","1","-10","[]","0","0","3","","","","","","","",""
"pit-trial","68","573263","0.0-2.0-14.1-4.1","battery-v0.2","","""event"",""trial"",""time""
""fullscreenenter"",""1"",""1800""
","
","
","""event"",""trial"",""time""
""fullscreenenter"",""1"",""1800""
","
","","","-1","","","12","14678","2613","&#9826;","elianto","#f73b6a7A","-1","-1","1","0","[]","0","0","3","","","","","","","",""
"pit-trial","69","578131","0.0-2.0-14.2-0.2","battery-v0.2","","""event"",""trial"",""time""
""fullscreenenter"",""1"",""1800""
","
","
","""event"",""trial"",""time""
""fullscreenenter"",""1"",""1800""
","
","","","-1","","","12","14678","2613","&#9826;","elianto","#f73b6a7A","-1","-1","1","0","[]","0","0","3","","","","","","","",""
"pit-trial","70","582987","0.0-2.0-14.2-1.2","battery-v0.2","","""event"",""trial"",""time""
""fullscreenenter"",""1"",""1800""
","
","
","""event"",""trial"",""time""
""fullscreenenter"",""1"",""1800""
","
","","","-1","","","12","14678","2613","&#9826;","elianto","#f73b6a7A","-1","-1","1","0","[]","0","0","3","","","","","","","",""
"pit-trial","71","587858","0.0-2.0-14.2-2.2","battery-v0.2","","""event"",""trial"",""time""
""fullscreenenter"",""1"",""1800""
","
","
","""event"",""trial"",""time""
""fullscreenenter"",""1"",""1800""
","
","","","-1","","","12","14678","2613","&#9826;","elianto","#f73b6a7A","-1","-1","1","0","[]","0","0","3","","","","","","","",""
"pit-trial","72","592732","0.0-2.0-14.2-3.2","battery-v0.2","","""event"",""trial"",""time""
""fullscreenenter"",""1"",""1800""
","
","
","""event"",""trial"",""time""
""fullscreenenter"",""1"",""1800""
","
","","","-1","","","12","14678","2613","&#9826;","elianto","#f73b6a7A","-1","-1","1","-10","[]","0","0","3","","","","","","","",""
"pit-trial","73","597598","0.0-2.0-14.2-4.2","battery-v0.2","","""event"",""trial"",""time""
""fullscreenenter"",""1"",""1800""
","
","
","""event"",""trial"",""time""
""fullscreenenter"",""1"",""1800""
","
","","","-1","","","12","14678","2613","&#9826;","elianto","#f73b6a7A","-1","-1","1","0","[]","0","0","3","","","","","","","",""
"pit-trial","74","602469","0.0-2.0-14.3-0.3","battery-v0.2","","""event"",""trial"",""time""
""fullscreenenter"",""1"",""1800""
","
","
","""event"",""trial"",""time""
""fullscreenenter"",""1"",""1800""
","
","","","-1","","","12","14678","2613","&#9826;","elianto","#f73b6a7A","-1","-1","1","0","[]","0","0","3","","","","","","","",""
"pit-trial","75","607342","0.0-2.0-14.3-1.3","battery-v0.2","","""event"",""trial"",""time""
""fullscreenenter"",""1"",""1800""
","
","
","""event"",""trial"",""time""
""fullscreenenter"",""1"",""1800""
","
","","","-1","","","12","14678","2613","&#9826;","elianto","#f73b6a7A","-1","-1","1","0","[]","0","0","3","","","","","","","",""
"pit-trial","76","612208","0.0-2.0-14.3-2.3","battery-v0.2","","""event"",""trial"",""time""
""fullscreenenter"",""1"",""1800""
","
","
","""event"",""trial"",""time""
""fullscreenenter"",""1"",""1800""
","
","","","-1","","","12","14678","2613","&#9826;","elianto","#f73b6a7A","-1","-1","1","0","[]","0","0","3","","","","","","","",""
"pit-trial","77","617078","0.0-2.0-14.3-3.3","battery-v0.2","","""event"",""trial"",""time""
""fullscreenenter"",""1"",""1800""
","
","
","""event"",""trial"",""time""
""fullscreenenter"",""1"",""1800""
","
","","","-1","","","12","14678","2613","&#9826;","elianto","#f73b6a7A","-1","-1","1","-10","[]","0","0","3","","","","","","","",""
"pit-trial","78","621949","0.0-2.0-14.3-4.3","battery-v0.2","","""event"",""trial"",""time""
""fullscreenenter"",""1"",""1800""
","
","
","""event"",""trial"",""time""
""fullscreenenter"",""1"",""1800""
","
","","","-1","","","12","14678","2613","&#9826;","elianto","#f73b6a7A","-1","-1","1","0","[]","0","0","3","","","","","","","",""
"call-function","79","621953","0.0-2.0-15.0","battery-v0.2","","""event"",""trial"",""time""
""fullscreenenter"",""1"",""1800""
","
","
","""event"",""trial"",""time""
""fullscreenenter"",""1"",""1800""
","
","","","","","","","","","","","","","","","","","","","","","","","","","","",""
"pit-instructions","80","649821","0.0-2.0-16.0","battery-v0.2","","""event"",""trial"",""time""
""fullscreenenter"",""1"",""1800""
","
","
","""event"",""trial"",""time""
""fullscreenenter"",""1"",""1800""
","
","","[{""page_index"":0,""viewing_time"":7201.700000017881},{""page_index"":1,""viewing_time"":9294.40000000596},{""page_index"":2,""viewing_time"":5631.699999988079},{""page_index"":3,""viewing_time"":5738.5}]","27867","","","","","","","","","","","","","","","","","","","","","","","",""
"pit-trial","81","653315","0.0-2.0-17.0-0.0","battery-v0.2","","""event"",""trial"",""time""
""fullscreenenter"",""1"",""1800""
","
","
","""event"",""trial"",""time""
""fullscreenenter"",""1"",""1800""
","
","","","621.2000000178814","","","12","14678","2613","&#9789;","elianto","#f73b6a7A"," "," ","1","0","[1474.300000011921]","1","0","4","","","","","","","",""
"pit-trial","82","656439","0.0-2.0-17.0-1.0","battery-v0.2","","""event"",""trial"",""time""
""fullscreenenter"",""1"",""1800""
","
","
","""event"",""trial"",""time""
""fullscreenenter"",""1"",""1800""
","
","","","250.90000000596046","","","12","14678","2613","&#9789;","elianto","#f73b6a7A"," "," ","1","0","[1112.2000000178814]","1","0","4","","","","","","","",""
"pit-trial","83","659671","0.0-2.0-17.0-2.0","battery-v0.2","","""event"",""trial"",""time""
""fullscreenenter"",""1"",""1800""
","
","
","""event"",""trial"",""time""
""fullscreenenter"",""1"",""1800""
","
","","","374.19999998807907","","","12","14678","2613","&#9789;","elianto","#f73b6a7A"," "," ","1","0","[1225]","1","0","4","","","","","","","",""
"pit-trial","84","662774","0.0-2.0-17.0-3.0","battery-v0.2","","""event"",""trial"",""time""
""fullscreenenter"",""1"",""1800""
","
","
","""event"",""trial"",""time""
""fullscreenenter"",""1"",""1800""
","
","","","232.59999999403954","","","12","14678","2613","&#9789;","elianto","#f73b6a7A"," "," ","1","-10","[1088]","1","0","4","","","","","","","",""
"pit-trial","85","665692","0.0-2.0-17.0-4.0","battery-v0.2","","""event"",""trial"",""time""
""fullscreenenter"",""1"",""1800""
","
","
","""event"",""trial"",""time""
""fullscreenenter"",""1"",""1800""
","
","","","52.400000005960464","","","12","14678","2613","&#9789;","elianto","#f73b6a7A"," "," ","1","0","[904.9000000059605]","1","0","4","","","","","","","",""
"pit-trial","86","668827","0.0-2.0-17.1-0.1","battery-v0.2","","""event"",""trial"",""time""
""fullscreenenter"",""1"",""1800""
","
","
","""event"",""trial"",""time""
""fullscreenenter"",""1"",""1800""
","
","","","274.2000000178814","","","12","14678","2613","&#9789;","elianto","#f73b6a7A"," "," ","1","0","[1125.7000000178814]","1","0","4","","","","","","","",""
"pit-trial","87","672029","0.0-2.0-17.1-1.1","battery-v0.2","","""event"",""trial"",""time""
""fullscreenenter"",""1"",""1800""
","
","
","""event"",""trial"",""time""
""fullscreenenter"",""1"",""1800""
","
","","","332.59999999403954","","","12","14678","2613","&#9789;","elianto","#f73b6a7A"," "," ","1","0","[1183.2999999821186]","1","0","4","","","","","","","",""
"pit-trial","88","675022","0.0-2.0-17.1-2.1","battery-v0.2","","""event"",""trial"",""time""
""fullscreenenter"",""1"",""1800""
","
","
","""event"",""trial"",""time""
""fullscreenenter"",""1"",""1800""
","
","","","131.59999999403954","","","12","14678","2613","&#9789;","elianto","#f73b6a7A"," "," ","1","0","[981.5]","1","0","4","","","","","","","",""
"pit-trial","89","678005","0.0-2.0-17.1-3.1","battery-v0.2","","""event"",""trial"",""time""
""fullscreenenter"",""1"",""1800""
","
","
","""event"",""trial"",""time""
""fullscreenenter"",""1"",""1800""
","
","","","116.5","","","12","14678","2613","&#9789;","elianto","#f73b6a7A"," "," ","1","-10","[972.7999999821186]","1","0","4","","","","","","","",""
"pit-trial","90","681307","0.0-2.0-17.1-4.1","battery-v0.2","","""event"",""trial"",""time""
""fullscreenenter"",""1"",""1800""
","
","
","""event"",""trial"",""time""
""fullscreenenter"",""1"",""1800""
","
","","","446.59999999403954","","","12","14678","2613","&#9789;","elianto","#f73b6a7A"," "," ","1","0","[1298.199999988079]","1","0","4","","","","","","","",""
"pit-trial","91","684241","0.0-2.0-17.2-0.2","battery-v0.2","","""event"",""trial"",""time""
""fullscreenenter"",""1"",""1800""
","
","
","""event"",""trial"",""time""
""fullscreenenter"",""1"",""1800""
","
","","","71","","","12","14678","2613","&#9789;","elianto","#f73b6a7A"," "," ","1","0","[922.4000000059605]","1","0","4","","","","","","","",""
"pit-trial","92","687295","0.0-2.0-17.2-1.2","battery-v0.2","","""event"",""trial"",""time""
""fullscreenenter"",""1"",""1800""
","
","
","""event"",""trial"",""time""
""fullscreenenter"",""1"",""1800""
","
","","","192.2999999821186","","","12","14678","2613","&#9789;","elianto","#f73b6a7A"," "," ","1","0","[1046.699999988079]","1","0","4","","","","","","","",""
"pit-trial","93","690363","0.0-2.0-17.2-2.2","battery-v0.2","","""event"",""trial"",""time""
""fullscreenenter"",""1"",""1800""
","
","
","""event"",""trial"",""time""
""fullscreenenter"",""1"",""1800""
","
","","","207.7000000178814","","","12","14678","2613","&#9789;","elianto","#f73b6a7A"," "," ","1","0","[1059.800000011921]","1","0","4","","","","","","","",""
"pit-trial","94","693390","0.0-2.0-17.2-3.2","battery-v0.2","","""event"",""trial"",""time""
""fullscreenenter"",""1"",""1800""
","
","
","""event"",""trial"",""time""
""fullscreenenter"",""1"",""1800""
","
","","","170.19999998807907","","","12","14678","2613","&#9789;","elianto","#f73b6a7A"," "," ","1","-10","[1020.6999999880791]","1","0","4","","","","","","","",""
"pit-trial","95","696354","0.0-2.0-17.2-4.2","battery-v0.2","","""event"",""trial"",""time""
""fullscreenenter"",""1"",""1800""
","
","
","""event"",""trial"",""time""
""fullscreenenter"",""1"",""1800""
","
","","","103.5","","","12","14678","2613","&#9789;","elianto","#f73b6a7A"," "," ","1","0","[955.4000000059605]","1","0","4","","","","","","","",""
"pit-trial","96","699852","0.0-2.0-17.3-0.3","battery-v0.2","","""event"",""trial"",""time""
""fullscreenenter"",""1"",""1800""
","
","
","""event"",""trial"",""time""
""fullscreenenter"",""1"",""1800""
","
","","","637.2000000178814","","","12","14678","2613","&#9789;","elianto","#f73b6a7A"," "," ","1","0","[1490.0999999940395]","1","0","4","","","","","","","",""
"pit-trial","97","702976","0.0-2.0-17.3-1.3","battery-v0.2","","""event"",""trial"",""time""
""fullscreenenter"",""1"",""1800""
","
","
","""event"",""trial"",""time""
""fullscreenenter"",""1"",""1800""
","
","","","258","","","12","14678","2613","&#9789;","elianto","#f73b6a7A"," "," ","1","0","[1109.7999999821186]","1","0","4","","","","","","","",""
"pit-trial","98","705990","0.0-2.0-17.3-2.3","battery-v0.2","","""event"",""trial"",""time""
""fullscreenenter"",""1"",""1800""
","
","
","""event"",""trial"",""time""
""fullscreenenter"",""1"",""1800""
","
","","","148.7000000178814","","","12","14678","2613","&#9789;","elianto","#f73b6a7A"," "," ","1","0","[998.8000000119209]","1","0","4","","","","","","","",""
"pit-trial","99","709001","0.0-2.0-17.3-3.3","battery-v0.2","","""event"",""trial"",""time""
""fullscreenenter"",""1"",""1800""
","
","
","""event"",""trial"",""time""
""fullscreenenter"",""1"",""1800""
","
","","","155.5","","","12","14678","2613","&#9789;","elianto","#f73b6a7A"," "," ","1","-10","[1006]","1","0","4","","","","","","","",""
"pit-trial","100","712089","0.0-2.0-17.3-4.3","battery-v0.2","","""event"",""trial"",""time""
""fullscreenenter"",""1"",""1800""
","
","
","""event"",""trial"",""time""
""fullscreenenter"",""1"",""1800""
","
","","","223.90000000596046","","","12","14678","2613","&#9789;","elianto","#f73b6a7A"," "," ","1","0","[1081.5999999940395]","1","0","4","","","","","","","",""
"call-function","101","712092","0.0-2.0-18.0","battery-v0.2","","""event"",""trial"",""time""
""fullscreenenter"",""1"",""1800""
","
","
","""event"",""trial"",""time""
""fullscreenenter"",""1"",""1800""
","
","","","","","","","","","","","","","","","","","","","","","","","","","","",""
"pit-instructions","102","790426","0.0-2.0-19.0","battery-v0.2","","""event"",""trial"",""time""
""fullscreenenter"",""1"",""1800""
","
","
","""event"",""trial"",""time""
""fullscreenenter"",""1"",""1800""
","
","","[{""page_index"":0,""viewing_time"":6919.600000023842},{""page_index"":1,""viewing_time"":7110.699999988079},{""page_index"":2,""viewing_time"":12340.199999988079},{""page_index"":3,""viewing_time"":7818.200000017881},{""page_index"":4,""viewing_time"":9406.90000000596},{""page_index"":5,""viewing_time"":8909.5},{""page_index"":6,""viewing_time"":7978.0999999940395},{""page_index"":7,""viewing_time"":3207.9000000059605},{""page_index"":6,""viewing_time"":4977.199999988079},{""page_index"":7,""viewing_time"":6488.9000000059605},{""page_index"":8,""viewing_time"":3171}]","78329","","","","","","","","","","","","","","","","","","","","","","","",""
"pit-comprehension","103","794621","0.0-2.0-20.0-0.0","battery-v0.2","","""event"",""trial"",""time""
""fullscreenenter"",""1"",""1800""
","
","
","""event"",""trial"",""time""
""fullscreenenter"",""1"",""1800""
","
","","","4183.5999999940395","[""SPACE""]","0","12","14678","2613","","","","","","","","","","","","","","","","","","",""
"pit-instructions","104","798209","0.0-2.0-20.0-1.0","battery-v0.2","","""event"",""trial"",""time""
""fullscreenenter"",""1"",""1800""
","
","
","""event"",""trial"",""time""
""fullscreenenter"",""1"",""1800""
","
","","[{""page_index"":0,""viewing_time"":3523.0999999940395}]","3523.7999999821186","","","","","","","","","","","","","","","","","","","","","","","",""
"pit-comprehension","105","804346","0.0-2.0-21.0-0.0","battery-v0.2","","""event"",""trial"",""time""
""fullscreenenter"",""1"",""1800""
","
","
","""event"",""trial"",""time""
""fullscreenenter"",""1"",""1800""
","
","","","6123.799999982119","[""10""]","0","12","14678","2613","","","","","","","","","","","","","","","","","","",""
"pit-instructions","106","805456","0.0-2.0-21.0-1.0","battery-v0.2","","""event"",""trial"",""time""
""fullscreenenter"",""1"",""1800""
","
","
","""event"",""trial"",""time""
""fullscreenenter"",""1"",""1800""
","
","","[{""page_index"":0,""viewing_time"":1049.7000000178814}]","1050.4000000059605","","","","","","","","","","","","","","","","","","","","","","","",""
"pit-comprehension","107","811546","0.0-2.0-22.0-0.0","battery-v0.2","","""event"",""trial"",""time""
""fullscreenenter"",""1"",""1800""
","
","
","""event"",""trial"",""time""
""fullscreenenter"",""1"",""1800""
","
","","","6079.199999988079","[""0""]","0","12","14678","2613","","","","","","","","","","","","","","","","","","",""
"pit-instructions","108","813872","0.0-2.0-22.0-1.0","battery-v0.2","","""event"",""trial"",""time""
""fullscreenenter"",""1"",""1800""
","
","
","""event"",""trial"",""time""
""fullscreenenter"",""1"",""1800""
","
","","[{""page_index"":0,""viewing_time"":2239.800000011921}]","2240.4000000059605","","","","","","","","","","","","","","","","","","","","","","","",""
"pit-comprehension","109","821893","0.0-2.0-23.0-0.0","battery-v0.2","","""event"",""trial"",""time""
""fullscreenenter"",""1"",""1800""
","
","
","""event"",""trial"",""time""
""fullscreenenter"",""1"",""1800""
","
","","","8010.5999999940395","[""True""]","0","12","14678","2613","","","","","","","","","","","","","","","","","","",""
"pit-instructions","110","823256","0.0-2.0-23.0-1.0","battery-v0.2","","""event"",""trial"",""time""
""fullscreenenter"",""1"",""1800""
","
","
","""event"",""trial"",""time""
""fullscreenenter"",""1"",""1800""
","
","","[{""page_index"":0,""viewing_time"":1302.699999988079}]","1303.3999999761581","","","","","","","","","","","","","","","","","","","","","","","",""
"pit-comprehension","111","830305","0.0-2.0-24.0-0.0","battery-v0.2","","""event"",""trial"",""time""
""fullscreenenter"",""1"",""1800""
","
","
","""event"",""trial"",""time""
""fullscreenenter"",""1"",""1800""
","
","","","7039.5","[""True""]","0","12","14678","2613","","","","","","","","","","","","","","","","","","",""
"pit-instructions","112","831650","0.0-2.0-24.0-1.0","battery-v0.2","","""event"",""trial"",""time""
""fullscreenenter"",""1"",""1800""
","
","
","""event"",""trial"",""time""
""fullscreenenter"",""1"",""1800""
","
","","[{""page_index"":0,""viewing_time"":1281.5999999940395}]","1282.0999999940395","","","","","","","","","","","","","","","","","","","","","","","",""
"pit-comprehension","113","837945","0.0-2.0-25.0-0.0","battery-v0.2","","""event"",""trial"",""time""
""fullscreenenter"",""1"",""1800""
","
","
","""event"",""trial"",""time""
""fullscreenenter"",""1"",""1800""
","
","","","6287.5999999940395","[""True""]","0","12","14678","2613","","","","","","","","","","","","","","","","","","",""
"pit-instructions","114","839549","0.0-2.0-25.0-1.0","battery-v0.2","","""event"",""trial"",""time""
""fullscreenenter"",""1"",""1800""
","
","
","""event"",""trial"",""time""
""fullscreenenter"",""1"",""1800""
","
","","[{""page_index"":0,""viewing_time"":1525.5}]","1526.5","","","","","","","","","","","","","","","","","","","","","","","",""
"pit-comprehension","115","844161","0.0-2.0-26.0-0.0","battery-v0.2","","""event"",""trial"",""time""
""fullscreenenter"",""1"",""1800""
","
","
","""event"",""trial"",""time""
""fullscreenenter"",""1"",""1800""
","
","","","4603.5","[""False""]","0","12","14678","2613","","","","","","","","","","","","","","","","","","",""
"pit-instructions","116","846045","0.0-2.0-26.0-1.0","battery-v0.2","","""event"",""trial"",""time""
""fullscreenenter"",""1"",""1800""
","
","
","""event"",""trial"",""time""
""fullscreenenter"",""1"",""1800""
","
","","[{""page_index"":0,""viewing_time"":1820}]","1820.5999999940395","","","","","","","","","","","","","","","","","","","","","","","",""
"pit-instructions","117","866554","0.0-3.0","battery-v0.2","","""event"",""trial"",""time""
""fullscreenenter"",""1"",""1800""
","
","
","""event"",""trial"",""time""
""fullscreenenter"",""1"",""1800""
","
","","[{""page_index"":0,""viewing_time"":4690.0999999940395},{""page_index"":1,""viewing_time"":5991.699999988079},{""page_index"":2,""viewing_time"":9821.700000017881}]","20504.29999998212","","","","","","","","","","","","","","","","","","","","","","","",""
"pit-trial","118","871219","0.0-4.0","battery-v0.2","","""event"",""trial"",""time""
""fullscreenenter"",""1"",""1800""
","
","
","""event"",""trial"",""time""
""fullscreenenter"",""1"",""1800""
","
","","","1785.699999988079","","","12","14678","2613","&#9728;","elianto","#f73b6a7A","-1"," ","0","-10","[2638.7999999821186]","1","1","","","14678","1","0","4","lose","no-go","0"
"pit-trial","119","875084","0.0-5.0","battery-v0.2","","""event"",""trial"",""time""
""fullscreenenter"",""1"",""1800""
","
","
","""event"",""trial"",""time""
""fullscreenenter"",""1"",""1800""
","
","","","993.2000000178814","","","12","14678","2613","&#9733;","elianto","#3366ff99","-1"," ","0","0","[1846.6000000238419]","1","1","","","14678","2","2","2","win","no-go","0"
"pit-trial","120","878901","0.0-6.0","battery-v0.2","","""event"",""trial"",""time""
""fullscreenenter"",""1"",""1800""
","
","
","""event"",""trial"",""time""
""fullscreenenter"",""1"",""1800""
","
","","","948.3000000119209","","","12","14678","2613","&#9730;","elianto","#3366ff99"," "," ","1","+10","[1800.300000011921]","1","1","","","14678","3","1","1","win","go","0"
"pit-trial","121","882703","0.0-7.0","battery-v0.2","","""event"",""trial"",""time""
""fullscreenenter"",""1"",""1800""
","
","
","""event"",""trial"",""time""
""fullscreenenter"",""1"",""1800""
","
","","","944.0999999940395","","","12","14678","2613","&#9752;","elianto","#f73b6a7A"," "," ","1","0","[1795.9000000059605]","1","1","","","14678","4","3","3","lose","go","0"
"pit-trial","122","886382","0.0-8.0","battery-v0.2","","""event"",""trial"",""time""
""fullscreenenter"",""1"",""1800""
","
","
","""event"",""trial"",""time""
""fullscreenenter"",""1"",""1800""
","
","","","801.5","","","12","14678","2613","&#9733;","elianto","#3366ff99","-1"," ","0","0","[1662.0999999940395]","1","1","","","14678","5","2","2","win","no-go","0"
"pit-trial","123","891263","0.0-9.0","battery-v0.2","","""event"",""trial"",""time""
""fullscreenenter"",""1"",""1800""
","
","
","""event"",""trial"",""time""
""fullscreenenter"",""1"",""1800""
","
","","","-1","","","12","14678","2613","&#9752;","elianto","#f73b6a7A"," ","-1","0","0","[]","0","1","","","14678","6","3","3","lose","go","1"
"pit-trial","124","895136","0.0-10.0","battery-v0.2","","""event"",""trial"",""time""
""fullscreenenter"",""1"",""1800""
","
","
","""event"",""trial"",""time""
""fullscreenenter"",""1"",""1800""
","
","","","1007.0999999940395","","","12","14678","2613","&#9728;","elianto","#f73b6a7A","-1"," ","0","-10","[1859.4000000059605]","1","1","","","14678","7","0","4","lose","no-go","0"
"pit-trial","125","899993","0.0-11.0","battery-v0.2","","""event"",""trial"",""time""
""fullscreenenter"",""1"",""1800""
","
","
","""event"",""trial"",""time""
""fullscreenenter"",""1"",""1800""
","
","","","-1","","","12","14678","2613","&#9730;","elianto","#3366ff99"," ","-1","0","+10","[]","0","1","","","14678","8","1","1","win","go","1"
"pit-trial","126","903836","0.0-12.0","battery-v0.2","","""event"",""trial"",""time""
""fullscreenenter"",""1"",""1800""
","
","
","""event"",""trial"",""time""
""fullscreenenter"",""1"",""1800""
","
","","","976.5","","","12","14678","2613","&#9752;","elianto","#f73b6a7A"," "," ","1","0","[1833.7000000178814]","1","1","","","14678","9","3","3","lose","go","0"
"pit-trial","127","908706","0.0-13.0","battery-v0.2","","""event"",""trial"",""time""
""fullscreenenter"",""1"",""1800""
","
","
","""event"",""trial"",""time""
""fullscreenenter"",""1"",""1800""
","
","","","-1","","","12","14678","2613","&#9730;","elianto","#3366ff99"," ","-1","0","0","[]","0","1","","","14678","10","1","1","win","go","0"
"pit-trial","128","912308","0.0-14.0","battery-v0.2","","""event"",""trial"",""time""
""fullscreenenter"",""1"",""1800""
","
","
","""event"",""trial"",""time""
""fullscreenenter"",""1"",""1800""
","
","","","733.5999999940395","","","12","14678","2613","&#9733;","elianto","#3366ff99","-1"," ","0","0","[1594.8999999761581]","1","1","","","14678","11","2","2","win","no-go","0"
"pit-trial","129","917175","0.0-15.0","battery-v0.2","","""event"",""trial"",""time""
""fullscreenenter"",""1"",""1800""
","
","
","""event"",""trial"",""time""
""fullscreenenter"",""1"",""1800""
","
","","","-1","","","12","14678","2613","&#9728;","elianto","#f73b6a7A","-1","-1","1","-10","[4128.300000011921]","1","1","","","14678","12","0","4","lose","no-go","1"
"pit-trial","130","921576","0.0-16.0","battery-v0.2","","""event"",""trial"",""time""
""fullscreenenter"",""1"",""1800""
","
","
","""event"",""trial"",""time""
""fullscreenenter"",""1"",""1800""
","
","","","1534","","","12","14678","2613","&#9728;","elianto","#f73b6a7A","-1"," ","0","-10","[2395.800000011921]","1","1","","","14678","13","0","4","lose","no-go","0"
"pit-trial","131","926452","0.0-17.0","battery-v0.2","","""event"",""trial"",""time""
""fullscreenenter"",""1"",""1800""
","
","
","""event"",""trial"",""time""
""fullscreenenter"",""1"",""1800""
","
","","","-1","","","12","14678","2613","&#9752;","elianto","#f73b6a7A"," ","-1","0","-10","[]","0","1","","","14678","14","3","3","lose","go","0"
"pit-trial","132","930864","0.0-18.0","battery-v0.2","","""event"",""trial"",""time""
""fullscreenenter"",""1"",""1800""
","
","
","""event"",""trial"",""time""
""fullscreenenter"",""1"",""1800""
","
","","","1548.0999999940395","","","12","14678","2613","&#9733;","elianto","#3366ff99","-1"," ","0","0","[2398.4000000059605]","1","1","","","14678","15","2","2","win","no-go","0"
"pit-trial","133","935640","0.0-19.0","battery-v0.2","","""event"",""trial"",""time""
""fullscreenenter"",""1"",""1800""
","
","
","""event"",""trial"",""time""
""fullscreenenter"",""1"",""1800""
","
","","","1923.300000011921","","","12","14678","2613","&#9730;","elianto","#3366ff99"," "," ","1","+10","[2773.9000000059605]","1","1","","","14678","16","1","1","win","go","0"
"pit-trial","134","940508","0.0-20.0","battery-v0.2","","""event"",""trial"",""time""
""fullscreenenter"",""1"",""1800""
","
","
","""event"",""trial"",""time""
""fullscreenenter"",""1"",""1800""
","
","","","-1","","","12","14678","2613","&#9733;","elianto","#3366ff99","-1","-1","1","+10","[]","0","1","","","14678","17","2","2","win","no-go","0"
"pit-trial","135","945378","0.0-21.0","battery-v0.2","","""event"",""trial"",""time""
""fullscreenenter"",""1"",""1800""
","
","
","""event"",""trial"",""time""
""fullscreenenter"",""1"",""1800""
","
","","","-1","","","12","14678","2613","&#9752;","elianto","#f73b6a7A"," ","-1","0","-10","[4181.300000011921]","1","1","","","14678","18","3","3","lose","go","0"
"pit-trial","136","950237","0.0-22.0","battery-v0.2","","""event"",""trial"",""time""
""fullscreenenter"",""1"",""1800""
","
","
","""event"",""trial"",""time""
""fullscreenenter"",""1"",""1800""
","
","","","-1","","","12","14678","2613","&#9730;","elianto","#3366ff99"," ","-1","0","0","[3764]","1","1","","","14678","19","1","1","win","go","0"
"pit-trial","137","954056","0.0-23.0","battery-v0.2","","""event"",""trial"",""time""
""fullscreenenter"",""1"",""1800""
","
","
","""event"",""trial"",""time""
""fullscreenenter"",""1"",""1800""
","
","","","952.5999999940395","","","12","14678","2613","&#9728;","elianto","#f73b6a7A","-1"," ","0","0","[1810]","1","1","","","14678","20","0","4","lose","no-go","1"
"pit-instructions","138","968703","0.0-24.0","battery-v0.2","","""event"",""trial"",""time""
""fullscreenenter"",""1"",""1800""
","
","
","""event"",""trial"",""time""
""fullscreenenter"",""1"",""1800""
","
","","[{""page_index"":0,""viewing_time"":7454.199999988079},{""page_index"":1,""viewing_time"":7188.300000011921}]","14643.199999988079","","","","","","","","","","","","","","","","","","","","","","","",""
"pit-trial","139","972681","0.0-25.0","battery-v0.2","","""event"",""trial"",""time""
""fullscreenenter"",""1"",""1800""
","
","
","""event"",""trial"",""time""
""fullscreenenter"",""1"",""1800""
","
","","","1099","","","12","14678","2613","y","elianto","#f73b6a7A","-1"," ","0","-10","[1954.9000000059605]","1","2","","","14678","21","2","4","lose","no-go","0"
"pit-trial","140","977552","0.0-26.0","battery-v0.2","","""event"",""trial"",""time""
""fullscreenenter"",""1"",""1800""
","
","
","""event"",""trial"",""time""
""fullscreenenter"",""1"",""1800""
","
","","","-1","","","12","14678","2613","m","elianto","#f73b6a7A","-1","-1","1","0","[]","0","2","","","14678","22","0","4","lose","no-go","0"
"pit-trial","141","981831","0.0-27.0","battery-v0.2","","""event"",""trial"",""time""
""fullscreenenter"",""1"",""1800""
","
","
","""event"",""trial"",""time""
""fullscreenenter"",""1"",""1800""
","
","","","1414.9000000059605","","","12","14678","2613","r","elianto","#3366ff99"," "," ","1","+10","[2265.300000011921]","1","2","","","14678","23","1","1","win","go","0"
"pit-trial","142","985986","0.0-28.0","battery-v0.2","","""event"",""trial"",""time""
""fullscreenenter"",""1"",""1800""
","
","
","""event"",""trial"",""time""
""fullscreenenter"",""1"",""1800""
","
","","","1287.7999999821186","","","12","14678","2613","h","elianto","#f73b6a7A"," "," ","1","0","[2140.0999999940395]","1","2","","","14678","24","3","3","lose","go","0"
"pit-trial","143","990847","0.0-29.0","battery-v0.2","","""event"",""trial"",""time""
""fullscreenenter"",""1"",""1800""
","
","
","""event"",""trial"",""time""
""fullscreenenter"",""1"",""1800""
","
","","","-1","","","12","14678","2613","m","elianto","#f73b6a7A","-1","-1","1","0","[]","0","2","","","14678","25","0","4","lose","no-go","0"
"pit-trial","144","994913","0.0-30.0","battery-v0.2","","""event"",""trial"",""time""
""fullscreenenter"",""1"",""1800""
","
","
","""event"",""trial"",""time""
""fullscreenenter"",""1"",""1800""
","
","","","1199.8999999761581","","","12","14678","2613","y","elianto","#f73b6a7A","-1"," ","0","-10","[2053.7999999821186]","1","2","","","14678","26","2","4","lose","no-go","0"
"pit-trial","145","999226","0.0-31.0","battery-v0.2","","""event"",""trial"",""time""
""fullscreenenter"",""1"",""1800""
","
","
","""event"",""trial"",""time""
""fullscreenenter"",""1"",""1800""
","
","","","1445.300000011921","","","12","14678","2613","h","elianto","#f73b6a7A"," "," ","1","0","[2299.300000011921]","1","2","","","14678","27","3","3","lose","go","0"
"pit-trial","146","1003433","0.0-32.0","battery-v0.2","","""event"",""trial"",""time""
""fullscreenenter"",""1"",""1800""
","
","
","""event"",""trial"",""time""
""fullscreenenter"",""1"",""1800""
","
","","","1346.7999999821186","","","12","14678","2613","r","elianto","#3366ff99"," "," ","1","+10","[2201.7999999821186]","1","2","","","14678","28","1","1","win","go","0"
"pit-trial","147","1008217","0.0-33.0","battery-v0.2","","""event"",""trial"",""time""
""fullscreenenter"",""1"",""1800""
","
","
","""event"",""trial"",""time""
""fullscreenenter"",""1"",""1800""
","
","","","1924","","","12","14678","2613","h","elianto","#f73b6a7A"," "," ","1","0","[2775]","1","2","","","14678","29","3","3","lose","go","0"
"pit-trial","148","1013077","0.0-34.0","battery-v0.2","","""event"",""trial"",""time""
""fullscreenenter"",""1"",""1800""
","
","
","""event"",""trial"",""time""
""fullscreenenter"",""1"",""1800""
","
","","","-1","","","12","14678","2613","m","elianto","#f73b6a7A","-1","-1","1","0","[]","0","2","","","14678","30","0","4","lose","no-go","0"
"pit-trial","149","1017010","0.0-35.0","battery-v0.2","","""event"",""trial"",""time""
""fullscreenenter"",""1"",""1800""
","
","
","""event"",""trial"",""time""
""fullscreenenter"",""1"",""1800""
","
","","","1062.9000000059605","","","12","14678","2613","y","elianto","#f73b6a7A","-1"," ","0","0","[1920.199999988079]","1","2","","","14678","31","2","4","lose","no-go","1"
"pit-trial","150","1020713","0.0-36.0","battery-v0.2","","""event"",""trial"",""time""
""fullscreenenter"",""1"",""1800""
","
","
","""event"",""trial"",""time""
""fullscreenenter"",""1"",""1800""
","
","","","831.7999999821186","","","12","14678","2613","r","elianto","#3366ff99"," "," ","1","+10","[1690.9000000059605]","1","2","","","14678","32","1","1","win","go","0"
"pit-trial","151","1024224","0.0-37.0","battery-v0.2","","""event"",""trial"",""time""
""fullscreenenter"",""1"",""1800""
","
","
","""event"",""trial"",""time""
""fullscreenenter"",""1"",""1800""
","
","","","653.6999999880791","","","12","14678","2613","h","elianto","#f73b6a7A"," "," ","1","0","[1506]","1","2","","","14678","33","3","3","lose","go","0"
"pit-trial","152","1029091","0.0-38.0","battery-v0.2","","""event"",""trial"",""time""
""fullscreenenter"",""1"",""1800""
","
","
","""event"",""trial"",""time""
""fullscreenenter"",""1"",""1800""
","
","","","-1","","","12","14678","2613","m","elianto","#f73b6a7A","-1","-1","1","0","[]","0","2","","","14678","34","0","4","lose","no-go","0"
"pit-trial","153","1032395","0.0-39.0","battery-v0.2","","""event"",""trial"",""time""
""fullscreenenter"",""1"",""1800""
""blur"",""154"",""1037625""
","""event"",""trial"",""time""
""blur"",""154"",""1037625""
","
","""event"",""trial"",""time""
""fullscreenenter"",""1"",""1800""
","
","","","432.59999999403954","","","12","14678","2613","y","elianto","#f73b6a7A","-1"," ","0","-10","[1287.9000000059605]","1","2","","","14678","35","2","4","lose","no-go","0"
"pit-trial","154","1037632","0.0-40.0","battery-v0.2","","""event"",""trial"",""time""
""fullscreenenter"",""1"",""1800""
""blur"",""154"",""1037625""
""fullscreenexit"",""155"",""1037641""
""focus"",""155"",""1037653""
","""event"",""trial"",""time""
""blur"",""154"",""1037625""
","""event"",""trial"",""time""
""focus"",""155"",""1037653""
","""event"",""trial"",""time""
""fullscreenenter"",""1"",""1800""
","""event"",""trial"",""time""
""fullscreenexit"",""155"",""1037641""
","","","1064.199999988079","","","12","14678","2613","r","elianto","#3366ff99"," "," ","1","+10","[1914.9000000059605]","1","2","","","14678","36","1","1","win","go","0"
"pit-trial","155","1041400","0.0-41.0","battery-v0.2","","""event"",""trial"",""time""
""fullscreenenter"",""1"",""1800""
""blur"",""154"",""1037625""
""fullscreenexit"",""155"",""1037641""
""focus"",""155"",""1037653""
","""event"",""trial"",""time""
""blur"",""154"",""1037625""
","""event"",""trial"",""time""
""focus"",""155"",""1037653""
","""event"",""trial"",""time""
""fullscreenenter"",""1"",""1800""
","""event"",""trial"",""time""
""fullscreenexit"",""155"",""1037641""
","","","910.3000000119209","","","12","14678","2613","m","elianto","#f73b6a7A","-1"," ","0","-10","[1762.5]","1","2","","","14678","37","0","4","lose","no-go","0"
"pit-trial","156","1045572","0.0-42.0","battery-v0.2","","""event"",""trial"",""time""
""fullscreenenter"",""1"",""1800""
""blur"",""154"",""1037625""
""fullscreenexit"",""155"",""1037641""
""focus"",""155"",""1037653""
","""event"",""trial"",""time""
""blur"",""154"",""1037625""
","""event"",""trial"",""time""
""focus"",""155"",""1037653""
","""event"",""trial"",""time""
""fullscreenenter"",""1"",""1800""
","""event"",""trial"",""time""
""fullscreenexit"",""155"",""1037641""
","","","1314.800000011921","","","12","14678","2613","y","elianto","#f73b6a7A","-1"," ","0","-10","[2167.0999999940395]","1","2","","","14678","38","2","4","lose","no-go","0"
"pit-trial","157","1049316","0.0-43.0","battery-v0.2","","""event"",""trial"",""time""
""fullscreenenter"",""1"",""1800""
""blur"",""154"",""1037625""
""fullscreenexit"",""155"",""1037641""
""focus"",""155"",""1037653""
","""event"",""trial"",""time""
""blur"",""154"",""1037625""
","""event"",""trial"",""time""
""focus"",""155"",""1037653""
","""event"",""trial"",""time""
""fullscreenenter"",""1"",""1800""
","""event"",""trial"",""time""
""fullscreenexit"",""155"",""1037641""
","","","883.7000000178814","","","12","14678","2613","r","elianto","#3366ff99"," "," ","1","0","[1734.1000000238419]","1","2","","","14678","39","1","1","win","go","1"
"pit-trial","158","1053014","0.0-44.0","battery-v0.2","","""event"",""trial"",""time""
""fullscreenenter"",""1"",""1800""
""blur"",""154"",""1037625""
""fullscreenexit"",""155"",""1037641""
""focus"",""155"",""1037653""
","""event"",""trial"",""time""
""blur"",""154"",""1037625""
","""event"",""trial"",""time""
""focus"",""155"",""1037653""
","""event"",""trial"",""time""
""fullscreenenter"",""1"",""1800""
","""event"",""trial"",""time""
""fullscreenexit"",""155"",""1037641""
","","","826.8000000119209","","","12","14678","2613","h","elianto","#f73b6a7A"," "," ","1","0","[1680]","1","2","","","14678","40","3","3","lose","go","0"
"pit-trial","159","1056847","0.0-45.0","battery-v0.2","","""event"",""trial"",""time""
""fullscreenenter"",""1"",""1800""
""blur"",""154"",""1037625""
""fullscreenexit"",""155"",""1037641""
""focus"",""155"",""1037653""
","""event"",""trial"",""time""
""blur"",""154"",""1037625""
","""event"",""trial"",""time""
""focus"",""155"",""1037653""
","""event"",""trial"",""time""
""fullscreenenter"",""1"",""1800""
","""event"",""trial"",""time""
""fullscreenexit"",""155"",""1037641""
","","","971","","","12","14678","2613","y","elianto","#f73b6a7A","-1"," ","0","-10","[1828.4000000059605]","1","2","","","14678","41","2","4","lose","no-go","0"
"pit-trial","160","1060472","0.0-46.0","battery-v0.2","","""event"",""trial"",""time""
""fullscreenenter"",""1"",""1800""
""blur"",""154"",""1037625""
""fullscreenexit"",""155"",""1037641""
""focus"",""155"",""1037653""
","""event"",""trial"",""time""
""blur"",""154"",""1037625""
","""event"",""trial"",""time""
""focus"",""155"",""1037653""
","""event"",""trial"",""time""
""fullscreenenter"",""1"",""1800""
","""event"",""trial"",""time""
""fullscreenexit"",""155"",""1037641""
","","","763.2000000178814","","","12","14678","2613","r","elianto","#3366ff99"," "," ","1","+10","[1621.199999988079]","1","2","","","14678","42","1","1","win","go","0"
"pit-trial","161","1064193","0.0-47.0","battery-v0.2","","""event"",""trial"",""time""
""fullscreenenter"",""1"",""1800""
""blur"",""154"",""1037625""
""fullscreenexit"",""155"",""1037641""
""focus"",""155"",""1037653""
","""event"",""trial"",""time""
""blur"",""154"",""1037625""
","""event"",""trial"",""time""
""focus"",""155"",""1037653""
","""event"",""trial"",""time""
""fullscreenenter"",""1"",""1800""
","""event"",""trial"",""time""
""fullscreenexit"",""155"",""1037641""
","","","859.7000000178814","","","12","14678","2613","h","elianto","#f73b6a7A"," "," ","1","-10","[1713.0999999940395]","1","2","","","14678","43","3","3","lose","go","1"
"pit-trial","162","1069052","0.0-48.0","battery-v0.2","","""event"",""trial"",""time""
""fullscreenenter"",""1"",""1800""
""blur"",""154"",""1037625""
""fullscreenexit"",""155"",""1037641""
""focus"",""155"",""1037653""
","""event"",""trial"",""time""
""blur"",""154"",""1037625""
","""event"",""trial"",""time""
""focus"",""155"",""1037653""
","""event"",""trial"",""time""
""fullscreenenter"",""1"",""1800""
","""event"",""trial"",""time""
""fullscreenexit"",""155"",""1037641""
","","","-1","","","12","14678","2613","m","elianto","#f73b6a7A","-1","-1","1","0","[]","0","2","","","14678","44","0","4","lose","no-go","0"
"pit-trial","163","1073913","0.0-49.0","battery-v0.2","","""event"",""trial"",""time""
""fullscreenenter"",""1"",""1800""
""blur"",""154"",""1037625""
""fullscreenexit"",""155"",""1037641""
""focus"",""155"",""1037653""
","""event"",""trial"",""time""
""blur"",""154"",""1037625""
","""event"",""trial"",""time""
""focus"",""155"",""1037653""
","""event"",""trial"",""time""
""fullscreenenter"",""1"",""1800""
","""event"",""trial"",""time""
""fullscreenexit"",""155"",""1037641""
","","","-1","","","12","14678","2613","h","elianto","#f73b6a7A"," ","-1","0","-10","[]","0","2","","","14678","45","3","3","lose","go","0"
"pit-trial","164","1077315","0.0-50.0","battery-v0.2","","""event"",""trial"",""time""
""fullscreenenter"",""1"",""1800""
""blur"",""154"",""1037625""
""fullscreenexit"",""155"",""1037641""
""focus"",""155"",""1037653""
","""event"",""trial"",""time""
""blur"",""154"",""1037625""
","""event"",""trial"",""time""
""focus"",""155"",""1037653""
","""event"",""trial"",""time""
""fullscreenenter"",""1"",""1800""
","""event"",""trial"",""time""
""fullscreenexit"",""155"",""1037641""
","","","535.7000000178814","","","12","14678","2613","z","elianto","#3366ff99","-1"," ","0","+10","[1390.4000000059605]","1","2","","","14678","46","4","2","win","no-go","1"
"pit-trial","165","1081119","0.0-51.0","battery-v0.2","","""event"",""trial"",""time""
""fullscreenenter"",""1"",""1800""
""blur"",""154"",""1037625""
""fullscreenexit"",""155"",""1037641""
""focus"",""155"",""1037653""
","""event"",""trial"",""time""
""blur"",""154"",""1037625""
","""event"",""trial"",""time""
""focus"",""155"",""1037653""
","""event"",""trial"",""time""
""fullscreenenter"",""1"",""1800""
","""event"",""trial"",""time""
""fullscreenexit"",""155"",""1037641""
","","","944.8000000119209","","","12","14678","2613","m","elianto","#f73b6a7A","-1"," ","0","-10","[1799.7000000178814]","1","2","","","14678","47","0","4","lose","no-go","0"
"pit-trial","166","1084757","0.0-52.0","battery-v0.2","","""event"",""trial"",""time""
""fullscreenenter"",""1"",""1800""
""blur"",""154"",""1037625""
""fullscreenexit"",""155"",""1037641""
""focus"",""155"",""1037653""
","""event"",""trial"",""time""
""blur"",""154"",""1037625""
","""event"",""trial"",""time""
""focus"",""155"",""1037653""
","""event"",""trial"",""time""
""fullscreenenter"",""1"",""1800""
","""event"",""trial"",""time""
""fullscreenexit"",""155"",""1037641""
","","","778.5999999940395","","","12","14678","2613","y","elianto","#f73b6a7A","-1"," ","0","-10","[1630.5]","1","2","","","14678","48","2","4","lose","no-go","0"
"pit-trial","167","1088424","0.0-53.0","battery-v0.2","","""event"",""trial"",""time""
""fullscreenenter"",""1"",""1800""
""blur"",""154"",""1037625""
""fullscreenexit"",""155"",""1037641""
""focus"",""155"",""1037653""
","""event"",""trial"",""time""
""blur"",""154"",""1037625""
","""event"",""trial"",""time""
""focus"",""155"",""1037653""
","""event"",""trial"",""time""
""fullscreenenter"",""1"",""1800""
","""event"",""trial"",""time""
""fullscreenexit"",""155"",""1037641""
","","","797.3000000119209","","","12","14678","2613","r","elianto","#3366ff99"," "," ","1","0","[1654]","1","2","","","14678","49","1","1","win","go","1"
"pit-trial","168","1092184","0.0-54.0","battery-v0.2","","""event"",""trial"",""time""
""fullscreenenter"",""1"",""1800""
""blur"",""154"",""1037625""
""fullscreenexit"",""155"",""1037641""
""focus"",""155"",""1037653""
","""event"",""trial"",""time""
""blur"",""154"",""1037625""
","""event"",""trial"",""time""
""focus"",""155"",""1037653""
","""event"",""trial"",""time""
""fullscreenenter"",""1"",""1800""
","""event"",""trial"",""time""
""fullscreenexit"",""155"",""1037641""
","","","898.1999999880791","","","12","14678","2613","m","elianto","#f73b6a7A","-1"," ","0","-10","[331.90000000596046,1755.4000000059605]","2","2","","","14678","50","0","4","lose","no-go","0"
"pit-trial","169","1096787","0.0-55.0","battery-v0.2","","""event"",""trial"",""time""
""fullscreenenter"",""1"",""1800""
""blur"",""154"",""1037625""
""fullscreenexit"",""155"",""1037641""
""focus"",""155"",""1037653""
","""event"",""trial"",""time""
""blur"",""154"",""1037625""
","""event"",""trial"",""time""
""focus"",""155"",""1037653""
","""event"",""trial"",""time""
""fullscreenenter"",""1"",""1800""
","""event"",""trial"",""time""
""fullscreenexit"",""155"",""1037641""
","","","1739","","","12","14678","2613","h","elianto","#f73b6a7A"," "," ","1","0","[2593.4000000059605]","1","2","","","14678","51","3","3","lose","go","0"
"pit-trial","170","1100431","0.0-56.0","battery-v0.2","","""event"",""trial"",""time""
""fullscreenenter"",""1"",""1800""
""blur"",""154"",""1037625""
""fullscreenexit"",""155"",""1037641""
""focus"",""155"",""1037653""
","""event"",""trial"",""time""
""blur"",""154"",""1037625""
","""event"",""trial"",""time""
""focus"",""155"",""1037653""
","""event"",""trial"",""time""
""fullscreenenter"",""1"",""1800""
","""event"",""trial"",""time""
""fullscreenexit"",""155"",""1037641""
","","","781.0999999940395","","","12","14678","2613","z","elianto","#3366ff99","-1"," ","0","+10","[1634.5]","1","2","","","14678","52","4","2","win","no-go","1"
"pit-trial","171","1104363","0.0-57.0","battery-v0.2","","""event"",""trial"",""time""
""fullscreenenter"",""1"",""1800""
""blur"",""154"",""1037625""
""fullscreenexit"",""155"",""1037641""
""focus"",""155"",""1037653""
","""event"",""trial"",""time""
""blur"",""154"",""1037625""
","""event"",""trial"",""time""
""focus"",""155"",""1037653""
","""event"",""trial"",""time""
""fullscreenenter"",""1"",""1800""
","""event"",""trial"",""time""
""fullscreenexit"",""155"",""1037641""
","","","1071","","","12","14678","2613","z","elianto","#3366ff99","-1"," ","0","0","[1921.9000000059605]","1","2","","","14678","53","4","2","win","no-go","0"
"pit-trial","172","1108539","0.0-58.0","battery-v0.2","","""event"",""trial"",""time""
""fullscreenenter"",""1"",""1800""
""blur"",""154"",""1037625""
""fullscreenexit"",""155"",""1037641""
""focus"",""155"",""1037653""
","""event"",""trial"",""time""
""blur"",""154"",""1037625""
","""event"",""trial"",""time""
""focus"",""155"",""1037653""
","""event"",""trial"",""time""
""fullscreenenter"",""1"",""1800""
","""event"",""trial"",""time""
""fullscreenexit"",""155"",""1037641""
","","","1313.0999999940395","","","12","14678","2613","y","elianto","#f73b6a7A","-1"," ","0","-10","[2164.699999988079]","1","2","","","14678","54","2","4","lose","no-go","0"
"pit-trial","173","1112263","0.0-59.0","battery-v0.2","","""event"",""trial"",""time""
""fullscreenenter"",""1"",""1800""
""blur"",""154"",""1037625""
""fullscreenexit"",""155"",""1037641""
""focus"",""155"",""1037653""
","""event"",""trial"",""time""
""blur"",""154"",""1037625""
","""event"",""trial"",""time""
""focus"",""155"",""1037653""
","""event"",""trial"",""time""
""fullscreenenter"",""1"",""1800""
","""event"",""trial"",""time""
""fullscreenexit"",""155"",""1037641""
","","","859.0999999940395","","","12","14678","2613","r","elianto","#3366ff99"," "," ","1","0","[1717.300000011921]","1","2","","","14678","55","1","1","win","go","1"
"pit-trial","174","1117142","0.0-60.0","battery-v0.2","","""event"",""trial"",""time""
""fullscreenenter"",""1"",""1800""
""blur"",""154"",""1037625""
""fullscreenexit"",""155"",""1037641""
""focus"",""155"",""1037653""
","""event"",""trial"",""time""
""blur"",""154"",""1037625""
","""event"",""trial"",""time""
""focus"",""155"",""1037653""
","""event"",""trial"",""time""
""fullscreenenter"",""1"",""1800""
","""event"",""trial"",""time""
""fullscreenexit"",""155"",""1037641""
","","","-1","","","12","14678","2613","m","elianto","#f73b6a7A","-1","-1","1","0","[]","0","2","","","14678","56","0","4","lose","no-go","0"
"pit-trial","175","1121505","0.0-61.0","battery-v0.2","","""event"",""trial"",""time""
""fullscreenenter"",""1"",""1800""
""blur"",""154"",""1037625""
""fullscreenexit"",""155"",""1037641""
""focus"",""155"",""1037653""
","""event"",""trial"",""time""
""blur"",""154"",""1037625""
","""event"",""trial"",""time""
""focus"",""155"",""1037653""
","""event"",""trial"",""time""
""fullscreenenter"",""1"",""1800""
","""event"",""trial"",""time""
""fullscreenexit"",""155"",""1037641""
","","","1489.699999988079","","","12","14678","2613","h","elianto","#f73b6a7A"," "," ","1","0","[2353.2999999821186]","1","2","","","14678","57","3","3","lose","go","0"
"pit-trial","176","1125849","0.0-62.0","battery-v0.2","","""event"",""trial"",""time""
""fullscreenenter"",""1"",""1800""
""blur"",""154"",""1037625""
""fullscreenexit"",""155"",""1037641""
""focus"",""155"",""1037653""
","""event"",""trial"",""time""
""blur"",""154"",""1037625""
","""event"",""trial"",""time""
""focus"",""155"",""1037653""
","""event"",""trial"",""time""
""fullscreenenter"",""1"",""1800""
","""event"",""trial"",""time""
""fullscreenexit"",""155"",""1037641""
","","","1481.3999999761581","","","12","14678","2613","z","elianto","#3366ff99","-1"," ","0","0","[2334.199999988079]","1","2","","","14678","58","4","2","win","no-go","0"
"pit-trial","177","1130715","0.0-63.0","battery-v0.2","","""event"",""trial"",""time""
""fullscreenenter"",""1"",""1800""
""blur"",""154"",""1037625""
""fullscreenexit"",""155"",""1037641""
""focus"",""155"",""1037653""
","""event"",""trial"",""time""
""blur"",""154"",""1037625""
","""event"",""trial"",""time""
""focus"",""155"",""1037653""
","""event"",""trial"",""time""
""fullscreenenter"",""1"",""1800""
","""event"",""trial"",""time""
""fullscreenexit"",""155"",""1037641""
","","","-1","","","12","14678","2613","m","elianto","#f73b6a7A","-1","-1","1","0","[]","0","2","","","14678","59","0","4","lose","no-go","0"
"pit-trial","178","1134410","0.0-64.0","battery-v0.2","","""event"",""trial"",""time""
""fullscreenenter"",""1"",""1800""
""blur"",""154"",""1037625""
""fullscreenexit"",""155"",""1037641""
""focus"",""155"",""1037653""
","""event"",""trial"",""time""
""blur"",""154"",""1037625""
","""event"",""trial"",""time""
""focus"",""155"",""1037653""
","""event"",""trial"",""time""
""fullscreenenter"",""1"",""1800""
","""event"",""trial"",""time""
""fullscreenexit"",""155"",""1037641""
","","","836.6999999880791","","","12","14678","2613","r","elianto","#3366ff99"," "," ","1","+10","[1688]","1","2","","","14678","60","1","1","win","go","0"
"pit-trial","179","1138322","0.0-65.0","battery-v0.2","","""event"",""trial"",""time""
""fullscreenenter"",""1"",""1800""
""blur"",""154"",""1037625""
""fullscreenexit"",""155"",""1037641""
""focus"",""155"",""1037653""
","""event"",""trial"",""time""
""blur"",""154"",""1037625""
","""event"",""trial"",""time""
""focus"",""155"",""1037653""
","""event"",""trial"",""time""
""fullscreenenter"",""1"",""1800""
","""event"",""trial"",""time""
""fullscreenexit"",""155"",""1037641""
","","","1052.699999988079","","","12","14678","2613","h","elianto","#f73b6a7A"," "," ","1","0","[1904.4000000059605]","1","2","","","14678","61","3","3","lose","go","0"
"pit-trial","180","1141927","0.0-66.0","battery-v0.2","","""event"",""trial"",""time""
""fullscreenenter"",""1"",""1800""
""blur"",""154"",""1037625""
""fullscreenexit"",""155"",""1037641""
""focus"",""155"",""1037653""
","""event"",""trial"",""time""
""blur"",""154"",""1037625""
","""event"",""trial"",""time""
""focus"",""155"",""1037653""
","""event"",""trial"",""time""
""fullscreenenter"",""1"",""1800""
","""event"",""trial"",""time""
""fullscreenexit"",""155"",""1037641""
","","","738.3000000119209","","","12","14678","2613","y","elianto","#f73b6a7A","-1"," ","0","-10","[1590.0999999940395]","1","2","","","14678","62","2","4","lose","no-go","0"
"pit-trial","181","1145469","0.0-67.0","battery-v0.2","","""event"",""trial"",""time""
""fullscreenenter"",""1"",""1800""
""blur"",""154"",""1037625""
""fullscreenexit"",""155"",""1037641""
""focus"",""155"",""1037653""
","""event"",""trial"",""time""
""blur"",""154"",""1037625""
","""event"",""trial"",""time""
""focus"",""155"",""1037653""
","""event"",""trial"",""time""
""fullscreenenter"",""1"",""1800""
","""event"",""trial"",""time""
""fullscreenexit"",""155"",""1037641""
","","","681.3000000119209","","","12","14678","2613","r","elianto","#3366ff99"," "," ","1","0","[1536.6000000238419]","1","2","","","14678","63","1","1","win","go","1"
"pit-trial","182","1149042","0.0-68.0","battery-v0.2","","""event"",""trial"",""time""
""fullscreenenter"",""1"",""1800""
""blur"",""154"",""1037625""
""fullscreenexit"",""155"",""1037641""
""focus"",""155"",""1037653""
","""event"",""trial"",""time""
""blur"",""154"",""1037625""
","""event"",""trial"",""time""
""focus"",""155"",""1037653""
","""event"",""trial"",""time""
""fullscreenenter"",""1"",""1800""
","""event"",""trial"",""time""
""fullscreenexit"",""155"",""1037641""
","","","705.2000000178814","","","12","14678","2613","z","elianto","#3366ff99","-1"," ","0","0","[1557.5]","1","2","","","14678","64","4","2","win","no-go","0"
"pit-trial","183","1152737","0.0-69.0","battery-v0.2","","""event"",""trial"",""time""
""fullscreenenter"",""1"",""1800""
""blur"",""154"",""1037625""
""fullscreenexit"",""155"",""1037641""
""focus"",""155"",""1037653""
","""event"",""trial"",""time""
""blur"",""154"",""1037625""
","""event"",""trial"",""time""
""focus"",""155"",""1037653""
","""event"",""trial"",""time""
""fullscreenenter"",""1"",""1800""
","""event"",""trial"",""time""
""fullscreenexit"",""155"",""1037641""
","","","827.5","","","12","14678","2613","h","elianto","#f73b6a7A"," "," ","1","0","[1678.0999999940395]","1","2","","","14678","65","3","3","lose","go","0"
"pit-trial","184","1156494","0.0-70.0","battery-v0.2","","""event"",""trial"",""time""
""fullscreenenter"",""1"",""1800""
""blur"",""154"",""1037625""
""fullscreenexit"",""155"",""1037641""
""focus"",""155"",""1037653""
","""event"",""trial"",""time""
""blur"",""154"",""1037625""
","""event"",""trial"",""time""
""focus"",""155"",""1037653""
","""event"",""trial"",""time""
""fullscreenenter"",""1"",""1800""
","""event"",""trial"",""time""
""fullscreenexit"",""155"",""1037641""
","","","889.1000000238419","","","12","14678","2613","z","elianto","#3366ff99","-1"," ","0","0","[1739.9000000059605,3050]","2","2","","","14678","66","4","2","win","no-go","0"
"pit-trial","185","1160014","0.0-71.0","battery-v0.2","","""event"",""trial"",""time""
""fullscreenenter"",""1"",""1800""
""blur"",""154"",""1037625""
""fullscreenexit"",""155"",""1037641""
""focus"",""155"",""1037653""
","""event"",""trial"",""time""
""blur"",""154"",""1037625""
","""event"",""trial"",""time""
""focus"",""155"",""1037653""
","""event"",""trial"",""time""
""fullscreenenter"",""1"",""1800""
","""event"",""trial"",""time""
""fullscreenexit"",""155"",""1037641""
","","","659.4000000059605","","","12","14678","2613","r","elianto","#3366ff99"," "," ","1","+10","[1513.300000011921]","1","2","","","14678","67","1","1","win","go","0"
"pit-trial","186","1163682","0.0-72.0","battery-v0.2","","""event"",""trial"",""time""
""fullscreenenter"",""1"",""1800""
""blur"",""154"",""1037625""
""fullscreenexit"",""155"",""1037641""
""focus"",""155"",""1037653""
","""event"",""trial"",""time""
""blur"",""154"",""1037625""
","""event"",""trial"",""time""
""focus"",""155"",""1037653""
","""event"",""trial"",""time""
""fullscreenenter"",""1"",""1800""
","""event"",""trial"",""time""
""fullscreenexit"",""155"",""1037641""
","","","810.0999999940395","","","12","14678","2613","y","elianto","#f73b6a7A","-1"," ","0","-10","[1661.5999999940395]","1","2","","","14678","68","2","4","lose","no-go","0"
"pit-trial","187","1167070","0.0-73.0","battery-v0.2","","""event"",""trial"",""time""
""fullscreenenter"",""1"",""1800""
""blur"",""154"",""1037625""
""fullscreenexit"",""155"",""1037641""
""focus"",""155"",""1037653""
","""event"",""trial"",""time""
""blur"",""154"",""1037625""
","""event"",""trial"",""time""
""focus"",""155"",""1037653""
","""event"",""trial"",""time""
""fullscreenenter"",""1"",""1800""
","""event"",""trial"",""time""
""fullscreenexit"",""155"",""1037641""
","","","515.5","","","12","14678","2613","r","elianto","#3366ff99"," "," ","1","+10","[1374.7000000178814]","1","2","","","14678","69","1","1","win","go","0"
"pit-trial","188","1170511","0.0-74.0","battery-v0.2","","""event"",""trial"",""time""
""fullscreenenter"",""1"",""1800""
""blur"",""154"",""1037625""
""fullscreenexit"",""155"",""1037641""
""focus"",""155"",""1037653""
","""event"",""trial"",""time""
""blur"",""154"",""1037625""
","""event"",""trial"",""time""
""focus"",""155"",""1037653""
","""event"",""trial"",""time""
""fullscreenenter"",""1"",""1800""
","""event"",""trial"",""time""
""fullscreenexit"",""155"",""1037641""
","","","571.7999999821186","","","12","14678","2613","z","elianto","#3366ff99","-1"," ","0","+10","[1426.3999999761581]","1","2","","","14678","70","4","2","win","no-go","1"
"pit-trial","189","1173817","0.0-75.0","battery-v0.2","","""event"",""trial"",""time""
""fullscreenenter"",""1"",""1800""
""blur"",""154"",""1037625""
""fullscreenexit"",""155"",""1037641""
""focus"",""155"",""1037653""
","""event"",""trial"",""time""
""blur"",""154"",""1037625""
","""event"",""trial"",""time""
""focus"",""155"",""1037653""
","""event"",""trial"",""time""
""fullscreenenter"",""1"",""1800""
","""event"",""trial"",""time""
""fullscreenexit"",""155"",""1037641""
","","","440.19999998807907","","","12","14678","2613","c","elianto","#3366ff99"," "," ","1","+10","[1297.9000000059605]","1","2","","","14678","71","5","1","win","go","0"
"pit-trial","190","1177178","0.0-76.0","battery-v0.2","","""event"",""trial"",""time""
""fullscreenenter"",""1"",""1800""
""blur"",""154"",""1037625""
""fullscreenexit"",""155"",""1037641""
""focus"",""155"",""1037653""
","""event"",""trial"",""time""
""blur"",""154"",""1037625""
","""event"",""trial"",""time""
""focus"",""155"",""1037653""
","""event"",""trial"",""time""
""fullscreenenter"",""1"",""1800""
","""event"",""trial"",""time""
""fullscreenexit"",""155"",""1037641""
","","","493.5","","","12","14678","2613","h","elianto","#f73b6a7A"," "," ","1","0","[1351.199999988079]","1","2","","","14678","72","3","3","lose","go","0"
"pit-trial","191","1180572","0.0-77.0","battery-v0.2","","""event"",""trial"",""time""
""fullscreenenter"",""1"",""1800""
""blur"",""154"",""1037625""
""fullscreenexit"",""155"",""1037641""
""focus"",""155"",""1037653""
","""event"",""trial"",""time""
""blur"",""154"",""1037625""
","""event"",""trial"",""time""
""focus"",""155"",""1037653""
","""event"",""trial"",""time""
""fullscreenenter"",""1"",""1800""
","""event"",""trial"",""time""
""fullscreenexit"",""155"",""1037641""
","","","531.0999999940395","","","12","14678","2613","c","elianto","#3366ff99"," "," ","1","+10","[1386.2000000178814]","1","2","","","14678","73","5","1","win","go","0"
"pit-trial","192","1183879","0.0-78.0","battery-v0.2","","""event"",""trial"",""time""
""fullscreenenter"",""1"",""1800""
""blur"",""154"",""1037625""
""fullscreenexit"",""155"",""1037641""
""focus"",""155"",""1037653""
","""event"",""trial"",""time""
""blur"",""154"",""1037625""
","""event"",""trial"",""time""
""focus"",""155"",""1037653""
","""event"",""trial"",""time""
""fullscreenenter"",""1"",""1800""
","""event"",""trial"",""time""
""fullscreenexit"",""155"",""1037641""
","","","448.2999999821186","","","12","14678","2613","z","elianto","#3366ff99","-1"," ","0","+10","[1298.8999999761581]","1","2","","","14678","74","4","2","win","no-go","1"
"pit-trial","193","1187310","0.0-79.0","battery-v0.2","","""event"",""trial"",""time""
""fullscreenenter"",""1"",""1800""
""blur"",""154"",""1037625""
""fullscreenexit"",""155"",""1037641""
""focus"",""155"",""1037653""
","""event"",""trial"",""time""
""blur"",""154"",""1037625""
","""event"",""trial"",""time""
""focus"",""155"",""1037653""
","""event"",""trial"",""time""
""fullscreenenter"",""1"",""1800""
","""event"",""trial"",""time""
""fullscreenexit"",""155"",""1037641""
","","","571.2000000178814","","","12","14678","2613","h","elianto","#f73b6a7A"," "," ","1","0","[1422.1000000238419]","1","2","","","14678","75","3","3","lose","go","0"
"pit-trial","194","1190647","0.0-80.0","battery-v0.2","","""event"",""trial"",""time""
""fullscreenenter"",""1"",""1800""
""blur"",""154"",""1037625""
""fullscreenexit"",""155"",""1037641""
""focus"",""155"",""1037653""
","""event"",""trial"",""time""
""blur"",""154"",""1037625""
","""event"",""trial"",""time""
""focus"",""155"",""1037653""
","""event"",""trial"",""time""
""fullscreenenter"",""1"",""1800""
","""event"",""trial"",""time""
""fullscreenexit"",""155"",""1037641""
","","","475.40000000596046","","","12","14678","2613","r","elianto","#3366ff99"," "," ","1","+10","[1327.5999999940395]","1","2","","","14678","76","1","1","win","go","0"
"pit-trial","195","1194115","0.0-81.0","battery-v0.2","","""event"",""trial"",""time""
""fullscreenenter"",""1"",""1800""
""blur"",""154"",""1037625""
""fullscreenexit"",""155"",""1037641""
""focus"",""155"",""1037653""
","""event"",""trial"",""time""
""blur"",""154"",""1037625""
","""event"",""trial"",""time""
""focus"",""155"",""1037653""
","""event"",""trial"",""time""
""fullscreenenter"",""1"",""1800""
","""event"",""trial"",""time""
""fullscreenexit"",""155"",""1037641""
","","","593.5","","","12","14678","2613","h","elianto","#f73b6a7A"," "," ","1","0","[1450.699999988079]","1","2","","","14678","77","3","3","lose","go","0"
"pit-trial","196","1197704","0.0-82.0","battery-v0.2","","""event"",""trial"",""time""
""fullscreenenter"",""1"",""1800""
""blur"",""154"",""1037625""
""fullscreenexit"",""155"",""1037641""
""focus"",""155"",""1037653""
","""event"",""trial"",""time""
""blur"",""154"",""1037625""
","""event"",""trial"",""time""
""focus"",""155"",""1037653""
","""event"",""trial"",""time""
""fullscreenenter"",""1"",""1800""
","""event"",""trial"",""time""
""fullscreenexit"",""155"",""1037641""
","","","730.4000000059605","","","12","14678","2613","b","elianto","#f73b6a7A","-1"," ","0","-10","[1583.5]","1","2","","","14678","78","6","4","lose","no-go","0"
"pit-trial","197","1201516","0.0-83.0","battery-v0.2","","""event"",""trial"",""time""
""fullscreenenter"",""1"",""1800""
""blur"",""154"",""1037625""
""fullscreenexit"",""155"",""1037641""
""focus"",""155"",""1037653""
","""event"",""trial"",""time""
""blur"",""154"",""1037625""
","""event"",""trial"",""time""
""focus"",""155"",""1037653""
","""event"",""trial"",""time""
""fullscreenenter"",""1"",""1800""
","""event"",""trial"",""time""
""fullscreenexit"",""155"",""1037641""
","","","945.6999999880791","","","12","14678","2613","z","elianto","#3366ff99","-1"," ","0","0","[1802.0999999940395]","1","2","","","14678","79","4","2","win","no-go","0"
"pit-trial","198","1205047","0.0-84.0","battery-v0.2","","""event"",""trial"",""time""
""fullscreenenter"",""1"",""1800""
""blur"",""154"",""1037625""
""fullscreenexit"",""155"",""1037641""
""focus"",""155"",""1037653""
","""event"",""trial"",""time""
""blur"",""154"",""1037625""
","""event"",""trial"",""time""
""focus"",""155"",""1037653""
","""event"",""trial"",""time""
""fullscreenenter"",""1"",""1800""
","""event"",""trial"",""time""
""fullscreenexit"",""155"",""1037641""
","","","668.6999999880791","","","12","14678","2613","c","elianto","#3366ff99"," "," ","1","0","[1526.5999999940395]","1","2","","","14678","80","5","1","win","go","1"
"pit-trial","199","1208555","0.0-85.0","battery-v0.2","","""event"",""trial"",""time""
""fullscreenenter"",""1"",""1800""
""blur"",""154"",""1037625""
""fullscreenexit"",""155"",""1037641""
""focus"",""155"",""1037653""
","""event"",""trial"",""time""
""blur"",""154"",""1037625""
","""event"",""trial"",""time""
""focus"",""155"",""1037653""
","""event"",""trial"",""time""
""fullscreenenter"",""1"",""1800""
","""event"",""trial"",""time""
""fullscreenexit"",""155"",""1037641""
","","","646.9000000059605","","","12","14678","2613","c","elianto","#3366ff99"," "," ","1","+10","[1499]","1","2","","","14678","81","5","1","win","go","0"
"pit-trial","200","1212343","0.0-86.0","battery-v0.2","","""event"",""trial"",""time""
""fullscreenenter"",""1"",""1800""
""blur"",""154"",""1037625""
""fullscreenexit"",""155"",""1037641""
""focus"",""155"",""1037653""
","""event"",""trial"",""time""
""blur"",""154"",""1037625""
","""event"",""trial"",""time""
""focus"",""155"",""1037653""
","""event"",""trial"",""time""
""fullscreenenter"",""1"",""1800""
","""event"",""trial"",""time""
""fullscreenexit"",""155"",""1037641""
","","","922.8000000119209","","","12","14678","2613","b","elianto","#f73b6a7A","-1"," ","0","0","[1776.4000000059605]","1","2","","","14678","82","6","4","lose","no-go","1"
"pit-trial","201","1217205","0.0-87.0","battery-v0.2","","""event"",""trial"",""time""
""fullscreenenter"",""1"",""1800""
""blur"",""154"",""1037625""
""fullscreenexit"",""155"",""1037641""
""focus"",""155"",""1037653""
","""event"",""trial"",""time""
""blur"",""154"",""1037625""
","""event"",""trial"",""time""
""focus"",""155"",""1037653""
","""event"",""trial"",""time""
""fullscreenenter"",""1"",""1800""
","""event"",""trial"",""time""
""fullscreenexit"",""155"",""1037641""
","","","-1","","","12","14678","2613","t","elianto","#f73b6a7A"," ","-1","0","-10","[]","0","2","","","14678","83","7","3","lose","go","0"
"pit-trial","202","1220833","0.0-88.0","battery-v0.2","","""event"",""trial"",""time""
""fullscreenenter"",""1"",""1800""
""blur"",""154"",""1037625""
""fullscreenexit"",""155"",""1037641""
""focus"",""155"",""1037653""
","""event"",""trial"",""time""
""blur"",""154"",""1037625""
","""event"",""trial"",""time""
""focus"",""155"",""1037653""
","""event"",""trial"",""time""
""fullscreenenter"",""1"",""1800""
","""event"",""trial"",""time""
""fullscreenexit"",""155"",""1037641""
","","","769.4000000059605","","","12","14678","2613","z","elianto","#3366ff99","-1"," ","0","0","[1621.300000011921]","1","2","","","14678","84","4","2","win","no-go","0"
"pit-trial","203","1224475","0.0-89.0","battery-v0.2","","""event"",""trial"",""time""
""fullscreenenter"",""1"",""1800""
""blur"",""154"",""1037625""
""fullscreenexit"",""155"",""1037641""
""focus"",""155"",""1037653""
","""event"",""trial"",""time""
""blur"",""154"",""1037625""
","""event"",""trial"",""time""
""focus"",""155"",""1037653""
","""event"",""trial"",""time""
""fullscreenenter"",""1"",""1800""
","""event"",""trial"",""time""
""fullscreenexit"",""155"",""1037641""
","","","772.6999999880791","","","12","14678","2613","t","elianto","#f73b6a7A"," "," ","1","0","[1630.5999999940395]","1","2","","","14678","85","7","3","lose","go","0"
"pit-trial","204","1228072","0.0-90.0","battery-v0.2","","""event"",""trial"",""time""
""fullscreenenter"",""1"",""1800""
""blur"",""154"",""1037625""
""fullscreenexit"",""155"",""1037641""
""focus"",""155"",""1037653""
","""event"",""trial"",""time""
""blur"",""154"",""1037625""
","""event"",""trial"",""time""
""focus"",""155"",""1037653""
","""event"",""trial"",""time""
""fullscreenenter"",""1"",""1800""
","""event"",""trial"",""time""
""fullscreenexit"",""155"",""1037641""
","","","739.7999999821186","","","12","14678","2613","c","elianto","#3366ff99"," "," ","1","+10","[1591.2999999821186]","1","2","","","14678","86","5","1","win","go","0"
"pit-trial","205","1231538","0.0-91.0","battery-v0.2","","""event"",""trial"",""time""
""fullscreenenter"",""1"",""1800""
""blur"",""154"",""1037625""
""fullscreenexit"",""155"",""1037641""
""focus"",""155"",""1037653""
","""event"",""trial"",""time""
""blur"",""154"",""1037625""
","""event"",""trial"",""time""
""focus"",""155"",""1037653""
","""event"",""trial"",""time""
""fullscreenenter"",""1"",""1800""
","""event"",""trial"",""time""
""fullscreenexit"",""155"",""1037641""
","","","605","","","12","14678","2613","b","elianto","#f73b6a7A","-1"," ","0","0","[1456.4000000059605]","1","2","","","14678","87","6","4","lose","no-go","1"
"pit-trial","206","1235105","0.0-92.0","battery-v0.2","","""event"",""trial"",""time""
""fullscreenenter"",""1"",""1800""
""blur"",""154"",""1037625""
""fullscreenexit"",""155"",""1037641""
""focus"",""155"",""1037653""
","""event"",""trial"",""time""
""blur"",""154"",""1037625""
","""event"",""trial"",""time""
""focus"",""155"",""1037653""
","""event"",""trial"",""time""
""fullscreenenter"",""1"",""1800""
","""event"",""trial"",""time""
""fullscreenexit"",""155"",""1037641""
","","","708.1999999880791","","","12","14678","2613","z","elianto","#3366ff99","-1"," ","0","0","[1561.4000000059605]","1","2","","","14678","88","4","2","win","no-go","0"
"pit-trial","207","1239489","0.0-93.0","battery-v0.2","","""event"",""trial"",""time""
""fullscreenenter"",""1"",""1800""
""blur"",""154"",""1037625""
""fullscreenexit"",""155"",""1037641""
""focus"",""155"",""1037653""
","""event"",""trial"",""time""
""blur"",""154"",""1037625""
","""event"",""trial"",""time""
""focus"",""155"",""1037653""
","""event"",""trial"",""time""
""fullscreenenter"",""1"",""1800""
","""event"",""trial"",""time""
""fullscreenexit"",""155"",""1037641""
","","","1517.300000011921","","","12","14678","2613","b","elianto","#f73b6a7A","-1"," ","0","-10","[2371.9000000059605]","1","2","","","14678","89","6","4","lose","no-go","0"
"pit-trial","208","1243319","0.0-94.0","battery-v0.2","","""event"",""trial"",""time""
""fullscreenenter"",""1"",""1800""
""blur"",""154"",""1037625""
""fullscreenexit"",""155"",""1037641""
""focus"",""155"",""1037653""
","""event"",""trial"",""time""
""blur"",""154"",""1037625""
","""event"",""trial"",""time""
""focus"",""155"",""1037653""
","""event"",""trial"",""time""
""fullscreenenter"",""1"",""1800""
","""event"",""trial"",""time""
""fullscreenexit"",""155"",""1037641""
","","","972.6999999880791","","","12","14678","2613","z","elianto","#3366ff99","-1"," ","0","0","[1825]","1","2","","","14678","90","4","2","win","no-go","0"
"pit-trial","209","1247249","0.0-95.0","battery-v0.2","","""event"",""trial"",""time""
""fullscreenenter"",""1"",""1800""
""blur"",""154"",""1037625""
""fullscreenexit"",""155"",""1037641""
""focus"",""155"",""1037653""
","""event"",""trial"",""time""
""blur"",""154"",""1037625""
","""event"",""trial"",""time""
""focus"",""155"",""1037653""
","""event"",""trial"",""time""
""fullscreenenter"",""1"",""1800""
","""event"",""trial"",""time""
""fullscreenexit"",""155"",""1037641""
","","","1063.6000000238419","","","12","14678","2613","t","elianto","#f73b6a7A"," "," ","1","0","[1919.5]","1","2","","","14678","91","7","3","lose","go","0"
"pit-trial","210","1250796","0.0-96.0","battery-v0.2","","""event"",""trial"",""time""
""fullscreenenter"",""1"",""1800""
""blur"",""154"",""1037625""
""fullscreenexit"",""155"",""1037641""
""focus"",""155"",""1037653""
","""event"",""trial"",""time""
""blur"",""154"",""1037625""
","""event"",""trial"",""time""
""focus"",""155"",""1037653""
","""event"",""trial"",""time""
""fullscreenenter"",""1"",""1800""
","""event"",""trial"",""time""
""fullscreenexit"",""155"",""1037641""
","","","689.6999999880791","","","12","14678","2613","c","elianto","#3366ff99"," "," ","1","+10","[1542.199999988079]","1","2","","","14678","92","5","1","win","go","0"
"pit-trial","211","1254238","0.0-97.0","battery-v0.2","","""event"",""trial"",""time""
""fullscreenenter"",""1"",""1800""
""blur"",""154"",""1037625""
""fullscreenexit"",""155"",""1037641""
""focus"",""155"",""1037653""
","""event"",""trial"",""time""
""blur"",""154"",""1037625""
","""event"",""trial"",""time""
""focus"",""155"",""1037653""
","""event"",""trial"",""time""
""fullscreenenter"",""1"",""1800""
","""event"",""trial"",""time""
""fullscreenexit"",""155"",""1037641""
","","","574.4000000059605","","","12","14678","2613","c","elianto","#3366ff99"," "," ","1","+10","[1430.5]","1","2","","","14678","93","5","1","win","go","0"
"pit-trial","212","1258092","0.0-98.0","battery-v0.2","","""event"",""trial"",""time""
""fullscreenenter"",""1"",""1800""
""blur"",""154"",""1037625""
""fullscreenexit"",""155"",""1037641""
""focus"",""155"",""1037653""
","""event"",""trial"",""time""
""blur"",""154"",""1037625""
","""event"",""trial"",""time""
""focus"",""155"",""1037653""
","""event"",""trial"",""time""
""fullscreenenter"",""1"",""1800""
","""event"",""trial"",""time""
""fullscreenexit"",""155"",""1037641""
","","","979.7000000178814","","","12","14678","2613","t","elianto","#f73b6a7A"," "," ","1","-10","[1832.5]","1","2","","","14678","94","7","3","lose","go","1"
"pit-trial","213","1262960","0.0-99.0","battery-v0.2","","""event"",""trial"",""time""
""fullscreenenter"",""1"",""1800""
""blur"",""154"",""1037625""
""fullscreenexit"",""155"",""1037641""
""focus"",""155"",""1037653""
","""event"",""trial"",""time""
""blur"",""154"",""1037625""
","""event"",""trial"",""time""
""focus"",""155"",""1037653""
","""event"",""trial"",""time""
""fullscreenenter"",""1"",""1800""
","""event"",""trial"",""time""
""fullscreenexit"",""155"",""1037641""
","","","-1","","","12","14678","2613","b","elianto","#f73b6a7A","-1","-1","1","0","[]","0","2","","","14678","95","6","4","lose","no-go","0"
"pit-trial","214","1267418","0.0-100.0","battery-v0.2","","""event"",""trial"",""time""
""fullscreenenter"",""1"",""1800""
""blur"",""154"",""1037625""
""fullscreenexit"",""155"",""1037641""
""focus"",""155"",""1037653""
","""event"",""trial"",""time""
""blur"",""154"",""1037625""
","""event"",""trial"",""time""
""focus"",""155"",""1037653""
","""event"",""trial"",""time""
""fullscreenenter"",""1"",""1800""
","""event"",""trial"",""time""
""fullscreenexit"",""155"",""1037641""
","","","1597.5","","","12","14678","2613","f","elianto","#3366ff99","-1"," ","0","0","[2447.699999988079]","1","2","","","14678","96","8","2","win","no-go","0"
"pit-trial","215","1271538","0.0-101.0","battery-v0.2","","""event"",""trial"",""time""
""fullscreenenter"",""1"",""1800""
""blur"",""154"",""1037625""
""fullscreenexit"",""155"",""1037641""
""focus"",""155"",""1037653""
","""event"",""trial"",""time""
""blur"",""154"",""1037625""
","""event"",""trial"",""time""
""focus"",""155"",""1037653""
","""event"",""trial"",""time""
""fullscreenenter"",""1"",""1800""
","""event"",""trial"",""time""
""fullscreenexit"",""155"",""1037641""
","","","1259.9000000059605","","","12","14678","2613","c","elianto","#3366ff99"," "," ","1","+10","[2110.5]","1","2","","","14678","97","5","1","win","go","0"
