"trial_type","trial_index","time_elapsed","internal_node_id","task_version","subject_id","interactions","blur_events","focus_events","fullscreenenter_events","fullscreenexit_events","success","view_history","rt","responses","num_errors","age","subject","participantId","rune","rune_set","hex","correct","choice","accuracy","outcome","keys","total_keys","block","practice","value","sub","trial","stimulus","robot","valence","action","sham"
"pavlovia","0","10","0.0-0.0","battery-v0.2","","""event"",""trial"",""time""
""fullscreenenter"",""1"",""1547""
","
","
","""event"",""trial"",""time""
""fullscreenenter"",""1"",""1547""
","
","","","","","","","","","","","","","","","","","","","","","","","","","","",""
"fullscreen","1","2543","0.0-1.0","battery-v0.2","","""event"",""trial"",""time""
""fullscreenenter"",""1"",""1547""
","
","
","""event"",""trial"",""time""
""fullscreenenter"",""1"",""1547""
","
","true","","","","","","","","","","","","","","","","","","","","","","","","","",""
"pit-instructions","2","6575","0.0-2.0-0.0","battery-v0.2","","""event"",""trial"",""time""
""fullscreenenter"",""1"",""1547""
","
","
","""event"",""trial"",""time""
""fullscreenenter"",""1"",""1547""
","
","","[{""page_index"":0,""viewing_time"":4025.2999999970198}]","4025.5999999940395","","","","","","","","","","","","","","","","","","","","","","","",""
"pit-comprehension","3","9047","0.0-2.0-1.0-0.0","battery-v0.2","","""event"",""trial"",""time""
""fullscreenenter"",""1"",""1547""
","
","
","""event"",""trial"",""time""
""fullscreenenter"",""1"",""1547""
","
","","","2468.7999999970198","[""shark""]","0","19","10965","3835","","","","","","","","","","","","","","","","","","",""
"pit-instructions","4","10166","0.0-2.0-1.0-1.0","battery-v0.2","","""event"",""trial"",""time""
""fullscreenenter"",""1"",""1547""
","
","
","""event"",""trial"",""time""
""fullscreenenter"",""1"",""1547""
","
","","[{""page_index"":0,""viewing_time"":1110.0999999940395}]","1110.3999999910593","","","","","","","","","","","","","","","","","","","","","","","",""
"pit-comprehension","5","12303","0.0-2.0-2.0-0.0","battery-v0.2","","""event"",""trial"",""time""
""fullscreenenter"",""1"",""1547""
","
","
","""event"",""trial"",""time""
""fullscreenenter"",""1"",""1547""
","
","","","2133.2999999970198","[""tiger""]","0","19","10965","3835","","","","","","","","","","","","","","","","","","",""
"pit-instructions","6","12944","0.0-2.0-2.0-1.0","battery-v0.2","","""event"",""trial"",""time""
""fullscreenenter"",""1"",""1547""
","
","
","""event"",""trial"",""time""
""fullscreenenter"",""1"",""1547""
","
","","[{""page_index"":0,""viewing_time"":637.4000000059605}]","637.5999999940395","","","","","","","","","","","","","","","","","","","","","","","",""
"pit-instructions","7","114558","0.0-2.0-3.0","battery-v0.2","","""event"",""trial"",""time""
""fullscreenenter"",""1"",""1547""
","
","
","""event"",""trial"",""time""
""fullscreenenter"",""1"",""1547""
","
","","[{""page_index"":0,""viewing_time"":14603.800000011921},{""page_index"":1,""viewing_time"":5824.699999988079},{""page_index"":2,""viewing_time"":6031.600000008941},{""page_index"":3,""viewing_time"":6503.5999999940395},{""page_index"":4,""viewing_time"":7257.29999999702},{""page_index"":5,""viewing_time"":7039.100000008941},{""page_index"":6,""viewing_time"":8560},{""page_index"":7,""viewing_time"":6248.5999999940395},{""page_index"":8,""viewing_time"":6175.70000000298},{""page_index"":9,""viewing_time"":7404.5999999940395},{""page_index"":10,""viewing_time"":7667},{""page_index"":11,""viewing_time"":6976},{""page_index"":12,""viewing_time"":6271},{""page_index"":13,""viewing_time"":5047.600000008941}]","101611.40000000596","","","","","","","","","","","","","","","","","","","","","","","",""
"pit-trial","8","118171","0.0-2.0-4.0-0.0","battery-v0.2","","""event"",""trial"",""time""
""fullscreenenter"",""1"",""1547""
","
","
","""event"",""trial"",""time""
""fullscreenenter"",""1"",""1547""
","
","","","753.7000000029802","","","19","10965","3835","&#9784;","elianto","#FFFFF080"," "," ","1","&#10004","[1604.5]","1","0","0","","","","","","","",""
"pit-trial","9","121618","0.0-2.0-4.1-0.1","battery-v0.2","","""event"",""trial"",""time""
""fullscreenenter"",""1"",""1547""
","
","
","""event"",""trial"",""time""
""fullscreenenter"",""1"",""1547""
","
","","","589.2000000029802","","","19","10965","3835","&#9784;","elianto","#FFFFF080"," "," ","1","&#10004","[232,1441.5]","2","0","0","","","","","","","",""
"pit-trial","10","124986","0.0-2.0-4.2-0.2","battery-v0.2","","""event"",""trial"",""time""
""fullscreenenter"",""1"",""1547""
","
","
","""event"",""trial"",""time""
""fullscreenenter"",""1"",""1547""
","
","","","502.59999999403954","","","19","10965","3835","&#9784;","elianto","#FFFFF080"," "," ","1","&#10004","[1354.0999999940395]","1","0","0","","","","","","","",""
"pit-trial","11","128370","0.0-2.0-4.3-0.3","battery-v0.2","","""event"",""trial"",""time""
""fullscreenenter"",""1"",""1547""
","
","
","""event"",""trial"",""time""
""fullscreenenter"",""1"",""1547""
","
","","","524.6000000089407","","","19","10965","3835","&#9784;","elianto","#FFFFF080"," "," ","1","&#10004","[1376.5999999940395]","1","0","0","","","","","","","",""
"pit-trial","12","131836","0.0-2.0-4.4-0.4","battery-v0.2","","""event"",""trial"",""time""
""fullscreenenter"",""1"",""1547""
","
","
","""event"",""trial"",""time""
""fullscreenenter"",""1"",""1547""
","
","","","599.7999999970198","","","19","10965","3835","&#9784;","elianto","#FFFFF080"," "," ","1","&#10004","[1451.2000000029802]","1","0","0","","","","","","","",""
"pit-instructions","13","157351","0.0-2.0-5.0","battery-v0.2","","""event"",""trial"",""time""
""fullscreenenter"",""1"",""1547""
","
","
","""event"",""trial"",""time""
""fullscreenenter"",""1"",""1547""
","
","","[{""page_index"":0,""viewing_time"":5702.199999988079},{""page_index"":1,""viewing_time"":7679.800000011921},{""page_index"":2,""viewing_time"":5751.5999999940395},{""page_index"":3,""viewing_time"":6376.9000000059605}]","25510.69999998808","","","","","","","","","","","","","","","","","","","","","","","",""
"pit-trial","14","162221","0.0-2.0-6.0-0.0","battery-v0.2","","""event"",""trial"",""time""
""fullscreenenter"",""1"",""1547""
","
","
","""event"",""trial"",""time""
""fullscreenenter"",""1"",""1547""
","
","","","-1","","","19","10965","3835","&#9854;","elianto","#FFFFF080","-1","-1","1","&#10004","[]","0","0","1","","","","","","","",""
"pit-trial","15","167103","0.0-2.0-6.1-0.1","battery-v0.2","","""event"",""trial"",""time""
""fullscreenenter"",""1"",""1547""
","
","
","""event"",""trial"",""time""
""fullscreenenter"",""1"",""1547""
","
","","","-1","","","19","10965","3835","&#9854;","elianto","#FFFFF080","-1","-1","1","&#10004","[]","0","0","1","","","","","","","",""
"pit-trial","16","171969","0.0-2.0-6.2-0.2","battery-v0.2","","""event"",""trial"",""time""
""fullscreenenter"",""1"",""1547""
","
","
","""event"",""trial"",""time""
""fullscreenenter"",""1"",""1547""
","
","","","-1","","","19","10965","3835","&#9854;","elianto","#FFFFF080","-1","-1","1","&#10004","[]","0","0","1","","","","","","","",""
"pit-trial","17","176843","0.0-2.0-6.3-0.3","battery-v0.2","","""event"",""trial"",""time""
""fullscreenenter"",""1"",""1547""
","
","
","""event"",""trial"",""time""
""fullscreenenter"",""1"",""1547""
","
","","","-1","","","19","10965","3835","&#9854;","elianto","#FFFFF080","-1","-1","1","&#10004","[]","0","0","1","","","","","","","",""
"pit-trial","18","181714","0.0-2.0-6.4-0.4","battery-v0.2","","""event"",""trial"",""time""
""fullscreenenter"",""1"",""1547""
","
","
","""event"",""trial"",""time""
""fullscreenenter"",""1"",""1547""
","
","","","-1","","","19","10965","3835","&#9854;","elianto","#FFFFF080","-1","-1","1","&#10004","[]","0","0","1","","","","","","","",""
"pit-instructions","19","290342","0.0-2.0-7.0","battery-v0.2","","""event"",""trial"",""time""
""fullscreenenter"",""1"",""1547""
","
","
","""event"",""trial"",""time""
""fullscreenenter"",""1"",""1547""
","
","","[{""page_index"":0,""viewing_time"":5654.9000000059605},{""page_index"":1,""viewing_time"":6768.20000000298},{""page_index"":2,""viewing_time"":5728.899999991059},{""page_index"":3,""viewing_time"":5806.100000008941},{""page_index"":4,""viewing_time"":6000.20000000298},{""page_index"":5,""viewing_time"":5240.199999988079},{""page_index"":6,""viewing_time"":4041},{""page_index"":7,""viewing_time"":7031.600000008941},{""page_index"":8,""viewing_time"":6287.5},{""page_index"":9,""viewing_time"":5280.79999999702},{""page_index"":10,""viewing_time"":6527.20000000298},{""page_index"":11,""viewing_time"":4448.29999999702},{""page_index"":12,""viewing_time"":6311.5999999940395},{""page_index"":13,""viewing_time"":7296.100000008941},{""page_index"":14,""viewing_time"":6992.5},{""page_index"":15,""viewing_time"":6359.70000000298},{""page_index"":16,""viewing_time"":6023.29999999702},{""page_index"":17,""viewing_time"":6825.0999999940395}]","108623.5","","","","","","","","","","","","","","","","","","","","","","","",""
"pit-trial","20","294145","0.0-2.0-8.0-0.0","battery-v0.2","","""event"",""trial"",""time""
""fullscreenenter"",""1"",""1547""
","
","
","""event"",""trial"",""time""
""fullscreenenter"",""1"",""1547""
","
","","","933.8999999910593","","","19","10965","3835","&#9776;","elianto","#3366ff99"," "," ","1","+10","[1788.1000000089407]","1","0","1","","","","","","","",""
"pit-trial","21","297541","0.0-2.0-8.0-1.0","battery-v0.2","","""event"",""trial"",""time""
""fullscreenenter"",""1"",""1547""
","
","
","""event"",""trial"",""time""
""fullscreenenter"",""1"",""1547""
","
","","","536.0999999940395","","","19","10965","3835","&#9776;","elianto","#3366ff99"," "," ","1","+10","[1390.5]","1","0","1","","","","","","","",""
"pit-trial","22","300874","0.0-2.0-8.0-2.0","battery-v0.2","","""event"",""trial"",""time""
""fullscreenenter"",""1"",""1547""
","
","
","""event"",""trial"",""time""
""fullscreenenter"",""1"",""1547""
","
","","","473.5","","","19","10965","3835","&#9776;","elianto","#3366ff99"," "," ","1","+10","[1324.7999999970198]","1","0","1","","","","","","","",""
"pit-trial","23","304234","0.0-2.0-8.0-3.0","battery-v0.2","","""event"",""trial"",""time""
""fullscreenenter"",""1"",""1547""
","
","
","""event"",""trial"",""time""
""fullscreenenter"",""1"",""1547""
","
","","","490.29999999701977","","","19","10965","3835","&#9776;","elianto","#3366ff99"," "," ","1","0","[1341.0999999940395]","1","0","1","","","","","","","",""
"pit-trial","24","307554","0.0-2.0-8.0-4.0","battery-v0.2","","""event"",""trial"",""time""
""fullscreenenter"",""1"",""1547""
","
","
","""event"",""trial"",""time""
""fullscreenenter"",""1"",""1547""
","
","","","458.70000000298023","","","19","10965","3835","&#9776;","elianto","#3366ff99"," "," ","1","+10","[1312.0999999940395]","1","0","1","","","","","","","",""
"pit-trial","25","310892","0.0-2.0-8.1-0.1","battery-v0.2","","""event"",""trial"",""time""
""fullscreenenter"",""1"",""1547""
","
","
","""event"",""trial"",""time""
""fullscreenenter"",""1"",""1547""
","
","","","465.40000000596046","","","19","10965","3835","&#9776;","elianto","#3366ff99"," "," ","1","+10","[1320.6000000089407]","1","0","1","","","","","","","",""
"pit-trial","26","314405","0.0-2.0-8.1-1.1","battery-v0.2","","""event"",""trial"",""time""
""fullscreenenter"",""1"",""1547""
","
","
","""event"",""trial"",""time""
""fullscreenenter"",""1"",""1547""
","
","","","649.7000000029802","","","19","10965","3835","&#9776;","elianto","#3366ff99"," "," ","1","+10","[1502.8999999910593]","1","0","1","","","","","","","",""
"pit-trial","27","317691","0.0-2.0-8.1-2.1","battery-v0.2","","""event"",""trial"",""time""
""fullscreenenter"",""1"",""1547""
","
","
","""event"",""trial"",""time""
""fullscreenenter"",""1"",""1547""
","
","","","415.70000000298023","","","19","10965","3835","&#9776;","elianto","#3366ff99"," "," ","1","+10","[1271.2000000029802]","1","0","1","","","","","","","",""
"pit-trial","28","321001","0.0-2.0-8.1-3.1","battery-v0.2","","""event"",""trial"",""time""
""fullscreenenter"",""1"",""1547""
","
","
","""event"",""trial"",""time""
""fullscreenenter"",""1"",""1547""
","
","","","451.79999999701977","","","19","10965","3835","&#9776;","elianto","#3366ff99"," "," ","1","0","[1306.1000000089407]","1","0","1","","","","","","","",""
"pit-trial","29","324281","0.0-2.0-8.1-4.1","battery-v0.2","","""event"",""trial"",""time""
""fullscreenenter"",""1"",""1547""
","
","
","""event"",""trial"",""time""
""fullscreenenter"",""1"",""1547""
","
","","","425.29999999701977","","","19","10965","3835","&#9776;","elianto","#3366ff99"," "," ","1","+10","[1276.7999999970198]","1","0","1","","","","","","","",""
"pit-trial","30","327590","0.0-2.0-8.2-0.2","battery-v0.2","","""event"",""trial"",""time""
""fullscreenenter"",""1"",""1547""
","
","
","""event"",""trial"",""time""
""fullscreenenter"",""1"",""1547""
","
","","","453.20000000298023","","","19","10965","3835","&#9776;","elianto","#3366ff99"," "," ","1","+10","[1304.2999999970198]","1","0","1","","","","","","","",""
"pit-trial","31","330830","0.0-2.0-8.2-1.2","battery-v0.2","","""event"",""trial"",""time""
""fullscreenenter"",""1"",""1547""
","
","
","""event"",""trial"",""time""
""fullscreenenter"",""1"",""1547""
","
","","","386.79999999701977","","","19","10965","3835","&#9776;","elianto","#3366ff99"," "," ","1","+10","[1237]","1","0","1","","","","","","","",""
"pit-trial","32","334121","0.0-2.0-8.2-2.2","battery-v0.2","","""event"",""trial"",""time""
""fullscreenenter"",""1"",""1547""
","
","
","""event"",""trial"",""time""
""fullscreenenter"",""1"",""1547""
","
","","","436.59999999403954","","","19","10965","3835","&#9776;","elianto","#3366ff99"," "," ","1","+10","[1287.5]","1","0","1","","","","","","","",""
"pit-trial","33","337391","0.0-2.0-8.2-3.2","battery-v0.2","","""event"",""trial"",""time""
""fullscreenenter"",""1"",""1547""
","
","
","""event"",""trial"",""time""
""fullscreenenter"",""1"",""1547""
","
","","","413.8999999910593","","","19","10965","3835","&#9776;","elianto","#3366ff99"," "," ","1","0","[1265.5999999940395]","1","0","1","","","","","","","",""
"pit-trial","34","340680","0.0-2.0-8.2-4.2","battery-v0.2","","""event"",""trial"",""time""
""fullscreenenter"",""1"",""1547""
","
","
","""event"",""trial"",""time""
""fullscreenenter"",""1"",""1547""
","
","","","435.40000000596046","","","19","10965","3835","&#9776;","elianto","#3366ff99"," "," ","1","+10","[1286]","1","0","1","","","","","","","",""
"call-function","35","340684","0.0-2.0-9.0","battery-v0.2","","""event"",""trial"",""time""
""fullscreenenter"",""1"",""1547""
","
","
","""event"",""trial"",""time""
""fullscreenenter"",""1"",""1547""
","
","","","","","","","","","","","","","","","","","","","","","","","","","","",""
"pit-instructions","36","379421","0.0-2.0-10.0","battery-v0.2","","""event"",""trial"",""time""
""fullscreenenter"",""1"",""1547""
","
","
","""event"",""trial"",""time""
""fullscreenenter"",""1"",""1547""
","
","","[{""page_index"":0,""viewing_time"":5616.79999999702},{""page_index"":1,""viewing_time"":6240},{""page_index"":2,""viewing_time"":9887.60000000894},{""page_index"":3,""viewing_time"":8824.5},{""page_index"":4,""viewing_time"":8167.5}]","38736.70000000298","","","","","","","","","","","","","","","","","","","","","","","",""
"pit-trial","37","382899","0.0-2.0-11.0-0.0","battery-v0.2","","""event"",""trial"",""time""
""fullscreenenter"",""1"",""1547""
","
","
","""event"",""trial"",""time""
""fullscreenenter"",""1"",""1547""
","
","","","609.1999999880791","","","19","10965","3835","&#9761;","elianto","#3366ff99","-1"," ","0","0","[1464.5]","1","0","2","","","","","","","",""
"pit-trial","38","386350","0.0-2.0-11.0-1.0","battery-v0.2","","""event"",""trial"",""time""
""fullscreenenter"",""1"",""1547""
","
","
","""event"",""trial"",""time""
""fullscreenenter"",""1"",""1547""
","
","","","580.1999999880791","","","19","10965","3835","&#9761;","elianto","#3366ff99","-1"," ","0","0","[1431.2999999970198]","1","0","2","","","","","","","",""
"pit-trial","39","389672","0.0-2.0-11.0-2.0","battery-v0.2","","""event"",""trial"",""time""
""fullscreenenter"",""1"",""1547""
","
","
","""event"",""trial"",""time""
""fullscreenenter"",""1"",""1547""
","
","","","460.3999999910593","","","19","10965","3835","&#9761;","elianto","#3366ff99","-1"," ","0","0","[1311.2000000029802]","1","0","2","","","","","","","",""
"pit-trial","40","394547","0.0-2.0-11.0-3.0","battery-v0.2","","""event"",""trial"",""time""
""fullscreenenter"",""1"",""1547""
","
","
","""event"",""trial"",""time""
""fullscreenenter"",""1"",""1547""
","
","","","-1","","","19","10965","3835","&#9761;","elianto","#3366ff99","-1","-1","1","0","[]","0","0","2","","","","","","","",""
"pit-trial","41","399411","0.0-2.0-11.0-4.0","battery-v0.2","","""event"",""trial"",""time""
""fullscreenenter"",""1"",""1547""
","
","
","""event"",""trial"",""time""
""fullscreenenter"",""1"",""1547""
","
","","","-1","","","19","10965","3835","&#9761;","elianto","#3366ff99","-1","-1","1","+10","[]","0","0","2","","","","","","","",""
"pit-trial","42","404277","0.0-2.0-11.1-0.1","battery-v0.2","","""event"",""trial"",""time""
""fullscreenenter"",""1"",""1547""
","
","
","""event"",""trial"",""time""
""fullscreenenter"",""1"",""1547""
","
","","","-1","","","19","10965","3835","&#9761;","elianto","#3366ff99","-1","-1","1","+10","[]","0","0","2","","","","","","","",""
"pit-trial","43","409142","0.0-2.0-11.1-1.1","battery-v0.2","","""event"",""trial"",""time""
""fullscreenenter"",""1"",""1547""
","
","
","""event"",""trial"",""time""
""fullscreenenter"",""1"",""1547""
","
","","","-1","","","19","10965","3835","&#9761;","elianto","#3366ff99","-1","-1","1","+10","[]","0","0","2","","","","","","","",""
"pit-trial","44","413997","0.0-2.0-11.1-2.1","battery-v0.2","","""event"",""trial"",""time""
""fullscreenenter"",""1"",""1547""
","
","
","""event"",""trial"",""time""
""fullscreenenter"",""1"",""1547""
","
","","","-1","","","19","10965","3835","&#9761;","elianto","#3366ff99","-1","-1","1","+10","[]","0","0","2","","","","","","","",""
"pit-trial","45","417496","0.0-2.0-11.1-3.1","battery-v0.2","","""event"",""trial"",""time""
""fullscreenenter"",""1"",""1547""
","
","
","""event"",""trial"",""time""
""fullscreenenter"",""1"",""1547""
","
","","","645.1000000089407","","","19","10965","3835","&#9761;","elianto","#3366ff99","-1"," ","0","+10","[1495.5]","1","0","2","","","","","","","",""
"pit-trial","46","420851","0.0-2.0-11.1-4.1","battery-v0.2","","""event"",""trial"",""time""
""fullscreenenter"",""1"",""1547""
","
","
","""event"",""trial"",""time""
""fullscreenenter"",""1"",""1547""
","
","","","499.70000000298023","","","19","10965","3835","&#9761;","elianto","#3366ff99","-1"," ","0","0","[1351.5999999940395]","1","0","2","","","","","","","",""
"pit-trial","47","423904","0.0-2.0-11.2-0.2","battery-v0.2","","""event"",""trial"",""time""
""fullscreenenter"",""1"",""1547""
","
","
","""event"",""trial"",""time""
""fullscreenenter"",""1"",""1547""
","
","","","197.90000000596046","","","19","10965","3835","&#9761;","elianto","#3366ff99","-1"," ","0","0","[1049.7000000029802]","1","0","2","","","","","","","",""
"pit-trial","48","426945","0.0-2.0-11.2-1.2","battery-v0.2","","""event"",""trial"",""time""
""fullscreenenter"",""1"",""1547""
","
","
","""event"",""trial"",""time""
""fullscreenenter"",""1"",""1547""
","
","","","187.29999999701977","","","19","10965","3835","&#9761;","elianto","#3366ff99","-1"," ","0","0","[1037.800000011921]","1","0","2","","","","","","","",""
"pit-trial","49","429996","0.0-2.0-11.2-2.2","battery-v0.2","","""event"",""trial"",""time""
""fullscreenenter"",""1"",""1547""
","
","
","""event"",""trial"",""time""
""fullscreenenter"",""1"",""1547""
","
","","","196.5","","","19","10965","3835","&#9761;","elianto","#3366ff99","-1"," ","0","0","[1047.3999999910593]","1","0","2","","","","","","","",""
"pit-trial","50","432987","0.0-2.0-11.2-3.2","battery-v0.2","","""event"",""trial"",""time""
""fullscreenenter"",""1"",""1547""
","
","
","""event"",""trial"",""time""
""fullscreenenter"",""1"",""1547""
","
","","","135.20000000298023","","","19","10965","3835","&#9761;","elianto","#3366ff99","-1"," ","0","+10","[986.7000000029802]","1","0","2","","","","","","","",""
"pit-trial","51","435976","0.0-2.0-11.2-4.2","battery-v0.2","","""event"",""trial"",""time""
""fullscreenenter"",""1"",""1547""
","
","
","""event"",""trial"",""time""
""fullscreenenter"",""1"",""1547""
","
","","","134.3999999910593","","","19","10965","3835","&#9761;","elianto","#3366ff99","-1"," ","0","0","[985.3999999910593]","1","0","2","","","","","","","",""
"pit-trial","52","439018","0.0-2.0-11.3-0.3","battery-v0.2","","""event"",""trial"",""time""
""fullscreenenter"",""1"",""1547""
","
","
","""event"",""trial"",""time""
""fullscreenenter"",""1"",""1547""
","
","","","187.8999999910593","","","19","10965","3835","&#9761;","elianto","#3366ff99","-1"," ","0","0","[1039]","1","0","2","","","","","","","",""
"pit-trial","53","441938","0.0-2.0-11.3-1.3","battery-v0.2","","""event"",""trial"",""time""
""fullscreenenter"",""1"",""1547""
","
","
","""event"",""trial"",""time""
""fullscreenenter"",""1"",""1547""
","
","","","65.3999999910593","","","19","10965","3835","&#9761;","elianto","#3366ff99","-1"," ","0","0","[916.8999999910593]","1","0","2","","","","","","","",""
"pit-trial","54","444845","0.0-2.0-11.3-2.3","battery-v0.2","","""event"",""trial"",""time""
""fullscreenenter"",""1"",""1547""
","
","
","""event"",""trial"",""time""
""fullscreenenter"",""1"",""1547""
","
","","","54.099999994039536","","","19","10965","3835","&#9761;","elianto","#3366ff99","-1"," ","0","0","[904.3999999910593]","1","0","2","","","","","","","",""
"pit-trial","55","447728","0.0-2.0-11.3-3.3","battery-v0.2","","""event"",""trial"",""time""
""fullscreenenter"",""1"",""1547""
","
","
","""event"",""trial"",""time""
""fullscreenenter"",""1"",""1547""
","
","","","27.69999998807907","","","19","10965","3835","&#9761;","elianto","#3366ff99","-1"," ","0","+10","[877.9000000059605]","1","0","2","","","","","","","",""
"pit-trial","56","450598","0.0-2.0-11.3-4.3","battery-v0.2","","""event"",""trial"",""time""
""fullscreenenter"",""1"",""1547""
","
","
","""event"",""trial"",""time""
""fullscreenenter"",""1"",""1547""
","
","","","15.799999997019768","","","19","10965","3835","&#9761;","elianto","#3366ff99","-1"," ","0","0","[866.3000000119209]","1","0","2","","","","","","","",""
"call-function","57","450600","0.0-2.0-12.0","battery-v0.2","","""event"",""trial"",""time""
""fullscreenenter"",""1"",""1547""
","
","
","""event"",""trial"",""time""
""fullscreenenter"",""1"",""1547""
","
","","","","","","","","","","","","","","","","","","","","","","","","","","",""
"pit-instructions","58","480117","0.0-2.0-13.0","battery-v0.2","","""event"",""trial"",""time""
""fullscreenenter"",""1"",""1547""
","
","
","""event"",""trial"",""time""
""fullscreenenter"",""1"",""1547""
","
","","[{""page_index"":0,""viewing_time"":4484.0999999940395},{""page_index"":1,""viewing_time"":6823.5},{""page_index"":2,""viewing_time"":3376},{""page_index"":3,""viewing_time"":10503.800000011921},{""page_index"":4,""viewing_time"":4328.199999988079}]","29515.90000000596","","","","","","","","","","","","","","","","","","","","","","","",""
"pit-trial","59","483891","0.0-2.0-14.0-0.0","battery-v0.2","","""event"",""trial"",""time""
""fullscreenenter"",""1"",""1547""
","
","
","""event"",""trial"",""time""
""fullscreenenter"",""1"",""1547""
","
","","","906","","","19","10965","3835","&#9826;","elianto","#f73b6a7A","-1"," ","0","-10","[1757.199999988079]","1","0","3","","","","","","","",""
"pit-trial","60","488758","0.0-2.0-14.0-1.0","battery-v0.2","","""event"",""trial"",""time""
""fullscreenenter"",""1"",""1547""
","
","
","""event"",""trial"",""time""
""fullscreenenter"",""1"",""1547""
","
","","","-1","","","19","10965","3835","&#9826;","elianto","#f73b6a7A","-1","-1","1","0","[]","0","0","3","","","","","","","",""
"pit-trial","61","493624","0.0-2.0-14.0-2.0","battery-v0.2","","""event"",""trial"",""time""
""fullscreenenter"",""1"",""1547""
","
","
","""event"",""trial"",""time""
""fullscreenenter"",""1"",""1547""
","
","","","-1","","","19","10965","3835","&#9826;","elianto","#f73b6a7A","-1","-1","1","0","[]","0","0","3","","","","","","","",""
"pit-trial","62","498491","0.0-2.0-14.0-3.0","battery-v0.2","","""event"",""trial"",""time""
""fullscreenenter"",""1"",""1547""
","
","
","""event"",""trial"",""time""
""fullscreenenter"",""1"",""1547""
","
","","","-1","","","19","10965","3835","&#9826;","elianto","#f73b6a7A","-1","-1","1","-10","[3060]","1","0","3","","","","","","","",""
"pit-trial","63","501640","0.0-2.0-14.0-4.0","battery-v0.2","","""event"",""trial"",""time""
""fullscreenenter"",""1"",""1547""
","
","
","""event"",""trial"",""time""
""fullscreenenter"",""1"",""1547""
","
","","","287","","","19","10965","3835","&#9826;","elianto","#f73b6a7A","-1"," ","0","-10","[1141.2999999970198]","1","0","3","","","","","","","",""
"pit-trial","64","504610","0.0-2.0-14.1-0.1","battery-v0.2","","""event"",""trial"",""time""
""fullscreenenter"",""1"",""1547""
","
","
","""event"",""trial"",""time""
""fullscreenenter"",""1"",""1547""
","
","","","110.19999998807907","","","19","10965","3835","&#9826;","elianto","#f73b6a7A","-1"," ","0","-10","[962.2999999970198]","1","0","3","","","","","","","",""
"pit-trial","65","507561","0.0-2.0-14.1-1.1","battery-v0.2","","""event"",""trial"",""time""
""fullscreenenter"",""1"",""1547""
","
","
","""event"",""trial"",""time""
""fullscreenenter"",""1"",""1547""
","
","","","85.90000000596046","","","19","10965","3835","&#9826;","elianto","#f73b6a7A","-1"," ","0","-10","[942.1000000089407]","1","0","3","","","","","","","",""
"pit-trial","66","510557","0.0-2.0-14.1-2.1","battery-v0.2","","""event"",""trial"",""time""
""fullscreenenter"",""1"",""1547""
","
","
","""event"",""trial"",""time""
""fullscreenenter"",""1"",""1547""
","
","","","140.40000000596046","","","19","10965","3835","&#9826;","elianto","#f73b6a7A","-1"," ","0","-10","[992.6000000089407]","1","0","3","","","","","","","",""
"pit-trial","67","513507","0.0-2.0-14.1-3.1","battery-v0.2","","""event"",""trial"",""time""
""fullscreenenter"",""1"",""1547""
","
","
","""event"",""trial"",""time""
""fullscreenenter"",""1"",""1547""
","
","","","94.80000001192093","","","19","10965","3835","&#9826;","elianto","#f73b6a7A","-1"," ","0","0","[946.7000000029802]","1","0","3","","","","","","","",""
"pit-trial","68","517188","0.0-2.0-14.1-4.1","battery-v0.2","","""event"",""trial"",""time""
""fullscreenenter"",""1"",""1547""
","
","
","""event"",""trial"",""time""
""fullscreenenter"",""1"",""1547""
","
","","","825.4000000059605","","","19","10965","3835","&#9826;","elianto","#f73b6a7A","-1"," ","0","-10","[1676.2999999970198]","1","0","3","","","","","","","",""
"pit-trial","69","522044","0.0-2.0-14.2-0.2","battery-v0.2","","""event"",""trial"",""time""
""fullscreenenter"",""1"",""1547""
","
","
","""event"",""trial"",""time""
""fullscreenenter"",""1"",""1547""
","
","","","-1","","","19","10965","3835","&#9826;","elianto","#f73b6a7A","-1","-1","1","0","[]","0","0","3","","","","","","","",""
"pit-trial","70","526899","0.0-2.0-14.2-1.2","battery-v0.2","","""event"",""trial"",""time""
""fullscreenenter"",""1"",""1547""
","
","
","""event"",""trial"",""time""
""fullscreenenter"",""1"",""1547""
","
","","","-1","","","19","10965","3835","&#9826;","elianto","#f73b6a7A","-1","-1","1","0","[]","0","0","3","","","","","","","",""
"pit-trial","71","531753","0.0-2.0-14.2-2.2","battery-v0.2","","""event"",""trial"",""time""
""fullscreenenter"",""1"",""1547""
","
","
","""event"",""trial"",""time""
""fullscreenenter"",""1"",""1547""
","
","","","-1","","","19","10965","3835","&#9826;","elianto","#f73b6a7A","-1","-1","1","0","[]","0","0","3","","","","","","","",""
"pit-trial","72","536609","0.0-2.0-14.2-3.2","battery-v0.2","","""event"",""trial"",""time""
""fullscreenenter"",""1"",""1547""
","
","
","""event"",""trial"",""time""
""fullscreenenter"",""1"",""1547""
","
","","","-1","","","19","10965","3835","&#9826;","elianto","#f73b6a7A","-1","-1","1","-10","[]","0","0","3","","","","","","","",""
"pit-trial","73","541464","0.0-2.0-14.2-4.2","battery-v0.2","","""event"",""trial"",""time""
""fullscreenenter"",""1"",""1547""
","
","
","""event"",""trial"",""time""
""fullscreenenter"",""1"",""1547""
","
","","","-1","","","19","10965","3835","&#9826;","elianto","#f73b6a7A","-1","-1","1","0","[]","0","0","3","","","","","","","",""
"pit-trial","74","546319","0.0-2.0-14.3-0.3","battery-v0.2","","""event"",""trial"",""time""
""fullscreenenter"",""1"",""1547""
","
","
","""event"",""trial"",""time""
""fullscreenenter"",""1"",""1547""
","
","","","-1","","","19","10965","3835","&#9826;","elianto","#f73b6a7A","-1","-1","1","0","[]","0","0","3","","","","","","","",""
"pit-trial","75","551174","0.0-2.0-14.3-1.3","battery-v0.2","","""event"",""trial"",""time""
""fullscreenenter"",""1"",""1547""
","
","
","""event"",""trial"",""time""
""fullscreenenter"",""1"",""1547""
","
","","","-1","","","19","10965","3835","&#9826;","elianto","#f73b6a7A","-1","-1","1","0","[]","0","0","3","","","","","","","",""
"pit-trial","76","556028","0.0-2.0-14.3-2.3","battery-v0.2","","""event"",""trial"",""time""
""fullscreenenter"",""1"",""1547""
","
","
","""event"",""trial"",""time""
""fullscreenenter"",""1"",""1547""
","
","","","-1","","","19","10965","3835","&#9826;","elianto","#f73b6a7A","-1","-1","1","0","[]","0","0","3","","","","","","","",""
"pit-trial","77","560883","0.0-2.0-14.3-3.3","battery-v0.2","","""event"",""trial"",""time""
""fullscreenenter"",""1"",""1547""
","
","
","""event"",""trial"",""time""
""fullscreenenter"",""1"",""1547""
","
","","","-1","","","19","10965","3835","&#9826;","elianto","#f73b6a7A","-1","-1","1","-10","[]","0","0","3","","","","","","","",""
"pit-trial","78","565739","0.0-2.0-14.3-4.3","battery-v0.2","","""event"",""trial"",""time""
""fullscreenenter"",""1"",""1547""
","
","
","""event"",""trial"",""time""
""fullscreenenter"",""1"",""1547""
","
","","","-1","","","19","10965","3835","&#9826;","elianto","#f73b6a7A","-1","-1","1","0","[]","0","0","3","","","","","","","",""
"call-function","79","565742","0.0-2.0-15.0","battery-v0.2","","""event"",""trial"",""time""
""fullscreenenter"",""1"",""1547""
","
","
","""event"",""trial"",""time""
""fullscreenenter"",""1"",""1547""
","
","","","","","","","","","","","","","","","","","","","","","","","","","","",""
"pit-instructions","80","590773","0.0-2.0-16.0","battery-v0.2","","""event"",""trial"",""time""
""fullscreenenter"",""1"",""1547""
","
","
","""event"",""trial"",""time""
""fullscreenenter"",""1"",""1547""
","
","","[{""page_index"":0,""viewing_time"":6589.9000000059605},{""page_index"":1,""viewing_time"":8040.79999999702},{""page_index"":2,""viewing_time"":5918.5},{""page_index"":3,""viewing_time"":4480.20000000298}]","25029.60000000894","","","","","","","","","","","","","","","","","","","","","","","",""
"pit-trial","81","594127","0.0-2.0-17.0-0.0","battery-v0.2","","""event"",""trial"",""time""
""fullscreenenter"",""1"",""1547""
","
","
","""event"",""trial"",""time""
""fullscreenenter"",""1"",""1547""
","
","","","485.70000000298023","","","19","10965","3835","&#9789;","elianto","#f73b6a7A"," "," ","1","0","[1337.4000000059605]","1","0","4","","","","","","","",""
"pit-trial","82","597068","0.0-2.0-17.0-1.0","battery-v0.2","","""event"",""trial"",""time""
""fullscreenenter"",""1"",""1547""
","
","
","""event"",""trial"",""time""
""fullscreenenter"",""1"",""1547""
","
","","","80.3999999910593","","","19","10965","3835","&#9789;","elianto","#f73b6a7A"," "," ","1","0","[931.9000000059605,2340.9000000059605,2591.4000000059605,2810.7000000029802]","4","0","4","","","","","","","",""
"pit-trial","83","600096","0.0-2.0-17.0-2.0","battery-v0.2","","""event"",""trial"",""time""
""fullscreenenter"",""1"",""1547""
","
","
","""event"",""trial"",""time""
""fullscreenenter"",""1"",""1547""
","
","","","154.40000000596046","","","19","10965","3835","&#9789;","elianto","#f73b6a7A"," "," ","1","0","[60.8999999910593,250.29999999701977,469.3999999910593,650.0999999940395,799.6999999880791,1011.0999999940395]","6","0","4","","","","","","","",""
"pit-trial","84","604971","0.0-2.0-17.0-3.0","battery-v0.2","","""event"",""trial"",""time""
""fullscreenenter"",""1"",""1547""
","
","
","""event"",""trial"",""time""
""fullscreenenter"",""1"",""1547""
","
","","","-1","","","19","10965","3835","&#9789;","elianto","#f73b6a7A"," ","-1","0","0","[852.5]","1","0","4","","","","","","","",""
"pit-trial","85","607931","0.0-2.0-17.0-4.0","battery-v0.2","","""event"",""trial"",""time""
""fullscreenenter"",""1"",""1547""
","
","
","""event"",""trial"",""time""
""fullscreenenter"",""1"",""1547""
","
","","","102.29999999701977","","","19","10965","3835","&#9789;","elianto","#f73b6a7A"," "," ","1","0","[956.5999999940395]","1","0","4","","","","","","","",""
"pit-trial","86","610843","0.0-2.0-17.1-0.1","battery-v0.2","","""event"",""trial"",""time""
""fullscreenenter"",""1"",""1547""
","
","
","""event"",""trial"",""time""
""fullscreenenter"",""1"",""1547""
","
","","","45.29999999701977","","","19","10965","3835","&#9789;","elianto","#f73b6a7A"," "," ","1","0","[897]","1","0","4","","","","","","","",""
"pit-trial","87","613758","0.0-2.0-17.1-1.1","battery-v0.2","","""event"",""trial"",""time""
""fullscreenenter"",""1"",""1547""
","
","
","""event"",""trial"",""time""
""fullscreenenter"",""1"",""1547""
","
","","","50.8999999910593","","","19","10965","3835","&#9789;","elianto","#f73b6a7A"," "," ","1","0","[904.7999999970198]","1","0","4","","","","","","","",""
"pit-trial","88","616985","0.0-2.0-17.1-2.1","battery-v0.2","","""event"",""trial"",""time""
""fullscreenenter"",""1"",""1547""
","
","
","""event"",""trial"",""time""
""fullscreenenter"",""1"",""1547""
","
","","","369.70000000298023","","","19","10965","3835","&#9789;","elianto","#f73b6a7A"," "," ","1","0","[800.7000000029802,1219.6000000089407,1899.9000000059605,2140.4000000059605]","4","0","4","","","","","","","",""
"pit-trial","89","619964","0.0-2.0-17.1-3.1","battery-v0.2","","""event"",""trial"",""time""
""fullscreenenter"",""1"",""1547""
","
","
","""event"",""trial"",""time""
""fullscreenenter"",""1"",""1547""
","
","","","108.70000000298023","","","19","10965","3835","&#9789;","elianto","#f73b6a7A"," "," ","1","-10","[174.30000001192093,393.1000000089407,594.2000000029802,762.8000000119209,962.8000000119209,1112.800000011921,1293.5]","7","0","4","","","","","","","",""
"pit-trial","90","622892","0.0-2.0-17.1-4.1","battery-v0.2","","""event"",""trial"",""time""
""fullscreenenter"",""1"",""1547""
","
","
","""event"",""trial"",""time""
""fullscreenenter"",""1"",""1547""
","
","","","66","","","19","10965","3835","&#9789;","elianto","#f73b6a7A"," "," ","1","0","[33.900000005960464,213.70000000298023,583.4000000059605,734.4000000059605,924.2999999970198,1094.4000000059605,1293.9000000059605,1494,1693.5999999940395,1883.4000000059605,2113.0999999940395,2294,2523.7000000029802,2753.5999999940395]","14","0","4","","","","","","","",""
"pit-trial","91","625912","0.0-2.0-17.2-0.2","battery-v0.2","","""event"",""trial"",""time""
""fullscreenenter"",""1"",""1547""
","
","
","""event"",""trial"",""time""
""fullscreenenter"",""1"",""1547""
","
","","","161.3999999910593","","","19","10965","3835","&#9789;","elianto","#f73b6a7A"," "," ","1","0","[72.90000000596046,323.1000000089407,565,784.4000000059605,1013.7000000029802,1243.4000000059605,1453.5]","7","0","4","","","","","","","",""
"pit-trial","92","628782","0.0-2.0-17.2-1.2","battery-v0.2","","""event"",""trial"",""time""
""fullscreenenter"",""1"",""1547""
","
","
","""event"",""trial"",""time""
""fullscreenenter"",""1"",""1547""
","
","","","13.099999994039536","","","19","10965","3835","&#9789;","elianto","#f73b6a7A"," "," ","1","0","[864.5]","1","0","4","","","","","","","",""
"pit-trial","93","632152","0.0-2.0-17.2-2.2","battery-v0.2","","""event"",""trial"",""time""
""fullscreenenter"",""1"",""1547""
","
","
","""event"",""trial"",""time""
""fullscreenenter"",""1"",""1547""
","
","","","515.0999999940395","","","19","10965","3835","&#9789;","elianto","#f73b6a7A"," "," ","1","0","[786.7000000029802,1365.9000000059605,2135.1000000089407]","3","0","4","","","","","","","",""
"pit-trial","94","635042","0.0-2.0-17.2-3.2","battery-v0.2","","""event"",""trial"",""time""
""fullscreenenter"",""1"",""1547""
","
","
","""event"",""trial"",""time""
""fullscreenenter"",""1"",""1547""
","
","","","35.79999999701977","","","19","10965","3835","&#9789;","elianto","#f73b6a7A"," "," ","1","-10","[886]","1","0","4","","","","","","","",""
"pit-trial","95","639191","0.0-2.0-17.2-4.2","battery-v0.2","","""event"",""trial"",""time""
""fullscreenenter"",""1"",""1547""
","
","
","""event"",""trial"",""time""
""fullscreenenter"",""1"",""1547""
","
","","","1294.2999999970198","","","19","10965","3835","&#9789;","elianto","#f73b6a7A"," "," ","1","0","[847.6999999880791,2146.0999999940395]","2","0","4","","","","","","","",""
"pit-trial","96","642151","0.0-2.0-17.3-0.3","battery-v0.2","","""event"",""trial"",""time""
""fullscreenenter"",""1"",""1547""
","
","
","""event"",""trial"",""time""
""fullscreenenter"",""1"",""1547""
","
","","","107.90000000596046","","","19","10965","3835","&#9789;","elianto","#f73b6a7A"," "," ","1","0","[958.2999999970198,1137.7000000029802,2388,2498.6000000089407]","4","0","4","","","","","","","",""
"pit-trial","97","645272","0.0-2.0-17.3-1.3","battery-v0.2","","""event"",""trial"",""time""
""fullscreenenter"",""1"",""1547""
","
","
","""event"",""trial"",""time""
""fullscreenenter"",""1"",""1547""
","
","","","266.70000000298023","","","19","10965","3835","&#9789;","elianto","#f73b6a7A"," "," ","1","0","[338.1000000089407,586.6000000089407,838.2000000029802,1117.6000000089407,2928.2000000029802]","5","0","4","","","","","","","",""
"pit-trial","98","648184","0.0-2.0-17.3-2.3","battery-v0.2","","""event"",""trial"",""time""
""fullscreenenter"",""1"",""1547""
","
","
","""event"",""trial"",""time""
""fullscreenenter"",""1"",""1547""
","
","","","57.70000000298023","","","19","10965","3835","&#9789;","elianto","#f73b6a7A"," "," ","1","0","[627,908.2999999970198,1077]","3","0","4","","","","","","","",""
"pit-trial","99","651132","0.0-2.0-17.3-3.3","battery-v0.2","","""event"",""trial"",""time""
""fullscreenenter"",""1"",""1547""
","
","
","""event"",""trial"",""time""
""fullscreenenter"",""1"",""1547""
","
","","","94.20000000298023","","","19","10965","3835","&#9789;","elianto","#f73b6a7A"," "," ","1","-10","[764.6000000089407,945]","2","0","4","","","","","","","",""
"pit-trial","100","654082","0.0-2.0-17.3-4.3","battery-v0.2","","""event"",""trial"",""time""
""fullscreenenter"",""1"",""1547""
","
","
","""event"",""trial"",""time""
""fullscreenenter"",""1"",""1547""
","
","","","95.70000000298023","","","19","10965","3835","&#9789;","elianto","#f73b6a7A"," "," ","1","0","[945.7000000029802]","1","0","4","","","","","","","",""
"call-function","101","654083","0.0-2.0-18.0","battery-v0.2","","""event"",""trial"",""time""
""fullscreenenter"",""1"",""1547""
","
","
","""event"",""trial"",""time""
""fullscreenenter"",""1"",""1547""
","
","","","","","","","","","","","","","","","","","","","","","","","","","","",""
"pit-instructions","102","712404","0.0-2.0-19.0","battery-v0.2","","""event"",""trial"",""time""
""fullscreenenter"",""1"",""1547""
","
","
","""event"",""trial"",""time""
""fullscreenenter"",""1"",""1547""
","
","","[{""page_index"":0,""viewing_time"":6392.70000000298},{""page_index"":1,""viewing_time"":5783.9000000059605},{""page_index"":2,""viewing_time"":11120},{""page_index"":3,""viewing_time"":7192.5},{""page_index"":4,""viewing_time"":6208},{""page_index"":5,""viewing_time"":8119.399999991059},{""page_index"":6,""viewing_time"":5392.20000000298},{""page_index"":7,""viewing_time"":4624},{""page_index"":8,""viewing_time"":3488}]","58320.90000000596","","","","","","","","","","","","","","","","","","","","","","","",""
"pit-comprehension","103","716637","0.0-2.0-20.0-0.0","battery-v0.2","","""event"",""trial"",""time""
""fullscreenenter"",""1"",""1547""
","
","
","""event"",""trial"",""time""
""fullscreenenter"",""1"",""1547""
","
","","","4229.29999999702","[""SPACE""]","0","19","10965","3835","","","","","","","","","","","","","","","","","","",""
"pit-instructions","104","719420","0.0-2.0-20.0-1.0","battery-v0.2","","""event"",""trial"",""time""
""fullscreenenter"",""1"",""1547""
","
","
","""event"",""trial"",""time""
""fullscreenenter"",""1"",""1547""
","
","","[{""page_index"":0,""viewing_time"":2750}]","2750.2999999970198","","","","","","","","","","","","","","","","","","","","","","","",""
"pit-comprehension","105","723885","0.0-2.0-21.0-0.0","battery-v0.2","","""event"",""trial"",""time""
""fullscreenenter"",""1"",""1547""
","
","
","""event"",""trial"",""time""
""fullscreenenter"",""1"",""1547""
","
","","","4462.300000011921","[""10""]","0","19","10965","3835","","","","","","","","","","","","","","","","","","",""
"pit-instructions","106","725332","0.0-2.0-21.0-1.0","battery-v0.2","","""event"",""trial"",""time""
""fullscreenenter"",""1"",""1547""
","
","
","""event"",""trial"",""time""
""fullscreenenter"",""1"",""1547""
","
","","[{""page_index"":0,""viewing_time"":1399.4000000059605}]","1399.6000000089407","","","","","","","","","","","","","","","","","","","","","","","",""
"pit-comprehension","107","731756","0.0-2.0-22.0-0.0","battery-v0.2","","""event"",""trial"",""time""
""fullscreenenter"",""1"",""1547""
","
","
","""event"",""trial"",""time""
""fullscreenenter"",""1"",""1547""
","
","","","6421.9000000059605","[""-10""]","1","19","10965","3835","","","","","","","","","","","","","","","","","","",""
"pit-instructions","108","733708","0.0-2.0-22.0-1.0","battery-v0.2","","""event"",""trial"",""time""
""fullscreenenter"",""1"",""1547""
","
","
","""event"",""trial"",""time""
""fullscreenenter"",""1"",""1547""
","
","","[{""page_index"":0,""viewing_time"":1919.9000000059605}]","1920.1000000089407","","","","","","","","","","","","","","","","","","","","","","","",""
"pit-instructions","109","734349","0.0-2.0-22.0-2.0-0.0","battery-v0.2","","""event"",""trial"",""time""
""fullscreenenter"",""1"",""1547""
","
","
","""event"",""trial"",""time""
""fullscreenenter"",""1"",""1547""
","
","","[{""page_index"":0,""viewing_time"":639.2000000029802}]","639.5","","","","","","","","","","","","","","","","","","","","","","","",""
"pit-comprehension","110","740701","0.0-2.0-22.1-0.1","battery-v0.2","","""event"",""trial"",""time""
""fullscreenenter"",""1"",""1547""
","
","
","""event"",""trial"",""time""
""fullscreenenter"",""1"",""1547""
","
","","","6349.5","[""0""]","0","19","10965","3835","","","","","","","","","","","","","","","","","","",""
"pit-instructions","111","742253","0.0-2.0-22.1-1.1","battery-v0.2","","""event"",""trial"",""time""
""fullscreenenter"",""1"",""1547""
","
","
","""event"",""trial"",""time""
""fullscreenenter"",""1"",""1547""
","
","","[{""page_index"":0,""viewing_time"":1518.699999988079}]","1519","","","","","","","","","","","","","","","","","","","","","","","",""
"pit-comprehension","112","750413","0.0-2.0-23.0-0.0","battery-v0.2","","""event"",""trial"",""time""
""fullscreenenter"",""1"",""1547""
","
","
","""event"",""trial"",""time""
""fullscreenenter"",""1"",""1547""
","
","","","8158.0999999940395","[""False""]","1","19","10965","3835","","","","","","","","","","","","","","","","","","",""
"pit-instructions","113","751717","0.0-2.0-23.0-1.0","battery-v0.2","","""event"",""trial"",""time""
""fullscreenenter"",""1"",""1547""
","
","
","""event"",""trial"",""time""
""fullscreenenter"",""1"",""1547""
","
","","[{""page_index"":0,""viewing_time"":1271.0999999940395}]","1271.2999999970198","","","","","","","","","","","","","","","","","","","","","","","",""
"pit-instructions","114","752692","0.0-2.0-23.0-2.0-0.0","battery-v0.2","","""event"",""trial"",""time""
""fullscreenenter"",""1"",""1547""
","
","
","""event"",""trial"",""time""
""fullscreenenter"",""1"",""1547""
","
","","[{""page_index"":0,""viewing_time"":974.3999999910593}]","974.5999999940395","","","","","","","","","","","","","","","","","","","","","","","",""
"pit-comprehension","115","761077","0.0-2.0-23.1-0.1","battery-v0.2","","""event"",""trial"",""time""
""fullscreenenter"",""1"",""1547""
","
","
","""event"",""trial"",""time""
""fullscreenenter"",""1"",""1547""
","
","","","8382.79999999702","[""True""]","0","19","10965","3835","","","","","","","","","","","","","","","","","","",""
"pit-instructions","116","764556","0.0-2.0-23.1-1.1","battery-v0.2","","""event"",""trial"",""time""
""fullscreenenter"",""1"",""1547""
","
","
","""event"",""trial"",""time""
""fullscreenenter"",""1"",""1547""
","
","","[{""page_index"":0,""viewing_time"":3445.699999988079}]","3445.8999999910593","","","","","","","","","","","","","","","","","","","","","","","",""
"pit-comprehension","117","771926","0.0-2.0-24.0-0.0","battery-v0.2","","""event"",""trial"",""time""
""fullscreenenter"",""1"",""1547""
","
","
","""event"",""trial"",""time""
""fullscreenenter"",""1"",""1547""
","
","","","7365.600000008941","[""True""]","0","19","10965","3835","","","","","","","","","","","","","","","","","","",""
"pit-instructions","118","773237","0.0-2.0-24.0-1.0","battery-v0.2","","""event"",""trial"",""time""
""fullscreenenter"",""1"",""1547""
","
","
","""event"",""trial"",""time""
""fullscreenenter"",""1"",""1547""
","
","","[{""page_index"":0,""viewing_time"":1281.699999988079}]","1281.8999999910593","","","","","","","","","","","","","","","","","","","","","","","",""
"pit-comprehension","119","779501","0.0-2.0-25.0-0.0","battery-v0.2","","""event"",""trial"",""time""
""fullscreenenter"",""1"",""1547""
","
","
","""event"",""trial"",""time""
""fullscreenenter"",""1"",""1547""
","
","","","6261.70000000298","[""True""]","0","19","10965","3835","","","","","","","","","","","","","","","","","","",""
"pit-instructions","120","780940","0.0-2.0-25.0-1.0","battery-v0.2","","""event"",""trial"",""time""
""fullscreenenter"",""1"",""1547""
","
","
","""event"",""trial"",""time""
""fullscreenenter"",""1"",""1547""
","
","","[{""page_index"":0,""viewing_time"":1408}]","1408.2000000029802","","","","","","","","","","","","","","","","","","","","","","","",""
"pit-comprehension","121","786500","0.0-2.0-26.0-0.0","battery-v0.2","","""event"",""trial"",""time""
""fullscreenenter"",""1"",""1547""
","
","
","""event"",""trial"",""time""
""fullscreenenter"",""1"",""1547""
","
","","","5558.100000008941","[""False""]","0","19","10965","3835","","","","","","","","","","","","","","","","","","",""
"pit-instructions","122","788172","0.0-2.0-26.0-1.0","battery-v0.2","","""event"",""trial"",""time""
""fullscreenenter"",""1"",""1547""
","
","
","""event"",""trial"",""time""
""fullscreenenter"",""1"",""1547""
","
","","[{""page_index"":0,""viewing_time"":1638.2999999970198}]","1638.6000000089407","","","","","","","","","","","","","","","","","","","","","","","",""
"pit-instructions","123","804404","0.0-3.0","battery-v0.2","","""event"",""trial"",""time""
""fullscreenenter"",""1"",""1547""
","
","
","""event"",""trial"",""time""
""fullscreenenter"",""1"",""1547""
","
","","[{""page_index"":0,""viewing_time"":3342.2999999970198},{""page_index"":1,""viewing_time"":5047.20000000298},{""page_index"":2,""viewing_time"":7840.600000008941}]","16230.40000000596","","","","","","","","","","","","","","","","","","","","","","","",""
"pit-trial","124","808091","0.0-4.0","battery-v0.2","","""event"",""trial"",""time""
""fullscreenenter"",""1"",""1547""
","
","
","""event"",""trial"",""time""
""fullscreenenter"",""1"",""1547""
","
","","","819.8000000119209","","","19","10965","3835","&#9733;","elianto","#3366ff99","-1"," ","0","0","[1670.6000000089407]","1","1","","","10965","1","2","2","win","no-go","0"
"pit-trial","125","811482","0.0-5.0","battery-v0.2","","""event"",""trial"",""time""
""fullscreenenter"",""1"",""1547""
","
","
","""event"",""trial"",""time""
""fullscreenenter"",""1"",""1547""
","
","","","521.7999999970198","","","19","10965","3835","&#9730;","elianto","#3366ff99"," "," ","1","+10","[1383.5]","1","1","","","10965","2","1","1","win","go","0"
"pit-trial","126","815062","0.0-6.0","battery-v0.2","","""event"",""trial"",""time""
""fullscreenenter"",""1"",""1547""
","
","
","""event"",""trial"",""time""
""fullscreenenter"",""1"",""1547""
","
","","","717.5","","","19","10965","3835","&#9752;","elianto","#f73b6a7A"," "," ","1","0","[1572.9000000059605]","1","1","","","10965","3","3","3","lose","go","0"
"pit-trial","127","818620","0.0-7.0","battery-v0.2","","""event"",""trial"",""time""
""fullscreenenter"",""1"",""1547""
","
","
","""event"",""trial"",""time""
""fullscreenenter"",""1"",""1547""
","
","","","691.9000000059605","","","19","10965","3835","&#9728;","elianto","#f73b6a7A","-1"," ","0","0","[1543]","1","1","","","10965","4","0","4","lose","no-go","1"
"pit-trial","128","822239","0.0-8.0","battery-v0.2","","""event"",""trial"",""time""
""fullscreenenter"",""1"",""1547""
","
","
","""event"",""trial"",""time""
""fullscreenenter"",""1"",""1547""
","
","","","757","","","19","10965","3835","&#9728;","elianto","#f73b6a7A","-1"," ","0","-10","[1613.2000000029802]","1","1","","","10965","5","0","4","lose","no-go","0"
"pit-trial","129","825719","0.0-9.0","battery-v0.2","","""event"",""trial"",""time""
""fullscreenenter"",""1"",""1547""
","
","
","""event"",""trial"",""time""
""fullscreenenter"",""1"",""1547""
","
","","","608.7000000029802","","","19","10965","3835","&#9752;","elianto","#f73b6a7A"," "," ","1","0","[1464.800000011921]","1","1","","","10965","6","3","3","lose","go","0"
"pit-trial","130","829244","0.0-10.0","battery-v0.2","","""event"",""trial"",""time""
""fullscreenenter"",""1"",""1547""
","
","
","""event"",""trial"",""time""
""fullscreenenter"",""1"",""1547""
","
","","","664.7999999970198","","","19","10965","3835","&#9730;","elianto","#3366ff99"," "," ","1","+10","[1516]","1","1","","","10965","7","1","1","win","go","0"
"pit-trial","131","832530","0.0-11.0","battery-v0.2","","""event"",""trial"",""time""
""fullscreenenter"",""1"",""1547""
","
","
","""event"",""trial"",""time""
""fullscreenenter"",""1"",""1547""
","
","","","423.69999998807907","","","19","10965","3835","&#9733;","elianto","#3366ff99","-1"," ","0","+10","[1279.9000000059605]","1","1","","","10965","8","2","2","win","no-go","1"
"pit-trial","132","837384","0.0-12.0","battery-v0.2","","""event"",""trial"",""time""
""fullscreenenter"",""1"",""1547""
","
","
","""event"",""trial"",""time""
""fullscreenenter"",""1"",""1547""
","
","","","-1","","","19","10965","3835","&#9728;","elianto","#f73b6a7A","-1","-1","1","0","[]","0","1","","","10965","9","0","4","lose","no-go","0"
"pit-trial","133","840828","0.0-13.0","battery-v0.2","","""event"",""trial"",""time""
""fullscreenenter"",""1"",""1547""
","
","
","""event"",""trial"",""time""
""fullscreenenter"",""1"",""1547""
","
","","","590","","","19","10965","3835","&#9752;","elianto","#f73b6a7A"," "," ","1","0","[1439.8999999910593]","1","1","","","10965","10","3","3","lose","go","0"
"pit-trial","134","844147","0.0-14.0","battery-v0.2","","""event"",""trial"",""time""
""fullscreenenter"",""1"",""1547""
","
","
","""event"",""trial"",""time""
""fullscreenenter"",""1"",""1547""
","
","","","463.70000000298023","","","19","10965","3835","&#9730;","elianto","#3366ff99"," "," ","1","0","[1315.0999999940395]","1","1","","","10965","11","1","1","win","go","1"
"pit-trial","135","847447","0.0-15.0","battery-v0.2","","""event"",""trial"",""time""
""fullscreenenter"",""1"",""1547""
","
","
","""event"",""trial"",""time""
""fullscreenenter"",""1"",""1547""
","
","","","445.29999999701977","","","19","10965","3835","&#9733;","elianto","#3366ff99","-1"," ","0","0","[1296.8999999910593]","1","1","","","10965","12","2","2","win","no-go","0"
"pit-trial","136","852303","0.0-16.0","battery-v0.2","","""event"",""trial"",""time""
""fullscreenenter"",""1"",""1547""
","
","
","""event"",""trial"",""time""
""fullscreenenter"",""1"",""1547""
","
","","","-1","","","19","10965","3835","&#9728;","elianto","#f73b6a7A","-1","-1","1","0","[]","0","1","","","10965","13","0","4","lose","no-go","0"
"pit-trial","137","855687","0.0-17.0","battery-v0.2","","""event"",""trial"",""time""
""fullscreenenter"",""1"",""1547""
","
","
","""event"",""trial"",""time""
""fullscreenenter"",""1"",""1547""
","
","","","530.4000000059605","","","19","10965","3835","&#9752;","elianto","#f73b6a7A"," "," ","1","0","[1380.6000000089407]","1","1","","","10965","14","3","3","lose","go","0"
"pit-trial","138","859177","0.0-18.0","battery-v0.2","","""event"",""trial"",""time""
""fullscreenenter"",""1"",""1547""
","
","
","""event"",""trial"",""time""
""fullscreenenter"",""1"",""1547""
","
","","","635.2999999970198","","","19","10965","3835","&#9733;","elianto","#3366ff99","-1"," ","0","0","[1486]","1","1","","","10965","15","2","2","win","no-go","0"
"pit-trial","139","862458","0.0-19.0","battery-v0.2","","""event"",""trial"",""time""
""fullscreenenter"",""1"",""1547""
","
","
","""event"",""trial"",""time""
""fullscreenenter"",""1"",""1547""
","
","","","426.29999999701977","","","19","10965","3835","&#9730;","elianto","#3366ff99"," "," ","1","+10","[1277.1000000089407]","1","1","","","10965","16","1","1","win","go","0"
"pit-trial","140","865948","0.0-20.0","battery-v0.2","","""event"",""trial"",""time""
""fullscreenenter"",""1"",""1547""
","
","
","""event"",""trial"",""time""
""fullscreenenter"",""1"",""1547""
","
","","","633.7000000029802","","","19","10965","3835","&#9730;","elianto","#3366ff99"," "," ","1","+10","[1486.2000000029802]","1","1","","","10965","17","1","1","win","go","0"
"pit-trial","141","869438","0.0-21.0","battery-v0.2","","""event"",""trial"",""time""
""fullscreenenter"",""1"",""1547""
","
","
","""event"",""trial"",""time""
""fullscreenenter"",""1"",""1547""
","
","","","635.3999999910593","","","19","10965","3835","&#9752;","elianto","#f73b6a7A"," "," ","1","-10","[1487.2999999970198]","1","1","","","10965","18","3","3","lose","go","1"
"pit-trial","142","873007","0.0-22.0","battery-v0.2","","""event"",""trial"",""time""
""fullscreenenter"",""1"",""1547""
","
","
","""event"",""trial"",""time""
""fullscreenenter"",""1"",""1547""
","
","","","713.1999999880791","","","19","10965","3835","&#9728;","elianto","#f73b6a7A","-1"," ","0","-10","[1566]","1","1","","","10965","19","0","4","lose","no-go","0"
"pit-trial","143","876387","0.0-23.0","battery-v0.2","","""event"",""trial"",""time""
""fullscreenenter"",""1"",""1547""
","
","
","""event"",""trial"",""time""
""fullscreenenter"",""1"",""1547""
","
","","","525.6000000089407","","","19","10965","3835","&#9733;","elianto","#3366ff99","-1"," ","0","+10","[1376.4000000059605]","1","1","","","10965","20","2","2","win","no-go","1"
"pit-instructions","144","888187","0.0-24.0","battery-v0.2","","""event"",""trial"",""time""
""fullscreenenter"",""1"",""1547""
","
","
","""event"",""trial"",""time""
""fullscreenenter"",""1"",""1547""
","
","","[{""page_index"":0,""viewing_time"":5607},{""page_index"":1,""viewing_time"":6190.9000000059605}]","11798","","","","","","","","","","","","","","","","","","","","","","","",""
"pit-trial","145","891761","0.0-25.0","battery-v0.2","","""event"",""trial"",""time""
""fullscreenenter"",""1"",""1547""
","
","
","""event"",""trial"",""time""
""fullscreenenter"",""1"",""1547""
","
","","","704.5","","","19","10965","3835","m","elianto","#f73b6a7A","-1"," ","0","0","[1558]","1","2","","","10965","21","0","4","lose","no-go","1"
"pit-trial","146","895276","0.0-26.0","battery-v0.2","","""event"",""trial"",""time""
""fullscreenenter"",""1"",""1547""
","
","
","""event"",""trial"",""time""
""fullscreenenter"",""1"",""1547""
","
","","","652.7000000029802","","","19","10965","3835","h","elianto","#f73b6a7A"," "," ","1","0","[1504.4000000059605]","1","2","","","10965","22","3","3","lose","go","0"
"pit-trial","147","898880","0.0-27.0","battery-v0.2","","""event"",""trial"",""time""
""fullscreenenter"",""1"",""1547""
","
","
","""event"",""trial"",""time""
""fullscreenenter"",""1"",""1547""
","
","","","746.1999999880791","","","19","10965","3835","y","elianto","#f73b6a7A","-1"," ","0","-10","[1598.9000000059605]","1","2","","","10965","23","2","4","lose","no-go","0"
"pit-trial","148","902421","0.0-28.0","battery-v0.2","","""event"",""trial"",""time""
""fullscreenenter"",""1"",""1547""
","
","
","""event"",""trial"",""time""
""fullscreenenter"",""1"",""1547""
","
","","","682.8999999910593","","","19","10965","3835","r","elianto","#3366ff99"," "," ","1","+10","[1533.0999999940395]","1","2","","","10965","24","1","1","win","go","0"
"pit-trial","149","905792","0.0-29.0","battery-v0.2","","""event"",""trial"",""time""
""fullscreenenter"",""1"",""1547""
","
","
","""event"",""trial"",""time""
""fullscreenenter"",""1"",""1547""
","
","","","503.1000000089407","","","19","10965","3835","r","elianto","#3366ff99"," "," ","1","+10","[1354.300000011921]","1","2","","","10965","25","1","1","win","go","0"
"pit-trial","150","910671","0.0-30.0","battery-v0.2","","""event"",""trial"",""time""
""fullscreenenter"",""1"",""1547""
","
","
","""event"",""trial"",""time""
""fullscreenenter"",""1"",""1547""
","
","","","-1","","","19","10965","3835","y","elianto","#f73b6a7A","-1","-1","1","0","[]","0","2","","","10965","26","2","4","lose","no-go","0"
"pit-trial","151","914380","0.0-31.0","battery-v0.2","","""event"",""trial"",""time""
""fullscreenenter"",""1"",""1547""
","
","
","""event"",""trial"",""time""
""fullscreenenter"",""1"",""1547""
","
","","","842.4000000059605","","","19","10965","3835","m","elianto","#f73b6a7A","-1"," ","0","0","[1694.300000011921]","1","2","","","10965","27","0","4","lose","no-go","1"
"pit-trial","152","917780","0.0-32.0","battery-v0.2","","""event"",""trial"",""time""
""fullscreenenter"",""1"",""1547""
","
","
","""event"",""trial"",""time""
""fullscreenenter"",""1"",""1547""
","
","","","533.5999999940395","","","19","10965","3835","h","elianto","#f73b6a7A"," "," ","1","-10","[1384.7000000029802]","1","2","","","10965","28","3","3","lose","go","1"
"pit-trial","153","921428","0.0-33.0","battery-v0.2","","""event"",""trial"",""time""
""fullscreenenter"",""1"",""1547""
","
","
","""event"",""trial"",""time""
""fullscreenenter"",""1"",""1547""
","
","","","794.2999999970198","","","19","10965","3835","y","elianto","#f73b6a7A","-1"," ","0","-10","[1644.5]","1","2","","","10965","29","2","4","lose","no-go","0"
"pit-trial","154","924958","0.0-34.0","battery-v0.2","","""event"",""trial"",""time""
""fullscreenenter"",""1"",""1547""
","
","
","""event"",""trial"",""time""
""fullscreenenter"",""1"",""1547""
","
","","","675.7000000029802","","","19","10965","3835","r","elianto","#3366ff99"," "," ","1","+10","[1526.2000000029802]","1","2","","","10965","30","1","1","win","go","0"
"pit-trial","155","928927","0.0-35.0","battery-v0.2","","""event"",""trial"",""time""
""fullscreenenter"",""1"",""1547""
","
","
","""event"",""trial"",""time""
""fullscreenenter"",""1"",""1547""
","
","","","1114.7999999970198","","","19","10965","3835","h","elianto","#f73b6a7A"," "," ","1","0","[1965.6000000089407]","1","2","","","10965","31","3","3","lose","go","0"
"pit-trial","156","932657","0.0-36.0","battery-v0.2","","""event"",""trial"",""time""
""fullscreenenter"",""1"",""1547""
","
","
","""event"",""trial"",""time""
""fullscreenenter"",""1"",""1547""
","
","","","876","","","19","10965","3835","m","elianto","#f73b6a7A","-1"," ","0","-10","[1727.7000000029802]","1","2","","","10965","32","0","4","lose","no-go","0"
"pit-trial","157","936030","0.0-37.0","battery-v0.2","","""event"",""trial"",""time""
""fullscreenenter"",""1"",""1547""
","
","
","""event"",""trial"",""time""
""fullscreenenter"",""1"",""1547""
","
","","","518.7000000029802","","","19","10965","3835","r","elianto","#3366ff99"," "," ","1","+10","[1369.4000000059605]","1","2","","","10965","33","1","1","win","go","0"
"pit-trial","158","939478","0.0-38.0","battery-v0.2","","""event"",""trial"",""time""
""fullscreenenter"",""1"",""1547""
","
","
","""event"",""trial"",""time""
""fullscreenenter"",""1"",""1547""
","
","","","592.5999999940395","","","19","10965","3835","m","elianto","#f73b6a7A","-1"," ","0","-10","[1444.0999999940395]","1","2","","","10965","34","0","4","lose","no-go","0"
"pit-trial","159","943068","0.0-39.0","battery-v0.2","","""event"",""trial"",""time""
""fullscreenenter"",""1"",""1547""
","
","
","""event"",""trial"",""time""
""fullscreenenter"",""1"",""1547""
","
","","","735","","","19","10965","3835","h","elianto","#f73b6a7A"," "," ","1","0","[1586.9000000059605]","1","2","","","10965","35","3","3","lose","go","0"
"pit-trial","160","946467","0.0-40.0","battery-v0.2","","""event"",""trial"",""time""
""fullscreenenter"",""1"",""1547""
","
","
","""event"",""trial"",""time""
""fullscreenenter"",""1"",""1547""
","
","","","545.3999999910593","","","19","10965","3835","y","elianto","#f73b6a7A","-1"," ","0","-10","[1396.3999999910593]","1","2","","","10965","36","2","4","lose","no-go","0"
"pit-trial","161","949888","0.0-41.0","battery-v0.2","","""event"",""trial"",""time""
""fullscreenenter"",""1"",""1547""
","
","
","""event"",""trial"",""time""
""fullscreenenter"",""1"",""1547""
","
","","","566.2000000029802","","","19","10965","3835","r","elianto","#3366ff99"," "," ","1","+10","[1417.9000000059605]","1","2","","","10965","37","1","1","win","go","0"
"pit-trial","162","954208","0.0-42.0","battery-v0.2","","""event"",""trial"",""time""
""fullscreenenter"",""1"",""1547""
","
","
","""event"",""trial"",""time""
""fullscreenenter"",""1"",""1547""
","
","","","1465.5","","","19","10965","3835","y","elianto","#f73b6a7A","-1"," ","0","0","[2315.8999999910593]","1","2","","","10965","38","2","4","lose","no-go","1"
"pit-trial","163","958260","0.0-43.0","battery-v0.2","","""event"",""trial"",""time""
""fullscreenenter"",""1"",""1547""
","
","
","""event"",""trial"",""time""
""fullscreenenter"",""1"",""1547""
","
","","","1196.3999999910593","","","19","10965","3835","h","elianto","#f73b6a7A"," "," ","1","0","[2047.7999999970198]","1","2","","","10965","39","3","3","lose","go","0"
"pit-trial","164","963114","0.0-44.0","battery-v0.2","","""event"",""trial"",""time""
""fullscreenenter"",""1"",""1547""
","
","
","""event"",""trial"",""time""
""fullscreenenter"",""1"",""1547""
","
","","","-1","","","19","10965","3835","m","elianto","#f73b6a7A","-1","-1","1","0","[]","0","2","","","10965","40","0","4","lose","no-go","0"
"pit-trial","165","967139","0.0-45.0","battery-v0.2","","""event"",""trial"",""time""
""fullscreenenter"",""1"",""1547""
","
","
","""event"",""trial"",""time""
""fullscreenenter"",""1"",""1547""
","
","","","1171.0999999940395","","","19","10965","3835","m","elianto","#f73b6a7A","-1"," ","0","-10","[2021.2999999970198]","1","2","","","10965","41","0","4","lose","no-go","0"
"pit-trial","166","971993","0.0-46.0","battery-v0.2","","""event"",""trial"",""time""
""fullscreenenter"",""1"",""1547""
","
","
","""event"",""trial"",""time""
""fullscreenenter"",""1"",""1547""
","
","","","-1","","","19","10965","3835","h","elianto","#f73b6a7A"," ","-1","0","-10","[]","0","2","","","10965","42","3","3","lose","go","0"
"pit-trial","167","975489","0.0-47.0","battery-v0.2","","""event"",""trial"",""time""
""fullscreenenter"",""1"",""1547""
","
","
","""event"",""trial"",""time""
""fullscreenenter"",""1"",""1547""
","
","","","641.8999999910593","","","19","10965","3835","r","elianto","#3366ff99"," "," ","1","0","[1492.7000000029802]","1","2","","","10965","43","1","1","win","go","1"
"pit-trial","168","979199","0.0-48.0","battery-v0.2","","""event"",""trial"",""time""
""fullscreenenter"",""1"",""1547""
","
","
","""event"",""trial"",""time""
""fullscreenenter"",""1"",""1547""
","
","","","855.0999999940395","","","19","10965","3835","y","elianto","#f73b6a7A","-1"," ","0","-10","[1706.9000000059605]","1","2","","","10965","44","2","4","lose","no-go","0"
"pit-trial","169","984053","0.0-49.0","battery-v0.2","","""event"",""trial"",""time""
""fullscreenenter"",""1"",""1547""
","
","
","""event"",""trial"",""time""
""fullscreenenter"",""1"",""1547""
","
","","","-1","","","19","10965","3835","h","elianto","#f73b6a7A"," ","-1","0","-10","[]","0","2","","","10965","45","3","3","lose","go","0"
"pit-trial","170","988908","0.0-50.0","battery-v0.2","","""event"",""trial"",""time""
""fullscreenenter"",""1"",""1547""
","
","
","""event"",""trial"",""time""
""fullscreenenter"",""1"",""1547""
","
","","","-1","","","19","10965","3835","m","elianto","#f73b6a7A","-1","-1","1","0","[]","0","2","","","10965","46","0","4","lose","no-go","0"
"pit-trial","171","992649","0.0-51.0","battery-v0.2","","""event"",""trial"",""time""
""fullscreenenter"",""1"",""1547""
","
","
","""event"",""trial"",""time""
""fullscreenenter"",""1"",""1547""
","
","","","886","","","19","10965","3835","y","elianto","#f73b6a7A","-1"," ","0","0","[1736.3999999910593]","1","2","","","10965","47","2","4","lose","no-go","1"
"pit-trial","172","996139","0.0-52.0","battery-v0.2","","""event"",""trial"",""time""
""fullscreenenter"",""1"",""1547""
","
","
","""event"",""trial"",""time""
""fullscreenenter"",""1"",""1547""
","
","","","635","","","19","10965","3835","z","elianto","#3366ff99","-1"," ","0","0","[1486.0999999940395]","1","2","","","10965","48","4","2","win","no-go","0"
"pit-trial","173","1000993","0.0-53.0","battery-v0.2","","""event"",""trial"",""time""
""fullscreenenter"",""1"",""1547""
","
","
","""event"",""trial"",""time""
""fullscreenenter"",""1"",""1547""
","
","","","-1","","","19","10965","3835","m","elianto","#f73b6a7A","-1","-1","1","0","[]","0","2","","","10965","49","0","4","lose","no-go","0"
"pit-trial","174","1004579","0.0-54.0","battery-v0.2","","""event"",""trial"",""time""
""fullscreenenter"",""1"",""1547""
","
","
","""event"",""trial"",""time""
""fullscreenenter"",""1"",""1547""
","
","","","732.2999999970198","","","19","10965","3835","z","elianto","#3366ff99","-1"," ","0","0","[1582.7000000029802]","1","2","","","10965","50","4","2","win","no-go","0"
"pit-trial","175","1008003","0.0-55.0","battery-v0.2","","""event"",""trial"",""time""
""fullscreenenter"",""1"",""1547""
","
","
","""event"",""trial"",""time""
""fullscreenenter"",""1"",""1547""
","
","","","565.5","","","19","10965","3835","r","elianto","#3366ff99"," "," ","1","+10","[1416.2000000029802]","1","2","","","10965","51","1","1","win","go","0"
"pit-trial","176","1011609","0.0-56.0","battery-v0.2","","""event"",""trial"",""time""
""fullscreenenter"",""1"",""1547""
","
","
","""event"",""trial"",""time""
""fullscreenenter"",""1"",""1547""
","
","","","751.6999999880791","","","19","10965","3835","h","elianto","#f73b6a7A"," "," ","1","0","[1602.2999999970198]","1","2","","","10965","52","3","3","lose","go","0"
"pit-trial","177","1015181","0.0-57.0","battery-v0.2","","""event"",""trial"",""time""
""fullscreenenter"",""1"",""1547""
","
","
","""event"",""trial"",""time""
""fullscreenenter"",""1"",""1547""
","
","","","715","","","19","10965","3835","r","elianto","#3366ff99"," "," ","1","+10","[1566.9000000059605]","1","2","","","10965","53","1","1","win","go","0"
"pit-trial","178","1018719","0.0-58.0","battery-v0.2","","""event"",""trial"",""time""
""fullscreenenter"",""1"",""1547""
","
","
","""event"",""trial"",""time""
""fullscreenenter"",""1"",""1547""
","
","","","683.5","","","19","10965","3835","z","elianto","#3366ff99","-1"," ","0","0","[1533.7999999970198]","1","2","","","10965","54","4","2","win","no-go","0"
"pit-trial","179","1022710","0.0-59.0","battery-v0.2","","""event"",""trial"",""time""
""fullscreenenter"",""1"",""1547""
","
","
","""event"",""trial"",""time""
""fullscreenenter"",""1"",""1547""
","
","","","1136.4000000059605","","","19","10965","3835","y","elianto","#f73b6a7A","-1"," ","0","-10","[1986.5999999940395]","1","2","","","10965","55","2","4","lose","no-go","0"
"pit-trial","180","1025879","0.0-60.0","battery-v0.2","","""event"",""trial"",""time""
""fullscreenenter"",""1"",""1547""
","
","
","""event"",""trial"",""time""
""fullscreenenter"",""1"",""1547""
","
","","","315.29999999701977","","","19","10965","3835","m","elianto","#f73b6a7A","-1"," ","0","-10","[1166]","1","2","","","10965","56","0","4","lose","no-go","0"
"pit-trial","181","1029389","0.0-61.0","battery-v0.2","","""event"",""trial"",""time""
""fullscreenenter"",""1"",""1547""
","
","
","""event"",""trial"",""time""
""fullscreenenter"",""1"",""1547""
","
","","","656.3999999910593","","","19","10965","3835","z","elianto","#3366ff99","-1"," ","0","0","[1506.3999999910593]","1","2","","","10965","57","4","2","win","no-go","0"
"pit-trial","182","1034244","0.0-62.0","battery-v0.2","","""event"",""trial"",""time""
""fullscreenenter"",""1"",""1547""
","
","
","""event"",""trial"",""time""
""fullscreenenter"",""1"",""1547""
","
","","","-1","","","19","10965","3835","h","elianto","#f73b6a7A"," ","-1","0","-10","[]","0","2","","","10965","58","3","3","lose","go","0"
"pit-trial","183","1037773","0.0-63.0","battery-v0.2","","""event"",""trial"",""time""
""fullscreenenter"",""1"",""1547""
","
","
","""event"",""trial"",""time""
""fullscreenenter"",""1"",""1547""
","
","","","675.1000000089407","","","19","10965","3835","r","elianto","#3366ff99"," "," ","1","0","[1525.699999988079]","1","2","","","10965","59","1","1","win","go","1"
"pit-trial","184","1042628","0.0-64.0","battery-v0.2","","""event"",""trial"",""time""
""fullscreenenter"",""1"",""1547""
","
","
","""event"",""trial"",""time""
""fullscreenenter"",""1"",""1547""
","
","","","-1","","","19","10965","3835","m","elianto","#f73b6a7A","-1","-1","1","0","[]","0","2","","","10965","60","0","4","lose","no-go","0"
"pit-trial","185","1046170","0.0-65.0","battery-v0.2","","""event"",""trial"",""time""
""fullscreenenter"",""1"",""1547""
","
","
","""event"",""trial"",""time""
""fullscreenenter"",""1"",""1547""
","
","","","687.4000000059605","","","19","10965","3835","r","elianto","#3366ff99"," "," ","1","+10","[1538.4000000059605]","1","2","","","10965","61","1","1","win","go","0"
"pit-trial","186","1051024","0.0-66.0","battery-v0.2","","""event"",""trial"",""time""
""fullscreenenter"",""1"",""1547""
","
","
","""event"",""trial"",""time""
""fullscreenenter"",""1"",""1547""
","
","","","-1","","","19","10965","3835","h","elianto","#f73b6a7A"," ","-1","0","-10","[]","0","2","","","10965","62","3","3","lose","go","0"
"pit-trial","187","1054931","0.0-67.0","battery-v0.2","","""event"",""trial"",""time""
""fullscreenenter"",""1"",""1547""
","
","
","""event"",""trial"",""time""
""fullscreenenter"",""1"",""1547""
","
","","","1053.5","","","19","10965","3835","y","elianto","#f73b6a7A","-1"," ","0","-10","[1904]","1","2","","","10965","63","2","4","lose","no-go","0"
"pit-trial","188","1058591","0.0-68.0","battery-v0.2","","""event"",""trial"",""time""
""fullscreenenter"",""1"",""1547""
","
","
","""event"",""trial"",""time""
""fullscreenenter"",""1"",""1547""
","
","","","806.5","","","19","10965","3835","z","elianto","#3366ff99","-1"," ","0","0","[1656.6000000089407]","1","2","","","10965","64","4","2","win","no-go","0"
"pit-trial","189","1062140","0.0-69.0","battery-v0.2","","""event"",""trial"",""time""
""fullscreenenter"",""1"",""1547""
","
","
","""event"",""trial"",""time""
""fullscreenenter"",""1"",""1547""
","
","","","692.4000000059605","","","19","10965","3835","r","elianto","#3366ff99"," "," ","1","+10","[1545.300000011921]","1","2","","","10965","65","1","1","win","go","0"
"pit-trial","190","1066332","0.0-70.0","battery-v0.2","","""event"",""trial"",""time""
""fullscreenenter"",""1"",""1547""
","
","
","""event"",""trial"",""time""
""fullscreenenter"",""1"",""1547""
","
","","","1337.5999999940395","","","19","10965","3835","y","elianto","#f73b6a7A","-1"," ","0","-10","[2187.800000011921]","1","2","","","10965","66","2","4","lose","no-go","0"
"pit-trial","191","1069801","0.0-71.0","battery-v0.2","","""event"",""trial"",""time""
""fullscreenenter"",""1"",""1547""
","
","
","""event"",""trial"",""time""
""fullscreenenter"",""1"",""1547""
","
","","","614.6000000089407","","","19","10965","3835","z","elianto","#3366ff99","-1"," ","0","0","[1464.800000011921]","1","2","","","10965","67","4","2","win","no-go","0"
"pit-trial","192","1074655","0.0-72.0","battery-v0.2","","""event"",""trial"",""time""
""fullscreenenter"",""1"",""1547""
","
","
","""event"",""trial"",""time""
""fullscreenenter"",""1"",""1547""
","
","","","-1","","","19","10965","3835","h","elianto","#f73b6a7A"," ","-1","0","-10","[]","0","2","","","10965","68","3","3","lose","go","0"
"pit-trial","193","1078141","0.0-73.0","battery-v0.2","","""event"",""trial"",""time""
""fullscreenenter"",""1"",""1547""
","
","
","""event"",""trial"",""time""
""fullscreenenter"",""1"",""1547""
","
","","","630.0999999940395","","","19","10965","3835","r","elianto","#3366ff99"," "," ","1","0","[1481.5999999940395]","1","2","","","10965","69","1","1","win","go","1"
"pit-trial","194","1081860","0.0-74.0","battery-v0.2","","""event"",""trial"",""time""
""fullscreenenter"",""1"",""1547""
","
","
","""event"",""trial"",""time""
""fullscreenenter"",""1"",""1547""
","
","","","864.0999999940395","","","19","10965","3835","z","elianto","#3366ff99","-1"," ","0","+10","[1715.2999999970198]","1","2","","","10965","70","4","2","win","no-go","1"
"pit-trial","195","1085771","0.0-75.0","battery-v0.2","","""event"",""trial"",""time""
""fullscreenenter"",""1"",""1547""
","
","
","""event"",""trial"",""time""
""fullscreenenter"",""1"",""1547""
","
","","","1056.7000000029802","","","19","10965","3835","c","elianto","#3366ff99"," "," ","1","+10","[1906.7999999970198]","1","2","","","10965","71","5","1","win","go","0"
"pit-trial","196","1090626","0.0-76.0","battery-v0.2","","""event"",""trial"",""time""
""fullscreenenter"",""1"",""1547""
","
","
","""event"",""trial"",""time""
""fullscreenenter"",""1"",""1547""
","
","","","-1","","","19","10965","3835","h","elianto","#f73b6a7A"," ","-1","0","0","[]","0","2","","","10965","72","3","3","lose","go","1"
"pit-trial","197","1095482","0.0-77.0","battery-v0.2","","""event"",""trial"",""time""
""fullscreenenter"",""1"",""1547""
""blur"",""198"",""1095564""
""focus"",""198"",""1099192""
","""event"",""trial"",""time""
""blur"",""198"",""1095564""
","""event"",""trial"",""time""
""focus"",""198"",""1099192""
","""event"",""trial"",""time""
""fullscreenenter"",""1"",""1547""
","
","","","-1","","","19","10965","3835","h","elianto","#f73b6a7A"," ","-1","0","0","[]","0","2","","","10965","73","3","3","lose","go","1"
"pit-trial","198","1100351","0.0-78.0","battery-v0.2","","""event"",""trial"",""time""
""fullscreenenter"",""1"",""1547""
""blur"",""198"",""1095564""
""focus"",""198"",""1099192""
","""event"",""trial"",""time""
""blur"",""198"",""1095564""
","""event"",""trial"",""time""
""focus"",""198"",""1099192""
","""event"",""trial"",""time""
""fullscreenenter"",""1"",""1547""
","
","","","-1","","","19","10965","3835","r","elianto","#3366ff99"," ","-1","0","+10","[]","0","2","","","10965","74","1","1","win","go","1"
"pit-trial","199","1103840","0.0-79.0","battery-v0.2","","""event"",""trial"",""time""
""fullscreenenter"",""1"",""1547""
""blur"",""198"",""1095564""
""focus"",""198"",""1099192""
","""event"",""trial"",""time""
""blur"",""198"",""1095564""
","""event"",""trial"",""time""
""focus"",""198"",""1099192""
","""event"",""trial"",""time""
""fullscreenenter"",""1"",""1547""
","
","","","636","","","19","10965","3835","z","elianto","#3366ff99","-1"," ","0","+10","[256.90000000596046,1486.2000000029802]","2","2","","","10965","75","4","2","win","no-go","1"
"pit-trial","200","1107190","0.0-80.0","battery-v0.2","","""event"",""trial"",""time""
""fullscreenenter"",""1"",""1547""
""blur"",""198"",""1095564""
""focus"",""198"",""1099192""
","""event"",""trial"",""time""
""blur"",""198"",""1095564""
","""event"",""trial"",""time""
""focus"",""198"",""1099192""
","""event"",""trial"",""time""
""fullscreenenter"",""1"",""1547""
","
","","","496.30000001192093","","","19","10965","3835","c","elianto","#3366ff99"," "," ","1","0","[1346.7000000029802]","1","2","","","10965","76","5","1","win","go","1"
"pit-trial","201","1110679","0.0-81.0","battery-v0.2","","""event"",""trial"",""time""
""fullscreenenter"",""1"",""1547""
""blur"",""198"",""1095564""
""focus"",""198"",""1099192""
","""event"",""trial"",""time""
""blur"",""198"",""1095564""
","""event"",""trial"",""time""
""focus"",""198"",""1099192""
","""event"",""trial"",""time""
""fullscreenenter"",""1"",""1547""
","
","","","630.9000000059605","","","19","10965","3835","z","elianto","#3366ff99","-1"," ","0","0","[1484.7999999970198]","1","2","","","10965","77","4","2","win","no-go","0"
"pit-trial","202","1115535","0.0-82.0","battery-v0.2","","""event"",""trial"",""time""
""fullscreenenter"",""1"",""1547""
""blur"",""198"",""1095564""
""focus"",""198"",""1099192""
","""event"",""trial"",""time""
""blur"",""198"",""1095564""
","""event"",""trial"",""time""
""focus"",""198"",""1099192""
","""event"",""trial"",""time""
""fullscreenenter"",""1"",""1547""
","
","","","-1","","","19","10965","3835","h","elianto","#f73b6a7A"," ","-1","0","-10","[]","0","2","","","10965","78","3","3","lose","go","0"
"pit-trial","203","1119262","0.0-83.0","battery-v0.2","","""event"",""trial"",""time""
""fullscreenenter"",""1"",""1547""
""blur"",""198"",""1095564""
""focus"",""198"",""1099192""
","""event"",""trial"",""time""
""blur"",""198"",""1095564""
","""event"",""trial"",""time""
""focus"",""198"",""1099192""
","""event"",""trial"",""time""
""fullscreenenter"",""1"",""1547""
","
","","","870.9000000059605","","","19","10965","3835","c","elianto","#3366ff99"," "," ","1","0","[1722.6000000089407]","1","2","","","10965","79","5","1","win","go","1"
"pit-trial","204","1124117","0.0-84.0","battery-v0.2","","""event"",""trial"",""time""
""fullscreenenter"",""1"",""1547""
""blur"",""198"",""1095564""
""focus"",""198"",""1099192""
","""event"",""trial"",""time""
""blur"",""198"",""1095564""
","""event"",""trial"",""time""
""focus"",""198"",""1099192""
","""event"",""trial"",""time""
""fullscreenenter"",""1"",""1547""
","
","","","-1","","","19","10965","3835","b","elianto","#f73b6a7A","-1","-1","1","0","[]","0","2","","","10965","80","6","4","lose","no-go","0"
"pit-trial","205","1127901","0.0-85.0","battery-v0.2","","""event"",""trial"",""time""
""fullscreenenter"",""1"",""1547""
""blur"",""198"",""1095564""
""focus"",""198"",""1099192""
","""event"",""trial"",""time""
""blur"",""198"",""1095564""
","""event"",""trial"",""time""
""focus"",""198"",""1099192""
","""event"",""trial"",""time""
""fullscreenenter"",""1"",""1547""
","
","","","928.9000000059605","","","19","10965","3835","z","elianto","#3366ff99","-1"," ","0","0","[1779]","1","2","","","10965","81","4","2","win","no-go","0"
"pit-trial","206","1131871","0.0-86.0","battery-v0.2","","""event"",""trial"",""time""
""fullscreenenter"",""1"",""1547""
""blur"",""198"",""1095564""
""focus"",""198"",""1099192""
","""event"",""trial"",""time""
""blur"",""198"",""1095564""
","""event"",""trial"",""time""
""focus"",""198"",""1099192""
","""event"",""trial"",""time""
""fullscreenenter"",""1"",""1547""
","
","","","1115.6000000089407","","","19","10965","3835","t","elianto","#f73b6a7A"," "," ","1","0","[1966.699999988079]","1","2","","","10965","82","7","3","lose","go","0"
"pit-trial","207","1135380","0.0-87.0","battery-v0.2","","""event"",""trial"",""time""
""fullscreenenter"",""1"",""1547""
""blur"",""198"",""1095564""
""focus"",""198"",""1099192""
","""event"",""trial"",""time""
""blur"",""198"",""1095564""
","""event"",""trial"",""time""
""focus"",""198"",""1099192""
","""event"",""trial"",""time""
""fullscreenenter"",""1"",""1547""
","
","","","654.7000000029802","","","19","10965","3835","b","elianto","#f73b6a7A","-1"," ","0","-10","[1504.7999999970198]","1","2","","","10965","83","6","4","lose","no-go","0"
"pit-trial","208","1139159","0.0-88.0","battery-v0.2","","""event"",""trial"",""time""
""fullscreenenter"",""1"",""1547""
""blur"",""198"",""1095564""
""focus"",""198"",""1099192""
","""event"",""trial"",""time""
""blur"",""198"",""1095564""
","""event"",""trial"",""time""
""focus"",""198"",""1099192""
","""event"",""trial"",""time""
""fullscreenenter"",""1"",""1547""
","
","","","926.5","","","19","10965","3835","c","elianto","#3366ff99"," "," ","1","0","[1776.6000000089407]","1","2","","","10965","84","5","1","win","go","1"
"pit-trial","209","1143200","0.0-89.0","battery-v0.2","","""event"",""trial"",""time""
""fullscreenenter"",""1"",""1547""
""blur"",""198"",""1095564""
""focus"",""198"",""1099192""
","""event"",""trial"",""time""
""blur"",""198"",""1095564""
","""event"",""trial"",""time""
""focus"",""198"",""1099192""
","""event"",""trial"",""time""
""fullscreenenter"",""1"",""1547""
","
","","","1185.4000000059605","","","19","10965","3835","b","elianto","#f73b6a7A","-1"," ","0","0","[2037.5]","1","2","","","10965","85","6","4","lose","no-go","1"
"pit-trial","210","1148054","0.0-90.0","battery-v0.2","","""event"",""trial"",""time""
""fullscreenenter"",""1"",""1547""
""blur"",""198"",""1095564""
""focus"",""198"",""1099192""
","""event"",""trial"",""time""
""blur"",""198"",""1095564""
","""event"",""trial"",""time""
""focus"",""198"",""1099192""
","""event"",""trial"",""time""
""fullscreenenter"",""1"",""1547""
","
","","","-1","","","19","10965","3835","t","elianto","#f73b6a7A"," ","-1","0","-10","[]","0","2","","","10965","86","7","3","lose","go","0"
"pit-trial","211","1151680","0.0-91.0","battery-v0.2","","""event"",""trial"",""time""
""fullscreenenter"",""1"",""1547""
""blur"",""198"",""1095564""
""focus"",""198"",""1099192""
","""event"",""trial"",""time""
""blur"",""198"",""1095564""
","""event"",""trial"",""time""
""focus"",""198"",""1099192""
","""event"",""trial"",""time""
""fullscreenenter"",""1"",""1547""
","
","","","771.2999999970198","","","19","10965","3835","z","elianto","#3366ff99","-1"," ","0","0","[1622.0999999940395]","1","2","","","10965","87","4","2","win","no-go","0"
"pit-trial","212","1155341","0.0-92.0","battery-v0.2","","""event"",""trial"",""time""
""fullscreenenter"",""1"",""1547""
""blur"",""198"",""1095564""
""focus"",""198"",""1099192""
","""event"",""trial"",""time""
""blur"",""198"",""1095564""
","""event"",""trial"",""time""
""focus"",""198"",""1099192""
","""event"",""trial"",""time""
""fullscreenenter"",""1"",""1547""
","
","","","807","","","19","10965","3835","c","elianto","#3366ff99"," "," ","1","+10","[1657.5]","1","2","","","10965","88","5","1","win","go","0"
"pit-trial","213","1159200","0.0-93.0","battery-v0.2","","""event"",""trial"",""time""
""fullscreenenter"",""1"",""1547""
""blur"",""198"",""1095564""
""focus"",""198"",""1099192""
","""event"",""trial"",""time""
""blur"",""198"",""1095564""
","""event"",""trial"",""time""
""focus"",""198"",""1099192""
","""event"",""trial"",""time""
""fullscreenenter"",""1"",""1547""
","
","","","1003.2000000029802","","","19","10965","3835","c","elianto","#3366ff99"," "," ","1","+10","[1855.0999999940395]","1","2","","","10965","89","5","1","win","go","0"
"pit-trial","214","1163821","0.0-94.0","battery-v0.2","","""event"",""trial"",""time""
""fullscreenenter"",""1"",""1547""
""blur"",""198"",""1095564""
""focus"",""198"",""1099192""
","""event"",""trial"",""time""
""blur"",""198"",""1095564""
","""event"",""trial"",""time""
""focus"",""198"",""1099192""
","""event"",""trial"",""time""
""fullscreenenter"",""1"",""1547""
","
","","","1766.9000000059605","","","19","10965","3835","t","elianto","#f73b6a7A"," "," ","1","0","[2617.5]","1","2","","","10965","90","7","3","lose","go","0"
"pit-trial","215","1167761","0.0-95.0","battery-v0.2","","""event"",""trial"",""time""
""fullscreenenter"",""1"",""1547""
""blur"",""198"",""1095564""
""focus"",""198"",""1099192""
","""event"",""trial"",""time""
""blur"",""198"",""1095564""
","""event"",""trial"",""time""
""focus"",""198"",""1099192""
","""event"",""trial"",""time""
""fullscreenenter"",""1"",""1547""
","
","","","1087.199999988079","","","19","10965","3835","z","elianto","#3366ff99","-1"," ","0","+10","[1937.2999999970198]","1","2","","","10965","91","4","2","win","no-go","1"
"pit-trial","216","1172615","0.0-96.0","battery-v0.2","","""event"",""trial"",""time""
""fullscreenenter"",""1"",""1547""
""blur"",""198"",""1095564""
""focus"",""198"",""1099192""
","""event"",""trial"",""time""
""blur"",""198"",""1095564""
","""event"",""trial"",""time""
""focus"",""198"",""1099192""
","""event"",""trial"",""time""
""fullscreenenter"",""1"",""1547""
","
","","","-1","","","19","10965","3835","b","elianto","#f73b6a7A","-1","-1","1","0","[]","0","2","","","10965","92","6","4","lose","no-go","0"
"pit-trial","217","1177470","0.0-97.0","battery-v0.2","","""event"",""trial"",""time""
""fullscreenenter"",""1"",""1547""
""blur"",""198"",""1095564""
""focus"",""198"",""1099192""
","""event"",""trial"",""time""
""blur"",""198"",""1095564""
","""event"",""trial"",""time""
""focus"",""198"",""1099192""
","""event"",""trial"",""time""
""fullscreenenter"",""1"",""1547""
","
","","","-1","","","19","10965","3835","t","elianto","#f73b6a7A"," ","-1","0","-10","[]","0","2","","","10965","93","7","3","lose","go","0"
"pit-trial","218","1181323","0.0-98.0","battery-v0.2","","""event"",""trial"",""time""
""fullscreenenter"",""1"",""1547""
""blur"",""198"",""1095564""
""focus"",""198"",""1099192""
","""event"",""trial"",""time""
""blur"",""198"",""1095564""
","""event"",""trial"",""time""
""focus"",""198"",""1099192""
","""event"",""trial"",""time""
""fullscreenenter"",""1"",""1547""
","
","","","998.5","","","19","10965","3835","b","elianto","#f73b6a7A","-1"," ","0","-10","[1849.4000000059605]","1","2","","","10965","94","6","4","lose","no-go","0"
"pit-trial","219","1185273","0.0-99.0","battery-v0.2","","""event"",""trial"",""time""
""fullscreenenter"",""1"",""1547""
""blur"",""198"",""1095564""
""focus"",""198"",""1099192""
","""event"",""trial"",""time""
""blur"",""198"",""1095564""
","""event"",""trial"",""time""
""focus"",""198"",""1099192""
","""event"",""trial"",""time""
""fullscreenenter"",""1"",""1547""
","
","","","1093.2000000029802","","","19","10965","3835","c","elianto","#3366ff99"," "," ","1","+10","[1943.7000000029802]","1","2","","","10965","95","5","1","win","go","0"
"pit-trial","220","1189221","0.0-100.0","battery-v0.2","","""event"",""trial"",""time""
""fullscreenenter"",""1"",""1547""
""blur"",""198"",""1095564""
""focus"",""198"",""1099192""
","""event"",""trial"",""time""
""blur"",""198"",""1095564""
","""event"",""trial"",""time""
""focus"",""198"",""1099192""
","""event"",""trial"",""time""
""fullscreenenter"",""1"",""1547""
","
","","","1094.2999999970198","","","19","10965","3835","f","elianto","#3366ff99","-1"," ","0","0","[1944.8999999910593]","1","2","","","10965","96","8","2","win","no-go","0"
"pit-trial","221","1193541","0.0-101.0","battery-v0.2","","""event"",""trial"",""time""
""fullscreenenter"",""1"",""1547""
""blur"",""198"",""1095564""
""focus"",""198"",""1099192""
","""event"",""trial"",""time""
""blur"",""198"",""1095564""
","""event"",""trial"",""time""
""focus"",""198"",""1099192""
","""event"",""trial"",""time""
""fullscreenenter"",""1"",""1547""
","
","","","1467.5999999940395","","","19","10965","3835","b","elianto","#f73b6a7A","-1"," ","0","-10","[2317.7000000029802]","1","2","","","10965","97","6","4","lose","no-go","0"
"pit-trial","222","1198397","0.0-102.0","battery-v0.2","","""event"",""trial"",""time""
""fullscreenenter"",""1"",""1547""
""blur"",""198"",""1095564""
""focus"",""198"",""1099192""
","""event"",""trial"",""time""
""blur"",""198"",""1095564""
","""event"",""trial"",""time""
""focus"",""198"",""1099192""
","""event"",""trial"",""time""
""fullscreenenter"",""1"",""1547""
","
","","","-1","","","19","10965","3835","t","elianto","#f73b6a7A"," ","-1","0","-10","[]","0","2","","","10965","98","7","3","lose","go","0"
"pit-trial","223","1201961","0.0-103.0","battery-v0.2","","""event"",""trial"",""time""
""fullscreenenter"",""1"",""1547""
""blur"",""198"",""1095564""
""focus"",""198"",""1099192""
","""event"",""trial"",""time""
""blur"",""198"",""1095564""
","""event"",""trial"",""time""
""focus"",""198"",""1099192""
","""event"",""trial"",""time""
""fullscreenenter"",""1"",""1547""
","
","","","709.0999999940395","","","19","10965","3835","c","elianto","#3366ff99"," "," ","1","+10","[1560]","1","2","","","10965","99","5","1","win","go","0"
"pit-trial","224","1205852","0.0-104.0","battery-v0.2","","""event"",""trial"",""time""
""fullscreenenter"",""1"",""1547""
""blur"",""198"",""1095564""
""focus"",""198"",""1099192""
","""event"",""trial"",""time""
""blur"",""198"",""1095564""
","""event"",""trial"",""time""
""focus"",""198"",""1099192""
","""event"",""trial"",""time""
""fullscreenenter"",""1"",""1547""
","
","","","1036.0999999940395","","","19","10965","3835","f","elianto","#3366ff99","-1"," ","0","0","[1887.5]","1","2","","","10965","100","8","2","win","no-go","0"
"pit-trial","225","1209552","0.0-105.0","battery-v0.2","","""event"",""trial"",""time""
""fullscreenenter"",""1"",""1547""
""blur"",""198"",""1095564""
""focus"",""198"",""1099192""
","""event"",""trial"",""time""
""blur"",""198"",""1095564""
","""event"",""trial"",""time""
""focus"",""198"",""1099192""
","""event"",""trial"",""time""
""fullscreenenter"",""1"",""1547""
","
","","","846.2000000029802","","","19","10965","3835","c","elianto","#3366ff99"," "," ","1","+10","[1696.7000000029802]","1","2","","","10965","101","5","1","win","go","0"
"pit-trial","226","1213811","0.0-106.0","battery-v0.2","","""event"",""trial"",""time""
""fullscreenenter"",""1"",""1547""
""blur"",""198"",""1095564""
""focus"",""198"",""1099192""
","""event"",""trial"",""time""
""blur"",""198"",""1095564""
","""event"",""trial"",""time""
""focus"",""198"",""1099192""
","""event"",""trial"",""time""
""fullscreenenter"",""1"",""1547""
","
","","","1405.0999999940395","","","19","10965","3835","f","elianto","#3366ff99","-1"," ","0","0","[2256]","1","2","","","10965","102","8","2","win","no-go","0"
"pit-trial","227","1217871","0.0-107.0","battery-v0.2","","""event"",""trial"",""time""
""fullscreenenter"",""1"",""1547""
""blur"",""198"",""1095564""
""focus"",""198"",""1099192""
","""event"",""trial"",""time""
""blur"",""198"",""1095564""
","""event"",""trial"",""time""
""focus"",""198"",""1099192""
","""event"",""trial"",""time""
""fullscreenenter"",""1"",""1547""
","
","","","1206.2999999970198","","","19","10965","3835","b","elianto","#f73b6a7A","-1"," ","0","-10","[2057]","1","2","","","10965","103","6","4","lose","no-go","0"
"pit-trial","228","1221691","0.0-108.0","battery-v0.2","","""event"",""trial"",""time""
""fullscreenenter"",""1"",""1547""
""blur"",""198"",""1095564""
""focus"",""198"",""1099192""
","""event"",""trial"",""time""
""blur"",""198"",""1095564""
","""event"",""trial"",""time""
""focus"",""198"",""1099192""
","""event"",""trial"",""time""
""fullscreenenter"",""1"",""1547""
","
","","","966.4000000059605","","","19","10965","3835","n","elianto","#3366ff99","-1"," ","0","0","[1816.5]","1","2","","","10965","104","9","2","win","no-go","0"
"pit-trial","229","1225423","0.0-109.0","battery-v0.2","","""event"",""trial"",""time""
""fullscreenenter"",""1"",""1547""
""blur"",""198"",""1095564""
""focus"",""198"",""1099192""
","""event"",""trial"",""time""
""blur"",""198"",""1095564""
","""event"",""trial"",""time""
""focus"",""198"",""1099192""
","""event"",""trial"",""time""
""fullscreenenter"",""1"",""1547""
","
","","","875.1999999880791","","","19","10965","3835","f","elianto","#3366ff99","-1"," ","0","+10","[1727.2999999970198]","1","2","","","10965","105","8","2","win","no-go","1"
"pit-trial","230","1230253","0.0-110.0","battery-v0.2","","""event"",""trial"",""time""
""fullscreenenter"",""1"",""1547""
""blur"",""198"",""1095564""
""focus"",""198"",""1099192""
","""event"",""trial"",""time""
""blur"",""198"",""1095564""
","""event"",""trial"",""time""
""focus"",""198"",""1099192""
","""event"",""trial"",""time""
""fullscreenenter"",""1"",""1547""
","
","","","1975","","","19","10965","3835","n","elianto","#3366ff99","-1"," ","0","+10","[2825]","1","2","","","10965","106","9","2","win","no-go","1"
"pit-trial","231","1233863","0.0-111.0","battery-v0.2","","""event"",""trial"",""time""
""fullscreenenter"",""1"",""1547""
""blur"",""198"",""1095564""
""focus"",""198"",""1099192""
","""event"",""trial"",""time""
""blur"",""198"",""1095564""
","""event"",""trial"",""time""
""focus"",""198"",""1099192""
","""event"",""trial"",""time""
""fullscreenenter"",""1"",""1547""
","
","","","753.5999999940395","","","19","10965","3835","c","elianto","#3366ff99"," "," ","1","+10","[1603.5]","1","2","","","10965","107","5","1","win","go","0"
"pit-trial","232","1238717","0.0-112.0","battery-v0.2","","""event"",""trial"",""time""
""fullscreenenter"",""1"",""1547""
""blur"",""198"",""1095564""
""focus"",""198"",""1099192""
","""event"",""trial"",""time""
""blur"",""198"",""1095564""
","""event"",""trial"",""time""
""focus"",""198"",""1099192""
","""event"",""trial"",""time""
""fullscreenenter"",""1"",""1547""
","
","","","-1","","","19","10965","3835","b","elianto","#f73b6a7A","-1","-1","1","0","[]","0","2","","","10965","108","6","4","lose","no-go","0"
"pit-trial","233","1242283","0.0-113.0","battery-v0.2","","""event"",""trial"",""time""
""fullscreenenter"",""1"",""1547""
""blur"",""198"",""1095564""
""focus"",""198"",""1099192""
","""event"",""trial"",""time""
""blur"",""198"",""1095564""
","""event"",""trial"",""time""
""focus"",""198"",""1099192""
","""event"",""trial"",""time""
""fullscreenenter"",""1"",""1547""
","
","","","711.7000000029802","","","19","10965","3835","c","elianto","#3366ff99"," "," ","1","+10","[1561.9000000059605]","1","2","","","10965","109","5","1","win","go","0"
"pit-trial","234","1245981","0.0-114.0","battery-v0.2","","""event"",""trial"",""time""
""fullscreenenter"",""1"",""1547""
""blur"",""198"",""1095564""
""focus"",""198"",""1099192""
","""event"",""trial"",""time""
""blur"",""198"",""1095564""
","""event"",""trial"",""time""
""focus"",""198"",""1099192""
","""event"",""trial"",""time""
""fullscreenenter"",""1"",""1547""
","
","","","840.0999999940395","","","19","10965","3835","n","elianto","#3366ff99","-1"," ","0","0","[1694.0999999940395]","1","2","","","10965","110","9","2","win","no-go","0"
"pit-trial","235","1250181","0.0-115.0","battery-v0.2","","""event"",""trial"",""time""
""fullscreenenter"",""1"",""1547""
""blur"",""198"",""1095564""
""focus"",""198"",""1099192""
","""event"",""trial"",""time""
""blur"",""198"",""1095564""
","""event"",""trial"",""time""
""focus"",""198"",""1099192""
","""event"",""trial"",""time""
""fullscreenenter"",""1"",""1547""
","
","","","1345.5999999940395","","","19","10965","3835","b","elianto","#f73b6a7A","-1"," ","0","-10","[2196.6000000089407]","1","2","","","10965","111","6","4","lose","no-go","0"
"pit-trial","236","1253721","0.0-116.0","battery-v0.2","","""event"",""trial"",""time""
""fullscreenenter"",""1"",""1547""
""blur"",""198"",""1095564""
""focus"",""198"",""1099192""
","""event"",""trial"",""time""
""blur"",""198"",""1095564""
","""event"",""trial"",""time""
""focus"",""198"",""1099192""
","""event"",""trial"",""time""
""fullscreenenter"",""1"",""1547""
","
","","","684.2999999970198","","","19","10965","3835","f","elianto","#3366ff99","-1"," ","0","0","[1536]","1","2","","","10965","112","8","2","win","no-go","0"
"pit-trial","237","1257632","0.0-117.0","battery-v0.2","","""event"",""trial"",""time""
""fullscreenenter"",""1"",""1547""
""blur"",""198"",""1095564""
""focus"",""198"",""1099192""
","""event"",""trial"",""time""
""blur"",""198"",""1095564""
","""event"",""trial"",""time""
""focus"",""198"",""1099192""
","""event"",""trial"",""time""
""fullscreenenter"",""1"",""1547""
","
","","","1056.5999999940395","","","19","10965","3835","f","elianto","#3366ff99","-1"," ","0","+10","[1906.7999999970198]","1","2","","","10965","113","8","2","win","no-go","1"
"pit-trial","238","1262485","0.0-118.0","battery-v0.2","","""event"",""trial"",""time""
""fullscreenenter"",""1"",""1547""
""blur"",""198"",""1095564""
""focus"",""198"",""1099192""
","""event"",""trial"",""time""
""blur"",""198"",""1095564""
","""event"",""trial"",""time""
""focus"",""198"",""1099192""
","""event"",""trial"",""time""
""fullscreenenter"",""1"",""1547""
","
","","","-1","","","19","10965","3835","t","elianto","#f73b6a7A"," ","-1","0","0","[]","0","2","","","10965","114","7","3","lose","go","1"
"pit-trial","239","1266133","0.0-119.0","battery-v0.2","","""event"",""trial"",""time""
""fullscreenenter"",""1"",""1547""
""blur"",""198"",""1095564""
""focus"",""198"",""1099192""
","""event"",""trial"",""time""
""blur"",""198"",""1095564""
","""event"",""trial"",""time""
""focus"",""198"",""1099192""
","""event"",""trial"",""time""
""fullscreenenter"",""1"",""1547""
","
","","","792.7000000029802","","","19","10965","3835","c","elianto","#3366ff99"," "," ","1","+10","[1643.4000000059605]","1","2","","","10965","115","5","1","win","go","0"
"pit-trial","240","1270022","0.0-120.0","battery-v0.2","","""event"",""trial"",""time""
""fullscreenenter"",""1"",""1547""
""blur"",""198"",""1095564""
""focus"",""198"",""1099192""
","""event"",""trial"",""time""
""blur"",""198"",""1095564""
","""event"",""trial"",""time""
""focus"",""198"",""1099192""
","""event"",""trial"",""time""
