"trial_type","trial_index","time_elapsed","internal_node_id","task_version","subject_id","interactions","blur_events","focus_events","fullscreenenter_events","fullscreenexit_events","success","view_history","rt","responses","num_errors","age","subject","participantId","rune","rune_set","hex","correct","choice","accuracy","outcome","keys","total_keys","block","practice","value","sub","trial","stimulus","robot","valence","action","sham"
"pavlovia","0","19","0.0-0.0","battery-v0.2","","""event"",""trial"",""time""
""fullscreenenter"",""1"",""1942""
","
","
","""event"",""trial"",""time""
""fullscreenenter"",""1"",""1942""
","
","","","","","","","","","","","","","","","","","","","","","","","","","","",""
"fullscreen","1","2900","0.0-1.0","battery-v0.2","","""event"",""trial"",""time""
""fullscreenenter"",""1"",""1942""
","
","
","""event"",""trial"",""time""
""fullscreenenter"",""1"",""1942""
","
","true","","","","","","","","","","","","","","","","","","","","","","","","","",""
"pit-instructions","2","11565","0.0-2.0-0.0","battery-v0.2","","""event"",""trial"",""time""
""fullscreenenter"",""1"",""1942""
","
","
","""event"",""trial"",""time""
""fullscreenenter"",""1"",""1942""
","
","","[{""page_index"":0,""viewing_time"":8656.5}]","8657.699999988079","","","","","","","","","","","","","","","","","","","","","","","",""
"pit-comprehension","3","16540","0.0-2.0-1.0-0.0","battery-v0.2","","""event"",""trial"",""time""
""fullscreenenter"",""1"",""1942""
","
","
","""event"",""trial"",""time""
""fullscreenenter"",""1"",""1942""
","
","","","4967.0999999940395","[""shark""]","0","11","20929","6281","","","","","","","","","","","","","","","","","","",""
"pit-instructions","4","19126","0.0-2.0-1.0-1.0","battery-v0.2","","""event"",""trial"",""time""
""fullscreenenter"",""1"",""1942""
","
","
","""event"",""trial"",""time""
""fullscreenenter"",""1"",""1942""
","
","","[{""page_index"":0,""viewing_time"":2544.5999999940395}]","2545.2000000029802","","","","","","","","","","","","","","","","","","","","","","","",""
"pit-comprehension","5","24693","0.0-2.0-2.0-0.0","battery-v0.2","","""event"",""trial"",""time""
""fullscreenenter"",""1"",""1942""
","
","
","""event"",""trial"",""time""
""fullscreenenter"",""1"",""1942""
","
","","","5561.399999991059","[""tiger""]","0","11","20929","6281","","","","","","","","","","","","","","","","","","",""
"pit-instructions","6","25964","0.0-2.0-2.0-1.0","battery-v0.2","","""event"",""trial"",""time""
""fullscreenenter"",""1"",""1942""
","
","
","""event"",""trial"",""time""
""fullscreenenter"",""1"",""1942""
","
","","[{""page_index"":0,""viewing_time"":1265.1000000089407}]","1265.9000000059605","","","","","","","","","","","","","","","","","","","","","","","",""
"pit-instructions","7","118746","0.0-2.0-3.0","battery-v0.2","","""event"",""trial"",""time""
""fullscreenenter"",""1"",""1942""
","
","
","""event"",""trial"",""time""
""fullscreenenter"",""1"",""1942""
","
","","[{""page_index"":0,""viewing_time"":7885.29999999702},{""page_index"":1,""viewing_time"":7281.0999999940395},{""page_index"":2,""viewing_time"":6124.5},{""page_index"":3,""viewing_time"":5060.800000011921},{""page_index"":4,""viewing_time"":6939.29999999702},{""page_index"":5,""viewing_time"":5864.899999991059},{""page_index"":6,""viewing_time"":6669.800000011921},{""page_index"":7,""viewing_time"":6538.699999988079},{""page_index"":8,""viewing_time"":6884.4000000059605},{""page_index"":9,""viewing_time"":8218},{""page_index"":10,""viewing_time"":7403.9000000059605},{""page_index"":11,""viewing_time"":6171.899999991059},{""page_index"":12,""viewing_time"":6831},{""page_index"":13,""viewing_time"":4902.600000008941}]","92776.89999999106","","","","","","","","","","","","","","","","","","","","","","","",""
"pit-trial","8","122065","0.0-2.0-4.0-0.0","battery-v0.2","","""event"",""trial"",""time""
""fullscreenenter"",""1"",""1942""
","
","
","""event"",""trial"",""time""
""fullscreenenter"",""1"",""1942""
","
","","","452.5","","","11","20929","6281","&#9784;","elianto","#FFFFF080"," "," ","1","&#10004","[1309.7000000029802]","1","0","0","","","","","","","",""
"pit-trial","9","125048","0.0-2.0-4.1-0.1","battery-v0.2","","""event"",""trial"",""time""
""fullscreenenter"",""1"",""1942""
","
","
","""event"",""trial"",""time""
""fullscreenenter"",""1"",""1942""
","
","","","117.09999999403954","","","11","20929","6281","&#9784;","elianto","#FFFFF080"," "," ","1","&#10004","[970.3000000119209]","1","0","0","","","","","","","",""
"pit-trial","10","128397","0.0-2.0-4.2-0.2","battery-v0.2","","""event"",""trial"",""time""
""fullscreenenter"",""1"",""1942""
","
","
","""event"",""trial"",""time""
""fullscreenenter"",""1"",""1942""
","
","","","474.20000000298023","","","11","20929","6281","&#9784;","elianto","#FFFFF080"," "," ","1","&#10004","[1330.4000000059605]","1","0","0","","","","","","","",""
"pit-trial","11","131510","0.0-2.0-4.3-0.3","battery-v0.2","","""event"",""trial"",""time""
""fullscreenenter"",""1"",""1942""
","
","
","""event"",""trial"",""time""
""fullscreenenter"",""1"",""1942""
","
","","","250.20000000298023","","","11","20929","6281","&#9784;","elianto","#FFFFF080"," "," ","1","&#10004","[1103.2000000029802]","1","0","0","","","","","","","",""
"pit-trial","12","134822","0.0-2.0-4.4-0.4","battery-v0.2","","""event"",""trial"",""time""
""fullscreenenter"",""1"",""1942""
","
","
","""event"",""trial"",""time""
""fullscreenenter"",""1"",""1942""
","
","","","433.79999999701977","","","11","20929","6281","&#9784;","elianto","#FFFFF080"," "," ","1","&#10004","[1293.4000000059605]","1","0","0","","","","","","","",""
"pit-instructions","13","155876","0.0-2.0-5.0","battery-v0.2","","""event"",""trial"",""time""
""fullscreenenter"",""1"",""1942""
","
","
","""event"",""trial"",""time""
""fullscreenenter"",""1"",""1942""
","
","","[{""page_index"":0,""viewing_time"":5389.5},{""page_index"":1,""viewing_time"":5868.20000000298},{""page_index"":2,""viewing_time"":4678.70000000298},{""page_index"":3,""viewing_time"":5111.699999988079}]","21048.59999999404","","","","","","","","","","","","","","","","","","","","","","","",""
"pit-trial","14","160738","0.0-2.0-6.0-0.0","battery-v0.2","","""event"",""trial"",""time""
""fullscreenenter"",""1"",""1942""
","
","
","""event"",""trial"",""time""
""fullscreenenter"",""1"",""1942""
","
","","","-1","","","11","20929","6281","&#9854;","elianto","#FFFFF080","-1","-1","1","&#10004","[]","0","0","1","","","","","","","",""
"pit-trial","15","165597","0.0-2.0-6.1-0.1","battery-v0.2","","""event"",""trial"",""time""
""fullscreenenter"",""1"",""1942""
","
","
","""event"",""trial"",""time""
""fullscreenenter"",""1"",""1942""
","
","","","-1","","","11","20929","6281","&#9854;","elianto","#FFFFF080","-1","-1","1","&#10004","[]","0","0","1","","","","","","","",""
"pit-trial","16","170463","0.0-2.0-6.2-0.2","battery-v0.2","","""event"",""trial"",""time""
""fullscreenenter"",""1"",""1942""
","
","
","""event"",""trial"",""time""
""fullscreenenter"",""1"",""1942""
","
","","","-1","","","11","20929","6281","&#9854;","elianto","#FFFFF080","-1","-1","1","&#10004","[]","0","0","1","","","","","","","",""
"pit-trial","17","175328","0.0-2.0-6.3-0.3","battery-v0.2","","""event"",""trial"",""time""
""fullscreenenter"",""1"",""1942""
","
","
","""event"",""trial"",""time""
""fullscreenenter"",""1"",""1942""
","
","","","-1","","","11","20929","6281","&#9854;","elianto","#FFFFF080","-1","-1","1","&#10004","[]","0","0","1","","","","","","","",""
"pit-trial","18","180191","0.0-2.0-6.4-0.4","battery-v0.2","","""event"",""trial"",""time""
""fullscreenenter"",""1"",""1942""
","
","
","""event"",""trial"",""time""
""fullscreenenter"",""1"",""1942""
","
","","","-1","","","11","20929","6281","&#9854;","elianto","#FFFFF080","-1","-1","1","&#10004","[]","0","0","1","","","","","","","",""
"pit-instructions","19","307574","0.0-2.0-7.0","battery-v0.2","","""event"",""trial"",""time""
""fullscreenenter"",""1"",""1942""
","
","
","""event"",""trial"",""time""
""fullscreenenter"",""1"",""1942""
","
","","[{""page_index"":0,""viewing_time"":7940.20000000298},{""page_index"":1,""viewing_time"":8402.40000000596},{""page_index"":2,""viewing_time"":7054.899999991059},{""page_index"":3,""viewing_time"":6549.9000000059605},{""page_index"":4,""viewing_time"":5041.4000000059605},{""page_index"":5,""viewing_time"":5328.0999999940395},{""page_index"":6,""viewing_time"":5088.4000000059605},{""page_index"":7,""viewing_time"":7800.79999999702},{""page_index"":8,""viewing_time"":6562.899999991059},{""page_index"":9,""viewing_time"":6247.5},{""page_index"":10,""viewing_time"":6439.5},{""page_index"":11,""viewing_time"":5780.4000000059605},{""page_index"":12,""viewing_time"":8598.20000000298},{""page_index"":13,""viewing_time"":9064.39999999106},{""page_index"":14,""viewing_time"":8370.5},{""page_index"":15,""viewing_time"":7537.9000000059605},{""page_index"":16,""viewing_time"":7348.4000000059605},{""page_index"":17,""viewing_time"":8222.09999999404}]","127378.30000001192","","","","","","","","","","","","","","","","","","","","","","","",""
"pit-trial","20","311183","0.0-2.0-8.0-0.0","battery-v0.2","","""event"",""trial"",""time""
""fullscreenenter"",""1"",""1942""
","
","
","""event"",""trial"",""time""
""fullscreenenter"",""1"",""1942""
","
","","","755.2000000029802","","","11","20929","6281","&#9776;","elianto","#3366ff99"," "," ","1","+10","[1605.7000000029802]","1","0","1","","","","","","","",""
"pit-trial","21","314387","0.0-2.0-8.0-1.0","battery-v0.2","","""event"",""trial"",""time""
""fullscreenenter"",""1"",""1942""
","
","
","""event"",""trial"",""time""
""fullscreenenter"",""1"",""1942""
","
","","","332.70000000298023","","","11","20929","6281","&#9776;","elianto","#3366ff99"," "," ","1","+10","[1184.7999999970198]","1","0","1","","","","","","","",""
"pit-trial","22","317521","0.0-2.0-8.0-2.0","battery-v0.2","","""event"",""trial"",""time""
""fullscreenenter"",""1"",""1942""
","
","
","""event"",""trial"",""time""
""fullscreenenter"",""1"",""1942""
","
","","","268.90000000596046","","","11","20929","6281","&#9776;","elianto","#3366ff99"," "," ","1","+10","[1122.2999999970198]","1","0","1","","","","","","","",""
"pit-trial","23","320660","0.0-2.0-8.0-3.0","battery-v0.2","","""event"",""trial"",""time""
""fullscreenenter"",""1"",""1942""
","
","
","""event"",""trial"",""time""
""fullscreenenter"",""1"",""1942""
","
","","","283.1000000089407","","","11","20929","6281","&#9776;","elianto","#3366ff99"," "," ","1","0","[1135]","1","0","1","","","","","","","",""
"pit-trial","24","323787","0.0-2.0-8.0-4.0","battery-v0.2","","""event"",""trial"",""time""
""fullscreenenter"",""1"",""1942""
","
","
","""event"",""trial"",""time""
""fullscreenenter"",""1"",""1942""
","
","","","271.09999999403954","","","11","20929","6281","&#9776;","elianto","#3366ff99"," "," ","1","+10","[1121.9000000059605]","1","0","1","","","","","","","",""
"pit-trial","25","327124","0.0-2.0-8.1-0.1","battery-v0.2","","""event"",""trial"",""time""
""fullscreenenter"",""1"",""1942""
","
","
","""event"",""trial"",""time""
""fullscreenenter"",""1"",""1942""
","
","","","466.20000000298023","","","11","20929","6281","&#9776;","elianto","#3366ff99"," "," ","1","+10","[1316.4000000059605]","1","0","1","","","","","","","",""
"pit-trial","26","330527","0.0-2.0-8.1-1.1","battery-v0.2","","""event"",""trial"",""time""
""fullscreenenter"",""1"",""1942""
","
","
","""event"",""trial"",""time""
""fullscreenenter"",""1"",""1942""
","
","","","542.7000000029802","","","11","20929","6281","&#9776;","elianto","#3366ff99"," "," ","1","+10","[1393.4000000059605]","1","0","1","","","","","","","",""
"pit-trial","27","333920","0.0-2.0-8.1-2.1","battery-v0.2","","""event"",""trial"",""time""
""fullscreenenter"",""1"",""1942""
","
","
","""event"",""trial"",""time""
""fullscreenenter"",""1"",""1942""
","
","","","538.9000000059605","","","11","20929","6281","&#9776;","elianto","#3366ff99"," "," ","1","+10","[1389.699999988079]","1","0","1","","","","","","","",""
"pit-trial","28","337142","0.0-2.0-8.1-3.1","battery-v0.2","","""event"",""trial"",""time""
""fullscreenenter"",""1"",""1942""
","
","
","""event"",""trial"",""time""
""fullscreenenter"",""1"",""1942""
","
","","","357.70000000298023","","","11","20929","6281","&#9776;","elianto","#3366ff99"," "," ","1","0","[1212.4000000059605]","1","0","1","","","","","","","",""
"pit-trial","29","341352","0.0-2.0-8.1-4.1","battery-v0.2","","""event"",""trial"",""time""
""fullscreenenter"",""1"",""1942""
","
","
","""event"",""trial"",""time""
""fullscreenenter"",""1"",""1942""
","
","","","1349.3999999910593","","","11","20929","6281","&#9776;","elianto","#3366ff99"," "," ","1","+10","[2199.5]","1","0","1","","","","","","","",""
"pit-trial","30","344971","0.0-2.0-8.2-0.2","battery-v0.2","","""event"",""trial"",""time""
""fullscreenenter"",""1"",""1942""
","
","
","""event"",""trial"",""time""
""fullscreenenter"",""1"",""1942""
","
","","","756","","","11","20929","6281","&#9776;","elianto","#3366ff99"," "," ","1","+10","[1611.0999999940395]","1","0","1","","","","","","","",""
"pit-trial","31","348116","0.0-2.0-8.2-1.2","battery-v0.2","","""event"",""trial"",""time""
""fullscreenenter"",""1"",""1942""
","
","
","""event"",""trial"",""time""
""fullscreenenter"",""1"",""1942""
","
","","","286.20000000298023","","","11","20929","6281","&#9776;","elianto","#3366ff99"," "," ","1","+10","[1139.5999999940395]","1","0","1","","","","","","","",""
"pit-trial","32","351022","0.0-2.0-8.2-2.2","battery-v0.2","","""event"",""trial"",""time""
""fullscreenenter"",""1"",""1942""
","
","
","""event"",""trial"",""time""
""fullscreenenter"",""1"",""1942""
","
","","","47","","","11","20929","6281","&#9776;","elianto","#3366ff99"," "," ","1","+10","[902.1999999880791]","1","0","1","","","","","","","",""
"pit-trial","33","354616","0.0-2.0-8.2-3.2","battery-v0.2","","""event"",""trial"",""time""
""fullscreenenter"",""1"",""1942""
","
","
","""event"",""trial"",""time""
""fullscreenenter"",""1"",""1942""
","
","","","733.1000000089407","","","11","20929","6281","&#9776;","elianto","#3366ff99"," "," ","1","0","[1585.2000000029802]","1","0","1","","","","","","","",""
"pit-trial","34","358671","0.0-2.0-8.2-4.2","battery-v0.2","","""event"",""trial"",""time""
""fullscreenenter"",""1"",""1942""
","
","
","""event"",""trial"",""time""
""fullscreenenter"",""1"",""1942""
","
","","","1186.7999999970198","","","11","20929","6281","&#9776;","elianto","#3366ff99"," "," ","1","+10","[2045.4000000059605]","1","0","1","","","","","","","",""
"call-function","35","358674","0.0-2.0-9.0","battery-v0.2","","""event"",""trial"",""time""
""fullscreenenter"",""1"",""1942""
","
","
","""event"",""trial"",""time""
""fullscreenenter"",""1"",""1942""
","
","","","","","","","","","","","","","","","","","","","","","","","","","","",""
"pit-instructions","36","402733","0.0-2.0-10.0","battery-v0.2","","""event"",""trial"",""time""
""fullscreenenter"",""1"",""1942""
","
","
","""event"",""trial"",""time""
""fullscreenenter"",""1"",""1942""
","
","","[{""page_index"":0,""viewing_time"":7863.5},{""page_index"":1,""viewing_time"":7603.79999999702},{""page_index"":2,""viewing_time"":10028.09999999404},{""page_index"":3,""viewing_time"":9333.5},{""page_index"":4,""viewing_time"":9227.5}]","44057.09999999404","","","","","","","","","","","","","","","","","","","","","","","",""
"pit-trial","37","407597","0.0-2.0-11.0-0.0","battery-v0.2","","""event"",""trial"",""time""
""fullscreenenter"",""1"",""1942""
","
","
","""event"",""trial"",""time""
""fullscreenenter"",""1"",""1942""
","
","","","-1","","","11","20929","6281","&#9761;","elianto","#3366ff99","-1","-1","1","+10","[]","0","0","2","","","","","","","",""
"pit-trial","38","412469","0.0-2.0-11.0-1.0","battery-v0.2","","""event"",""trial"",""time""
""fullscreenenter"",""1"",""1942""
","
","
","""event"",""trial"",""time""
""fullscreenenter"",""1"",""1942""
","
","","","-1","","","11","20929","6281","&#9761;","elianto","#3366ff99","-1","-1","1","+10","[]","0","0","2","","","","","","","",""
"pit-trial","39","415798","0.0-2.0-11.0-2.0","battery-v0.2","","""event"",""trial"",""time""
""fullscreenenter"",""1"",""1942""
","
","
","""event"",""trial"",""time""
""fullscreenenter"",""1"",""1942""
","
","","","467.59999999403954","","","11","20929","6281","&#9761;","elianto","#3366ff99","-1"," ","0","0","[1321.199999988079]","1","0","2","","","","","","","",""
"pit-trial","40","420665","0.0-2.0-11.0-3.0","battery-v0.2","","""event"",""trial"",""time""
""fullscreenenter"",""1"",""1942""
","
","
","""event"",""trial"",""time""
""fullscreenenter"",""1"",""1942""
","
","","","-1","","","11","20929","6281","&#9761;","elianto","#3366ff99","-1","-1","1","0","[]","0","0","2","","","","","","","",""
"pit-trial","41","425535","0.0-2.0-11.0-4.0","battery-v0.2","","""event"",""trial"",""time""
""fullscreenenter"",""1"",""1942""
","
","
","""event"",""trial"",""time""
""fullscreenenter"",""1"",""1942""
","
","","","-1","","","11","20929","6281","&#9761;","elianto","#3366ff99","-1","-1","1","+10","[]","0","0","2","","","","","","","",""
"pit-trial","42","430416","0.0-2.0-11.1-0.1","battery-v0.2","","""event"",""trial"",""time""
""fullscreenenter"",""1"",""1942""
","
","
","""event"",""trial"",""time""
""fullscreenenter"",""1"",""1942""
","
","","","-1","","","11","20929","6281","&#9761;","elianto","#3366ff99","-1","-1","1","+10","[]","0","0","2","","","","","","","",""
"pit-trial","43","435282","0.0-2.0-11.1-1.1","battery-v0.2","","""event"",""trial"",""time""
""fullscreenenter"",""1"",""1942""
","
","
","""event"",""trial"",""time""
""fullscreenenter"",""1"",""1942""
","
","","","-1","","","11","20929","6281","&#9761;","elianto","#3366ff99","-1","-1","1","+10","[]","0","0","2","","","","","","","",""
"pit-trial","44","440147","0.0-2.0-11.1-2.1","battery-v0.2","","""event"",""trial"",""time""
""fullscreenenter"",""1"",""1942""
","
","
","""event"",""trial"",""time""
""fullscreenenter"",""1"",""1942""
","
","","","-1","","","11","20929","6281","&#9761;","elianto","#3366ff99","-1","-1","1","+10","[]","0","0","2","","","","","","","",""
"pit-trial","45","445009","0.0-2.0-11.1-3.1","battery-v0.2","","""event"",""trial"",""time""
""fullscreenenter"",""1"",""1942""
","
","
","""event"",""trial"",""time""
""fullscreenenter"",""1"",""1942""
","
","","","-1","","","11","20929","6281","&#9761;","elianto","#3366ff99","-1","-1","1","0","[]","0","0","2","","","","","","","",""
"pit-trial","46","449870","0.0-2.0-11.1-4.1","battery-v0.2","","""event"",""trial"",""time""
""fullscreenenter"",""1"",""1942""
","
","
","""event"",""trial"",""time""
""fullscreenenter"",""1"",""1942""
","
","","","-1","","","11","20929","6281","&#9761;","elianto","#3366ff99","-1","-1","1","+10","[]","0","0","2","","","","","","","",""
"pit-trial","47","454735","0.0-2.0-11.2-0.2","battery-v0.2","","""event"",""trial"",""time""
""fullscreenenter"",""1"",""1942""
","
","
","""event"",""trial"",""time""
""fullscreenenter"",""1"",""1942""
","
","","","-1","","","11","20929","6281","&#9761;","elianto","#3366ff99","-1","-1","1","+10","[]","0","0","2","","","","","","","",""
"pit-trial","48","459603","0.0-2.0-11.2-1.2","battery-v0.2","","""event"",""trial"",""time""
""fullscreenenter"",""1"",""1942""
","
","
","""event"",""trial"",""time""
""fullscreenenter"",""1"",""1942""
","
","","","-1","","","11","20929","6281","&#9761;","elianto","#3366ff99","-1","-1","1","+10","[]","0","0","2","","","","","","","",""
"pit-trial","49","464473","0.0-2.0-11.2-2.2","battery-v0.2","","""event"",""trial"",""time""
""fullscreenenter"",""1"",""1942""
","
","
","""event"",""trial"",""time""
""fullscreenenter"",""1"",""1942""
","
","","","-1","","","11","20929","6281","&#9761;","elianto","#3366ff99","-1","-1","1","+10","[]","0","0","2","","","","","","","",""
"pit-trial","50","469340","0.0-2.0-11.2-3.2","battery-v0.2","","""event"",""trial"",""time""
""fullscreenenter"",""1"",""1942""
","
","
","""event"",""trial"",""time""
""fullscreenenter"",""1"",""1942""
","
","","","-1","","","11","20929","6281","&#9761;","elianto","#3366ff99","-1","-1","1","0","[]","0","0","2","","","","","","","",""
"pit-trial","51","474195","0.0-2.0-11.2-4.2","battery-v0.2","","""event"",""trial"",""time""
""fullscreenenter"",""1"",""1942""
","
","
","""event"",""trial"",""time""
""fullscreenenter"",""1"",""1942""
","
","","","-1","","","11","20929","6281","&#9761;","elianto","#3366ff99","-1","-1","1","+10","[]","0","0","2","","","","","","","",""
"pit-trial","52","479061","0.0-2.0-11.3-0.3","battery-v0.2","","""event"",""trial"",""time""
""fullscreenenter"",""1"",""1942""
","
","
","""event"",""trial"",""time""
""fullscreenenter"",""1"",""1942""
","
","","","-1","","","11","20929","6281","&#9761;","elianto","#3366ff99","-1","-1","1","+10","[]","0","0","2","","","","","","","",""
"pit-trial","53","483921","0.0-2.0-11.3-1.3","battery-v0.2","","""event"",""trial"",""time""
""fullscreenenter"",""1"",""1942""
","
","
","""event"",""trial"",""time""
""fullscreenenter"",""1"",""1942""
","
","","","-1","","","11","20929","6281","&#9761;","elianto","#3366ff99","-1","-1","1","+10","[]","0","0","2","","","","","","","",""
"pit-trial","54","488794","0.0-2.0-11.3-2.3","battery-v0.2","","""event"",""trial"",""time""
""fullscreenenter"",""1"",""1942""
","
","
","""event"",""trial"",""time""
""fullscreenenter"",""1"",""1942""
","
","","","-1","","","11","20929","6281","&#9761;","elianto","#3366ff99","-1","-1","1","+10","[]","0","0","2","","","","","","","",""
"pit-trial","55","493665","0.0-2.0-11.3-3.3","battery-v0.2","","""event"",""trial"",""time""
""fullscreenenter"",""1"",""1942""
","
","
","""event"",""trial"",""time""
""fullscreenenter"",""1"",""1942""
","
","","","-1","","","11","20929","6281","&#9761;","elianto","#3366ff99","-1","-1","1","0","[]","0","0","2","","","","","","","",""
"pit-trial","56","498530","0.0-2.0-11.3-4.3","battery-v0.2","","""event"",""trial"",""time""
""fullscreenenter"",""1"",""1942""
","
","
","""event"",""trial"",""time""
""fullscreenenter"",""1"",""1942""
","
","","","-1","","","11","20929","6281","&#9761;","elianto","#3366ff99","-1","-1","1","+10","[]","0","0","2","","","","","","","",""
"call-function","57","498532","0.0-2.0-12.0","battery-v0.2","","""event"",""trial"",""time""
""fullscreenenter"",""1"",""1942""
","
","
","""event"",""trial"",""time""
""fullscreenenter"",""1"",""1942""
","
","","","","","","","","","","","","","","","","","","","","","","","","","","",""
"pit-instructions","58","531774","0.0-2.0-13.0","battery-v0.2","","""event"",""trial"",""time""
""fullscreenenter"",""1"",""1942""
","
","
","""event"",""trial"",""time""
""fullscreenenter"",""1"",""1942""
","
","","[{""page_index"":0,""viewing_time"":4135.600000008941},{""page_index"":1,""viewing_time"":7430},{""page_index"":2,""viewing_time"":4328.0999999940395},{""page_index"":3,""viewing_time"":11562.20000000298},{""page_index"":4,""viewing_time"":5784.9000000059605}]","33241.5","","","","","","","","","","","","","","","","","","","","","","","",""
"pit-trial","59","535059","0.0-2.0-14.0-0.0","battery-v0.2","","""event"",""trial"",""time""
""fullscreenenter"",""1"",""1942""
","
","
","""event"",""trial"",""time""
""fullscreenenter"",""1"",""1942""
","
","","","420.1000000089407","","","11","20929","6281","&#9826;","elianto","#f73b6a7A","-1"," ","0","-10","[1272.0999999940395]","1","0","3","","","","","","","",""
"pit-trial","60","539927","0.0-2.0-14.0-1.0","battery-v0.2","","""event"",""trial"",""time""
""fullscreenenter"",""1"",""1942""
","
","
","""event"",""trial"",""time""
""fullscreenenter"",""1"",""1942""
","
","","","-1","","","11","20929","6281","&#9826;","elianto","#f73b6a7A","-1","-1","1","0","[]","0","0","3","","","","","","","",""
"pit-trial","61","544792","0.0-2.0-14.0-2.0","battery-v0.2","","""event"",""trial"",""time""
""fullscreenenter"",""1"",""1942""
","
","
","""event"",""trial"",""time""
""fullscreenenter"",""1"",""1942""
","
","","","-1","","","11","20929","6281","&#9826;","elianto","#f73b6a7A","-1","-1","1","0","[]","0","0","3","","","","","","","",""
"pit-trial","62","548065","0.0-2.0-14.0-3.0","battery-v0.2","","""event"",""trial"",""time""
""fullscreenenter"",""1"",""1942""
","
","
","""event"",""trial"",""time""
""fullscreenenter"",""1"",""1942""
","
","","","404.20000000298023","","","11","20929","6281","&#9826;","elianto","#f73b6a7A","-1"," ","0","0","[1254.5]","1","0","3","","","","","","","",""
"pit-trial","63","552943","0.0-2.0-14.0-4.0","battery-v0.2","","""event"",""trial"",""time""
""fullscreenenter"",""1"",""1942""
","
","
","""event"",""trial"",""time""
""fullscreenenter"",""1"",""1942""
","
","","","-1","","","11","20929","6281","&#9826;","elianto","#f73b6a7A","-1","-1","1","0","[]","0","0","3","","","","","","","",""
"pit-trial","64","557811","0.0-2.0-14.1-0.1","battery-v0.2","","""event"",""trial"",""time""
""fullscreenenter"",""1"",""1942""
","
","
","""event"",""trial"",""time""
""fullscreenenter"",""1"",""1942""
","
","","","-1","","","11","20929","6281","&#9826;","elianto","#f73b6a7A","-1","-1","1","0","[]","0","0","3","","","","","","","",""
"pit-trial","65","562668","0.0-2.0-14.1-1.1","battery-v0.2","","""event"",""trial"",""time""
""fullscreenenter"",""1"",""1942""
","
","
","""event"",""trial"",""time""
""fullscreenenter"",""1"",""1942""
","
","","","-1","","","11","20929","6281","&#9826;","elianto","#f73b6a7A","-1","-1","1","0","[]","0","0","3","","","","","","","",""
"pit-trial","66","567536","0.0-2.0-14.1-2.1","battery-v0.2","","""event"",""trial"",""time""
""fullscreenenter"",""1"",""1942""
","
","
","""event"",""trial"",""time""
""fullscreenenter"",""1"",""1942""
","
","","","-1","","","11","20929","6281","&#9826;","elianto","#f73b6a7A","-1","-1","1","0","[]","0","0","3","","","","","","","",""
"pit-trial","67","572402","0.0-2.0-14.1-3.1","battery-v0.2","","""event"",""trial"",""time""
""fullscreenenter"",""1"",""1942""
","
","
","""event"",""trial"",""time""
""fullscreenenter"",""1"",""1942""
","
","","","-1","","","11","20929","6281","&#9826;","elianto","#f73b6a7A","-1","-1","1","-10","[]","0","0","3","","","","","","","",""
"pit-trial","68","577259","0.0-2.0-14.1-4.1","battery-v0.2","","""event"",""trial"",""time""
""fullscreenenter"",""1"",""1942""
","
","
","""event"",""trial"",""time""
""fullscreenenter"",""1"",""1942""
","
","","","-1","","","11","20929","6281","&#9826;","elianto","#f73b6a7A","-1","-1","1","0","[]","0","0","3","","","","","","","",""
"pit-trial","69","582130","0.0-2.0-14.2-0.2","battery-v0.2","","""event"",""trial"",""time""
""fullscreenenter"",""1"",""1942""
","
","
","""event"",""trial"",""time""
""fullscreenenter"",""1"",""1942""
","
","","","-1","","","11","20929","6281","&#9826;","elianto","#f73b6a7A","-1","-1","1","0","[]","0","0","3","","","","","","","",""
"pit-trial","70","586994","0.0-2.0-14.2-1.2","battery-v0.2","","""event"",""trial"",""time""
""fullscreenenter"",""1"",""1942""
","
","
","""event"",""trial"",""time""
""fullscreenenter"",""1"",""1942""
","
","","","-1","","","11","20929","6281","&#9826;","elianto","#f73b6a7A","-1","-1","1","0","[]","0","0","3","","","","","","","",""
"pit-trial","71","591852","0.0-2.0-14.2-2.2","battery-v0.2","","""event"",""trial"",""time""
""fullscreenenter"",""1"",""1942""
","
","
","""event"",""trial"",""time""
""fullscreenenter"",""1"",""1942""
","
","","","-1","","","11","20929","6281","&#9826;","elianto","#f73b6a7A","-1","-1","1","0","[]","0","0","3","","","","","","","",""
"pit-trial","72","594937","0.0-2.0-14.2-3.2","battery-v0.2","","""event"",""trial"",""time""
""fullscreenenter"",""1"",""1942""
","
","
","""event"",""trial"",""time""
""fullscreenenter"",""1"",""1942""
","
","","","219.70000000298023","","","11","20929","6281","&#9826;","elianto","#f73b6a7A","-1"," ","0","0","[1077.5999999940395]","1","0","3","","","","","","","",""
"pit-trial","73","599800","0.0-2.0-14.2-4.2","battery-v0.2","","""event"",""trial"",""time""
""fullscreenenter"",""1"",""1942""
","
","
","""event"",""trial"",""time""
""fullscreenenter"",""1"",""1942""
","
","","","-1","","","11","20929","6281","&#9826;","elianto","#f73b6a7A","-1","-1","1","0","[]","0","0","3","","","","","","","",""
"pit-trial","74","604662","0.0-2.0-14.3-0.3","battery-v0.2","","""event"",""trial"",""time""
""fullscreenenter"",""1"",""1942""
","
","
","""event"",""trial"",""time""
""fullscreenenter"",""1"",""1942""
","
","","","-1","","","11","20929","6281","&#9826;","elianto","#f73b6a7A","-1","-1","1","0","[]","0","0","3","","","","","","","",""
"pit-trial","75","609535","0.0-2.0-14.3-1.3","battery-v0.2","","""event"",""trial"",""time""
""fullscreenenter"",""1"",""1942""
","
","
","""event"",""trial"",""time""
""fullscreenenter"",""1"",""1942""
","
","","","-1","","","11","20929","6281","&#9826;","elianto","#f73b6a7A","-1","-1","1","0","[]","0","0","3","","","","","","","",""
"pit-trial","76","614403","0.0-2.0-14.3-2.3","battery-v0.2","","""event"",""trial"",""time""
""fullscreenenter"",""1"",""1942""
","
","
","""event"",""trial"",""time""
""fullscreenenter"",""1"",""1942""
","
","","","-1","","","11","20929","6281","&#9826;","elianto","#f73b6a7A","-1","-1","1","0","[]","0","0","3","","","","","","","",""
"pit-trial","77","619265","0.0-2.0-14.3-3.3","battery-v0.2","","""event"",""trial"",""time""
""fullscreenenter"",""1"",""1942""
","
","
","""event"",""trial"",""time""
""fullscreenenter"",""1"",""1942""
","
","","","-1","","","11","20929","6281","&#9826;","elianto","#f73b6a7A","-1","-1","1","-10","[]","0","0","3","","","","","","","",""
"pit-trial","78","624123","0.0-2.0-14.3-4.3","battery-v0.2","","""event"",""trial"",""time""
""fullscreenenter"",""1"",""1942""
","
","
","""event"",""trial"",""time""
""fullscreenenter"",""1"",""1942""
","
","","","-1","","","11","20929","6281","&#9826;","elianto","#f73b6a7A","-1","-1","1","0","[]","0","0","3","","","","","","","",""
"call-function","79","624126","0.0-2.0-15.0","battery-v0.2","","""event"",""trial"",""time""
""fullscreenenter"",""1"",""1942""
","
","
","""event"",""trial"",""time""
""fullscreenenter"",""1"",""1942""
","
","","","","","","","","","","","","","","","","","","","","","","","","","","",""
"pit-instructions","80","653334","0.0-2.0-16.0","battery-v0.2","","""event"",""trial"",""time""
""fullscreenenter"",""1"",""1942""
","
","
","""event"",""trial"",""time""
""fullscreenenter"",""1"",""1942""
","
","","[{""page_index"":0,""viewing_time"":8014},{""page_index"":1,""viewing_time"":9233.40000000596},{""page_index"":2,""viewing_time"":5177.899999991059},{""page_index"":3,""viewing_time"":6781.600000008941}]","29207.29999999702","","","","","","","","","","","","","","","","","","","","","","","",""
"pit-trial","81","656786","0.0-2.0-17.0-0.0","battery-v0.2","","""event"",""trial"",""time""
""fullscreenenter"",""1"",""1942""
","
","
","""event"",""trial"",""time""
""fullscreenenter"",""1"",""1942""
","
","","","582.6000000089407","","","11","20929","6281","&#9789;","elianto","#f73b6a7A"," "," ","1","0","[1434.4000000059605]","1","0","4","","","","","","","",""
"pit-trial","82","660135","0.0-2.0-17.0-1.0","battery-v0.2","","""event"",""trial"",""time""
""fullscreenenter"",""1"",""1942""
","
","
","""event"",""trial"",""time""
""fullscreenenter"",""1"",""1942""
","
","","","479.40000000596046","","","11","20929","6281","&#9789;","elianto","#f73b6a7A"," "," ","1","0","[1336.2999999970198]","1","0","4","","","","","","","",""
"pit-trial","83","663142","0.0-2.0-17.0-2.0","battery-v0.2","","""event"",""trial"",""time""
""fullscreenenter"",""1"",""1942""
","
","
","""event"",""trial"",""time""
""fullscreenenter"",""1"",""1942""
","
","","","140.70000000298023","","","11","20929","6281","&#9789;","elianto","#f73b6a7A"," "," ","1","0","[997]","1","0","4","","","","","","","",""
"pit-trial","84","668013","0.0-2.0-17.0-3.0","battery-v0.2","","""event"",""trial"",""time""
""fullscreenenter"",""1"",""1942""
","
","
","""event"",""trial"",""time""
""fullscreenenter"",""1"",""1942""
","
","","","-1","","","11","20929","6281","&#9789;","elianto","#f73b6a7A"," ","-1","0","0","[]","0","0","4","","","","","","","",""
"pit-trial","85","672882","0.0-2.0-17.0-4.0","battery-v0.2","","""event"",""trial"",""time""
""fullscreenenter"",""1"",""1942""
","
","
","""event"",""trial"",""time""
""fullscreenenter"",""1"",""1942""
","
","","","-1","","","11","20929","6281","&#9789;","elianto","#f73b6a7A"," ","-1","0","-10","[]","0","0","4","","","","","","","",""
"pit-trial","86","676928","0.0-2.0-17.1-0.1","battery-v0.2","","""event"",""trial"",""time""
""fullscreenenter"",""1"",""1942""
","
","
","""event"",""trial"",""time""
""fullscreenenter"",""1"",""1942""
","
","","","1182.3999999910593","","","11","20929","6281","&#9789;","elianto","#f73b6a7A"," "," ","1","0","[2033.4000000059605]","1","0","4","","","","","","","",""
"pit-trial","87","680536","0.0-2.0-17.1-1.1","battery-v0.2","","""event"",""trial"",""time""
""fullscreenenter"",""1"",""1942""
","
","
","""event"",""trial"",""time""
""fullscreenenter"",""1"",""1942""
","
","","","741","","","11","20929","6281","&#9789;","elianto","#f73b6a7A"," "," ","1","0","[1594]","1","0","4","","","","","","","",""
"pit-trial","88","684034","0.0-2.0-17.1-2.1","battery-v0.2","","""event"",""trial"",""time""
""fullscreenenter"",""1"",""1942""
","
","
","""event"",""trial"",""time""
""fullscreenenter"",""1"",""1942""
","
","","","632.7999999970198","","","11","20929","6281","&#9789;","elianto","#f73b6a7A"," "," ","1","0","[1487.7000000029802]","1","0","4","","","","","","","",""
"pit-trial","89","686935","0.0-2.0-17.1-3.1","battery-v0.2","","""event"",""trial"",""time""
""fullscreenenter"",""1"",""1942""
","
","
","""event"",""trial"",""time""
""fullscreenenter"",""1"",""1942""
","
","","","37.1000000089407","","","11","20929","6281","&#9789;","elianto","#f73b6a7A"," "," ","1","-10","[890.1000000089407]","1","0","4","","","","","","","",""
"pit-trial","90","690143","0.0-2.0-17.1-4.1","battery-v0.2","","""event"",""trial"",""time""
""fullscreenenter"",""1"",""1942""
","
","
","""event"",""trial"",""time""
""fullscreenenter"",""1"",""1942""
","
","","","343.09999999403954","","","11","20929","6281","&#9789;","elianto","#f73b6a7A"," "," ","1","0","[1196.9000000059605]","1","0","4","","","","","","","",""
"pit-trial","91","693085","0.0-2.0-17.2-0.2","battery-v0.2","","""event"",""trial"",""time""
""fullscreenenter"",""1"",""1942""
","
","
","""event"",""trial"",""time""
""fullscreenenter"",""1"",""1942""
","
","","","74.6000000089407","","","11","20929","6281","&#9789;","elianto","#f73b6a7A"," "," ","1","0","[925.5999999940395]","1","0","4","","","","","","","",""
"pit-trial","92","696153","0.0-2.0-17.2-1.2","battery-v0.2","","""event"",""trial"",""time""
""fullscreenenter"",""1"",""1942""
","
","
","""event"",""trial"",""time""
""fullscreenenter"",""1"",""1942""
","
","","","213.1000000089407","","","11","20929","6281","&#9789;","elianto","#f73b6a7A"," "," ","1","0","[1064.5999999940395]","1","0","4","","","","","","","",""
"pit-trial","93","699198","0.0-2.0-17.2-2.2","battery-v0.2","","""event"",""trial"",""time""
""fullscreenenter"",""1"",""1942""
","
","
","""event"",""trial"",""time""
""fullscreenenter"",""1"",""1942""
","
","","","183.09999999403954","","","11","20929","6281","&#9789;","elianto","#f73b6a7A"," "," ","1","0","[1034.7000000029802]","1","0","4","","","","","","","",""
"pit-trial","94","704057","0.0-2.0-17.2-3.2","battery-v0.2","","""event"",""trial"",""time""
""fullscreenenter"",""1"",""1942""
","
","
","""event"",""trial"",""time""
""fullscreenenter"",""1"",""1942""
","
","","","-1","","","11","20929","6281","&#9789;","elianto","#f73b6a7A"," ","-1","0","0","[]","0","0","4","","","","","","","",""
"pit-trial","95","707067","0.0-2.0-17.2-4.2","battery-v0.2","","""event"",""trial"",""time""
""fullscreenenter"",""1"",""1942""
","
","
","""event"",""trial"",""time""
""fullscreenenter"",""1"",""1942""
","
","","","151.6000000089407","","","11","20929","6281","&#9789;","elianto","#f73b6a7A"," "," ","1","0","[1006.0999999940395]","1","0","4","","","","","","","",""
"pit-trial","96","710382","0.0-2.0-17.3-0.3","battery-v0.2","","""event"",""trial"",""time""
""fullscreenenter"",""1"",""1942""
","
","
","""event"",""trial"",""time""
""fullscreenenter"",""1"",""1942""
","
","","","452.59999999403954","","","11","20929","6281","&#9789;","elianto","#f73b6a7A"," "," ","1","0","[1311]","1","0","4","","","","","","","",""
"pit-trial","97","713693","0.0-2.0-17.3-1.3","battery-v0.2","","""event"",""trial"",""time""
""fullscreenenter"",""1"",""1942""
","
","
","""event"",""trial"",""time""
""fullscreenenter"",""1"",""1942""
","
","","","452.20000000298023","","","11","20929","6281","&#9789;","elianto","#f73b6a7A"," "," ","1","0","[1302.0999999940395]","1","0","4","","","","","","","",""
"pit-trial","98","716932","0.0-2.0-17.3-2.3","battery-v0.2","","""event"",""trial"",""time""
""fullscreenenter"",""1"",""1942""
","
","
","""event"",""trial"",""time""
""fullscreenenter"",""1"",""1942""
","
","","","383.09999999403954","","","11","20929","6281","&#9789;","elianto","#f73b6a7A"," "," ","1","0","[1234.7999999970198]","1","0","4","","","","","","","",""
"pit-trial","99","721796","0.0-2.0-17.3-3.3","battery-v0.2","","""event"",""trial"",""time""
""fullscreenenter"",""1"",""1942""
","
","
","""event"",""trial"",""time""
""fullscreenenter"",""1"",""1942""
","
","","","-1","","","11","20929","6281","&#9789;","elianto","#f73b6a7A"," ","-1","0","0","[]","0","0","4","","","","","","","",""
"pit-trial","100","725901","0.0-2.0-17.3-4.3","battery-v0.2","","""event"",""trial"",""time""
""fullscreenenter"",""1"",""1942""
","
","
","""event"",""trial"",""time""
""fullscreenenter"",""1"",""1942""
","
","","","1244.9000000059605","","","11","20929","6281","&#9789;","elianto","#f73b6a7A"," "," ","1","0","[2098.5]","1","0","4","","","","","","","",""
"call-function","101","725904","0.0-2.0-18.0","battery-v0.2","","""event"",""trial"",""time""
""fullscreenenter"",""1"",""1942""
""blur"",""102"",""734972""
""focus"",""102"",""738505""
","""event"",""trial"",""time""
""blur"",""102"",""734972""
","""event"",""trial"",""time""
""focus"",""102"",""738505""
","""event"",""trial"",""time""
""fullscreenenter"",""1"",""1942""
","
","","","","","","","","","","","","","","","","","","","","","","","","","","",""
"pit-instructions","102","799871","0.0-2.0-19.0","battery-v0.2","","""event"",""trial"",""time""
""fullscreenenter"",""1"",""1942""
""blur"",""102"",""734972""
""focus"",""102"",""738505""
","""event"",""trial"",""time""
""blur"",""102"",""734972""
","""event"",""trial"",""time""
""focus"",""102"",""738505""
","""event"",""trial"",""time""
""fullscreenenter"",""1"",""1942""
","
","","[{""page_index"":0,""viewing_time"":7742.199999988079},{""page_index"":1,""viewing_time"":8294.5},{""page_index"":2,""viewing_time"":15327.10000000894},{""page_index"":3,""viewing_time"":7535.70000000298},{""page_index"":4,""viewing_time"":8734.5},{""page_index"":5,""viewing_time"":8518},{""page_index"":6,""viewing_time"":6723.79999999702},{""page_index"":7,""viewing_time"":6145.5999999940395},{""page_index"":8,""viewing_time"":4944}]","73966.29999999702","","","","","","","","","","","","","","","","","","","","","","","",""
"pit-comprehension","103","805869","0.0-2.0-20.0-0.0","battery-v0.2","","""event"",""trial"",""time""
""fullscreenenter"",""1"",""1942""
""blur"",""102"",""734972""
""focus"",""102"",""738505""
","""event"",""trial"",""time""
""blur"",""102"",""734972""
","""event"",""trial"",""time""
""focus"",""102"",""738505""
","""event"",""trial"",""time""
""fullscreenenter"",""1"",""1942""
","
","","","5988.899999991059","[""SPACE""]","0","11","20929","6281","","","","","","","","","","","","","","","","","","",""
"pit-instructions","104","809214","0.0-2.0-20.0-1.0","battery-v0.2","","""event"",""trial"",""time""
""fullscreenenter"",""1"",""1942""
""blur"",""102"",""734972""
""focus"",""102"",""738505""
","""event"",""trial"",""time""
""blur"",""102"",""734972""
","""event"",""trial"",""time""
""focus"",""102"",""738505""
","""event"",""trial"",""time""
""fullscreenenter"",""1"",""1942""
","
","","[{""page_index"":0,""viewing_time"":3284.1000000089407}]","3284.5","","","","","","","","","","","","","","","","","","","","","","","",""
"pit-comprehension","105","815874","0.0-2.0-21.0-0.0","battery-v0.2","","""event"",""trial"",""time""
""fullscreenenter"",""1"",""1942""
""blur"",""102"",""734972""
""focus"",""102"",""738505""
","""event"",""trial"",""time""
""blur"",""102"",""734972""
","""event"",""trial"",""time""
""focus"",""102"",""738505""
","""event"",""trial"",""time""
""fullscreenenter"",""1"",""1942""
","
","","","6655.4000000059605","[""10""]","0","11","20929","6281","","","","","","","","","","","","","","","","","","",""
"pit-instructions","106","817672","0.0-2.0-21.0-1.0","battery-v0.2","","""event"",""trial"",""time""
""fullscreenenter"",""1"",""1942""
""blur"",""102"",""734972""
""focus"",""102"",""738505""
""blur"",""107"",""821436""
""focus"",""107"",""825668""
","""event"",""trial"",""time""
""blur"",""102"",""734972""
""blur"",""107"",""821436""
","""event"",""trial"",""time""
""focus"",""102"",""738505""
""focus"",""107"",""825668""
","""event"",""trial"",""time""
""fullscreenenter"",""1"",""1942""
","
","","[{""page_index"":0,""viewing_time"":1731.2000000029802}]","1731.7000000029802","","","","","","","","","","","","","","","","","","","","","","","",""
"pit-comprehension","107","827927","0.0-2.0-22.0-0.0","battery-v0.2","","""event"",""trial"",""time""
""fullscreenenter"",""1"",""1942""
""blur"",""102"",""734972""
""focus"",""102"",""738505""
""blur"",""107"",""821436""
""focus"",""107"",""825668""
","""event"",""trial"",""time""
""blur"",""102"",""734972""
""blur"",""107"",""821436""
","""event"",""trial"",""time""
""focus"",""102"",""738505""
""focus"",""107"",""825668""
","""event"",""trial"",""time""
""fullscreenenter"",""1"",""1942""
","
","","","10248.90000000596","[""0""]","0","11","20929","6281","","","","","","","","","","","","","","","","","","",""
"pit-instructions","108","833319","0.0-2.0-22.0-1.0","battery-v0.2","","""event"",""trial"",""time""
""fullscreenenter"",""1"",""1942""
""blur"",""102"",""734972""
""focus"",""102"",""738505""
""blur"",""107"",""821436""
""focus"",""107"",""825668""
","""event"",""trial"",""time""
""blur"",""102"",""734972""
""blur"",""107"",""821436""
","""event"",""trial"",""time""
""focus"",""102"",""738505""
""focus"",""107"",""825668""
","""event"",""trial"",""time""
""fullscreenenter"",""1"",""1942""
","
","","[{""page_index"":0,""viewing_time"":5358.79999999702}]","5359.5","","","","","","","","","","","","","","","","","","","","","","","",""
"pit-comprehension","109","841679","0.0-2.0-23.0-0.0","battery-v0.2","","""event"",""trial"",""time""
""fullscreenenter"",""1"",""1942""
""blur"",""102"",""734972""
""focus"",""102"",""738505""
""blur"",""107"",""821436""
""focus"",""107"",""825668""
","""event"",""trial"",""time""
""blur"",""102"",""734972""
""blur"",""107"",""821436""
","""event"",""trial"",""time""
""focus"",""102"",""738505""
""focus"",""107"",""825668""
","""event"",""trial"",""time""
""fullscreenenter"",""1"",""1942""
","
","","","8352.59999999404","[""True""]","0","11","20929","6281","","","","","","","","","","","","","","","","","","",""
"pit-instructions","110","845905","0.0-2.0-23.0-1.0","battery-v0.2","","""event"",""trial"",""time""
""fullscreenenter"",""1"",""1942""
""blur"",""102"",""734972""
""focus"",""102"",""738505""
""blur"",""107"",""821436""
""focus"",""107"",""825668""
","""event"",""trial"",""time""
""blur"",""102"",""734972""
""blur"",""107"",""821436""
","""event"",""trial"",""time""
""focus"",""102"",""738505""
""focus"",""107"",""825668""
","""event"",""trial"",""time""
""fullscreenenter"",""1"",""1942""
","
","","[{""page_index"":0,""viewing_time"":4167.5}]","4168.20000000298","","","","","","","","","","","","","","","","","","","","","","","",""
"pit-comprehension","111","852939","0.0-2.0-24.0-0.0","battery-v0.2","","""event"",""trial"",""time""
""fullscreenenter"",""1"",""1942""
""blur"",""102"",""734972""
""focus"",""102"",""738505""
""blur"",""107"",""821436""
""focus"",""107"",""825668""
","""event"",""trial"",""time""
""blur"",""102"",""734972""
""blur"",""107"",""821436""
","""event"",""trial"",""time""
""focus"",""102"",""738505""
""focus"",""107"",""825668""
","""event"",""trial"",""time""
""fullscreenenter"",""1"",""1942""
","
","","","7029","[""True""]","0","11","20929","6281","","","","","","","","","","","","","","","","","","",""
"pit-instructions","112","854468","0.0-2.0-24.0-1.0","battery-v0.2","","""event"",""trial"",""time""
""fullscreenenter"",""1"",""1942""
""blur"",""102"",""734972""
""focus"",""102"",""738505""
""blur"",""107"",""821436""
""focus"",""107"",""825668""
","""event"",""trial"",""time""
""blur"",""102"",""734972""
""blur"",""107"",""821436""
","""event"",""trial"",""time""
""focus"",""102"",""738505""
""focus"",""107"",""825668""
","""event"",""trial"",""time""
""fullscreenenter"",""1"",""1942""
","
","","[{""page_index"":0,""viewing_time"":1495.2000000029802}]","1496","","","","","","","","","","","","","","","","","","","","","","","",""
"pit-comprehension","113","860893","0.0-2.0-25.0-0.0","battery-v0.2","","""event"",""trial"",""time""
""fullscreenenter"",""1"",""1942""
""blur"",""102"",""734972""
""focus"",""102"",""738505""
""blur"",""107"",""821436""
""focus"",""107"",""825668""
","""event"",""trial"",""time""
""blur"",""102"",""734972""
""blur"",""107"",""821436""
","""event"",""trial"",""time""
""focus"",""102"",""738505""
""focus"",""107"",""825668""
","""event"",""trial"",""time""
""fullscreenenter"",""1"",""1942""
","
","","","6418.79999999702","[""True""]","0","11","20929","6281","","","","","","","","","","","","","","","","","","",""
"pit-instructions","114","862535","0.0-2.0-25.0-1.0","battery-v0.2","","""event"",""trial"",""time""
""fullscreenenter"",""1"",""1942""
""blur"",""102"",""734972""
""focus"",""102"",""738505""
""blur"",""107"",""821436""
""focus"",""107"",""825668""
","""event"",""trial"",""time""
""blur"",""102"",""734972""
""blur"",""107"",""821436""
","""event"",""trial"",""time""
""focus"",""102"",""738505""
""focus"",""107"",""825668""
","""event"",""trial"",""time""
""fullscreenenter"",""1"",""1942""
","
","","[{""page_index"":0,""viewing_time"":1587.1000000089407}]","1587.6000000089407","","","","","","","","","","","","","","","","","","","","","","","",""
"pit-comprehension","115","867128","0.0-2.0-26.0-0.0","battery-v0.2","","""event"",""trial"",""time""
""fullscreenenter"",""1"",""1942""
""blur"",""102"",""734972""
""focus"",""102"",""738505""
""blur"",""107"",""821436""
""focus"",""107"",""825668""
","""event"",""trial"",""time""
""blur"",""102"",""734972""
""blur"",""107"",""821436""
","""event"",""trial"",""time""
""focus"",""102"",""738505""
""focus"",""107"",""825668""
","""event"",""trial"",""time""
""fullscreenenter"",""1"",""1942""
","
","","","4587.79999999702","[""False""]","0","11","20929","6281","","","","","","","","","","","","","","","","","","",""
"pit-instructions","116","868866","0.0-2.0-26.0-1.0","battery-v0.2","","""event"",""trial"",""time""
""fullscreenenter"",""1"",""1942""
""blur"",""102"",""734972""
""focus"",""102"",""738505""
""blur"",""107"",""821436""
""focus"",""107"",""825668""
","""event"",""trial"",""time""
""blur"",""102"",""734972""
""blur"",""107"",""821436""
","""event"",""trial"",""time""
""focus"",""102"",""738505""
""focus"",""107"",""825668""
","""event"",""trial"",""time""
""fullscreenenter"",""1"",""1942""
","
","","[{""page_index"":0,""viewing_time"":1666.2000000029802}]","1666.7999999970198","","","","","","","","","","","","","","","","","","","","","","","",""
"pit-instructions","117","885631","0.0-3.0","battery-v0.2","","""event"",""trial"",""time""
""fullscreenenter"",""1"",""1942""
""blur"",""102"",""734972""
""focus"",""102"",""738505""
""blur"",""107"",""821436""
""focus"",""107"",""825668""
","""event"",""trial"",""time""
""blur"",""102"",""734972""
""blur"",""107"",""821436""
","""event"",""trial"",""time""
""focus"",""102"",""738505""
""focus"",""107"",""825668""
","""event"",""trial"",""time""
""fullscreenenter"",""1"",""1942""
","
","","[{""page_index"":0,""viewing_time"":5225.9000000059605},{""page_index"":1,""viewing_time"":5151.5999999940395},{""page_index"":2,""viewing_time"":6384}]","16761.90000000596","","","","","","","","","","","","","","","","","","","","","","","",""
"pit-trial","118","889081","0.0-4.0","battery-v0.2","","""event"",""trial"",""time""
""fullscreenenter"",""1"",""1942""
""blur"",""102"",""734972""
""focus"",""102"",""738505""
""blur"",""107"",""821436""
""focus"",""107"",""825668""
","""event"",""trial"",""time""
""blur"",""102"",""734972""
""blur"",""107"",""821436""
","""event"",""trial"",""time""
""focus"",""102"",""738505""
""focus"",""107"",""825668""
","""event"",""trial"",""time""
""fullscreenenter"",""1"",""1942""
","
","","","582.9000000059605","","","11","20929","6281","&#9728;","elianto","#f73b6a7A","-1"," ","0","-10","[1434.2999999970198]","1","1","","","20929","1","0","4","lose","no-go","0"
"pit-trial","119","892277","0.0-5.0","battery-v0.2","","""event"",""trial"",""time""
""fullscreenenter"",""1"",""1942""
""blur"",""102"",""734972""
""focus"",""102"",""738505""
""blur"",""107"",""821436""
""focus"",""107"",""825668""
","""event"",""trial"",""time""
""blur"",""102"",""734972""
""blur"",""107"",""821436""
","""event"",""trial"",""time""
""focus"",""102"",""738505""
""focus"",""107"",""825668""
","""event"",""trial"",""time""
""fullscreenenter"",""1"",""1942""
","
","","","336.69999998807907","","","11","20929","6281","&#9752;","elianto","#f73b6a7A"," "," ","1","0","[1191]","1","1","","","20929","2","3","3","lose","go","0"
"pit-trial","120","895912","0.0-6.0","battery-v0.2","","""event"",""trial"",""time""
""fullscreenenter"",""1"",""1942""
""blur"",""102"",""734972""
""focus"",""102"",""738505""
""blur"",""107"",""821436""
""focus"",""107"",""825668""
","""event"",""trial"",""time""
""blur"",""102"",""734972""
""blur"",""107"",""821436""
","""event"",""trial"",""time""
""focus"",""102"",""738505""
""focus"",""107"",""825668""
","""event"",""trial"",""time""
""fullscreenenter"",""1"",""1942""
","
","","","771.3999999910593","","","11","20929","6281","&#9733;","elianto","#3366ff99","-1"," ","0","0","[1625]","1","1","","","20929","3","2","2","win","no-go","0"
"pit-trial","121","900052","0.0-7.0","battery-v0.2","","""event"",""trial"",""time""
""fullscreenenter"",""1"",""1942""
""blur"",""102"",""734972""
""focus"",""102"",""738505""
""blur"",""107"",""821436""
""focus"",""107"",""825668""
","""event"",""trial"",""time""
""blur"",""102"",""734972""
""blur"",""107"",""821436""
","""event"",""trial"",""time""
""focus"",""102"",""738505""
""focus"",""107"",""825668""
","""event"",""trial"",""time""
""fullscreenenter"",""1"",""1942""
","
","","","1283.5","","","11","20929","6281","&#9730;","elianto","#3366ff99"," "," ","1","+10","[2135.5999999940395]","1","1","","","20929","4","1","1","win","go","0"
"pit-trial","122","904921","0.0-8.0","battery-v0.2","","""event"",""trial"",""time""
""fullscreenenter"",""1"",""1942""
""blur"",""102"",""734972""
""focus"",""102"",""738505""
""blur"",""107"",""821436""
""focus"",""107"",""825668""
","""event"",""trial"",""time""
""blur"",""102"",""734972""
""blur"",""107"",""821436""
","""event"",""trial"",""time""
""focus"",""102"",""738505""
""focus"",""107"",""825668""
","""event"",""trial"",""time""
""fullscreenenter"",""1"",""1942""
","
","","","-1","","","11","20929","6281","&#9728;","elianto","#f73b6a7A","-1","-1","1","0","[]","0","1","","","20929","5","0","4","lose","no-go","0"
"pit-trial","123","908388","0.0-9.0","battery-v0.2","","""event"",""trial"",""time""
""fullscreenenter"",""1"",""1942""
""blur"",""102"",""734972""
""focus"",""102"",""738505""
""blur"",""107"",""821436""
""focus"",""107"",""825668""
","""event"",""trial"",""time""
""blur"",""102"",""734972""
""blur"",""107"",""821436""
","""event"",""trial"",""time""
""focus"",""102"",""738505""
""focus"",""107"",""825668""
","""event"",""trial"",""time""
""fullscreenenter"",""1"",""1942""
","
","","","610.6000000089407","","","11","20929","6281","&#9730;","elianto","#3366ff99"," "," ","1","+10","[1459.2000000029802]","1","1","","","20929","6","1","1","win","go","0"
"pit-trial","124","911787","0.0-10.0","battery-v0.2","","""event"",""trial"",""time""
""fullscreenenter"",""1"",""1942""
""blur"",""102"",""734972""
""focus"",""102"",""738505""
""blur"",""107"",""821436""
""focus"",""107"",""825668""
","""event"",""trial"",""time""
""blur"",""102"",""734972""
""blur"",""107"",""821436""
","""event"",""trial"",""time""
""focus"",""102"",""738505""
""focus"",""107"",""825668""
","""event"",""trial"",""time""
""fullscreenenter"",""1"",""1942""
","
","","","534.7000000029802","","","11","20929","6281","&#9733;","elianto","#3366ff99","-1"," ","0","0","[1390.7999999970198]","1","1","","","20929","7","2","2","win","no-go","0"
"pit-trial","125","915848","0.0-11.0","battery-v0.2","","""event"",""trial"",""time""
""fullscreenenter"",""1"",""1942""
""blur"",""102"",""734972""
""focus"",""102"",""738505""
""blur"",""107"",""821436""
""focus"",""107"",""825668""
","""event"",""trial"",""time""
""blur"",""102"",""734972""
""blur"",""107"",""821436""
","""event"",""trial"",""time""
""focus"",""102"",""738505""
""focus"",""107"",""825668""
","""event"",""trial"",""time""
""fullscreenenter"",""1"",""1942""
","
","","","1198.7999999970198","","","11","20929","6281","&#9752;","elianto","#f73b6a7A"," "," ","1","-10","[2058.4000000059605]","1","1","","","20929","8","3","3","lose","go","1"
"pit-trial","126","920716","0.0-12.0","battery-v0.2","","""event"",""trial"",""time""
""fullscreenenter"",""1"",""1942""
""blur"",""102"",""734972""
""focus"",""102"",""738505""
""blur"",""107"",""821436""
""focus"",""107"",""825668""
","""event"",""trial"",""time""
""blur"",""102"",""734972""
""blur"",""107"",""821436""
","""event"",""trial"",""time""
""focus"",""102"",""738505""
""focus"",""107"",""825668""
","""event"",""trial"",""time""
""fullscreenenter"",""1"",""1942""
","
","","","-1","","","11","20929","6281","&#9728;","elianto","#f73b6a7A","-1","-1","1","0","[3145.0999999940395]","1","1","","","20929","9","0","4","lose","no-go","0"
"pit-trial","127","924735","0.0-13.0","battery-v0.2","","""event"",""trial"",""time""
""fullscreenenter"",""1"",""1942""
""blur"",""102"",""734972""
""focus"",""102"",""738505""
""blur"",""107"",""821436""
""focus"",""107"",""825668""
","""event"",""trial"",""time""
""blur"",""102"",""734972""
""blur"",""107"",""821436""
","""event"",""trial"",""time""
""focus"",""102"",""738505""
""focus"",""107"",""825668""
","""event"",""trial"",""time""
""fullscreenenter"",""1"",""1942""
","
","","","1155.8999999910593","","","11","20929","6281","&#9752;","elianto","#f73b6a7A"," "," ","1","0","[2008.3999999910593]","1","1","","","20929","10","3","3","lose","go","0"
"pit-trial","128","928660","0.0-14.0","battery-v0.2","","""event"",""trial"",""time""
""fullscreenenter"",""1"",""1942""
""blur"",""102"",""734972""
""focus"",""102"",""738505""
""blur"",""107"",""821436""
""focus"",""107"",""825668""
","""event"",""trial"",""time""
""blur"",""102"",""734972""
""blur"",""107"",""821436""
","""event"",""trial"",""time""
""focus"",""102"",""738505""
""focus"",""107"",""825668""
","""event"",""trial"",""time""
""fullscreenenter"",""1"",""1942""
","
","","","1071.5999999940395","","","11","20929","6281","&#9730;","elianto","#3366ff99"," "," ","1","+10","[1921.7000000029802]","1","1","","","20929","11","1","1","win","go","0"
"pit-trial","129","933532","0.0-15.0","battery-v0.2","","""event"",""trial"",""time""
""fullscreenenter"",""1"",""1942""
""blur"",""102"",""734972""
""focus"",""102"",""738505""
""blur"",""107"",""821436""
""focus"",""107"",""825668""
","""event"",""trial"",""time""
""blur"",""102"",""734972""
""blur"",""107"",""821436""
","""event"",""trial"",""time""
""focus"",""102"",""738505""
""focus"",""107"",""825668""
","""event"",""trial"",""time""
""fullscreenenter"",""1"",""1942""
","
","","","-1","","","11","20929","6281","&#9733;","elianto","#3366ff99","-1","-1","1","0","[]","0","1","","","20929","12","2","2","win","no-go","1"
"pit-trial","130","937183","0.0-16.0","battery-v0.2","","""event"",""trial"",""time""
""fullscreenenter"",""1"",""1942""
""blur"",""102"",""734972""
""focus"",""102"",""738505""
""blur"",""107"",""821436""
""focus"",""107"",""825668""
","""event"",""trial"",""time""
""blur"",""102"",""734972""
""blur"",""107"",""821436""
","""event"",""trial"",""time""
""focus"",""102"",""738505""
""focus"",""107"",""825668""
","""event"",""trial"",""time""
""fullscreenenter"",""1"",""1942""
","
","","","790.5","","","11","20929","6281","&#9730;","elianto","#3366ff99"," "," ","1","+10","[1643.7999999970198]","1","1","","","20929","13","1","1","win","go","0"
"pit-trial","131","941025","0.0-17.0","battery-v0.2","","""event"",""trial"",""time""
""fullscreenenter"",""1"",""1942""
""blur"",""102"",""734972""
""focus"",""102"",""738505""
""blur"",""107"",""821436""
""focus"",""107"",""825668""
","""event"",""trial"",""time""
""blur"",""102"",""734972""
""blur"",""107"",""821436""
","""event"",""trial"",""time""
""focus"",""102"",""738505""
""focus"",""107"",""825668""
","""event"",""trial"",""time""
""fullscreenenter"",""1"",""1942""
","
","","","982.8999999910593","","","11","20929","6281","&#9733;","elianto","#3366ff99","-1"," ","0","0","[1833.699999988079]","1","1","","","20929","14","2","2","win","no-go","0"
"pit-trial","132","945887","0.0-18.0","battery-v0.2","","""event"",""trial"",""time""
""fullscreenenter"",""1"",""1942""
""blur"",""102"",""734972""
""focus"",""102"",""738505""
""blur"",""107"",""821436""
""focus"",""107"",""825668""
","""event"",""trial"",""time""
""blur"",""102"",""734972""
""blur"",""107"",""821436""
","""event"",""trial"",""time""
""focus"",""102"",""738505""
""focus"",""107"",""825668""
","""event"",""trial"",""time""
""fullscreenenter"",""1"",""1942""
","
","","","-1","","","11","20929","6281","&#9728;","elianto","#f73b6a7A","-1","-1","1","-10","[3150.2999999970198]","1","1","","","20929","15","0","4","lose","no-go","1"
"pit-trial","133","949905","0.0-19.0","battery-v0.2","","""event"",""trial"",""time""
""fullscreenenter"",""1"",""1942""
""blur"",""102"",""734972""
""focus"",""102"",""738505""
""blur"",""107"",""821436""
""focus"",""107"",""825668""
","""event"",""trial"",""time""
""blur"",""102"",""734972""
""blur"",""107"",""821436""
","""event"",""trial"",""time""
""focus"",""102"",""738505""
""focus"",""107"",""825668""
","""event"",""trial"",""time""
""fullscreenenter"",""1"",""1942""
","
","","","1162.2999999970198","","","11","20929","6281","&#9752;","elianto","#f73b6a7A"," "," ","1","0","[2013.4000000059605]","1","1","","","20929","16","3","3","lose","go","0"
"pit-trial","134","954775","0.0-20.0","battery-v0.2","","""event"",""trial"",""time""
""fullscreenenter"",""1"",""1942""
""blur"",""102"",""734972""
""focus"",""102"",""738505""
""blur"",""107"",""821436""
""focus"",""107"",""825668""
","""event"",""trial"",""time""
""blur"",""102"",""734972""
""blur"",""107"",""821436""
","""event"",""trial"",""time""
""focus"",""102"",""738505""
""focus"",""107"",""825668""
","""event"",""trial"",""time""
""fullscreenenter"",""1"",""1942""
","
","","","-1","","","11","20929","6281","&#9728;","elianto","#f73b6a7A","-1","-1","1","0","[]","0","1","","","20929","17","0","4","lose","no-go","0"
"pit-trial","135","958817","0.0-21.0","battery-v0.2","","""event"",""trial"",""time""
""fullscreenenter"",""1"",""1942""
""blur"",""102"",""734972""
""focus"",""102"",""738505""
""blur"",""107"",""821436""
""focus"",""107"",""825668""
","""event"",""trial"",""time""
""blur"",""102"",""734972""
""blur"",""107"",""821436""
","""event"",""trial"",""time""
""focus"",""102"",""738505""
""focus"",""107"",""825668""
","""event"",""trial"",""time""
""fullscreenenter"",""1"",""1942""
","
","","","1167.0999999940395","","","11","20929","6281","&#9752;","elianto","#f73b6a7A"," "," ","1","0","[2022.9000000059605]","1","1","","","20929","18","3","3","lose","go","0"
"pit-trial","136","962843","0.0-22.0","battery-v0.2","","""event"",""trial"",""time""
""fullscreenenter"",""1"",""1942""
""blur"",""102"",""734972""
""focus"",""102"",""738505""
""blur"",""107"",""821436""
""focus"",""107"",""825668""
","""event"",""trial"",""time""
""blur"",""102"",""734972""
""blur"",""107"",""821436""
","""event"",""trial"",""time""
""focus"",""102"",""738505""
""focus"",""107"",""825668""
","""event"",""trial"",""time""
""fullscreenenter"",""1"",""1942""
","
","","","1167","","","11","20929","6281","&#9730;","elianto","#3366ff99"," "," ","1","+10","[2018.300000011921]","1","1","","","20929","19","1","1","win","go","0"
"pit-trial","137","967705","0.0-23.0","battery-v0.2","","""event"",""trial"",""time""
""fullscreenenter"",""1"",""1942""
""blur"",""102"",""734972""
""focus"",""102"",""738505""
""blur"",""107"",""821436""
""focus"",""107"",""825668""
","""event"",""trial"",""time""
""blur"",""102"",""734972""
""blur"",""107"",""821436""
","""event"",""trial"",""time""
""focus"",""102"",""738505""
""focus"",""107"",""825668""
","""event"",""trial"",""time""
""fullscreenenter"",""1"",""1942""
","
","","","-1","","","11","20929","6281","&#9733;","elianto","#3366ff99","-1","-1","1","+10","[266.59999999403954]","1","1","","","20929","20","2","2","win","no-go","0"
"pit-instructions","138","983633","0.0-24.0","battery-v0.2","","""event"",""trial"",""time""
""fullscreenenter"",""1"",""1942""
""blur"",""102"",""734972""
""focus"",""102"",""738505""
""blur"",""107"",""821436""
""focus"",""107"",""825668""
","""event"",""trial"",""time""
""blur"",""102"",""734972""
""blur"",""107"",""821436""
","""event"",""trial"",""time""
""focus"",""102"",""738505""
""focus"",""107"",""825668""
","""event"",""trial"",""time""
""fullscreenenter"",""1"",""1942""
","
","","[{""page_index"":0,""viewing_time"":8933},{""page_index"":1,""viewing_time"":6993.800000011921}]","15927.40000000596","","","","","","","","","","","","","","","","","","","","","","","",""
"pit-trial","139","987307","0.0-25.0","battery-v0.2","","""event"",""trial"",""time""
""fullscreenenter"",""1"",""1942""
""blur"",""102"",""734972""
""focus"",""102"",""738505""
""blur"",""107"",""821436""
""focus"",""107"",""825668""
","""event"",""trial"",""time""
""blur"",""102"",""734972""
""blur"",""107"",""821436""
","""event"",""trial"",""time""
""focus"",""102"",""738505""
""focus"",""107"",""825668""
","""event"",""trial"",""time""
""fullscreenenter"",""1"",""1942""
","
","","","800.5999999940395","","","11","20929","6281","u","elianto","#f73b6a7A"," "," ","1","0","[1660.1000000089407]","1","2","","","20929","21","0","3","lose","go","0"
"pit-trial","140","991092","0.0-26.0","battery-v0.2","","""event"",""trial"",""time""
""fullscreenenter"",""1"",""1942""
""blur"",""102"",""734972""
""focus"",""102"",""738505""
""blur"",""107"",""821436""
""focus"",""107"",""825668""
","""event"",""trial"",""time""
""blur"",""102"",""734972""
""blur"",""107"",""821436""
","""event"",""trial"",""time""
""focus"",""102"",""738505""
""focus"",""107"",""825668""
","""event"",""trial"",""time""
""fullscreenenter"",""1"",""1942""
","
","","","911.7000000029802","","","11","20929","6281","a","elianto","#f73b6a7A"," "," ","1","0","[1768.4000000059605]","1","2","","","20929","22","2","3","lose","go","0"
"pit-trial","141","994565","0.0-27.0","battery-v0.2","","""event"",""trial"",""time""
""fullscreenenter"",""1"",""1942""
""blur"",""102"",""734972""
""focus"",""102"",""738505""
""blur"",""107"",""821436""
""focus"",""107"",""825668""
","""event"",""trial"",""time""
""blur"",""102"",""734972""
""blur"",""107"",""821436""
","""event"",""trial"",""time""
""focus"",""102"",""738505""
""focus"",""107"",""825668""
","""event"",""trial"",""time""
""fullscreenenter"",""1"",""1942""
","
","","","602.5","","","11","20929","6281","g","elianto","#f73b6a7A","-1"," ","0","-10","[1456.9000000059605]","1","2","","","20929","23","3","4","lose","no-go","0"
"pit-trial","142","998345","0.0-28.0","battery-v0.2","","""event"",""trial"",""time""
""fullscreenenter"",""1"",""1942""
""blur"",""102"",""734972""
""focus"",""102"",""738505""
""blur"",""107"",""821436""
""focus"",""107"",""825668""
","""event"",""trial"",""time""
""blur"",""102"",""734972""
""blur"",""107"",""821436""
","""event"",""trial"",""time""
""focus"",""102"",""738505""
""focus"",""107"",""825668""
","""event"",""trial"",""time""
""fullscreenenter"",""1"",""1942""
","
","","","911.2000000029802","","","11","20929","6281","l","elianto","#3366ff99","-1"," ","0","0","[1764.2000000029802]","1","2","","","20929","24","1","2","win","no-go","0"
"pit-trial","143","1003209","0.0-29.0","battery-v0.2","","""event"",""trial"",""time""
""fullscreenenter"",""1"",""1942""
""blur"",""102"",""734972""
""focus"",""102"",""738505""
""blur"",""107"",""821436""
""focus"",""107"",""825668""
","""event"",""trial"",""time""
""blur"",""102"",""734972""
""blur"",""107"",""821436""
","""event"",""trial"",""time""
""focus"",""102"",""738505""
""focus"",""107"",""825668""
","""event"",""trial"",""time""
""fullscreenenter"",""1"",""1942""
","
","","","-1","","","11","20929","6281","g","elianto","#f73b6a7A","-1","-1","1","0","[]","0","2","","","20929","25","3","4","lose","no-go","0"
"pit-trial","144","1008082","0.0-30.0","battery-v0.2","","""event"",""trial"",""time""
""fullscreenenter"",""1"",""1942""
""blur"",""102"",""734972""
""focus"",""102"",""738505""
""blur"",""107"",""821436""
""focus"",""107"",""825668""
","""event"",""trial"",""time""
""blur"",""102"",""734972""
""blur"",""107"",""821436""
","""event"",""trial"",""time""
""focus"",""102"",""738505""
""focus"",""107"",""825668""
","""event"",""trial"",""time""
""fullscreenenter"",""1"",""1942""
","
","","","-1","","","11","20929","6281","l","elianto","#3366ff99","-1","-1","1","+10","[]","0","2","","","20929","26","1","2","win","no-go","0"
"pit-trial","145","1012054","0.0-31.0","battery-v0.2","","""event"",""trial"",""time""
""fullscreenenter"",""1"",""1942""
""blur"",""102"",""734972""
""focus"",""102"",""738505""
""blur"",""107"",""821436""
""focus"",""107"",""825668""
","""event"",""trial"",""time""
""blur"",""102"",""734972""
""blur"",""107"",""821436""
","""event"",""trial"",""time""
""focus"",""102"",""738505""
""focus"",""107"",""825668""
","""event"",""trial"",""time""
""fullscreenenter"",""1"",""1942""
","
","","","1115.4000000059605","","","11","20929","6281","a","elianto","#f73b6a7A"," "," ","1","0","[1966.7000000029802]","1","2","","","20929","27","2","3","lose","go","0"
"pit-trial","146","1015792","0.0-32.0","battery-v0.2","","""event"",""trial"",""time""
""fullscreenenter"",""1"",""1942""
""blur"",""102"",""734972""
""focus"",""102"",""738505""
""blur"",""107"",""821436""
""focus"",""107"",""825668""
","""event"",""trial"",""time""
""blur"",""102"",""734972""
""blur"",""107"",""821436""
","""event"",""trial"",""time""
""focus"",""102"",""738505""
""focus"",""107"",""825668""
","""event"",""trial"",""time""
""fullscreenenter"",""1"",""1942""
","
","","","861.5","","","11","20929","6281","u","elianto","#f73b6a7A"," "," ","1","0","[1720.2999999970198]","1","2","","","20929","28","0","3","lose","go","0"
"pit-trial","147","1020662","0.0-33.0","battery-v0.2","","""event"",""trial"",""time""
""fullscreenenter"",""1"",""1942""
""blur"",""102"",""734972""
""focus"",""102"",""738505""
""blur"",""107"",""821436""
""focus"",""107"",""825668""
","""event"",""trial"",""time""
""blur"",""102"",""734972""
""blur"",""107"",""821436""
","""event"",""trial"",""time""
""focus"",""102"",""738505""
""focus"",""107"",""825668""
","""event"",""trial"",""time""
""fullscreenenter"",""1"",""1942""
","
","","","-1","","","11","20929","6281","g","elianto","#f73b6a7A","-1","-1","1","-10","[]","0","2","","","20929","29","3","4","lose","no-go","1"
"pit-trial","148","1024528","0.0-34.0","battery-v0.2","","""event"",""trial"",""time""
""fullscreenenter"",""1"",""1942""
""blur"",""102"",""734972""
""focus"",""102"",""738505""
""blur"",""107"",""821436""
""focus"",""107"",""825668""
","""event"",""trial"",""time""
""blur"",""102"",""734972""
""blur"",""107"",""821436""
","""event"",""trial"",""time""
""focus"",""102"",""738505""
""focus"",""107"",""825668""
","""event"",""trial"",""time""
""fullscreenenter"",""1"",""1942""
","
","","","1007.7000000029802","","","11","20929","6281","l","elianto","#3366ff99","-1"," ","0","0","[1860.2999999970198]","1","2","","","20929","30","1","2","win","no-go","0"
"pit-trial","149","1028697","0.0-35.0","battery-v0.2","","""event"",""trial"",""time""
""fullscreenenter"",""1"",""1942""
""blur"",""102"",""734972""
""focus"",""102"",""738505""
""blur"",""107"",""821436""
""focus"",""107"",""825668""
","""event"",""trial"",""time""
""blur"",""102"",""734972""
""blur"",""107"",""821436""
","""event"",""trial"",""time""
""focus"",""102"",""738505""
""focus"",""107"",""825668""
","""event"",""trial"",""time""
""fullscreenenter"",""1"",""1942""
","
","","","1305.8999999910593","","","11","20929","6281","a","elianto","#f73b6a7A"," "," ","1","0","[2160]","1","2","","","20929","31","2","3","lose","go","0"
"pit-trial","150","1032562","0.0-36.0","battery-v0.2","","""event"",""trial"",""time""
""fullscreenenter"",""1"",""1942""
""blur"",""102"",""734972""
""focus"",""102"",""738505""
""blur"",""107"",""821436""
""focus"",""107"",""825668""
","""event"",""trial"",""time""
""blur"",""102"",""734972""
""blur"",""107"",""821436""
","""event"",""trial"",""time""
""focus"",""102"",""738505""
""focus"",""107"",""825668""
","""event"",""trial"",""time""
""fullscreenenter"",""1"",""1942""
","
","","","1005.7999999970198","","","11","20929","6281","u","elianto","#f73b6a7A"," "," ","1","-10","[1857.0999999940395]","1","2","","","20929","32","0","3","lose","go","1"
"pit-trial","151","1036342","0.0-37.0","battery-v0.2","","""event"",""trial"",""time""
""fullscreenenter"",""1"",""1942""
""blur"",""102"",""734972""
""focus"",""102"",""738505""
""blur"",""107"",""821436""
""focus"",""107"",""825668""
","""event"",""trial"",""time""
""blur"",""102"",""734972""
""blur"",""107"",""821436""
","""event"",""trial"",""time""
""focus"",""102"",""738505""
""focus"",""107"",""825668""
","""event"",""trial"",""time""
""fullscreenenter"",""1"",""1942""
","
","","","920.8999999910593","","","11","20929","6281","a","elianto","#f73b6a7A"," "," ","1","0","[1773.2000000029802]","1","2","","","20929","33","2","3","lose","go","0"
"pit-trial","152","1041211","0.0-38.0","battery-v0.2","","""event"",""trial"",""time""
""fullscreenenter"",""1"",""1942""
""blur"",""102"",""734972""
""focus"",""102"",""738505""
""blur"",""107"",""821436""
""focus"",""107"",""825668""
","""event"",""trial"",""time""
""blur"",""102"",""734972""
""blur"",""107"",""821436""
","""event"",""trial"",""time""
""focus"",""102"",""738505""
""focus"",""107"",""825668""
","""event"",""trial"",""time""
""fullscreenenter"",""1"",""1942""
","
","","","-1","","","11","20929","6281","l","elianto","#3366ff99","-1","-1","1","+10","[]","0","2","","","20929","34","1","2","win","no-go","0"
"pit-trial","153","1045233","0.0-39.0","battery-v0.2","","""event"",""trial"",""time""
""fullscreenenter"",""1"",""1942""
""blur"",""102"",""734972""
""focus"",""102"",""738505""
""blur"",""107"",""821436""
""focus"",""107"",""825668""
","""event"",""trial"",""time""
""blur"",""102"",""734972""
""blur"",""107"",""821436""
","""event"",""trial"",""time""
""focus"",""102"",""738505""
""focus"",""107"",""825668""
","""event"",""trial"",""time""
""fullscreenenter"",""1"",""1942""
","
","","","1155.5","","","11","20929","6281","u","elianto","#f73b6a7A"," "," ","1","0","[2009.5]","1","2","","","20929","35","0","3","lose","go","0"
"pit-trial","154","1050103","0.0-40.0","battery-v0.2","","""event"",""trial"",""time""
""fullscreenenter"",""1"",""1942""
""blur"",""102"",""734972""
""focus"",""102"",""738505""
""blur"",""107"",""821436""
""focus"",""107"",""825668""
","""event"",""trial"",""time""
""blur"",""102"",""734972""
""blur"",""107"",""821436""
","""event"",""trial"",""time""
""focus"",""102"",""738505""
""focus"",""107"",""825668""
","""event"",""trial"",""time""
""fullscreenenter"",""1"",""1942""
","
","","","-1","","","11","20929","6281","g","elianto","#f73b6a7A","-1","-1","1","0","[]","0","2","","","20929","36","3","4","lose","no-go","0"
"pit-trial","155","1054070","0.0-41.0","battery-v0.2","","""event"",""trial"",""time""
""fullscreenenter"",""1"",""1942""
""blur"",""102"",""734972""
""focus"",""102"",""738505""
""blur"",""107"",""821436""
""focus"",""107"",""825668""
","""event"",""trial"",""time""
""blur"",""102"",""734972""
""blur"",""107"",""821436""
","""event"",""trial"",""time""
""focus"",""102"",""738505""
""focus"",""107"",""825668""
","""event"",""trial"",""time""
""fullscreenenter"",""1"",""1942""
","
","","","1104","","","11","20929","6281","u","elianto","#f73b6a7A"," "," ","1","-10","[1956.2000000029802]","1","2","","","20929","37","0","3","lose","go","1"
"pit-trial","156","1058003","0.0-42.0","battery-v0.2","","""event"",""trial"",""time""
""fullscreenenter"",""1"",""1942""
""blur"",""102"",""734972""
""focus"",""102"",""738505""
""blur"",""107"",""821436""
""focus"",""107"",""825668""
","""event"",""trial"",""time""
""blur"",""102"",""734972""
""blur"",""107"",""821436""
","""event"",""trial"",""time""
""focus"",""102"",""738505""
""focus"",""107"",""825668""
","""event"",""trial"",""time""
""fullscreenenter"",""1"",""1942""
","
","","","1078.6000000089407","","","11","20929","6281","a","elianto","#f73b6a7A"," "," ","1","0","[1929.0999999940395]","1","2","","","20929","38","2","3","lose","go","0"
"pit-trial","157","1062861","0.0-43.0","battery-v0.2","","""event"",""trial"",""time""
""fullscreenenter"",""1"",""1942""
""blur"",""102"",""734972""
""focus"",""102"",""738505""
""blur"",""107"",""821436""
""focus"",""107"",""825668""
","""event"",""trial"",""time""
""blur"",""102"",""734972""
""blur"",""107"",""821436""
","""event"",""trial"",""time""
""focus"",""102"",""738505""
""focus"",""107"",""825668""
","""event"",""trial"",""time""
""fullscreenenter"",""1"",""1942""
","
","","","-1","","","11","20929","6281","g","elianto","#f73b6a7A","-1","-1","1","-10","[]","0","2","","","20929","39","3","4","lose","no-go","1"
"pit-trial","158","1066478","0.0-44.0","battery-v0.2","","""event"",""trial"",""time""
""fullscreenenter"",""1"",""1942""
""blur"",""102"",""734972""
""focus"",""102"",""738505""
""blur"",""107"",""821436""
""focus"",""107"",""825668""
","""event"",""trial"",""time""
""blur"",""102"",""734972""
""blur"",""107"",""821436""
","""event"",""trial"",""time""
""focus"",""102"",""738505""
""focus"",""107"",""825668""
","""event"",""trial"",""time""
""fullscreenenter"",""1"",""1942""
","
","","","759.6000000089407","","","11","20929","6281","l","elianto","#3366ff99","-1"," ","0","0","[1610.5]","1","2","","","20929","40","1","2","win","no-go","0"
"pit-trial","159","1070569","0.0-45.0","battery-v0.2","","""event"",""trial"",""time""
""fullscreenenter"",""1"",""1942""
""blur"",""102"",""734972""
""focus"",""102"",""738505""
""blur"",""107"",""821436""
""focus"",""107"",""825668""
","""event"",""trial"",""time""
""blur"",""102"",""734972""
""blur"",""107"",""821436""
","""event"",""trial"",""time""
""focus"",""102"",""738505""
""focus"",""107"",""825668""
","""event"",""trial"",""time""
""fullscreenenter"",""1"",""1942""
","
","","","1229.1000000089407","","","11","20929","6281","a","elianto","#f73b6a7A"," "," ","1","0","[2084.2000000029802]","1","2","","","20929","41","2","3","lose","go","0"
"pit-trial","160","1074178","0.0-46.0","battery-v0.2","","""event"",""trial"",""time""
""fullscreenenter"",""1"",""1942""
""blur"",""102"",""734972""
""focus"",""102"",""738505""
""blur"",""107"",""821436""
""focus"",""107"",""825668""
","""event"",""trial"",""time""
""blur"",""102"",""734972""
""blur"",""107"",""821436""
","""event"",""trial"",""time""
""focus"",""102"",""738505""
""focus"",""107"",""825668""
","""event"",""trial"",""time""
""fullscreenenter"",""1"",""1942""
","
","","","747.0999999940395","","","11","20929","6281","u","elianto","#f73b6a7A"," "," ","1","0","[1598]","1","2","","","20929","42","0","3","lose","go","0"
"pit-trial","161","1079050","0.0-47.0","battery-v0.2","","""event"",""trial"",""time""
""fullscreenenter"",""1"",""1942""
""blur"",""102"",""734972""
""focus"",""102"",""738505""
""blur"",""107"",""821436""
""focus"",""107"",""825668""
","""event"",""trial"",""time""
""blur"",""102"",""734972""
""blur"",""107"",""821436""
","""event"",""trial"",""time""
""focus"",""102"",""738505""
""focus"",""107"",""825668""
","""event"",""trial"",""time""
""fullscreenenter"",""1"",""1942""
","
","","","-1","","","11","20929","6281","g","elianto","#f73b6a7A","-1","-1","1","0","[]","0","2","","","20929","43","3","4","lose","no-go","0"
"pit-trial","162","1083925","0.0-48.0","battery-v0.2","","""event"",""trial"",""time""
""fullscreenenter"",""1"",""1942""
""blur"",""102"",""734972""
""focus"",""102"",""738505""
""blur"",""107"",""821436""
""focus"",""107"",""825668""
","""event"",""trial"",""time""
""blur"",""102"",""734972""
""blur"",""107"",""821436""
","""event"",""trial"",""time""
""focus"",""102"",""738505""
""focus"",""107"",""825668""
","""event"",""trial"",""time""
""fullscreenenter"",""1"",""1942""
","
","","","-1","","","11","20929","6281","l","elianto","#3366ff99","-1","-1","1","0","[]","0","2","","","20929","44","1","2","win","no-go","1"
"pit-trial","163","1088788","0.0-49.0","battery-v0.2","","""event"",""trial"",""time""
""fullscreenenter"",""1"",""1942""
""blur"",""102"",""734972""
""focus"",""102"",""738505""
""blur"",""107"",""821436""
""focus"",""107"",""825668""
","""event"",""trial"",""time""
""blur"",""102"",""734972""
""blur"",""107"",""821436""
","""event"",""trial"",""time""
""focus"",""102"",""738505""
""focus"",""107"",""825668""
","""event"",""trial"",""time""
""fullscreenenter"",""1"",""1942""
","
","","","-1","","","11","20929","6281","l","elianto","#3366ff99","-1","-1","1","+10","[]","0","2","","","20929","45","1","2","win","no-go","0"
"pit-trial","164","1092671","0.0-50.0","battery-v0.2","","""event"",""trial"",""time""
""fullscreenenter"",""1"",""1942""
""blur"",""102"",""734972""
""focus"",""102"",""738505""
""blur"",""107"",""821436""
""focus"",""107"",""825668""
","""event"",""trial"",""time""
""blur"",""102"",""734972""
""blur"",""107"",""821436""
","""event"",""trial"",""time""
""focus"",""102"",""738505""
""focus"",""107"",""825668""
","""event"",""trial"",""time""
""fullscreenenter"",""1"",""1942""
","
","","","1023.2999999970198","","","11","20929","6281","u","elianto","#f73b6a7A"," "," ","1","0","[1873.4000000059605]","1","2","","","20929","46","0","3","lose","go","0"
"pit-trial","165","1096324","0.0-51.0","battery-v0.2","","""event"",""trial"",""time""
""fullscreenenter"",""1"",""1942""
""blur"",""102"",""734972""
""focus"",""102"",""738505""
""blur"",""107"",""821436""
""focus"",""107"",""825668""
","""event"",""trial"",""time""
""blur"",""102"",""734972""
""blur"",""107"",""821436""
","""event"",""trial"",""time""
""focus"",""102"",""738505""
""focus"",""107"",""825668""
","""event"",""trial"",""time""
""fullscreenenter"",""1"",""1942""
","
","","","794.4000000059605","","","11","20929","6281","a","elianto","#f73b6a7A"," "," ","1","0","[1644.7999999970198]","1","2","","","20929","47","2","3","lose","go","0"
"pit-trial","166","1101183","0.0-52.0","battery-v0.2","","""event"",""trial"",""time""
""fullscreenenter"",""1"",""1942""
""blur"",""102"",""734972""
""focus"",""102"",""738505""
""blur"",""107"",""821436""
""focus"",""107"",""825668""
","""event"",""trial"",""time""
""blur"",""102"",""734972""
""blur"",""107"",""821436""
","""event"",""trial"",""time""
""focus"",""102"",""738505""
""focus"",""107"",""825668""
","""event"",""trial"",""time""
""fullscreenenter"",""1"",""1942""
","
","","","-1","","","11","20929","6281","g","elianto","#f73b6a7A","-1","-1","1","0","[]","0","2","","","20929","48","3","4","lose","no-go","0"
"pit-trial","167","1106052","0.0-53.0","battery-v0.2","","""event"",""trial"",""time""
""fullscreenenter"",""1"",""1942""
""blur"",""102"",""734972""
""focus"",""102"",""738505""
""blur"",""107"",""821436""
""focus"",""107"",""825668""
","""event"",""trial"",""time""
""blur"",""102"",""734972""
""blur"",""107"",""821436""
","""event"",""trial"",""time""
""focus"",""102"",""738505""
""focus"",""107"",""825668""
","""event"",""trial"",""time""
""fullscreenenter"",""1"",""1942""
","
","","","-1","","","11","20929","6281","g","elianto","#f73b6a7A","-1","-1","1","-10","[]","0","2","","","20929","49","3","4","lose","no-go","1"
"pit-trial","168","1109933","0.0-54.0","battery-v0.2","","""event"",""trial"",""time""
""fullscreenenter"",""1"",""1942""
""blur"",""102"",""734972""
""focus"",""102"",""738505""
""blur"",""107"",""821436""
""focus"",""107"",""825668""
","""event"",""trial"",""time""
""blur"",""102"",""734972""
""blur"",""107"",""821436""
","""event"",""trial"",""time""
""focus"",""102"",""738505""
""focus"",""107"",""825668""
","""event"",""trial"",""time""
""fullscreenenter"",""1"",""1942""
","
","","","1025.5","","","11","20929","6281","l","elianto","#3366ff99","-1"," ","0","0","[1876.7000000029802]","1","2","","","20929","50","1","2","win","no-go","0"
"pit-trial","169","1113906","0.0-55.0","battery-v0.2","","""event"",""trial"",""time""
""fullscreenenter"",""1"",""1942""
""blur"",""102"",""734972""
""focus"",""102"",""738505""
""blur"",""107"",""821436""
""focus"",""107"",""825668""
","""event"",""trial"",""time""
""blur"",""102"",""734972""
""blur"",""107"",""821436""
","""event"",""trial"",""time""
""focus"",""102"",""738505""
""focus"",""107"",""825668""
","""event"",""trial"",""time""
""fullscreenenter"",""1"",""1942""
","
","","","1118.7999999970198","","","11","20929","6281","u","elianto","#f73b6a7A"," "," ","1","-10","[1968.8999999910593]","1","2","","","20929","51","0","3","lose","go","1"
"pit-trial","170","1117897","0.0-56.0","battery-v0.2","","""event"",""trial"",""time""
""fullscreenenter"",""1"",""1942""
""blur"",""102"",""734972""
""focus"",""102"",""738505""
""blur"",""107"",""821436""
""focus"",""107"",""825668""
","""event"",""trial"",""time""
""blur"",""102"",""734972""
""blur"",""107"",""821436""
","""event"",""trial"",""time""
""focus"",""102"",""738505""
""focus"",""107"",""825668""
","""event"",""trial"",""time""
""fullscreenenter"",""1"",""1942""
","
","","","1136.199999988079","","","11","20929","6281","a","elianto","#f73b6a7A"," "," ","1","0","[1987.5999999940395]","1","2","","","20929","52","2","3","lose","go","0"
"pit-trial","171","1122053","0.0-57.0","battery-v0.2","","""event"",""trial"",""time""
""fullscreenenter"",""1"",""1942""
""blur"",""102"",""734972""
""focus"",""102"",""738505""
""blur"",""107"",""821436""
""focus"",""107"",""825668""
","""event"",""trial"",""time""
""blur"",""102"",""734972""
""blur"",""107"",""821436""
","""event"",""trial"",""time""
""focus"",""102"",""738505""
""focus"",""107"",""825668""
","""event"",""trial"",""time""
""fullscreenenter"",""1"",""1942""
","
","","","1298.8999999910593","","","11","20929","6281","a","elianto","#f73b6a7A"," "," ","1","0","[2152]","1","2","","","20929","53","2","3","lose","go","0"
"pit-trial","172","1126923","0.0-58.0","battery-v0.2","","""event"",""trial"",""time""
""fullscreenenter"",""1"",""1942""
""blur"",""102"",""734972""
""focus"",""102"",""738505""
""blur"",""107"",""821436""
""focus"",""107"",""825668""
","""event"",""trial"",""time""
""blur"",""102"",""734972""
""blur"",""107"",""821436""
","""event"",""trial"",""time""
""focus"",""102"",""738505""
""focus"",""107"",""825668""
","""event"",""trial"",""time""
""fullscreenenter"",""1"",""1942""
","
","","","-1","","","11","20929","6281","g","elianto","#f73b6a7A","-1","-1","1","0","[]","0","2","","","20929","54","3","4","lose","no-go","0"
"pit-trial","173","1131787","0.0-59.0","battery-v0.2","","""event"",""trial"",""time""
""fullscreenenter"",""1"",""1942""
""blur"",""102"",""734972""
""focus"",""102"",""738505""
""blur"",""107"",""821436""
""focus"",""107"",""825668""
","""event"",""trial"",""time""
""blur"",""102"",""734972""
""blur"",""107"",""821436""
","""event"",""trial"",""time""
""focus"",""102"",""738505""
""focus"",""107"",""825668""
","""event"",""trial"",""time""
""fullscreenenter"",""1"",""1942""
","
","","","-1","","","11","20929","6281","l","elianto","#3366ff99","-1","-1","1","+10","[]","0","2","","","20929","55","1","2","win","no-go","0"
"pit-trial","174","1136644","0.0-60.0","battery-v0.2","","""event"",""trial"",""time""
""fullscreenenter"",""1"",""1942""
""blur"",""102"",""734972""
""focus"",""102"",""738505""
""blur"",""107"",""821436""
""focus"",""107"",""825668""
","""event"",""trial"",""time""
""blur"",""102"",""734972""
""blur"",""107"",""821436""
","""event"",""trial"",""time""
""focus"",""102"",""738505""
""focus"",""107"",""825668""
","""event"",""trial"",""time""
""fullscreenenter"",""1"",""1942""
","
","","","-1","","","11","20929","6281","u","elianto","#f73b6a7A"," ","-1","0","-10","[]","0","2","","","20929","56","0","3","lose","go","0"
"pit-trial","175","1141506","0.0-61.0","battery-v0.2","","""event"",""trial"",""time""
""fullscreenenter"",""1"",""1942""
""blur"",""102"",""734972""
""focus"",""102"",""738505""
""blur"",""107"",""821436""
""focus"",""107"",""825668""
","""event"",""trial"",""time""
""blur"",""102"",""734972""
""blur"",""107"",""821436""
","""event"",""trial"",""time""
""focus"",""102"",""738505""
""focus"",""107"",""825668""
","""event"",""trial"",""time""
""fullscreenenter"",""1"",""1942""
","
","","","-1","","","11","20929","6281","g","elianto","#f73b6a7A","-1","-1","1","0","[]","0","2","","","20929","57","3","4","lose","no-go","0"
"pit-trial","176","1146365","0.0-62.0","battery-v0.2","","""event"",""trial"",""time""
""fullscreenenter"",""1"",""1942""
""blur"",""102"",""734972""
""focus"",""102"",""738505""
""blur"",""107"",""821436""
""focus"",""107"",""825668""
","""event"",""trial"",""time""
""blur"",""102"",""734972""
""blur"",""107"",""821436""
","""event"",""trial"",""time""
""focus"",""102"",""738505""
""focus"",""107"",""825668""
","""event"",""trial"",""time""
""fullscreenenter"",""1"",""1942""
","
","","","-1","","","11","20929","6281","p","elianto","#3366ff99"," ","-1","0","0","[]","0","2","","","20929","58","4","1","win","go","0"
"pit-trial","177","1150046","0.0-63.0","battery-v0.2","","""event"",""trial"",""time""
""fullscreenenter"",""1"",""1942""
""blur"",""102"",""734972""
""focus"",""102"",""738505""
""blur"",""107"",""821436""
""focus"",""107"",""825668""
","""event"",""trial"",""time""
""blur"",""102"",""734972""
""blur"",""107"",""821436""
","""event"",""trial"",""time""
""focus"",""102"",""738505""
""focus"",""107"",""825668""
","""event"",""trial"",""time""
""fullscreenenter"",""1"",""1942""
","
","","","823.2999999970198","","","11","20929","6281","u","elianto","#f73b6a7A"," "," ","1","0","[1673.7999999970198]","1","2","","","20929","59","0","3","lose","go","0"
"pit-trial","178","1154069","0.0-64.0","battery-v0.2","","""event"",""trial"",""time""
""fullscreenenter"",""1"",""1942""
""blur"",""102"",""734972""
""focus"",""102"",""738505""
""blur"",""107"",""821436""
""focus"",""107"",""825668""
","""event"",""trial"",""time""
""blur"",""102"",""734972""
""blur"",""107"",""821436""
","""event"",""trial"",""time""
""focus"",""102"",""738505""
""focus"",""107"",""825668""
","""event"",""trial"",""time""
""fullscreenenter"",""1"",""1942""
","
","","","1160","","","11","20929","6281","a","elianto","#f73b6a7A"," "," ","1","-10","[2014.5999999940395]","1","2","","","20929","60","2","3","lose","go","1"
"pit-trial","179","1158932","0.0-65.0","battery-v0.2","","""event"",""trial"",""time""
""fullscreenenter"",""1"",""1942""
""blur"",""102"",""734972""
""focus"",""102"",""738505""
""blur"",""107"",""821436""
""focus"",""107"",""825668""
","""event"",""trial"",""time""
""blur"",""102"",""734972""
""blur"",""107"",""821436""
","""event"",""trial"",""time""
""focus"",""102"",""738505""
""focus"",""107"",""825668""
","""event"",""trial"",""time""
""fullscreenenter"",""1"",""1942""
","
","","","-1","","","11","20929","6281","g","elianto","#f73b6a7A","-1","-1","1","0","[]","0","2","","","20929","61","3","4","lose","no-go","0"
"pit-trial","180","1163808","0.0-66.0","battery-v0.2","","""event"",""trial"",""time""
""fullscreenenter"",""1"",""1942""
""blur"",""102"",""734972""
""focus"",""102"",""738505""
""blur"",""107"",""821436""
""focus"",""107"",""825668""
","""event"",""trial"",""time""
""blur"",""102"",""734972""
""blur"",""107"",""821436""
","""event"",""trial"",""time""
""focus"",""102"",""738505""
""focus"",""107"",""825668""
","""event"",""trial"",""time""
""fullscreenenter"",""1"",""1942""
","
","","","-1","","","11","20929","6281","l","elianto","#3366ff99","-1","-1","1","0","[]","0","2","","","20929","62","1","2","win","no-go","1"
"pit-trial","181","1168361","0.0-67.0","battery-v0.2","","""event"",""trial"",""time""
""fullscreenenter"",""1"",""1942""
""blur"",""102"",""734972""
""focus"",""102"",""738505""
""blur"",""107"",""821436""
""focus"",""107"",""825668""
","""event"",""trial"",""time""
""blur"",""102"",""734972""
""blur"",""107"",""821436""
","""event"",""trial"",""time""
""focus"",""102"",""738505""
""focus"",""107"",""825668""
","""event"",""trial"",""time""
""fullscreenenter"",""1"",""1942""
","
","","","1691.5","","","11","20929","6281","p","elianto","#3366ff99"," "," ","1","+10","[2549.5]","1","2","","","20929","63","4","1","win","go","0"
"pit-trial","182","1172439","0.0-68.0","battery-v0.2","","""event"",""trial"",""time""
""fullscreenenter"",""1"",""1942""
""blur"",""102"",""734972""
""focus"",""102"",""738505""
""blur"",""107"",""821436""
""focus"",""107"",""825668""
","""event"",""trial"",""time""
""blur"",""102"",""734972""
""blur"",""107"",""821436""
","""event"",""trial"",""time""
""focus"",""102"",""738505""
""focus"",""107"",""825668""
","""event"",""trial"",""time""
""fullscreenenter"",""1"",""1942""
","
","","","1213.8999999910593","","","11","20929","6281","a","elianto","#f73b6a7A"," "," ","1","0","[2069.5999999940395]","1","2","","","20929","64","2","3","lose","go","0"
"pit-trial","183","1177307","0.0-69.0","battery-v0.2","","""event"",""trial"",""time""
""fullscreenenter"",""1"",""1942""
""blur"",""102"",""734972""
""focus"",""102"",""738505""
""blur"",""107"",""821436""
""focus"",""107"",""825668""
","""event"",""trial"",""time""
""blur"",""102"",""734972""
""blur"",""107"",""821436""
","""event"",""trial"",""time""
""focus"",""102"",""738505""
""focus"",""107"",""825668""
","""event"",""trial"",""time""
""fullscreenenter"",""1"",""1942""
","
","","","-1","","","11","20929","6281","g","elianto","#f73b6a7A","-1","-1","1","0","[]","0","2","","","20929","65","3","4","lose","no-go","0"
"pit-trial","184","1181570","0.0-70.0","battery-v0.2","","""event"",""trial"",""time""
""fullscreenenter"",""1"",""1942""
""blur"",""102"",""734972""
""focus"",""102"",""738505""
""blur"",""107"",""821436""
""focus"",""107"",""825668""
","""event"",""trial"",""time""
""blur"",""102"",""734972""
""blur"",""107"",""821436""
","""event"",""trial"",""time""
""focus"",""102"",""738505""
""focus"",""107"",""825668""
","""event"",""trial"",""time""
""fullscreenenter"",""1"",""1942""
","
","","","1404.800000011921","","","11","20929","6281","s","elianto","#3366ff99","-1"," ","0","+10","[2258.7000000029802]","1","2","","","20929","66","5","2","win","no-go","1"
"pit-trial","185","1185613","0.0-71.0","battery-v0.2","","""event"",""trial"",""time""
""fullscreenenter"",""1"",""1942""
""blur"",""102"",""734972""
""focus"",""102"",""738505""
""blur"",""107"",""821436""
""focus"",""107"",""825668""
","""event"",""trial"",""time""
""blur"",""102"",""734972""
""blur"",""107"",""821436""
","""event"",""trial"",""time""
""focus"",""102"",""738505""
""focus"",""107"",""825668""
","""event"",""trial"",""time""
""fullscreenenter"",""1"",""1942""
","
","","","1181","","","11","20929","6281","p","elianto","#3366ff99"," "," ","1","+10","[2033.0999999940395]","1","2","","","20929","67","4","1","win","go","0"
"pit-trial","186","1189087","0.0-72.0","battery-v0.2","","""event"",""trial"",""time""
""fullscreenenter"",""1"",""1942""
""blur"",""102"",""734972""
""focus"",""102"",""738505""
""blur"",""107"",""821436""
""focus"",""107"",""825668""
","""event"",""trial"",""time""
""blur"",""102"",""734972""
""blur"",""107"",""821436""
","""event"",""trial"",""time""
""focus"",""102"",""738505""
""focus"",""107"",""825668""
","""event"",""trial"",""time""
""fullscreenenter"",""1"",""1942""
","
","","","617.5","","","11","20929","6281","l","elianto","#3366ff99","-1"," ","0","0","[1471.4000000059605]","1","2","","","20929","68","1","2","win","no-go","0"
"pit-trial","187","1192944","0.0-73.0","battery-v0.2","","""event"",""trial"",""time""
""fullscreenenter"",""1"",""1942""
""blur"",""102"",""734972""
""focus"",""102"",""738505""
""blur"",""107"",""821436""
""focus"",""107"",""825668""
","""event"",""trial"",""time""
""blur"",""102"",""734972""
""blur"",""107"",""821436""
","""event"",""trial"",""time""
""focus"",""102"",""738505""
""focus"",""107"",""825668""
","""event"",""trial"",""time""
""fullscreenenter"",""1"",""1942""
","
","","","1000.2999999970198","","","11","20929","6281","s","elianto","#3366ff99","-1"," ","0","0","[1851.5]","1","2","","","20929","69","5","2","win","no-go","0"
"pit-trial","188","1197802","0.0-74.0","battery-v0.2","","""event"",""trial"",""time""
""fullscreenenter"",""1"",""1942""
""blur"",""102"",""734972""
""focus"",""102"",""738505""
""blur"",""107"",""821436""
""focus"",""107"",""825668""
","""event"",""trial"",""time""
""blur"",""102"",""734972""
""blur"",""107"",""821436""
","""event"",""trial"",""time""
""focus"",""102"",""738505""
""focus"",""107"",""825668""
","""event"",""trial"",""time""
""fullscreenenter"",""1"",""1942""
","
","","","-1","","","11","20929","6281","p","elianto","#3366ff99"," ","-1","0","0","[2904.7999999970198]","1","2","","","20929","70","4","1","win","go","0"
"pit-trial","189","1202200","0.0-75.0","battery-v0.2","","""event"",""trial"",""time""
""fullscreenenter"",""1"",""1942""
""blur"",""102"",""734972""
""focus"",""102"",""738505""
""blur"",""107"",""821436""
""focus"",""107"",""825668""
","""event"",""trial"",""time""
""blur"",""102"",""734972""
""blur"",""107"",""821436""
","""event"",""trial"",""time""
""focus"",""102"",""738505""
""focus"",""107"",""825668""
","""event"",""trial"",""time""
""fullscreenenter"",""1"",""1942""
","
","","","1541.9000000059605","","","11","20929","6281","a","elianto","#f73b6a7A"," "," ","1","0","[2393.6000000089407]","1","2","","","20929","71","2","3","lose","go","0"
"pit-trial","190","1205697","0.0-76.0","battery-v0.2","","""event"",""trial"",""time""
""fullscreenenter"",""1"",""1942""
""blur"",""102"",""734972""
""focus"",""102"",""738505""
""blur"",""107"",""821436""
""focus"",""107"",""825668""
","""event"",""trial"",""time""
""blur"",""102"",""734972""
""blur"",""107"",""821436""
","""event"",""trial"",""time""
""focus"",""102"",""738505""
""focus"",""107"",""825668""
","""event"",""trial"",""time""
""fullscreenenter"",""1"",""1942""
","
","","","638.2000000029802","","","11","20929","6281","l","elianto","#3366ff99","-1"," ","0","0","[1488.7000000029802]","1","2","","","20929","72","1","2","win","no-go","0"
"pit-trial","191","1209245","0.0-77.0","battery-v0.2","","""event"",""trial"",""time""
""fullscreenenter"",""1"",""1942""
""blur"",""102"",""734972""
""focus"",""102"",""738505""
""blur"",""107"",""821436""
""focus"",""107"",""825668""
","""event"",""trial"",""time""
""blur"",""102"",""734972""
""blur"",""107"",""821436""
","""event"",""trial"",""time""
""focus"",""102"",""738505""
""focus"",""107"",""825668""
","""event"",""trial"",""time""
""fullscreenenter"",""1"",""1942""
","
","","","687.1000000089407","","","11","20929","6281","p","elianto","#3366ff99"," "," ","1","+10","[1540.3999999910593]","1","2","","","20929","73","4","1","win","go","0"
"pit-trial","192","1214105","0.0-78.0","battery-v0.2","","""event"",""trial"",""time""
""fullscreenenter"",""1"",""1942""
""blur"",""102"",""734972""
""focus"",""102"",""738505""
""blur"",""107"",""821436""
""focus"",""107"",""825668""
","""event"",""trial"",""time""
""blur"",""102"",""734972""
""blur"",""107"",""821436""
","""event"",""trial"",""time""
""focus"",""102"",""738505""
""focus"",""107"",""825668""
","""event"",""trial"",""time""
""fullscreenenter"",""1"",""1942""
","
","","","-1","","","11","20929","6281","g","elianto","#f73b6a7A","-1","-1","1","0","[]","0","2","","","20929","74","3","4","lose","no-go","0"
"pit-trial","193","1218067","0.0-79.0","battery-v0.2","","""event"",""trial"",""time""
""fullscreenenter"",""1"",""1942""
""blur"",""102"",""734972""
""focus"",""102"",""738505""
""blur"",""107"",""821436""
""focus"",""107"",""825668""
","""event"",""trial"",""time""
""blur"",""102"",""734972""
""blur"",""107"",""821436""
","""event"",""trial"",""time""
""focus"",""102"",""738505""
""focus"",""107"",""825668""
","""event"",""trial"",""time""
""fullscreenenter"",""1"",""1942""
","
","","","1105.3999999910593","","","11","20929","6281","s","elianto","#3366ff99","-1"," ","0","0","[1955.5999999940395]","1","2","","","20929","75","5","2","win","no-go","0"
"pit-trial","194","1222934","0.0-80.0","battery-v0.2","","""event"",""trial"",""time""
""fullscreenenter"",""1"",""1942""
