"trial_type","trial_index","time_elapsed","internal_node_id","task_version","subject_id","interactions","blur_events","focus_events","fullscreenenter_events","fullscreenexit_events","success","view_history","rt","responses","num_errors","age","subject","participantId","rune","rune_set","hex","correct","choice","accuracy","outcome","keys","total_keys","block","practice","value","sub","trial","stimulus","robot","valence","action","sham"
"pavlovia","0","8","0.0-0.0","battery-v0.2","","""event"",""trial"",""time""
""fullscreenenter"",""1"",""1648""
""fullscreenenter"",""1"",""1649""
","
","
","""event"",""trial"",""time""
""fullscreenenter"",""1"",""1648""
""fullscreenenter"",""1"",""1649""
","
","","","","","","","","","","","","","","","","","","","","","","","","","","",""
"fullscreen","1","2627","0.0-1.0","battery-v0.2","","""event"",""trial"",""time""
""fullscreenenter"",""1"",""1648""
""fullscreenenter"",""1"",""1649""
","
","
","""event"",""trial"",""time""
""fullscreenenter"",""1"",""1648""
""fullscreenenter"",""1"",""1649""
","
","true","","","","","","","","","","","","","","","","","","","","","","","","","",""
"pit-instructions","2","6991","0.0-2.0-0.0","battery-v0.2","","""event"",""trial"",""time""
""fullscreenenter"",""1"",""1648""
""fullscreenenter"",""1"",""1649""
","
","
","""event"",""trial"",""time""
""fullscreenenter"",""1"",""1648""
""fullscreenenter"",""1"",""1649""
","
","","[{""page_index"":0,""viewing_time"":4356.999999999999}]","4358.000000000001","","","","","","","","","","","","","","","","","","","","","","","",""
"pit-comprehension","3","10075","0.0-2.0-1.0-0.0","battery-v0.2","","""event"",""trial"",""time""
""fullscreenenter"",""1"",""1648""
""fullscreenenter"",""1"",""1649""
","
","
","""event"",""trial"",""time""
""fullscreenenter"",""1"",""1648""
""fullscreenenter"",""1"",""1649""
","
","","","3037.999999999998","[""shark""]","0","13","12367","2486","","","","","","","","","","","","","","","","","","",""
"pit-instructions","4","12407","0.0-2.0-1.0-1.0","battery-v0.2","","""event"",""trial"",""time""
""fullscreenenter"",""1"",""1648""
""fullscreenenter"",""1"",""1649""
","
","
","""event"",""trial"",""time""
""fullscreenenter"",""1"",""1648""
""fullscreenenter"",""1"",""1649""
","
","","[{""page_index"":0,""viewing_time"":2325}]","2326","","","","","","","","","","","","","","","","","","","","","","","",""
"pit-comprehension","5","15359","0.0-2.0-2.0-0.0","battery-v0.2","","""event"",""trial"",""time""
""fullscreenenter"",""1"",""1648""
""fullscreenenter"",""1"",""1649""
","
","
","""event"",""trial"",""time""
""fullscreenenter"",""1"",""1648""
""fullscreenenter"",""1"",""1649""
","
","","","2949.0000000000036","[""tiger""]","0","13","12367","2486","","","","","","","","","","","","","","","","","","",""
"pit-instructions","6","16573","0.0-2.0-2.0-1.0","battery-v0.2","","""event"",""trial"",""time""
""fullscreenenter"",""1"",""1648""
""fullscreenenter"",""1"",""1649""
","
","
","""event"",""trial"",""time""
""fullscreenenter"",""1"",""1648""
""fullscreenenter"",""1"",""1649""
","
","","[{""page_index"":0,""viewing_time"":1210}]","1210","","","","","","","","","","","","","","","","","","","","","","","",""
"pit-instructions","7","115840","0.0-2.0-3.0","battery-v0.2","","""event"",""trial"",""time""
""fullscreenenter"",""1"",""1648""
""fullscreenenter"",""1"",""1649""
","
","
","""event"",""trial"",""time""
""fullscreenenter"",""1"",""1648""
""fullscreenenter"",""1"",""1649""
","
","","[{""page_index"":0,""viewing_time"":8782},{""page_index"":1,""viewing_time"":6481},{""page_index"":2,""viewing_time"":8918},{""page_index"":3,""viewing_time"":5215.000000000007},{""page_index"":4,""viewing_time"":6149.999999999993},{""page_index"":5,""viewing_time"":5950},{""page_index"":6,""viewing_time"":8402},{""page_index"":7,""viewing_time"":6833},{""page_index"":8,""viewing_time"":7282},{""page_index"":9,""viewing_time"":7917},{""page_index"":10,""viewing_time"":7050},{""page_index"":11,""viewing_time"":7347.000000000015},{""page_index"":12,""viewing_time"":7303.999999999985},{""page_index"":13,""viewing_time"":5633}]","99264","","","","","","","","","","","","","","","","","","","","","","","",""
"pit-trial","8","119148","0.0-2.0-4.0-0.0","battery-v0.2","","""event"",""trial"",""time""
""fullscreenenter"",""1"",""1648""
""fullscreenenter"",""1"",""1649""
","
","
","""event"",""trial"",""time""
""fullscreenenter"",""1"",""1648""
""fullscreenenter"",""1"",""1649""
","
","","","451.00000000001455","","","13","12367","2486","&#9784;","elianto","#FFFFF080"," "," ","1","&#10004","[1302.0000000000146]","1","0","0","","","","","","","",""
"pit-trial","9","122392","0.0-2.0-4.1-0.1","battery-v0.2","","""event"",""trial"",""time""
""fullscreenenter"",""1"",""1648""
""fullscreenenter"",""1"",""1649""
","
","
","""event"",""trial"",""time""
""fullscreenenter"",""1"",""1648""
""fullscreenenter"",""1"",""1649""
","
","","","386.00000000001455","","","13","12367","2486","&#9784;","elianto","#FFFFF080"," "," ","1","&#10004","[1236]","1","0","0","","","","","","","",""
"pit-trial","10","125762","0.0-2.0-4.2-0.2","battery-v0.2","","""event"",""trial"",""time""
""fullscreenenter"",""1"",""1648""
""fullscreenenter"",""1"",""1649""
","
","
","""event"",""trial"",""time""
""fullscreenenter"",""1"",""1648""
""fullscreenenter"",""1"",""1649""
","
","","","512","","","13","12367","2486","&#9784;","elianto","#FFFFF080"," "," ","1","&#10004","[1363]","1","0","0","","","","","","","",""
"pit-trial","11","129030","0.0-2.0-4.3-0.3","battery-v0.2","","""event"",""trial"",""time""
""fullscreenenter"",""1"",""1648""
""fullscreenenter"",""1"",""1649""
","
","
","""event"",""trial"",""time""
""fullscreenenter"",""1"",""1648""
""fullscreenenter"",""1"",""1649""
","
","","","411","","","13","12367","2486","&#9784;","elianto","#FFFFF080"," "," ","1","&#10004","[1262.0000000000146]","1","0","0","","","","","","","",""
"pit-trial","12","132104","0.0-2.0-4.4-0.4","battery-v0.2","","""event"",""trial"",""time""
""fullscreenenter"",""1"",""1648""
""fullscreenenter"",""1"",""1649""
","
","
","""event"",""trial"",""time""
""fullscreenenter"",""1"",""1648""
""fullscreenenter"",""1"",""1649""
","
","","","218","","","13","12367","2486","&#9784;","elianto","#FFFFF080"," "," ","1","&#10004","[1068.9999999999854]","1","0","0","","","","","","","",""
"pit-instructions","13","154337","0.0-2.0-5.0","battery-v0.2","","""event"",""trial"",""time""
""fullscreenenter"",""1"",""1648""
""fullscreenenter"",""1"",""1649""
","
","
","""event"",""trial"",""time""
""fullscreenenter"",""1"",""1648""
""fullscreenenter"",""1"",""1649""
","
","","[{""page_index"":0,""viewing_time"":5524.999999999971},{""page_index"":1,""viewing_time"":5883},{""page_index"":2,""viewing_time"":5267},{""page_index"":3,""viewing_time"":5550}]","22224.99999999997","","","","","","","","","","","","","","","","","","","","","","","",""
"pit-trial","14","159194","0.0-2.0-6.0-0.0","battery-v0.2","","""event"",""trial"",""time""
""fullscreenenter"",""1"",""1648""
""fullscreenenter"",""1"",""1649""
","
","
","""event"",""trial"",""time""
""fullscreenenter"",""1"",""1648""
""fullscreenenter"",""1"",""1649""
","
","","","-1","","","13","12367","2486","&#9854;","elianto","#FFFFF080","-1","-1","1","&#10004","[]","0","0","1","","","","","","","",""
"pit-trial","15","164051","0.0-2.0-6.1-0.1","battery-v0.2","","""event"",""trial"",""time""
""fullscreenenter"",""1"",""1648""
""fullscreenenter"",""1"",""1649""
","
","
","""event"",""trial"",""time""
""fullscreenenter"",""1"",""1648""
""fullscreenenter"",""1"",""1649""
","
","","","-1","","","13","12367","2486","&#9854;","elianto","#FFFFF080","-1","-1","1","&#10004","[]","0","0","1","","","","","","","",""
"pit-trial","16","168908","0.0-2.0-6.2-0.2","battery-v0.2","","""event"",""trial"",""time""
""fullscreenenter"",""1"",""1648""
""fullscreenenter"",""1"",""1649""
","
","
","""event"",""trial"",""time""
""fullscreenenter"",""1"",""1648""
""fullscreenenter"",""1"",""1649""
","
","","","-1","","","13","12367","2486","&#9854;","elianto","#FFFFF080","-1","-1","1","&#10004","[]","0","0","1","","","","","","","",""
"pit-trial","17","173765","0.0-2.0-6.3-0.3","battery-v0.2","","""event"",""trial"",""time""
""fullscreenenter"",""1"",""1648""
""fullscreenenter"",""1"",""1649""
","
","
","""event"",""trial"",""time""
""fullscreenenter"",""1"",""1648""
""fullscreenenter"",""1"",""1649""
","
","","","-1","","","13","12367","2486","&#9854;","elianto","#FFFFF080","-1","-1","1","&#10004","[]","0","0","1","","","","","","","",""
"pit-trial","18","178623","0.0-2.0-6.4-0.4","battery-v0.2","","""event"",""trial"",""time""
""fullscreenenter"",""1"",""1648""
""fullscreenenter"",""1"",""1649""
","
","
","""event"",""trial"",""time""
""fullscreenenter"",""1"",""1648""
""fullscreenenter"",""1"",""1649""
","
","","","-1","","","13","12367","2486","&#9854;","elianto","#FFFFF080","-1","-1","1","&#10004","[]","0","0","1","","","","","","","",""
"pit-instructions","19","297723","0.0-2.0-7.0","battery-v0.2","","""event"",""trial"",""time""
""fullscreenenter"",""1"",""1648""
""fullscreenenter"",""1"",""1649""
","
","
","""event"",""trial"",""time""
""fullscreenenter"",""1"",""1648""
""fullscreenenter"",""1"",""1649""
","
","","[{""page_index"":0,""viewing_time"":5973.999999999971},{""page_index"":1,""viewing_time"":6935},{""page_index"":2,""viewing_time"":7349},{""page_index"":3,""viewing_time"":6666},{""page_index"":4,""viewing_time"":5368},{""page_index"":5,""viewing_time"":7050},{""page_index"":6,""viewing_time"":6300},{""page_index"":7,""viewing_time"":7500},{""page_index"":8,""viewing_time"":6117},{""page_index"":9,""viewing_time"":6201},{""page_index"":10,""viewing_time"":6216},{""page_index"":11,""viewing_time"":5150},{""page_index"":12,""viewing_time"":7068},{""page_index"":13,""viewing_time"":7633.000000000058},{""page_index"":14,""viewing_time"":7548.999999999942},{""page_index"":15,""viewing_time"":6120},{""page_index"":16,""viewing_time"":6114},{""page_index"":17,""viewing_time"":7786}]","119096.99999999997","","","","","","","","","","","","","","","","","","","","","","","",""
"pit-trial","20","301172","0.0-2.0-8.0-0.0","battery-v0.2","","""event"",""trial"",""time""
""fullscreenenter"",""1"",""1648""
""fullscreenenter"",""1"",""1649""
","
","
","""event"",""trial"",""time""
""fullscreenenter"",""1"",""1648""
""fullscreenenter"",""1"",""1649""
","
","","","593","","","13","12367","2486","&#9776;","elianto","#3366ff99"," "," ","1","+10","[1443]","1","0","1","","","","","","","",""
"pit-trial","21","304468","0.0-2.0-8.0-1.0","battery-v0.2","","""event"",""trial"",""time""
""fullscreenenter"",""1"",""1648""
""fullscreenenter"",""1"",""1649""
","
","
","""event"",""trial"",""time""
""fullscreenenter"",""1"",""1648""
""fullscreenenter"",""1"",""1649""
","
","","","439","","","13","12367","2486","&#9776;","elianto","#3366ff99"," "," ","1","+10","[1289]","1","0","1","","","","","","","",""
"pit-trial","22","307712","0.0-2.0-8.0-2.0","battery-v0.2","","""event"",""trial"",""time""
""fullscreenenter"",""1"",""1648""
""fullscreenenter"",""1"",""1649""
","
","
","""event"",""trial"",""time""
""fullscreenenter"",""1"",""1648""
""fullscreenenter"",""1"",""1649""
","
","","","388","","","13","12367","2486","&#9776;","elianto","#3366ff99"," "," ","1","+10","[1238]","1","0","1","","","","","","","",""
"pit-trial","23","310947","0.0-2.0-8.0-3.0","battery-v0.2","","""event"",""trial"",""time""
""fullscreenenter"",""1"",""1648""
""fullscreenenter"",""1"",""1649""
","
","
","""event"",""trial"",""time""
""fullscreenenter"",""1"",""1648""
""fullscreenenter"",""1"",""1649""
","
","","","379","","","13","12367","2486","&#9776;","elianto","#3366ff99"," "," ","1","0","[1230]","1","0","1","","","","","","","",""
"pit-trial","24","314298","0.0-2.0-8.0-4.0","battery-v0.2","","""event"",""trial"",""time""
""fullscreenenter"",""1"",""1648""
""fullscreenenter"",""1"",""1649""
","
","
","""event"",""trial"",""time""
""fullscreenenter"",""1"",""1648""
""fullscreenenter"",""1"",""1649""
","
","","","493.9999999999418","","","13","12367","2486","&#9776;","elianto","#3366ff99"," "," ","1","+10","[1344.9999999999418]","1","0","1","","","","","","","",""
"pit-trial","25","317767","0.0-2.0-8.1-0.1","battery-v0.2","","""event"",""trial"",""time""
""fullscreenenter"",""1"",""1648""
""fullscreenenter"",""1"",""1649""
","
","
","""event"",""trial"",""time""
""fullscreenenter"",""1"",""1648""
""fullscreenenter"",""1"",""1649""
","
","","","613","","","13","12367","2486","&#9776;","elianto","#3366ff99"," "," ","1","+10","[1462.9999999999418]","1","0","1","","","","","","","",""
"pit-trial","26","321111","0.0-2.0-8.1-1.1","battery-v0.2","","""event"",""trial"",""time""
""fullscreenenter"",""1"",""1648""
""fullscreenenter"",""1"",""1649""
","
","
","""event"",""trial"",""time""
""fullscreenenter"",""1"",""1648""
""fullscreenenter"",""1"",""1649""
","
","","","488","","","13","12367","2486","&#9776;","elianto","#3366ff99"," "," ","1","+10","[1338]","1","0","1","","","","","","","",""
"pit-trial","27","324123","0.0-2.0-8.1-2.1","battery-v0.2","","""event"",""trial"",""time""
""fullscreenenter"",""1"",""1648""
""fullscreenenter"",""1"",""1649""
","
","
","""event"",""trial"",""time""
""fullscreenenter"",""1"",""1648""
""fullscreenenter"",""1"",""1649""
","
","","","156","","","13","12367","2486","&#9776;","elianto","#3366ff99"," "," ","1","+10","[1007]","1","0","1","","","","","","","",""
"pit-trial","28","327132","0.0-2.0-8.1-3.1","battery-v0.2","","""event"",""trial"",""time""
""fullscreenenter"",""1"",""1648""
""fullscreenenter"",""1"",""1649""
","
","
","""event"",""trial"",""time""
""fullscreenenter"",""1"",""1648""
""fullscreenenter"",""1"",""1649""
","
","","","153","","","13","12367","2486","&#9776;","elianto","#3366ff99"," "," ","1","0","[1004]","1","0","1","","","","","","","",""
"pit-trial","29","330161","0.0-2.0-8.1-4.1","battery-v0.2","","""event"",""trial"",""time""
""fullscreenenter"",""1"",""1648""
""fullscreenenter"",""1"",""1649""
","
","
","""event"",""trial"",""time""
""fullscreenenter"",""1"",""1648""
""fullscreenenter"",""1"",""1649""
","
","","","174","","","13","12367","2486","&#9776;","elianto","#3366ff99"," "," ","1","+10","[1024]","1","0","1","","","","","","","",""
"pit-trial","30","333419","0.0-2.0-8.2-0.2","battery-v0.2","","""event"",""trial"",""time""
""fullscreenenter"",""1"",""1648""
""fullscreenenter"",""1"",""1649""
","
","
","""event"",""trial"",""time""
""fullscreenenter"",""1"",""1648""
""fullscreenenter"",""1"",""1649""
","
","","","400.9999999999418","","","13","12367","2486","&#9776;","elianto","#3366ff99"," "," ","1","+10","[1251.9999999999418]","1","0","1","","","","","","","",""
"pit-trial","31","336617","0.0-2.0-8.2-1.2","battery-v0.2","","""event"",""trial"",""time""
""fullscreenenter"",""1"",""1648""
""fullscreenenter"",""1"",""1649""
","
","
","""event"",""trial"",""time""
""fullscreenenter"",""1"",""1648""
""fullscreenenter"",""1"",""1649""
","
","","","342","","","13","12367","2486","&#9776;","elianto","#3366ff99"," "," ","1","+10","[1192]","1","0","1","","","","","","","",""
"pit-trial","32","339888","0.0-2.0-8.2-2.2","battery-v0.2","","""event"",""trial"",""time""
""fullscreenenter"",""1"",""1648""
""fullscreenenter"",""1"",""1649""
","
","
","""event"",""trial"",""time""
""fullscreenenter"",""1"",""1648""
""fullscreenenter"",""1"",""1649""
","
","","","416","","","13","12367","2486","&#9776;","elianto","#3366ff99"," "," ","1","+10","[1266]","1","0","1","","","","","","","",""
"pit-trial","33","343466","0.0-2.0-8.2-3.2","battery-v0.2","","""event"",""trial"",""time""
""fullscreenenter"",""1"",""1648""
""fullscreenenter"",""1"",""1649""
","
","
","""event"",""trial"",""time""
""fullscreenenter"",""1"",""1648""
""fullscreenenter"",""1"",""1649""
","
","","","722","","","13","12367","2486","&#9776;","elianto","#3366ff99"," "," ","1","0","[1573]","1","0","1","","","","","","","",""
"pit-trial","34","348322","0.0-2.0-8.2-4.2","battery-v0.2","","""event"",""trial"",""time""
""fullscreenenter"",""1"",""1648""
""fullscreenenter"",""1"",""1649""
","
","
","""event"",""trial"",""time""
""fullscreenenter"",""1"",""1648""
""fullscreenenter"",""1"",""1649""
","
","","","-1","","","13","12367","2486","&#9776;","elianto","#3366ff99"," ","-1","0","0","[]","0","0","1","","","","","","","",""
"call-function","35","348325","0.0-2.0-9.0","battery-v0.2","","""event"",""trial"",""time""
""fullscreenenter"",""1"",""1648""
""fullscreenenter"",""1"",""1649""
","
","
","""event"",""trial"",""time""
""fullscreenenter"",""1"",""1648""
""fullscreenenter"",""1"",""1649""
","
","","","","","","","","","","","","","","","","","","","","","","","","","","",""
"pit-instructions","36","388824","0.0-2.0-10.0","battery-v0.2","","""event"",""trial"",""time""
""fullscreenenter"",""1"",""1648""
""fullscreenenter"",""1"",""1649""
","
","
","""event"",""trial"",""time""
""fullscreenenter"",""1"",""1648""
""fullscreenenter"",""1"",""1649""
","
","","[{""page_index"":0,""viewing_time"":6763.999999999942},{""page_index"":1,""viewing_time"":6267},{""page_index"":2,""viewing_time"":10665},{""page_index"":3,""viewing_time"":9316.000000000058},{""page_index"":4,""viewing_time"":7486.999999999942}]","40500","","","","","","","","","","","","","","","","","","","","","","","",""
"pit-trial","37","392223","0.0-2.0-11.0-0.0","battery-v0.2","","""event"",""trial"",""time""
""fullscreenenter"",""1"",""1648""
""fullscreenenter"",""1"",""1649""
","
","
","""event"",""trial"",""time""
""fullscreenenter"",""1"",""1648""
""fullscreenenter"",""1"",""1649""
","
","","","543","","","13","12367","2486","&#9761;","elianto","#3366ff99","-1"," ","0","0","[1394]","1","0","2","","","","","","","",""
"pit-trial","38","395464","0.0-2.0-11.0-1.0","battery-v0.2","","""event"",""trial"",""time""
""fullscreenenter"",""1"",""1648""
""fullscreenenter"",""1"",""1649""
","
","
","""event"",""trial"",""time""
""fullscreenenter"",""1"",""1648""
""fullscreenenter"",""1"",""1649""
","
","","","382","","","13","12367","2486","&#9761;","elianto","#3366ff99","-1"," ","0","0","[1233]","1","0","2","","","","","","","",""
"pit-trial","39","398643","0.0-2.0-11.0-2.0","battery-v0.2","","""event"",""trial"",""time""
""fullscreenenter"",""1"",""1648""
""fullscreenenter"",""1"",""1649""
","
","
","""event"",""trial"",""time""
""fullscreenenter"",""1"",""1648""
""fullscreenenter"",""1"",""1649""
","
","","","322","","","13","12367","2486","&#9761;","elianto","#3366ff99","-1"," ","0","0","[1173]","1","0","2","","","","","","","",""
"pit-trial","40","401606","0.0-2.0-11.0-3.0","battery-v0.2","","""event"",""trial"",""time""
""fullscreenenter"",""1"",""1648""
""fullscreenenter"",""1"",""1649""
","
","
","""event"",""trial"",""time""
""fullscreenenter"",""1"",""1648""
""fullscreenenter"",""1"",""1649""
","
","","","108","","","13","12367","2486","&#9761;","elianto","#3366ff99","-1"," ","0","+10","[959]","1","0","2","","","","","","","",""
"pit-trial","41","406463","0.0-2.0-11.0-4.0","battery-v0.2","","""event"",""trial"",""time""
""fullscreenenter"",""1"",""1648""
""fullscreenenter"",""1"",""1649""
","
","
","""event"",""trial"",""time""
""fullscreenenter"",""1"",""1648""
""fullscreenenter"",""1"",""1649""
","
","","","-1","","","13","12367","2486","&#9761;","elianto","#3366ff99","-1","-1","1","+10","[]","0","0","2","","","","","","","",""
"pit-trial","42","411324","0.0-2.0-11.1-0.1","battery-v0.2","","""event"",""trial"",""time""
""fullscreenenter"",""1"",""1648""
""fullscreenenter"",""1"",""1649""
","
","
","""event"",""trial"",""time""
""fullscreenenter"",""1"",""1648""
""fullscreenenter"",""1"",""1649""
","
","","","-1","","","13","12367","2486","&#9761;","elianto","#3366ff99","-1","-1","1","+10","[]","0","0","2","","","","","","","",""
"pit-trial","43","416182","0.0-2.0-11.1-1.1","battery-v0.2","","""event"",""trial"",""time""
""fullscreenenter"",""1"",""1648""
""fullscreenenter"",""1"",""1649""
","
","
","""event"",""trial"",""time""
""fullscreenenter"",""1"",""1648""
""fullscreenenter"",""1"",""1649""
","
","","","-1","","","13","12367","2486","&#9761;","elianto","#3366ff99","-1","-1","1","+10","[]","0","0","2","","","","","","","",""
"pit-trial","44","421038","0.0-2.0-11.1-2.1","battery-v0.2","","""event"",""trial"",""time""
""fullscreenenter"",""1"",""1648""
""fullscreenenter"",""1"",""1649""
","
","
","""event"",""trial"",""time""
""fullscreenenter"",""1"",""1648""
""fullscreenenter"",""1"",""1649""
","
","","","-1","","","13","12367","2486","&#9761;","elianto","#3366ff99","-1","-1","1","+10","[]","0","0","2","","","","","","","",""
"pit-trial","45","425896","0.0-2.0-11.1-3.1","battery-v0.2","","""event"",""trial"",""time""
""fullscreenenter"",""1"",""1648""
""fullscreenenter"",""1"",""1649""
","
","
","""event"",""trial"",""time""
""fullscreenenter"",""1"",""1648""
""fullscreenenter"",""1"",""1649""
","
","","","-1","","","13","12367","2486","&#9761;","elianto","#3366ff99","-1","-1","1","0","[]","0","0","2","","","","","","","",""
"pit-trial","46","430753","0.0-2.0-11.1-4.1","battery-v0.2","","""event"",""trial"",""time""
""fullscreenenter"",""1"",""1648""
""fullscreenenter"",""1"",""1649""
","
","
","""event"",""trial"",""time""
""fullscreenenter"",""1"",""1648""
""fullscreenenter"",""1"",""1649""
","
","","","-1","","","13","12367","2486","&#9761;","elianto","#3366ff99","-1","-1","1","+10","[]","0","0","2","","","","","","","",""
"pit-trial","47","435609","0.0-2.0-11.2-0.2","battery-v0.2","","""event"",""trial"",""time""
""fullscreenenter"",""1"",""1648""
""fullscreenenter"",""1"",""1649""
","
","
","""event"",""trial"",""time""
""fullscreenenter"",""1"",""1648""
""fullscreenenter"",""1"",""1649""
","
","","","-1","","","13","12367","2486","&#9761;","elianto","#3366ff99","-1","-1","1","+10","[]","0","0","2","","","","","","","",""
"pit-trial","48","440466","0.0-2.0-11.2-1.2","battery-v0.2","","""event"",""trial"",""time""
""fullscreenenter"",""1"",""1648""
""fullscreenenter"",""1"",""1649""
","
","
","""event"",""trial"",""time""
""fullscreenenter"",""1"",""1648""
""fullscreenenter"",""1"",""1649""
","
","","","-1","","","13","12367","2486","&#9761;","elianto","#3366ff99","-1","-1","1","+10","[]","0","0","2","","","","","","","",""
"pit-trial","49","445322","0.0-2.0-11.2-2.2","battery-v0.2","","""event"",""trial"",""time""
""fullscreenenter"",""1"",""1648""
""fullscreenenter"",""1"",""1649""
","
","
","""event"",""trial"",""time""
""fullscreenenter"",""1"",""1648""
""fullscreenenter"",""1"",""1649""
","
","","","-1","","","13","12367","2486","&#9761;","elianto","#3366ff99","-1","-1","1","+10","[]","0","0","2","","","","","","","",""
"pit-trial","50","450180","0.0-2.0-11.2-3.2","battery-v0.2","","""event"",""trial"",""time""
""fullscreenenter"",""1"",""1648""
""fullscreenenter"",""1"",""1649""
","
","
","""event"",""trial"",""time""
""fullscreenenter"",""1"",""1648""
""fullscreenenter"",""1"",""1649""
","
","","","-1","","","13","12367","2486","&#9761;","elianto","#3366ff99","-1","-1","1","0","[]","0","0","2","","","","","","","",""
"pit-trial","51","455037","0.0-2.0-11.2-4.2","battery-v0.2","","""event"",""trial"",""time""
""fullscreenenter"",""1"",""1648""
""fullscreenenter"",""1"",""1649""
","
","
","""event"",""trial"",""time""
""fullscreenenter"",""1"",""1648""
""fullscreenenter"",""1"",""1649""
","
","","","-1","","","13","12367","2486","&#9761;","elianto","#3366ff99","-1","-1","1","+10","[]","0","0","2","","","","","","","",""
"pit-trial","52","459893","0.0-2.0-11.3-0.3","battery-v0.2","","""event"",""trial"",""time""
""fullscreenenter"",""1"",""1648""
""fullscreenenter"",""1"",""1649""
","
","
","""event"",""trial"",""time""
""fullscreenenter"",""1"",""1648""
""fullscreenenter"",""1"",""1649""
","
","","","-1","","","13","12367","2486","&#9761;","elianto","#3366ff99","-1","-1","1","+10","[]","0","0","2","","","","","","","",""
"pit-trial","53","464750","0.0-2.0-11.3-1.3","battery-v0.2","","""event"",""trial"",""time""
""fullscreenenter"",""1"",""1648""
""fullscreenenter"",""1"",""1649""
","
","
","""event"",""trial"",""time""
""fullscreenenter"",""1"",""1648""
""fullscreenenter"",""1"",""1649""
","
","","","-1","","","13","12367","2486","&#9761;","elianto","#3366ff99","-1","-1","1","+10","[]","0","0","2","","","","","","","",""
"pit-trial","54","469607","0.0-2.0-11.3-2.3","battery-v0.2","","""event"",""trial"",""time""
""fullscreenenter"",""1"",""1648""
""fullscreenenter"",""1"",""1649""
","
","
","""event"",""trial"",""time""
""fullscreenenter"",""1"",""1648""
""fullscreenenter"",""1"",""1649""
","
","","","-1","","","13","12367","2486","&#9761;","elianto","#3366ff99","-1","-1","1","+10","[]","0","0","2","","","","","","","",""
"pit-trial","55","474465","0.0-2.0-11.3-3.3","battery-v0.2","","""event"",""trial"",""time""
""fullscreenenter"",""1"",""1648""
""fullscreenenter"",""1"",""1649""
","
","
","""event"",""trial"",""time""
""fullscreenenter"",""1"",""1648""
""fullscreenenter"",""1"",""1649""
","
","","","-1","","","13","12367","2486","&#9761;","elianto","#3366ff99","-1","-1","1","0","[]","0","0","2","","","","","","","",""
"pit-trial","56","479321","0.0-2.0-11.3-4.3","battery-v0.2","","""event"",""trial"",""time""
""fullscreenenter"",""1"",""1648""
""fullscreenenter"",""1"",""1649""
","
","
","""event"",""trial"",""time""
""fullscreenenter"",""1"",""1648""
""fullscreenenter"",""1"",""1649""
","
","","","-1","","","13","12367","2486","&#9761;","elianto","#3366ff99","-1","-1","1","+10","[]","0","0","2","","","","","","","",""
"call-function","57","479324","0.0-2.0-12.0","battery-v0.2","","""event"",""trial"",""time""
""fullscreenenter"",""1"",""1648""
""fullscreenenter"",""1"",""1649""
","
","
","""event"",""trial"",""time""
""fullscreenenter"",""1"",""1648""
""fullscreenenter"",""1"",""1649""
","
","","","","","","","","","","","","","","","","","","","","","","","","","","",""
"pit-instructions","58","514838","0.0-2.0-13.0","battery-v0.2","","""event"",""trial"",""time""
""fullscreenenter"",""1"",""1648""
""fullscreenenter"",""1"",""1649""
","
","
","""event"",""trial"",""time""
""fullscreenenter"",""1"",""1648""
""fullscreenenter"",""1"",""1649""
","
","","[{""page_index"":0,""viewing_time"":6414},{""page_index"":1,""viewing_time"":6981},{""page_index"":2,""viewing_time"":4583},{""page_index"":3,""viewing_time"":10651},{""page_index"":4,""viewing_time"":6882.999999999942}]","35513.00000000006","","","","","","","","","","","","","","","","","","","","","","","",""
"pit-trial","59","519404","0.0-2.0-14.0-0.0","battery-v0.2","","""event"",""trial"",""time""
""fullscreenenter"",""1"",""1648""
""fullscreenenter"",""1"",""1649""
","
","
","""event"",""trial"",""time""
""fullscreenenter"",""1"",""1648""
""fullscreenenter"",""1"",""1649""
","
","","","1707","","","13","12367","2486","&#9826;","elianto","#f73b6a7A","-1"," ","0","-10","[2558]","1","0","3","","","","","","","",""
"pit-trial","60","522821","0.0-2.0-14.0-1.0","battery-v0.2","","""event"",""trial"",""time""
""fullscreenenter"",""1"",""1648""
""fullscreenenter"",""1"",""1649""
","
","
","""event"",""trial"",""time""
""fullscreenenter"",""1"",""1648""
""fullscreenenter"",""1"",""1649""
","
","","","561.0000000000582","","","13","12367","2486","&#9826;","elianto","#f73b6a7A","-1"," ","0","-10","[1411.0000000000582]","1","0","3","","","","","","","",""
"pit-trial","61","525999","0.0-2.0-14.0-2.0","battery-v0.2","","""event"",""trial"",""time""
""fullscreenenter"",""1"",""1648""
""fullscreenenter"",""1"",""1649""
","
","
","""event"",""trial"",""time""
""fullscreenenter"",""1"",""1648""
""fullscreenenter"",""1"",""1649""
","
","","","321","","","13","12367","2486","&#9826;","elianto","#f73b6a7A","-1"," ","0","-10","[1172]","1","0","3","","","","","","","",""
"pit-trial","62","530856","0.0-2.0-14.0-3.0","battery-v0.2","","""event"",""trial"",""time""
""fullscreenenter"",""1"",""1648""
""fullscreenenter"",""1"",""1649""
","
","
","""event"",""trial"",""time""
""fullscreenenter"",""1"",""1648""
""fullscreenenter"",""1"",""1649""
","
","","","-1","","","13","12367","2486","&#9826;","elianto","#f73b6a7A","-1","-1","1","-10","[]","0","0","3","","","","","","","",""
"pit-trial","63","535714","0.0-2.0-14.0-4.0","battery-v0.2","","""event"",""trial"",""time""
""fullscreenenter"",""1"",""1648""
""fullscreenenter"",""1"",""1649""
","
","
","""event"",""trial"",""time""
""fullscreenenter"",""1"",""1648""
""fullscreenenter"",""1"",""1649""
","
","","","-1","","","13","12367","2486","&#9826;","elianto","#f73b6a7A","-1","-1","1","0","[]","0","0","3","","","","","","","",""
"pit-trial","64","540571","0.0-2.0-14.1-0.1","battery-v0.2","","""event"",""trial"",""time""
""fullscreenenter"",""1"",""1648""
""fullscreenenter"",""1"",""1649""
","
","
","""event"",""trial"",""time""
""fullscreenenter"",""1"",""1648""
""fullscreenenter"",""1"",""1649""
","
","","","-1","","","13","12367","2486","&#9826;","elianto","#f73b6a7A","-1","-1","1","0","[]","0","0","3","","","","","","","",""
"pit-trial","65","545427","0.0-2.0-14.1-1.1","battery-v0.2","","""event"",""trial"",""time""
""fullscreenenter"",""1"",""1648""
""fullscreenenter"",""1"",""1649""
","
","
","""event"",""trial"",""time""
""fullscreenenter"",""1"",""1648""
""fullscreenenter"",""1"",""1649""
","
","","","-1","","","13","12367","2486","&#9826;","elianto","#f73b6a7A","-1","-1","1","0","[]","0","0","3","","","","","","","",""
"pit-trial","66","550283","0.0-2.0-14.1-2.1","battery-v0.2","","""event"",""trial"",""time""
""fullscreenenter"",""1"",""1648""
""fullscreenenter"",""1"",""1649""
","
","
","""event"",""trial"",""time""
""fullscreenenter"",""1"",""1648""
""fullscreenenter"",""1"",""1649""
","
","","","-1","","","13","12367","2486","&#9826;","elianto","#f73b6a7A","-1","-1","1","0","[]","0","0","3","","","","","","","",""
"pit-trial","67","555140","0.0-2.0-14.1-3.1","battery-v0.2","","""event"",""trial"",""time""
""fullscreenenter"",""1"",""1648""
""fullscreenenter"",""1"",""1649""
","
","
","""event"",""trial"",""time""
""fullscreenenter"",""1"",""1648""
""fullscreenenter"",""1"",""1649""
","
","","","-1","","","13","12367","2486","&#9826;","elianto","#f73b6a7A","-1","-1","1","-10","[]","0","0","3","","","","","","","",""
"pit-trial","68","559998","0.0-2.0-14.1-4.1","battery-v0.2","","""event"",""trial"",""time""
""fullscreenenter"",""1"",""1648""
""fullscreenenter"",""1"",""1649""
","
","
","""event"",""trial"",""time""
""fullscreenenter"",""1"",""1648""
""fullscreenenter"",""1"",""1649""
","
","","","-1","","","13","12367","2486","&#9826;","elianto","#f73b6a7A","-1","-1","1","0","[]","0","0","3","","","","","","","",""
"pit-trial","69","564855","0.0-2.0-14.2-0.2","battery-v0.2","","""event"",""trial"",""time""
""fullscreenenter"",""1"",""1648""
""fullscreenenter"",""1"",""1649""
","
","
","""event"",""trial"",""time""
""fullscreenenter"",""1"",""1648""
""fullscreenenter"",""1"",""1649""
","
","","","-1","","","13","12367","2486","&#9826;","elianto","#f73b6a7A","-1","-1","1","0","[]","0","0","3","","","","","","","",""
"pit-trial","70","569711","0.0-2.0-14.2-1.2","battery-v0.2","","""event"",""trial"",""time""
""fullscreenenter"",""1"",""1648""
""fullscreenenter"",""1"",""1649""
","
","
","""event"",""trial"",""time""
""fullscreenenter"",""1"",""1648""
""fullscreenenter"",""1"",""1649""
","
","","","-1","","","13","12367","2486","&#9826;","elianto","#f73b6a7A","-1","-1","1","0","[]","0","0","3","","","","","","","",""
"pit-trial","71","574568","0.0-2.0-14.2-2.2","battery-v0.2","","""event"",""trial"",""time""
""fullscreenenter"",""1"",""1648""
""fullscreenenter"",""1"",""1649""
","
","
","""event"",""trial"",""time""
""fullscreenenter"",""1"",""1648""
""fullscreenenter"",""1"",""1649""
","
","","","-1","","","13","12367","2486","&#9826;","elianto","#f73b6a7A","-1","-1","1","0","[]","0","0","3","","","","","","","",""
"pit-trial","72","579424","0.0-2.0-14.2-3.2","battery-v0.2","","""event"",""trial"",""time""
""fullscreenenter"",""1"",""1648""
""fullscreenenter"",""1"",""1649""
","
","
","""event"",""trial"",""time""
""fullscreenenter"",""1"",""1648""
""fullscreenenter"",""1"",""1649""
","
","","","-1","","","13","12367","2486","&#9826;","elianto","#f73b6a7A","-1","-1","1","-10","[]","0","0","3","","","","","","","",""
"pit-trial","73","584281","0.0-2.0-14.2-4.2","battery-v0.2","","""event"",""trial"",""time""
""fullscreenenter"",""1"",""1648""
""fullscreenenter"",""1"",""1649""
","
","
","""event"",""trial"",""time""
""fullscreenenter"",""1"",""1648""
""fullscreenenter"",""1"",""1649""
","
","","","-1","","","13","12367","2486","&#9826;","elianto","#f73b6a7A","-1","-1","1","0","[]","0","0","3","","","","","","","",""
"pit-trial","74","589138","0.0-2.0-14.3-0.3","battery-v0.2","","""event"",""trial"",""time""
""fullscreenenter"",""1"",""1648""
""fullscreenenter"",""1"",""1649""
","
","
","""event"",""trial"",""time""
""fullscreenenter"",""1"",""1648""
""fullscreenenter"",""1"",""1649""
","
","","","-1","","","13","12367","2486","&#9826;","elianto","#f73b6a7A","-1","-1","1","0","[]","0","0","3","","","","","","","",""
"pit-trial","75","593995","0.0-2.0-14.3-1.3","battery-v0.2","","""event"",""trial"",""time""
""fullscreenenter"",""1"",""1648""
""fullscreenenter"",""1"",""1649""
","
","
","""event"",""trial"",""time""
""fullscreenenter"",""1"",""1648""
""fullscreenenter"",""1"",""1649""
","
","","","-1","","","13","12367","2486","&#9826;","elianto","#f73b6a7A","-1","-1","1","0","[]","0","0","3","","","","","","","",""
"pit-trial","76","598852","0.0-2.0-14.3-2.3","battery-v0.2","","""event"",""trial"",""time""
""fullscreenenter"",""1"",""1648""
""fullscreenenter"",""1"",""1649""
","
","
","""event"",""trial"",""time""
""fullscreenenter"",""1"",""1648""
""fullscreenenter"",""1"",""1649""
","
","","","-1","","","13","12367","2486","&#9826;","elianto","#f73b6a7A","-1","-1","1","0","[]","0","0","3","","","","","","","",""
"pit-trial","77","603709","0.0-2.0-14.3-3.3","battery-v0.2","","""event"",""trial"",""time""
""fullscreenenter"",""1"",""1648""
""fullscreenenter"",""1"",""1649""
","
","
","""event"",""trial"",""time""
""fullscreenenter"",""1"",""1648""
""fullscreenenter"",""1"",""1649""
","
","","","-1","","","13","12367","2486","&#9826;","elianto","#f73b6a7A","-1","-1","1","-10","[]","0","0","3","","","","","","","",""
"pit-trial","78","608566","0.0-2.0-14.3-4.3","battery-v0.2","","""event"",""trial"",""time""
""fullscreenenter"",""1"",""1648""
""fullscreenenter"",""1"",""1649""
","
","
","""event"",""trial"",""time""
""fullscreenenter"",""1"",""1648""
""fullscreenenter"",""1"",""1649""
","
","","","-1","","","13","12367","2486","&#9826;","elianto","#f73b6a7A","-1","-1","1","0","[]","0","0","3","","","","","","","",""
"call-function","79","608569","0.0-2.0-15.0","battery-v0.2","","""event"",""trial"",""time""
""fullscreenenter"",""1"",""1648""
""fullscreenenter"",""1"",""1649""
","
","
","""event"",""trial"",""time""
""fullscreenenter"",""1"",""1648""
""fullscreenenter"",""1"",""1649""
","
","","","","","","","","","","","","","","","","","","","","","","","","","","",""
"pit-instructions","80","636881","0.0-2.0-16.0","battery-v0.2","","""event"",""trial"",""time""
""fullscreenenter"",""1"",""1648""
""fullscreenenter"",""1"",""1649""
","
","
","""event"",""trial"",""time""
""fullscreenenter"",""1"",""1648""
""fullscreenenter"",""1"",""1649""
","
","","[{""page_index"":0,""viewing_time"":8219},{""page_index"":1,""viewing_time"":8805},{""page_index"":2,""viewing_time"":5647},{""page_index"":3,""viewing_time"":5650}]","28321","","","","","","","","","","","","","","","","","","","","","","","",""
"pit-trial","81","639993","0.0-2.0-17.0-0.0","battery-v0.2","","""event"",""trial"",""time""
""fullscreenenter"",""1"",""1648""
""fullscreenenter"",""1"",""1649""
","
","
","""event"",""trial"",""time""
""fullscreenenter"",""1"",""1648""
""fullscreenenter"",""1"",""1649""
","
","","","260","","","13","12367","2486","&#9789;","elianto","#f73b6a7A"," "," ","1","0","[1109]","1","0","4","","","","","","","",""
"pit-trial","82","643098","0.0-2.0-17.0-1.0","battery-v0.2","","""event"",""trial"",""time""
""fullscreenenter"",""1"",""1648""
""fullscreenenter"",""1"",""1649""
","
","
","""event"",""trial"",""time""
""fullscreenenter"",""1"",""1648""
""fullscreenenter"",""1"",""1649""
","
","","","250","","","13","12367","2486","&#9789;","elianto","#f73b6a7A"," "," ","1","0","[1101]","1","0","4","","","","","","","",""
"pit-trial","83","646202","0.0-2.0-17.0-2.0","battery-v0.2","","""event"",""trial"",""time""
""fullscreenenter"",""1"",""1648""
""fullscreenenter"",""1"",""1649""
","
","
","""event"",""trial"",""time""
""fullscreenenter"",""1"",""1648""
""fullscreenenter"",""1"",""1649""
","
","","","249","","","13","12367","2486","&#9789;","elianto","#f73b6a7A"," "," ","1","0","[1100]","1","0","4","","","","","","","",""
"pit-trial","84","649545","0.0-2.0-17.0-3.0","battery-v0.2","","""event"",""trial"",""time""
""fullscreenenter"",""1"",""1648""
""fullscreenenter"",""1"",""1649""
","
","
","""event"",""trial"",""time""
""fullscreenenter"",""1"",""1648""
""fullscreenenter"",""1"",""1649""
","
","","","486","","","13","12367","2486","&#9789;","elianto","#f73b6a7A"," "," ","1","-10","[1336]","1","0","4","","","","","","","",""
"pit-trial","85","652700","0.0-2.0-17.0-4.0","battery-v0.2","","""event"",""trial"",""time""
""fullscreenenter"",""1"",""1648""
""fullscreenenter"",""1"",""1649""
","
","
","""event"",""trial"",""time""
""fullscreenenter"",""1"",""1648""
""fullscreenenter"",""1"",""1649""
","
","","","300","","","13","12367","2486","&#9789;","elianto","#f73b6a7A"," "," ","1","0","[1151]","1","0","4","","","","","","","",""
"pit-trial","86","655729","0.0-2.0-17.1-0.1","battery-v0.2","","""event"",""trial"",""time""
""fullscreenenter"",""1"",""1648""
""fullscreenenter"",""1"",""1649""
","
","
","""event"",""trial"",""time""
""fullscreenenter"",""1"",""1648""
""fullscreenenter"",""1"",""1649""
","
","","","168.99999999988358","","","13","12367","2486","&#9789;","elianto","#f73b6a7A"," "," ","1","0","[1019.9999999998836]","1","0","4","","","","","","","",""
"pit-trial","87","658983","0.0-2.0-17.1-1.1","battery-v0.2","","""event"",""trial"",""time""
""fullscreenenter"",""1"",""1648""
""fullscreenenter"",""1"",""1649""
","
","
","""event"",""trial"",""time""
""fullscreenenter"",""1"",""1648""
""fullscreenenter"",""1"",""1649""
","
","","","400.0000000001164","","","13","12367","2486","&#9789;","elianto","#f73b6a7A"," "," ","1","0","[1250]","1","0","4","","","","","","","",""
"pit-trial","88","662199","0.0-2.0-17.1-2.1","battery-v0.2","","""event"",""trial"",""time""
""fullscreenenter"",""1"",""1648""
""fullscreenenter"",""1"",""1649""
","
","
","""event"",""trial"",""time""
""fullscreenenter"",""1"",""1648""
""fullscreenenter"",""1"",""1649""
","
","","","359","","","13","12367","2486","&#9789;","elianto","#f73b6a7A"," "," ","1","0","[1210]","1","0","4","","","","","","","",""
"pit-trial","89","665472","0.0-2.0-17.1-3.1","battery-v0.2","","""event"",""trial"",""time""
""fullscreenenter"",""1"",""1648""
""fullscreenenter"",""1"",""1649""
","
","
","""event"",""trial"",""time""
""fullscreenenter"",""1"",""1648""
""fullscreenenter"",""1"",""1649""
","
","","","417.9999999998836","","","13","12367","2486","&#9789;","elianto","#f73b6a7A"," "," ","1","-10","[1268]","1","0","4","","","","","","","",""
"pit-trial","90","668483","0.0-2.0-17.1-4.1","battery-v0.2","","""event"",""trial"",""time""
""fullscreenenter"",""1"",""1648""
""fullscreenenter"",""1"",""1649""
","
","
","""event"",""trial"",""time""
""fullscreenenter"",""1"",""1648""
""fullscreenenter"",""1"",""1649""
","
","","","154","","","13","12367","2486","&#9789;","elianto","#f73b6a7A"," "," ","1","0","[1005]","1","0","4","","","","","","","",""
"pit-trial","91","671693","0.0-2.0-17.2-0.2","battery-v0.2","","""event"",""trial"",""time""
""fullscreenenter"",""1"",""1648""
""fullscreenenter"",""1"",""1649""
","
","
","""event"",""trial"",""time""
""fullscreenenter"",""1"",""1648""
""fullscreenenter"",""1"",""1649""
","
","","","354","","","13","12367","2486","&#9789;","elianto","#f73b6a7A"," "," ","1","0","[1204]","1","0","4","","","","","","","",""
"pit-trial","92","674707","0.0-2.0-17.2-1.2","battery-v0.2","","""event"",""trial"",""time""
""fullscreenenter"",""1"",""1648""
""fullscreenenter"",""1"",""1649""
","
","
","""event"",""trial"",""time""
""fullscreenenter"",""1"",""1648""
""fullscreenenter"",""1"",""1649""
","
","","","157.00000000011642","","","13","12367","2486","&#9789;","elianto","#f73b6a7A"," "," ","1","0","[1008.0000000001164]","1","0","4","","","","","","","",""
"pit-trial","93","677739","0.0-2.0-17.2-2.2","battery-v0.2","","""event"",""trial"",""time""
""fullscreenenter"",""1"",""1648""
""fullscreenenter"",""1"",""1649""
","
","
","""event"",""trial"",""time""
""fullscreenenter"",""1"",""1648""
""fullscreenenter"",""1"",""1649""
","
","","","176","","","13","12367","2486","&#9789;","elianto","#f73b6a7A"," "," ","1","0","[1026.9999999998836]","1","0","4","","","","","","","",""
"pit-trial","94","681827","0.0-2.0-17.2-3.2","battery-v0.2","","""event"",""trial"",""time""
""fullscreenenter"",""1"",""1648""
""fullscreenenter"",""1"",""1649""
","
","
","""event"",""trial"",""time""
""fullscreenenter"",""1"",""1648""
""fullscreenenter"",""1"",""1649""
","
","","","1232","","","13","12367","2486","&#9789;","elianto","#f73b6a7A"," "," ","1","-10","[2082.0000000001164]","1","0","4","","","","","","","",""
"pit-trial","95","685166","0.0-2.0-17.2-4.2","battery-v0.2","","""event"",""trial"",""time""
""fullscreenenter"",""1"",""1648""
""fullscreenenter"",""1"",""1649""
","
","
","""event"",""trial"",""time""
""fullscreenenter"",""1"",""1648""
""fullscreenenter"",""1"",""1649""
","
","","","482","","","13","12367","2486","&#9789;","elianto","#f73b6a7A"," "," ","1","0","[1333]","1","0","4","","","","","","","",""
"pit-trial","96","689496","0.0-2.0-17.3-0.3","battery-v0.2","","""event"",""trial"",""time""
""fullscreenenter"",""1"",""1648""
""fullscreenenter"",""1"",""1649""
","
","
","""event"",""trial"",""time""
""fullscreenenter"",""1"",""1648""
""fullscreenenter"",""1"",""1649""
","
","","","1472.9999999998836","","","13","12367","2486","&#9789;","elianto","#f73b6a7A"," "," ","1","0","[2324]","1","0","4","","","","","","","",""
"pit-trial","97","692624","0.0-2.0-17.3-1.3","battery-v0.2","","""event"",""trial"",""time""
""fullscreenenter"",""1"",""1648""
""fullscreenenter"",""1"",""1649""
","
","
","""event"",""trial"",""time""
""fullscreenenter"",""1"",""1648""
""fullscreenenter"",""1"",""1649""
","
","","","272.0000000001164","","","13","12367","2486","&#9789;","elianto","#f73b6a7A"," "," ","1","0","[1123.0000000001164]","1","0","4","","","","","","","",""
"pit-trial","98","695752","0.0-2.0-17.3-2.3","battery-v0.2","","""event"",""trial"",""time""
""fullscreenenter"",""1"",""1648""
""fullscreenenter"",""1"",""1649""
","
","
","""event"",""trial"",""time""
""fullscreenenter"",""1"",""1648""
""fullscreenenter"",""1"",""1649""
","
","","","271.9999999998836","","","13","12367","2486","&#9789;","elianto","#f73b6a7A"," "," ","1","0","[1122.9999999998836]","1","0","4","","","","","","","",""
"pit-trial","99","698837","0.0-2.0-17.3-3.3","battery-v0.2","","""event"",""trial"",""time""
""fullscreenenter"",""1"",""1648""
""fullscreenenter"",""1"",""1649""
","
","
","""event"",""trial"",""time""
""fullscreenenter"",""1"",""1648""
""fullscreenenter"",""1"",""1649""
","
","","","229","","","13","12367","2486","&#9789;","elianto","#f73b6a7A"," "," ","1","-10","[1080]","1","0","4","","","","","","","",""
"pit-trial","100","702024","0.0-2.0-17.3-4.3","battery-v0.2","","""event"",""trial"",""time""
""fullscreenenter"",""1"",""1648""
""fullscreenenter"",""1"",""1649""
","
","
","""event"",""trial"",""time""
""fullscreenenter"",""1"",""1648""
""fullscreenenter"",""1"",""1649""
","
","","","331","","","13","12367","2486","&#9789;","elianto","#f73b6a7A"," "," ","1","0","[1182]","1","0","4","","","","","","","",""
"call-function","101","702028","0.0-2.0-18.0","battery-v0.2","","""event"",""trial"",""time""
""fullscreenenter"",""1"",""1648""
""fullscreenenter"",""1"",""1649""
","
","
","""event"",""trial"",""time""
""fullscreenenter"",""1"",""1648""
""fullscreenenter"",""1"",""1649""
","
","","","","","","","","","","","","","","","","","","","","","","","","","","",""
"pit-instructions","102","790020","0.0-2.0-19.0","battery-v0.2","","""event"",""trial"",""time""
""fullscreenenter"",""1"",""1648""
""fullscreenenter"",""1"",""1649""
","
","
","""event"",""trial"",""time""
""fullscreenenter"",""1"",""1648""
""fullscreenenter"",""1"",""1649""
","
","","[{""page_index"":0,""viewing_time"":17308},{""page_index"":1,""viewing_time"":6765},{""page_index"":2,""viewing_time"":14451},{""page_index"":3,""viewing_time"":8666},{""page_index"":4,""viewing_time"":8318},{""page_index"":5,""viewing_time"":8686.000000000116},{""page_index"":6,""viewing_time"":12784},{""page_index"":7,""viewing_time"":6079.999999999884},{""page_index"":8,""viewing_time"":4935}]","87993","","","","","","","","","","","","","","","","","","","","","","","",""
"pit-comprehension","103","795672","0.0-2.0-20.0-0.0","battery-v0.2","","""event"",""trial"",""time""
""fullscreenenter"",""1"",""1648""
""fullscreenenter"",""1"",""1649""
","
","
","""event"",""trial"",""time""
""fullscreenenter"",""1"",""1648""
""fullscreenenter"",""1"",""1649""
","
","","","5647.999999999884","[""SPACE""]","0","13","12367","2486","","","","","","","","","","","","","","","","","","",""
"pit-instructions","104","802152","0.0-2.0-20.0-1.0","battery-v0.2","","""event"",""trial"",""time""
""fullscreenenter"",""1"",""1648""
""fullscreenenter"",""1"",""1649""
","
","
","""event"",""trial"",""time""
""fullscreenenter"",""1"",""1648""
""fullscreenenter"",""1"",""1649""
","
","","[{""page_index"":0,""viewing_time"":6450.999999999884}]","6452","","","","","","","","","","","","","","","","","","","","","","","",""
"pit-comprehension","105","808554","0.0-2.0-21.0-0.0","battery-v0.2","","""event"",""trial"",""time""
""fullscreenenter"",""1"",""1648""
""fullscreenenter"",""1"",""1649""
","
","
","""event"",""trial"",""time""
""fullscreenenter"",""1"",""1648""
""fullscreenenter"",""1"",""1649""
","
","","","6397","[""10""]","0","13","12367","2486","","","","","","","","","","","","","","","","","","",""
"pit-instructions","106","812806","0.0-2.0-21.0-1.0","battery-v0.2","","""event"",""trial"",""time""
""fullscreenenter"",""1"",""1648""
""fullscreenenter"",""1"",""1649""
","
","
","""event"",""trial"",""time""
""fullscreenenter"",""1"",""1648""
""fullscreenenter"",""1"",""1649""
","
","","[{""page_index"":0,""viewing_time"":4223}]","4223","","","","","","","","","","","","","","","","","","","","","","","",""
"pit-comprehension","107","819789","0.0-2.0-22.0-0.0","battery-v0.2","","""event"",""trial"",""time""
""fullscreenenter"",""1"",""1648""
""fullscreenenter"",""1"",""1649""
","
","
","""event"",""trial"",""time""
""fullscreenenter"",""1"",""1648""
""fullscreenenter"",""1"",""1649""
","
","","","6980","[""-10""]","1","13","12367","2486","","","","","","","","","","","","","","","","","","",""
"pit-instructions","108","830355","0.0-2.0-22.0-1.0","battery-v0.2","","""event"",""trial"",""time""
""fullscreenenter"",""1"",""1648""
""fullscreenenter"",""1"",""1649""
","
","
","""event"",""trial"",""time""
""fullscreenenter"",""1"",""1648""
""fullscreenenter"",""1"",""1649""
","
","","[{""page_index"":0,""viewing_time"":10533.000000000116}]","10534","","","","","","","","","","","","","","","","","","","","","","","",""
"pit-instructions","109","832953","0.0-2.0-22.0-2.0-0.0","battery-v0.2","","""event"",""trial"",""time""
""fullscreenenter"",""1"",""1648""
""fullscreenenter"",""1"",""1649""
","
","
","""event"",""trial"",""time""
""fullscreenenter"",""1"",""1648""
""fullscreenenter"",""1"",""1649""
","
","","[{""page_index"":0,""viewing_time"":2594}]","2594","","","","","","","","","","","","","","","","","","","","","","","",""
"pit-comprehension","110","840523","0.0-2.0-22.1-0.1","battery-v0.2","","""event"",""trial"",""time""
""fullscreenenter"",""1"",""1648""
""fullscreenenter"",""1"",""1649""
","
","
","""event"",""trial"",""time""
""fullscreenenter"",""1"",""1648""
""fullscreenenter"",""1"",""1649""
","
","","","7567","[""0""]","0","13","12367","2486","","","","","","","","","","","","","","","","","","",""
"pit-instructions","111","842735","0.0-2.0-22.1-1.1","battery-v0.2","","""event"",""trial"",""time""
""fullscreenenter"",""1"",""1648""
""fullscreenenter"",""1"",""1649""
","
","
","""event"",""trial"",""time""
""fullscreenenter"",""1"",""1648""
""fullscreenenter"",""1"",""1649""
","
","","[{""page_index"":0,""viewing_time"":2180}]","2180","","","","","","","","","","","","","","","","","","","","","","","",""
"pit-comprehension","112","853387","0.0-2.0-23.0-0.0","battery-v0.2","","""event"",""trial"",""time""
""fullscreenenter"",""1"",""1648""
""fullscreenenter"",""1"",""1649""
","
","
","""event"",""trial"",""time""
""fullscreenenter"",""1"",""1648""
""fullscreenenter"",""1"",""1649""
","
","","","10646","[""True""]","0","13","12367","2486","","","","","","","","","","","","","","","","","","",""
"pit-instructions","113","855368","0.0-2.0-23.0-1.0","battery-v0.2","","""event"",""trial"",""time""
""fullscreenenter"",""1"",""1648""
""fullscreenenter"",""1"",""1649""
","
","
","""event"",""trial"",""time""
""fullscreenenter"",""1"",""1648""
""fullscreenenter"",""1"",""1649""
","
","","[{""page_index"":0,""viewing_time"":1958.0000000001164}]","1959","","","","","","","","","","","","","","","","","","","","","","","",""
"pit-comprehension","114","863106","0.0-2.0-24.0-0.0","battery-v0.2","","""event"",""trial"",""time""
""fullscreenenter"",""1"",""1648""
""fullscreenenter"",""1"",""1649""
","
","
","""event"",""trial"",""time""
""fullscreenenter"",""1"",""1648""
""fullscreenenter"",""1"",""1649""
","
","","","7732","[""True""]","0","13","12367","2486","","","","","","","","","","","","","","","","","","",""
"pit-instructions","115","865285","0.0-2.0-24.0-1.0","battery-v0.2","","""event"",""trial"",""time""
""fullscreenenter"",""1"",""1648""
""fullscreenenter"",""1"",""1649""
","
","
","""event"",""trial"",""time""
""fullscreenenter"",""1"",""1648""
""fullscreenenter"",""1"",""1649""
","
","","[{""page_index"":0,""viewing_time"":2149}]","2149","","","","","","","","","","","","","","","","","","","","","","","",""
"pit-comprehension","116","871792","0.0-2.0-25.0-0.0","battery-v0.2","","""event"",""trial"",""time""
""fullscreenenter"",""1"",""1648""
""fullscreenenter"",""1"",""1649""
","
","
","""event"",""trial"",""time""
""fullscreenenter"",""1"",""1648""
""fullscreenenter"",""1"",""1649""
","
","","","6503","[""True""]","0","13","12367","2486","","","","","","","","","","","","","","","","","","",""
"pit-instructions","117","873439","0.0-2.0-25.0-1.0","battery-v0.2","","""event"",""trial"",""time""
""fullscreenenter"",""1"",""1648""
""fullscreenenter"",""1"",""1649""
","
","
","""event"",""trial"",""time""
""fullscreenenter"",""1"",""1648""
""fullscreenenter"",""1"",""1649""
","
","","[{""page_index"":0,""viewing_time"":1615}]","1616.0000000001164","","","","","","","","","","","","","","","","","","","","","","","",""
"pit-comprehension","118","881191","0.0-2.0-26.0-0.0","battery-v0.2","","""event"",""trial"",""time""
""fullscreenenter"",""1"",""1648""
""fullscreenenter"",""1"",""1649""
","
","
","""event"",""trial"",""time""
""fullscreenenter"",""1"",""1648""
""fullscreenenter"",""1"",""1649""
","
","","","7747","[""False""]","0","13","12367","2486","","","","","","","","","","","","","","","","","","",""
"pit-instructions","119","882852","0.0-2.0-26.0-1.0","battery-v0.2","","""event"",""trial"",""time""
""fullscreenenter"",""1"",""1648""
""fullscreenenter"",""1"",""1649""
","
","
","""event"",""trial"",""time""
""fullscreenenter"",""1"",""1648""
""fullscreenenter"",""1"",""1649""
","
","","[{""page_index"":0,""viewing_time"":1628.9999999998836}]","1628.9999999998836","","","","","","","","","","","","","","","","","","","","","","","",""
"pit-instructions","120","900006","0.0-3.0","battery-v0.2","","""event"",""trial"",""time""
""fullscreenenter"",""1"",""1648""
""fullscreenenter"",""1"",""1649""
","
","
","""event"",""trial"",""time""
""fullscreenenter"",""1"",""1648""
""fullscreenenter"",""1"",""1649""
","
","","[{""page_index"":0,""viewing_time"":4064},{""page_index"":1,""viewing_time"":6048},{""page_index"":2,""viewing_time"":7037}]","17150","","","","","","","","","","","","","","","","","","","","","","","",""
"pit-trial","121","903601","0.0-4.0","battery-v0.2","","""event"",""trial"",""time""
""fullscreenenter"",""1"",""1648""
""fullscreenenter"",""1"",""1649""
","
","
","""event"",""trial"",""time""
""fullscreenenter"",""1"",""1648""
""fullscreenenter"",""1"",""1649""
","
","","","736","","","13","12367","2486","&#9733;","elianto","#3366ff99","-1"," ","0","+10","[1587]","1","1","","","12367","1","2","2","win","no-go","1"
"pit-trial","122","907230","0.0-5.0","battery-v0.2","","""event"",""trial"",""time""
""fullscreenenter"",""1"",""1648""
""fullscreenenter"",""1"",""1649""
","
","
","""event"",""trial"",""time""
""fullscreenenter"",""1"",""1648""
""fullscreenenter"",""1"",""1649""
","
","","","770","","","13","12367","2486","&#9752;","elianto","#f73b6a7A"," "," ","1","-10","[1621]","1","1","","","12367","2","3","3","lose","go","1"
"pit-trial","123","911029","0.0-6.0","battery-v0.2","","""event"",""trial"",""time""
""fullscreenenter"",""1"",""1648""
""fullscreenenter"",""1"",""1649""
","
","
","""event"",""trial"",""time""
""fullscreenenter"",""1"",""1648""
""fullscreenenter"",""1"",""1649""
","
","","","942","","","13","12367","2486","&#9730;","elianto","#3366ff99"," "," ","1","+10","[1792]","1","1","","","12367","3","1","1","win","go","0"
"pit-trial","124","915888","0.0-7.0","battery-v0.2","","""event"",""trial"",""time""
""fullscreenenter"",""1"",""1648""
""fullscreenenter"",""1"",""1649""
","
","
","""event"",""trial"",""time""
""fullscreenenter"",""1"",""1648""
""fullscreenenter"",""1"",""1649""
","
","","","-1","","","13","12367","2486","&#9728;","elianto","#f73b6a7A","-1","-1","1","0","[]","0","1","","","12367","4","0","4","lose","no-go","0"
"pit-trial","125","920747","0.0-8.0","battery-v0.2","","""event"",""trial"",""time""
""fullscreenenter"",""1"",""1648""
""fullscreenenter"",""1"",""1649""
","
","
","""event"",""trial"",""time""
""fullscreenenter"",""1"",""1648""
""fullscreenenter"",""1"",""1649""
","
","","","-1","","","13","12367","2486","&#9752;","elianto","#f73b6a7A"," ","-1","0","-10","[]","0","1","","","12367","5","3","3","lose","go","0"
"pit-trial","126","924813","0.0-9.0","battery-v0.2","","""event"",""trial"",""time""
""fullscreenenter"",""1"",""1648""
""fullscreenenter"",""1"",""1649""
","
","
","""event"",""trial"",""time""
""fullscreenenter"",""1"",""1648""
""fullscreenenter"",""1"",""1649""
","
","","","1208","","","13","12367","2486","&#9730;","elianto","#3366ff99"," "," ","1","+10","[2058]","1","1","","","12367","6","1","1","win","go","0"
"pit-trial","127","928391","0.0-10.0","battery-v0.2","","""event"",""trial"",""time""
""fullscreenenter"",""1"",""1648""
""fullscreenenter"",""1"",""1649""
","
","
","""event"",""trial"",""time""
""fullscreenenter"",""1"",""1648""
""fullscreenenter"",""1"",""1649""
","
","","","719.9999999998836","","","13","12367","2486","&#9733;","elianto","#3366ff99","-1"," ","0","0","[1570.9999999998836]","1","1","","","12367","7","2","2","win","no-go","0"
"pit-trial","128","933250","0.0-11.0","battery-v0.2","","""event"",""trial"",""time""
""fullscreenenter"",""1"",""1648""
""fullscreenenter"",""1"",""1649""
","
","
","""event"",""trial"",""time""
""fullscreenenter"",""1"",""1648""
""fullscreenenter"",""1"",""1649""
","
","","","-1","","","13","12367","2486","&#9728;","elianto","#f73b6a7A","-1","-1","1","0","[]","0","1","","","12367","8","0","4","lose","no-go","0"
"pit-trial","129","938107","0.0-12.0","battery-v0.2","","""event"",""trial"",""time""
""fullscreenenter"",""1"",""1648""
""fullscreenenter"",""1"",""1649""
","
","
","""event"",""trial"",""time""
""fullscreenenter"",""1"",""1648""
""fullscreenenter"",""1"",""1649""
","
","","","-1","","","13","12367","2486","&#9752;","elianto","#f73b6a7A"," ","-1","0","-10","[732]","1","1","","","12367","9","3","3","lose","go","0"
"pit-trial","130","942090","0.0-13.0","battery-v0.2","","""event"",""trial"",""time""
""fullscreenenter"",""1"",""1648""
""fullscreenenter"",""1"",""1649""
","
","
","""event"",""trial"",""time""
""fullscreenenter"",""1"",""1648""
""fullscreenenter"",""1"",""1649""
","
","","","1120.9999999998836","","","13","12367","2486","&#9730;","elianto","#3366ff99"," "," ","1","+10","[1971.9999999998836]","1","1","","","12367","10","1","1","win","go","0"
"pit-trial","131","945738","0.0-14.0","battery-v0.2","","""event"",""trial"",""time""
""fullscreenenter"",""1"",""1648""
""fullscreenenter"",""1"",""1649""
","
","
","""event"",""trial"",""time""
""fullscreenenter"",""1"",""1648""
""fullscreenenter"",""1"",""1649""
","
","","","790","","","13","12367","2486","&#9733;","elianto","#3366ff99","-1"," ","0","0","[1641]","1","1","","","12367","11","2","2","win","no-go","0"
"pit-trial","132","950194","0.0-15.0","battery-v0.2","","""event"",""trial"",""time""
""fullscreenenter"",""1"",""1648""
""fullscreenenter"",""1"",""1649""
","
","
","""event"",""trial"",""time""
""fullscreenenter"",""1"",""1648""
""fullscreenenter"",""1"",""1649""
","
","","","1598.0000000001164","","","13","12367","2486","&#9728;","elianto","#f73b6a7A","-1"," ","0","-10","[2448.0000000001164]","1","1","","","12367","12","0","4","lose","no-go","0"
"pit-trial","133","954427","0.0-16.0","battery-v0.2","","""event"",""trial"",""time""
""fullscreenenter"",""1"",""1648""
""fullscreenenter"",""1"",""1649""
","
","
","""event"",""trial"",""time""
""fullscreenenter"",""1"",""1648""
""fullscreenenter"",""1"",""1649""
","
","","","1375","","","13","12367","2486","&#9752;","elianto","#f73b6a7A"," "," ","1","-10","[2225]","1","1","","","12367","13","3","3","lose","go","1"
"pit-trial","134","959021","0.0-17.0","battery-v0.2","","""event"",""trial"",""time""
""fullscreenenter"",""1"",""1648""
""fullscreenenter"",""1"",""1649""
","
","
","""event"",""trial"",""time""
""fullscreenenter"",""1"",""1648""
""fullscreenenter"",""1"",""1649""
","
","","","1733.0000000001164","","","13","12367","2486","&#9733;","elianto","#3366ff99","-1"," ","0","0","[2583]","1","1","","","12367","14","2","2","win","no-go","0"
"pit-trial","135","962674","0.0-18.0","battery-v0.2","","""event"",""trial"",""time""
""fullscreenenter"",""1"",""1648""
""fullscreenenter"",""1"",""1649""
","
","
","""event"",""trial"",""time""
""fullscreenenter"",""1"",""1648""
""fullscreenenter"",""1"",""1649""
","
","","","794","","","13","12367","2486","&#9730;","elianto","#3366ff99"," "," ","1","+10","[1645]","1","1","","","12367","15","1","1","win","go","0"
"pit-trial","136","967533","0.0-19.0","battery-v0.2","","""event"",""trial"",""time""
""fullscreenenter"",""1"",""1648""
""fullscreenenter"",""1"",""1649""
","
","
","""event"",""trial"",""time""
""fullscreenenter"",""1"",""1648""
""fullscreenenter"",""1"",""1649""
","
","","","-1","","","13","12367","2486","&#9728;","elianto","#f73b6a7A","-1","-1","1","0","[2984]","1","1","","","12367","16","0","4","lose","no-go","0"
"pit-trial","137","972392","0.0-20.0","battery-v0.2","","""event"",""trial"",""time""
""fullscreenenter"",""1"",""1648""
""fullscreenenter"",""1"",""1649""
","
","
","""event"",""trial"",""time""
""fullscreenenter"",""1"",""1648""
""fullscreenenter"",""1"",""1649""
","
","","","-1","","","13","12367","2486","&#9730;","elianto","#3366ff99"," ","-1","0","+10","[]","0","1","","","12367","17","1","1","win","go","1"
"pit-trial","138","977251","0.0-21.0","battery-v0.2","","""event"",""trial"",""time""
""fullscreenenter"",""1"",""1648""
""fullscreenenter"",""1"",""1649""
","
","
","""event"",""trial"",""time""
""fullscreenenter"",""1"",""1648""
""fullscreenenter"",""1"",""1649""
","
","","","-1","","","13","12367","2486","&#9752;","elianto","#f73b6a7A"," ","-1","0","-10","[]","0","1","","","12367","18","3","3","lose","go","0"
"pit-trial","139","982110","0.0-22.0","battery-v0.2","","""event"",""trial"",""time""
""fullscreenenter"",""1"",""1648""
""fullscreenenter"",""1"",""1649""
","
","
","""event"",""trial"",""time""
""fullscreenenter"",""1"",""1648""
""fullscreenenter"",""1"",""1649""
","
","","","-1","","","13","12367","2486","&#9728;","elianto","#f73b6a7A","-1","-1","1","0","[]","0","1","","","12367","19","0","4","lose","no-go","0"
"pit-trial","140","986322","0.0-23.0","battery-v0.2","","""event"",""trial"",""time""
""fullscreenenter"",""1"",""1648""
""fullscreenenter"",""1"",""1649""
","
","
","""event"",""trial"",""time""
""fullscreenenter"",""1"",""1648""
""fullscreenenter"",""1"",""1649""
","
","","","1354","","","13","12367","2486","&#9733;","elianto","#3366ff99","-1"," ","0","0","[2205.9999999998836]","1","1","","","12367","20","2","2","win","no-go","0"
"pit-instructions","141","1048222","0.0-24.0","battery-v0.2","","""event"",""trial"",""time""
""fullscreenenter"",""1"",""1648""
""fullscreenenter"",""1"",""1649""
","
","
","""event"",""trial"",""time""
""fullscreenenter"",""1"",""1648""
""fullscreenenter"",""1"",""1649""
","
","","[{""page_index"":0,""viewing_time"":42824},{""page_index"":1,""viewing_time"":19070}]","61894","","","","","","","","","","","","","","","","","","","","","","","",""
"pit-trial","142","1051818","0.0-25.0","battery-v0.2","","""event"",""trial"",""time""
""fullscreenenter"",""1"",""1648""
""fullscreenenter"",""1"",""1649""
","
","
","""event"",""trial"",""time""
""fullscreenenter"",""1"",""1648""
""fullscreenenter"",""1"",""1649""
","
","","","736","","","13","12367","2486","w","elianto","#f73b6a7A"," "," ","1","0","[1588]","1","2","","","12367","21","3","3","lose","go","0"
"pit-trial","143","1055561","0.0-26.0","battery-v0.2","","""event"",""trial"",""time""
""fullscreenenter"",""1"",""1648""
""fullscreenenter"",""1"",""1649""
","
","
","""event"",""trial"",""time""
""fullscreenenter"",""1"",""1648""
""fullscreenenter"",""1"",""1649""
","
","","","884","","","13","12367","2486","e","elianto","#f73b6a7A","-1"," ","0","-10","[1736]","1","2","","","12367","22","2","4","lose","no-go","0"
"pit-trial","144","1059254","0.0-27.0","battery-v0.2","","""event"",""trial"",""time""
""fullscreenenter"",""1"",""1648""
""fullscreenenter"",""1"",""1649""
","
","
","""event"",""trial"",""time""
""fullscreenenter"",""1"",""1648""
""fullscreenenter"",""1"",""1649""
","
","","","835","","","13","12367","2486","j","elianto","#f73b6a7A","-1"," ","0","-10","[1685.9999999997672]","1","2","","","12367","23","0","4","lose","no-go","0"
"pit-trial","145","1063336","0.0-28.0","battery-v0.2","","""event"",""trial"",""time""
""fullscreenenter"",""1"",""1648""
""fullscreenenter"",""1"",""1649""
","
","
","""event"",""trial"",""time""
""fullscreenenter"",""1"",""1648""
""fullscreenenter"",""1"",""1649""
","
","","","1222","","","13","12367","2486","d","elianto","#3366ff99"," "," ","1","+10","[2072]","1","2","","","12367","24","1","1","win","go","0"
"pit-trial","146","1067198","0.0-29.0","battery-v0.2","","""event"",""trial"",""time""
""fullscreenenter"",""1"",""1648""
""fullscreenenter"",""1"",""1649""
","
","
","""event"",""trial"",""time""
""fullscreenenter"",""1"",""1648""
""fullscreenenter"",""1"",""1649""
","
","","","1004","","","13","12367","2486","w","elianto","#f73b6a7A"," "," ","1","-10","[1855]","1","2","","","12367","25","3","3","lose","go","1"
"pit-trial","147","1071156","0.0-30.0","battery-v0.2","","""event"",""trial"",""time""
""fullscreenenter"",""1"",""1648""
""fullscreenenter"",""1"",""1649""
","
","
","""event"",""trial"",""time""
""fullscreenenter"",""1"",""1648""
""fullscreenenter"",""1"",""1649""
","
","","","1099","","","13","12367","2486","d","elianto","#3366ff99"," "," ","1","+10","[1950]","1","2","","","12367","26","1","1","win","go","0"
"pit-trial","148","1074834","0.0-31.0","battery-v0.2","","""event"",""trial"",""time""
""fullscreenenter"",""1"",""1648""
""fullscreenenter"",""1"",""1649""
","
","
","""event"",""trial"",""time""
""fullscreenenter"",""1"",""1648""
""fullscreenenter"",""1"",""1649""
","
","","","819","","","13","12367","2486","e","elianto","#f73b6a7A","-1"," ","0","0","[1670]","1","2","","","12367","27","2","4","lose","no-go","1"
"pit-trial","149","1078857","0.0-32.0","battery-v0.2","","""event"",""trial"",""time""
""fullscreenenter"",""1"",""1648""
""fullscreenenter"",""1"",""1649""
","
","
","""event"",""trial"",""time""
""fullscreenenter"",""1"",""1648""
""fullscreenenter"",""1"",""1649""
","
","","","1166.0000000002328","","","13","12367","2486","j","elianto","#f73b6a7A","-1"," ","0","-10","[2016.0000000002328]","1","2","","","12367","28","0","4","lose","no-go","0"
"pit-trial","150","1083058","0.0-33.0","battery-v0.2","","""event"",""trial"",""time""
""fullscreenenter"",""1"",""1648""
""fullscreenenter"",""1"",""1649""
","
","
","""event"",""trial"",""time""
""fullscreenenter"",""1"",""1648""
""fullscreenenter"",""1"",""1649""
","
","","","1342","","","13","12367","2486","w","elianto","#f73b6a7A"," "," ","1","0","[2193]","1","2","","","12367","29","3","3","lose","go","0"
"pit-trial","151","1086878","0.0-34.0","battery-v0.2","","""event"",""trial"",""time""
""fullscreenenter"",""1"",""1648""
""fullscreenenter"",""1"",""1649""
","
","
","""event"",""trial"",""time""
""fullscreenenter"",""1"",""1648""
""fullscreenenter"",""1"",""1649""
","
","","","963","","","13","12367","2486","j","elianto","#f73b6a7A","-1"," ","0","-10","[1813]","1","2","","","12367","30","0","4","lose","no-go","0"
"pit-trial","152","1090696","0.0-35.0","battery-v0.2","","""event"",""trial"",""time""
""fullscreenenter"",""1"",""1648""
""fullscreenenter"",""1"",""1649""
","
","
","""event"",""trial"",""time""
""fullscreenenter"",""1"",""1648""
""fullscreenenter"",""1"",""1649""
","
","","","961","","","13","12367","2486","d","elianto","#3366ff99"," "," ","1","+10","[1810.9999999997672]","1","2","","","12367","31","1","1","win","go","0"
"pit-trial","153","1095225","0.0-36.0","battery-v0.2","","""event"",""trial"",""time""
""fullscreenenter"",""1"",""1648""
""fullscreenenter"",""1"",""1649""
","
","
","""event"",""trial"",""time""
""fullscreenenter"",""1"",""1648""
""fullscreenenter"",""1"",""1649""
","
","","","1670","","","13","12367","2486","e","elianto","#f73b6a7A","-1"," ","0","-10","[2520]","1","2","","","12367","32","2","4","lose","no-go","0"
"pit-trial","154","1098862","0.0-37.0","battery-v0.2","","""event"",""trial"",""time""
""fullscreenenter"",""1"",""1648""
""fullscreenenter"",""1"",""1649""
","
","
","""event"",""trial"",""time""
""fullscreenenter"",""1"",""1648""
""fullscreenenter"",""1"",""1649""
","
","","","779","","","13","12367","2486","d","elianto","#3366ff99"," "," ","1","+10","[1631]","1","2","","","12367","33","1","1","win","go","0"
"pit-trial","155","1103721","0.0-38.0","battery-v0.2","","""event"",""trial"",""time""
""fullscreenenter"",""1"",""1648""
""fullscreenenter"",""1"",""1649""
","
","
","""event"",""trial"",""time""
""fullscreenenter"",""1"",""1648""
""fullscreenenter"",""1"",""1649""
","
","","","-1","","","13","12367","2486","e","elianto","#f73b6a7A","-1","-1","1","0","[]","0","2","","","12367","34","2","4","lose","no-go","0"
"pit-trial","156","1108579","0.0-39.0","battery-v0.2","","""event"",""trial"",""time""
""fullscreenenter"",""1"",""1648""
""fullscreenenter"",""1"",""1649""
","
","
","""event"",""trial"",""time""
""fullscreenenter"",""1"",""1648""
""fullscreenenter"",""1"",""1649""
","
","","","-1","","","13","12367","2486","j","elianto","#f73b6a7A","-1","-1","1","0","[]","0","2","","","12367","35","0","4","lose","no-go","0"
"pit-trial","157","1113405","0.0-40.0","battery-v0.2","","""event"",""trial"",""time""
""fullscreenenter"",""1"",""1648""
""fullscreenenter"",""1"",""1649""
","
","
","""event"",""trial"",""time""
""fullscreenenter"",""1"",""1648""
""fullscreenenter"",""1"",""1649""
","
","","","1968","","","13","12367","2486","w","elianto","#f73b6a7A"," "," ","1","0","[2819]","1","2","","","12367","36","3","3","lose","go","0"
"pit-trial","158","1118264","0.0-41.0","battery-v0.2","","""event"",""trial"",""time""
""fullscreenenter"",""1"",""1648""
""fullscreenenter"",""1"",""1649""
","
","
","""event"",""trial"",""time""
""fullscreenenter"",""1"",""1648""
""fullscreenenter"",""1"",""1649""
","
","","","-1","","","13","12367","2486","e","elianto","#f73b6a7A","-1","-1","1","0","[]","0","2","","","12367","37","2","4","lose","no-go","0"
"pit-trial","159","1123122","0.0-42.0","battery-v0.2","","""event"",""trial"",""time""
""fullscreenenter"",""1"",""1648""
""fullscreenenter"",""1"",""1649""
","
","
","""event"",""trial"",""time""
""fullscreenenter"",""1"",""1648""
""fullscreenenter"",""1"",""1649""
","
","","","-1","","","13","12367","2486","w","elianto","#f73b6a7A"," ","-1","0","-10","[]","0","2","","","12367","38","3","3","lose","go","0"
"pit-trial","160","1127981","0.0-43.0","battery-v0.2","","""event"",""trial"",""time""
""fullscreenenter"",""1"",""1648""
""fullscreenenter"",""1"",""1649""
","
","
","""event"",""trial"",""time""
""fullscreenenter"",""1"",""1648""
""fullscreenenter"",""1"",""1649""
","
","","","-1","","","13","12367","2486","j","elianto","#f73b6a7A","-1","-1","1","0","[]","0","2","","","12367","39","0","4","lose","no-go","0"
"pit-trial","161","1132326","0.0-44.0","battery-v0.2","","""event"",""trial"",""time""
""fullscreenenter"",""1"",""1648""
""fullscreenenter"",""1"",""1649""
","
","
","""event"",""trial"",""time""
""fullscreenenter"",""1"",""1648""
""fullscreenenter"",""1"",""1649""
","
","","","1487.0000000002328","","","13","12367","2486","d","elianto","#3366ff99"," "," ","1","+10","[2338.000000000233]","1","2","","","12367","40","1","1","win","go","0"
"pit-trial","162","1137185","0.0-45.0","battery-v0.2","","""event"",""trial"",""time""
""fullscreenenter"",""1"",""1648""
""fullscreenenter"",""1"",""1649""
","
","
","""event"",""trial"",""time""
""fullscreenenter"",""1"",""1648""
""fullscreenenter"",""1"",""1649""
","
","","","-1","","","13","12367","2486","e","elianto","#f73b6a7A","-1","-1","1","0","[]","0","2","","","12367","41","2","4","lose","no-go","0"
"pit-trial","163","1142044","0.0-46.0","battery-v0.2","","""event"",""trial"",""time""
""fullscreenenter"",""1"",""1648""
""fullscreenenter"",""1"",""1649""
","
","
","""event"",""trial"",""time""
""fullscreenenter"",""1"",""1648""
""fullscreenenter"",""1"",""1649""
","
","","","-1","","","13","12367","2486","w","elianto","#f73b6a7A"," ","-1","0","0","[]","0","2","","","12367","42","3","3","lose","go","1"
"pit-trial","164","1146266","0.0-47.0","battery-v0.2","","""event"",""trial"",""time""
""fullscreenenter"",""1"",""1648""
""fullscreenenter"",""1"",""1649""
","
","
","""event"",""trial"",""time""
""fullscreenenter"",""1"",""1648""
""fullscreenenter"",""1"",""1649""
","
","","","1366","","","13","12367","2486","d","elianto","#3366ff99"," "," ","1","+10","[2217]","1","2","","","12367","43","1","1","win","go","0"
"pit-trial","165","1151125","0.0-48.0","battery-v0.2","","""event"",""trial"",""time""
""fullscreenenter"",""1"",""1648""
""fullscreenenter"",""1"",""1649""
","
","
","""event"",""trial"",""time""
""fullscreenenter"",""1"",""1648""
""fullscreenenter"",""1"",""1649""
","
","","","-1","","","13","12367","2486","j","elianto","#f73b6a7A","-1","-1","1","-10","[]","0","2","","","12367","44","0","4","lose","no-go","1"
"pit-trial","166","1155983","0.0-49.0","battery-v0.2","","""event"",""trial"",""time""
""fullscreenenter"",""1"",""1648""
""fullscreenenter"",""1"",""1649""
","
","
","""event"",""trial"",""time""
""fullscreenenter"",""1"",""1648""
""fullscreenenter"",""1"",""1649""
","
","","","-1","","","13","12367","2486","e","elianto","#f73b6a7A","-1","-1","1","-10","[]","0","2","","","12367","45","2","4","lose","no-go","1"
"pit-trial","167","1160601","0.0-50.0","battery-v0.2","","""event"",""trial"",""time""
""fullscreenenter"",""1"",""1648""
""fullscreenenter"",""1"",""1649""
","
","
","""event"",""trial"",""time""
""fullscreenenter"",""1"",""1648""
""fullscreenenter"",""1"",""1649""
","
","","","1760","","","13","12367","2486","w","elianto","#f73b6a7A"," "," ","1","0","[2611]","1","2","","","12367","46","3","3","lose","go","0"
"pit-trial","168","1164766","0.0-51.0","battery-v0.2","","""event"",""trial"",""time""
""fullscreenenter"",""1"",""1648""
""fullscreenenter"",""1"",""1649""
","
","
","""event"",""trial"",""time""
""fullscreenenter"",""1"",""1648""
""fullscreenenter"",""1"",""1649""
","
","","","1307","","","13","12367","2486","s","elianto","#3366ff99","-1"," ","0","0","[2158]","1","2","","","12367","47","4","2","win","no-go","0"
"pit-trial","169","1169625","0.0-52.0","battery-v0.2","","""event"",""trial"",""time""
""fullscreenenter"",""1"",""1648""
""fullscreenenter"",""1"",""1649""
","
","
","""event"",""trial"",""time""
""fullscreenenter"",""1"",""1648""
""fullscreenenter"",""1"",""1649""
","
","","","-1","","","13","12367","2486","j","elianto","#f73b6a7A","-1","-1","1","0","[]","0","2","","","12367","48","0","4","lose","no-go","0"
"pit-trial","170","1173559","0.0-53.0","battery-v0.2","","""event"",""trial"",""time""
""fullscreenenter"",""1"",""1648""
""fullscreenenter"",""1"",""1649""
","
","
","""event"",""trial"",""time""
""fullscreenenter"",""1"",""1648""
""fullscreenenter"",""1"",""1649""
","
","","","1076","","","13","12367","2486","d","elianto","#3366ff99"," "," ","1","+10","[1927]","1","2","","","12367","49","1","1","win","go","0"
"pit-trial","171","1178419","0.0-54.0","battery-v0.2","","""event"",""trial"",""time""
""fullscreenenter"",""1"",""1648""
""fullscreenenter"",""1"",""1649""
","
","
","""event"",""trial"",""time""
""fullscreenenter"",""1"",""1648""
""fullscreenenter"",""1"",""1649""
","
","","","-1","","","13","12367","2486","s","elianto","#3366ff99","-1","-1","1","+10","[]","0","2","","","12367","50","4","2","win","no-go","0"
"pit-trial","172","1183278","0.0-55.0","battery-v0.2","","""event"",""trial"",""time""
""fullscreenenter"",""1"",""1648""
""fullscreenenter"",""1"",""1649""
","
","
","""event"",""trial"",""time""
""fullscreenenter"",""1"",""1648""
""fullscreenenter"",""1"",""1649""
","
","","","-1","","","13","12367","2486","j","elianto","#f73b6a7A","-1","-1","1","-10","[]","0","2","","","12367","51","0","4","lose","no-go","1"
"pit-trial","173","1188136","0.0-56.0","battery-v0.2","","""event"",""trial"",""time""
""fullscreenenter"",""1"",""1648""
""fullscreenenter"",""1"",""1649""
","
","
","""event"",""trial"",""time""
""fullscreenenter"",""1"",""1648""
""fullscreenenter"",""1"",""1649""
","
","","","-1","","","13","12367","2486","w","elianto","#f73b6a7A"," ","-1","0","0","[]","0","2","","","12367","52","3","3","lose","go","1"
"pit-trial","174","1192994","0.0-57.0","battery-v0.2","","""event"",""trial"",""time""
""fullscreenenter"",""1"",""1648""
""fullscreenenter"",""1"",""1649""
","
","
","""event"",""trial"",""time""
""fullscreenenter"",""1"",""1648""
""fullscreenenter"",""1"",""1649""
","
","","","-1","","","13","12367","2486","s","elianto","#3366ff99","-1","-1","1","+10","[]","0","2","","","12367","53","4","2","win","no-go","0"
"pit-trial","175","1197854","0.0-58.0","battery-v0.2","","""event"",""trial"",""time""
""fullscreenenter"",""1"",""1648""
""fullscreenenter"",""1"",""1649""
","
","
","""event"",""trial"",""time""
""fullscreenenter"",""1"",""1648""
""fullscreenenter"",""1"",""1649""
","
","","","-1","","","13","12367","2486","j","elianto","#f73b6a7A","-1","-1","1","-10","[]","0","2","","","12367","54","0","4","lose","no-go","1"
"pit-trial","176","1201442","0.0-59.0","battery-v0.2","","""event"",""trial"",""time""
""fullscreenenter"",""1"",""1648""
""fullscreenenter"",""1"",""1649""
","
","
","""event"",""trial"",""time""
""fullscreenenter"",""1"",""1648""
""fullscreenenter"",""1"",""1649""
","
","","","729","","","13","12367","2486","d","elianto","#3366ff99"," "," ","1","+10","[1580]","1","2","","","12367","55","1","1","win","go","0"
"pit-trial","177","1206300","0.0-60.0","battery-v0.2","","""event"",""trial"",""time""
""fullscreenenter"",""1"",""1648""
""fullscreenenter"",""1"",""1649""
","
","
","""event"",""trial"",""time""
""fullscreenenter"",""1"",""1648""
""fullscreenenter"",""1"",""1649""
","
","","","-1","","","13","12367","2486","e","elianto","#f73b6a7A","-1","-1","1","0","[]","0","2","","","12367","56","2","4","lose","no-go","0"
"pit-trial","178","1211159","0.0-61.0","battery-v0.2","","""event"",""trial"",""time""
""fullscreenenter"",""1"",""1648""
""fullscreenenter"",""1"",""1649""
","
","
","""event"",""trial"",""time""
""fullscreenenter"",""1"",""1648""
""fullscreenenter"",""1"",""1649""
","
","","","-1","","","13","12367","2486","s","elianto","#3366ff99","-1","-1","1","+10","[]","0","2","","","12367","57","4","2","win","no-go","0"
"pit-trial","179","1215335","0.0-62.0","battery-v0.2","","""event"",""trial"",""time""
""fullscreenenter"",""1"",""1648""
""fullscreenenter"",""1"",""1649""
","
","
","""event"",""trial"",""time""
""fullscreenenter"",""1"",""1648""
""fullscreenenter"",""1"",""1649""
","
","","","1319","","","13","12367","2486","d","elianto","#3366ff99"," "," ","1","+10","[2170]","1","2","","","12367","58","1","1","win","go","0"
"pit-trial","180","1220193","0.0-63.0","battery-v0.2","","""event"",""trial"",""time""
""fullscreenenter"",""1"",""1648""
""fullscreenenter"",""1"",""1649""
","
","
","""event"",""trial"",""time""
""fullscreenenter"",""1"",""1648""
""fullscreenenter"",""1"",""1649""
","
","","","-1","","","13","12367","2486","j","elianto","#f73b6a7A","-1","-1","1","-10","[]","0","2","","","12367","59","0","4","lose","no-go","1"
"pit-trial","181","1225052","0.0-64.0","battery-v0.2","","""event"",""trial"",""time""
""fullscreenenter"",""1"",""1648""
""fullscreenenter"",""1"",""1649""
","
","
","""event"",""trial"",""time""
""fullscreenenter"",""1"",""1648""
""fullscreenenter"",""1"",""1649""
","
","","","-1","","","13","12367","2486","w","elianto","#f73b6a7A"," ","-1","0","-10","[]","0","2","","","12367","60","3","3","lose","go","0"
"pit-trial","182","1229911","0.0-65.0","battery-v0.2","","""event"",""trial"",""time""
""fullscreenenter"",""1"",""1648""
""fullscreenenter"",""1"",""1649""
","
","
","""event"",""trial"",""time""
""fullscreenenter"",""1"",""1648""
""fullscreenenter"",""1"",""1649""
","
","","","-1","","","13","12367","2486","d","elianto","#3366ff99"," ","-1","0","+10","[2953]","1","2","","","12367","61","1","1","win","go","1"
"pit-trial","183","1234769","0.0-66.0","battery-v0.2","","""event"",""trial"",""time""
""fullscreenenter"",""1"",""1648""
""fullscreenenter"",""1"",""1649""
","
","
","""event"",""trial"",""time""
""fullscreenenter"",""1"",""1648""
""fullscreenenter"",""1"",""1649""
","
","","","-1","","","13","12367","2486","s","elianto","#3366ff99","-1","-1","1","+10","[]","0","2","","","12367","62","4","2","win","no-go","0"
"pit-trial","184","1239628","0.0-67.0","battery-v0.2","","""event"",""trial"",""time""
""fullscreenenter"",""1"",""1648""
""fullscreenenter"",""1"",""1649""
","
","
","""event"",""trial"",""time""
""fullscreenenter"",""1"",""1648""
""fullscreenenter"",""1"",""1649""
","
","","","-1","","","13","12367","2486","w","elianto","#f73b6a7A"," ","-1","0","0","[]","0","2","","","12367","63","3","3","lose","go","1"
"pit-trial","185","1244487","0.0-68.0","battery-v0.2","","""event"",""trial"",""time""
""fullscreenenter"",""1"",""1648""
""fullscreenenter"",""1"",""1649""
","
","
","""event"",""trial"",""time""
""fullscreenenter"",""1"",""1648""
""fullscreenenter"",""1"",""1649""
","
","","","-1","","","13","12367","2486","e","elianto","#f73b6a7A","-1","-1","1","0","[]","0","2","","","12367","64","2","4","lose","no-go","0"
"pit-trial","186","1249347","0.0-69.0","battery-v0.2","","""event"",""trial"",""time""
""fullscreenenter"",""1"",""1648""
""fullscreenenter"",""1"",""1649""
","
","
","""event"",""trial"",""time""
""fullscreenenter"",""1"",""1648""
""fullscreenenter"",""1"",""1649""
","
","","","-1","","","13","12367","2486","d","elianto","#3366ff99"," ","-1","0","0","[3019.999999999767]","1","2","","","12367","65","1","1","win","go","0"
"pit-trial","187","1254205","0.0-70.0","battery-v0.2","","""event"",""trial"",""time""
""fullscreenenter"",""1"",""1648""
""fullscreenenter"",""1"",""1649""
","
","
","""event"",""trial"",""time""
""fullscreenenter"",""1"",""1648""
""fullscreenenter"",""1"",""1649""
","
","","","-1","","","13","12367","2486","w","elianto","#f73b6a7A"," ","-1","0","-10","[]","0","2","","","12367","66","3","3","lose","go","0"
"pit-trial","188","1259063","0.0-71.0","battery-v0.2","","""event"",""trial"",""time""
""fullscreenenter"",""1"",""1648""
""fullscreenenter"",""1"",""1649""
","
","
","""event"",""trial"",""time""
""fullscreenenter"",""1"",""1648""
""fullscreenenter"",""1"",""1649""
","
","","","-1","","","13","12367","2486","e","elianto","#f73b6a7A","-1","-1","1","0","[]","0","2","","","12367","67","2","4","lose","no-go","0"
"pit-trial","189","1263922","0.0-72.0","battery-v0.2","","""event"",""trial"",""time""
""fullscreenenter"",""1"",""1648""
""fullscreenenter"",""1"",""1649""
","
","
","""event"",""trial"",""time""
""fullscreenenter"",""1"",""1648""
""fullscreenenter"",""1"",""1649""
","
","","","-1","","","13","12367","2486","s","elianto","#3366ff99","-1","-1","1","+10","[]","0","2","","","12367","68","4","2","win","no-go","0"
"pit-trial","190","1268266","0.0-73.0","battery-v0.2","","""event"",""trial"",""time""
""fullscreenenter"",""1"",""1648""
""fullscreenenter"",""1"",""1649""
","
","
","""event"",""trial"",""time""
""fullscreenenter"",""1"",""1648""
""fullscreenenter"",""1"",""1649""
","
","","","1486","","","13","12367","2486","p","elianto","#3366ff99"," "," ","1","+10","[2336.999999999767]","1","2","","","12367","69","5","1","win","go","0"
"pit-trial","191","1273025","0.0-74.0","battery-v0.2","","""event"",""trial"",""time""
""fullscreenenter"",""1"",""1648""
""fullscreenenter"",""1"",""1649""
","
","
","""event"",""trial"",""time""
""fullscreenenter"",""1"",""1648""
""fullscreenenter"",""1"",""1649""
","
","","","1901.0000000002328","","","13","12367","2486","w","elianto","#f73b6a7A"," "," ","1","0","[2752.000000000233]","1","2","","","12367","70","3","3","lose","go","0"
"pit-trial","192","1277884","0.0-75.0","battery-v0.2","","""event"",""trial"",""time""
""fullscreenenter"",""1"",""1648""
""fullscreenenter"",""1"",""1649""
","
","
","""event"",""trial"",""time""
""fullscreenenter"",""1"",""1648""
""fullscreenenter"",""1"",""1649""
","
","","","-1","","","13","12367","2486","d","elianto","#3366ff99"," ","-1","0","0","[3569.000000000233]","1","2","","","12367","71","1","1","win","go","0"
"pit-trial","193","1282743","0.0-76.0","battery-v0.2","","""event"",""trial"",""time""
""fullscreenenter"",""1"",""1648""
""fullscreenenter"",""1"",""1649""
","
","
","""event"",""trial"",""time""
""fullscreenenter"",""1"",""1648""
""fullscreenenter"",""1"",""1649""
","
","","","-1","","","13","12367","2486","s","elianto","#3366ff99","-1","-1","1","+10","[]","0","2","","","12367","72","4","2","win","no-go","0"
"pit-trial","194","1286581","0.0-77.0","battery-v0.2","","""event"",""trial"",""time""
""fullscreenenter"",""1"",""1648""
""fullscreenenter"",""1"",""1649""
","
","
","""event"",""trial"",""time""
""fullscreenenter"",""1"",""1648""
""fullscreenenter"",""1"",""1649""
","
","","","980","","","13","12367","2486","d","elianto","#3366ff99"," "," ","1","+10","[1830.0000000002328]","1","2","","","12367","73","1","1","win","go","0"
"pit-trial","195","1291054","0.0-78.0","battery-v0.2","","""event"",""trial"",""time""
""fullscreenenter"",""1"",""1648""
""fullscreenenter"",""1"",""1649""
","
","
","""event"",""trial"",""time""
""fullscreenenter"",""1"",""1648""
""fullscreenenter"",""1"",""1649""
","
","","","1617","","","13","12367","2486","p","elianto","#3366ff99"," "," ","1","+10","[2467]","1","2","","","12367","74","5","1","win","go","0"
"pit-trial","196","1295913","0.0-79.0","battery-v0.2","","""event"",""trial"",""time""
""fullscreenenter"",""1"",""1648""
""fullscreenenter"",""1"",""1649""
","
","
","""event"",""trial"",""time""
""fullscreenenter"",""1"",""1648""
""fullscreenenter"",""1"",""1649""
","
","","","-1","","","13","12367","2486","s","elianto","#3366ff99","-1","-1","1","+10","[]","0","2","","","12367","75","4","2","win","no-go","0"
"pit-trial","197","1300282","0.0-80.0","battery-v0.2","","""event"",""trial"",""time""
""fullscreenenter"",""1"",""1648""
""fullscreenenter"",""1"",""1649""
","
","
","""event"",""trial"",""time""
""fullscreenenter"",""1"",""1648""
""fullscreenenter"",""1"",""1649""
","
","","","1511","","","13","12367","2486","w","elianto","#f73b6a7A"," "," ","1","0","[2362]","1","2","","","12367","76","3","3","lose","go","0"
"pit-trial","198","1305140","0.0-81.0","battery-v0.2","","""event"",""trial"",""time""
""fullscreenenter"",""1"",""1648""
""fullscreenenter"",""1"",""1649""
","
","
","""event"",""trial"",""time""
""fullscreenenter"",""1"",""1648""
""fullscreenenter"",""1"",""1649""
","
","","","-1","","","13","12367","2486","s","elianto","#3366ff99","-1","-1","1","+10","[]","0","2","","","12367","77","4","2","win","no-go","0"
"pit-trial","199","1309371","0.0-82.0","battery-v0.2","","""event"",""trial"",""time""
""fullscreenenter"",""1"",""1648""
""fullscreenenter"",""1"",""1649""
","
","
","""event"",""trial"",""time""
""fullscreenenter"",""1"",""1648""
""fullscreenenter"",""1"",""1649""
","
","","","1374","","","13","12367","2486","p","elianto","#3366ff99"," "," ","1","+10","[2225]","1","2","","","12367","78","5","1","win","go","0"
"pit-trial","200","1314143","0.0-83.0","battery-v0.2","","""event"",""trial"",""time""
""fullscreenenter"",""1"",""1648""
""fullscreenenter"",""1"",""1649""
","
","
","""event"",""trial"",""time""
""fullscreenenter"",""1"",""1648""
""fullscreenenter"",""1"",""1649""
","
","","","1914","","","13","12367","2486","g","elianto","#f73b6a7A","-1"," ","0","-10","[2765]","1","2","","","12367","79","6","4","lose","no-go","0"
"pit-trial","201","1318256","0.0-84.0","battery-v0.2","","""event"",""trial"",""time""
""fullscreenenter"",""1"",""1648""
""fullscreenenter"",""1"",""1649""
","
","
","""event"",""trial"",""time""
""fullscreenenter"",""1"",""1648""
""fullscreenenter"",""1"",""1649""
","
","","","1254","","","13","12367","2486","w","elianto","#f73b6a7A"," "," ","1","0","[2104]","1","2","","","12367","80","3","3","lose","go","0"
"pit-trial","202","1323114","0.0-85.0","battery-v0.2","","""event"",""trial"",""time""
""fullscreenenter"",""1"",""1648""
""fullscreenenter"",""1"",""1649""
","
","
","""event"",""trial"",""time""
""fullscreenenter"",""1"",""1648""
""fullscreenenter"",""1"",""1649""
","
","","","-1","","","13","12367","2486","g","elianto","#f73b6a7A","-1","-1","1","0","[]","0","2","","","12367","81","6","4","lose","no-go","0"
"pit-trial","203","1327973","0.0-86.0","battery-v0.2","","""event"",""trial"",""time""
""fullscreenenter"",""1"",""1648""
""fullscreenenter"",""1"",""1649""
","
","
","""event"",""trial"",""time""
""fullscreenenter"",""1"",""1648""
""fullscreenenter"",""1"",""1649""
","
","","","-1","","","13","12367","2486","a","elianto","#f73b6a7A"," ","-1","0","-10","[]","0","2","","","12367","82","7","3","lose","go","0"
"pit-trial","204","1332832","0.0-87.0","battery-v0.2","","""event"",""trial"",""time""
""fullscreenenter"",""1"",""1648""
""fullscreenenter"",""1"",""1649""
","
","
","""event"",""trial"",""time""
""fullscreenenter"",""1"",""1648""
""fullscreenenter"",""1"",""1649""
","
","","","-1","","","13","12367","2486","s","elianto","#3366ff99","-1","-1","1","+10","[]","0","2","","","12367","83","4","2","win","no-go","0"
"pit-trial","205","1337513","0.0-88.0","battery-v0.2","","""event"",""trial"",""time""
""fullscreenenter"",""1"",""1648""
""fullscreenenter"",""1"",""1649""
","
","
","""event"",""trial"",""time""
""fullscreenenter"",""1"",""1648""
""fullscreenenter"",""1"",""1649""
","
","","","1822.0000000002328","","","13","12367","2486","p","elianto","#3366ff99"," "," ","1","+10","[2673]","1","2","","","12367","84","5","1","win","go","0"
"pit-trial","206","1341765","0.0-89.0","battery-v0.2","","""event"",""trial"",""time""
""fullscreenenter"",""1"",""1648""
""fullscreenenter"",""1"",""1649""
","
","
","""event"",""trial"",""time""
""fullscreenenter"",""1"",""1648""
""fullscreenenter"",""1"",""1649""
","
","","","1394","","","13","12367","2486","a","elianto","#f73b6a7A"," "," ","1","0","[2244]","1","2","","","12367","85","7","3","lose","go","0"
"pit-trial","207","1346624","0.0-90.0","battery-v0.2","","""event"",""trial"",""time""
""fullscreenenter"",""1"",""1648""
""fullscreenenter"",""1"",""1649""
","
","
","""event"",""trial"",""time""
""fullscreenenter"",""1"",""1648""
""fullscreenenter"",""1"",""1649""
","
","","","-1","","","13","12367","2486","g","elianto","#f73b6a7A","-1","-1","1","0","[]","0","2","","","12367","86","6","4","lose","no-go","0"
"pit-trial","208","1351481","0.0-91.0","battery-v0.2","","""event"",""trial"",""time""
""fullscreenenter"",""1"",""1648""
""fullscreenenter"",""1"",""1649""
","
","
","""event"",""trial"",""time""
""fullscreenenter"",""1"",""1648""
""fullscreenenter"",""1"",""1649""
","
","","","-1","","","13","12367","2486","s","elianto","#3366ff99","-1","-1","1","+10","[]","0","2","","","12367","87","4","2","win","no-go","0"
"pit-trial","209","1356163","0.0-92.0","battery-v0.2","","""event"",""trial"",""time""
""fullscreenenter"",""1"",""1648""
""fullscreenenter"",""1"",""1649""
","
","
","""event"",""trial"",""time""
""fullscreenenter"",""1"",""1648""
""fullscreenenter"",""1"",""1649""
","
","","","1822.9999999997672","","","13","12367","2486","p","elianto","#3366ff99"," "," ","1","+10","[2674]","1","2","","","12367","88","5","1","win","go","0"
"pit-trial","210","1361020","0.0-93.0","battery-v0.2","","""event"",""trial"",""time""
""fullscreenenter"",""1"",""1648""
""fullscreenenter"",""1"",""1649""
","
","
","""event"",""trial"",""time""
""fullscreenenter"",""1"",""1648""
""fullscreenenter"",""1"",""1649""
","
","","","-1","","","13","12367","2486","p","elianto","#3366ff99"," ","-1","0","+10","[]","0","2","","","12367","89","5","1","win","go","1"
"pit-trial","211","1365878","0.0-94.0","battery-v0.2","","""event"",""trial"",""time""
""fullscreenenter"",""1"",""1648""
""fullscreenenter"",""1"",""1649""
","
","
","""event"",""trial"",""time""
""fullscreenenter"",""1"",""1648""
""fullscreenenter"",""1"",""1649""
","
","","","-1","","","13","12367","2486","s","elianto","#3366ff99","-1","-1","1","+10","[]","0","2","","","12367","90","4","2","win","no-go","0"
"pit-trial","212","1370737","0.0-95.0","battery-v0.2","","""event"",""trial"",""time""
""fullscreenenter"",""1"",""1648""
""fullscreenenter"",""1"",""1649""
","
","
","""event"",""trial"",""time""
""fullscreenenter"",""1"",""1648""
""fullscreenenter"",""1"",""1649""
","
","","","-1","","","13","12367","2486","g","elianto","#f73b6a7A","-1","-1","1","0","[]","0","2","","","12367","91","6","4","lose","no-go","0"
"pit-trial","213","1375271","0.0-96.0","battery-v0.2","","""event"",""trial"",""time""
""fullscreenenter"",""1"",""1648""
""fullscreenenter"",""1"",""1649""
","
","
","""event"",""trial"",""time""
""fullscreenenter"",""1"",""1648""
""fullscreenenter"",""1"",""1649""
","
","","","1676","","","13","12367","2486","a","elianto","#f73b6a7A"," "," ","1","0","[2526]","1","2","","","12367","92","7","3","lose","go","0"
"pit-trial","214","1379606","0.0-97.0","battery-v0.2","","""event"",""trial"",""time""
""fullscreenenter"",""1"",""1648""
""fullscreenenter"",""1"",""1649""
","
","
","""event"",""trial"",""time""
""fullscreenenter"",""1"",""1648""
""fullscreenenter"",""1"",""1649""
","
","","","1476","","","13","12367","2486","l","elianto","#3366ff99","-1"," ","0","+10","[2326]","1","2","","","12367","93","8","2","win","no-go","1"
"pit-trial","215","1383965","0.0-98.0","battery-v0.2","","""event"",""trial"",""time""
""fullscreenenter"",""1"",""1648""
""fullscreenenter"",""1"",""1649""
","
","
","""event"",""trial"",""time""
""fullscreenenter"",""1"",""1648""
""fullscreenenter"",""1"",""1649""
","
","","","1500","","","13","12367","2486","p","elianto","#3366ff99"," "," ","1","+10","[2351]","1","2","","","12367","94","5","1","win","go","0"
"pit-trial","216","1388646","0.0-99.0","battery-v0.2","","""event"",""trial"",""time""
""fullscreenenter"",""1"",""1648""
""fullscreenenter"",""1"",""1649""
","
","
","""event"",""trial"",""time""
""fullscreenenter"",""1"",""1648""
""fullscreenenter"",""1"",""1649""
","
","","","1823","","","13","12367","2486","g","elianto","#f73b6a7A","-1"," ","0","-10","[2674]","1","2","","","12367","95","6","4","lose","no-go","0"
"pit-trial","217","1393505","0.0-100.0","battery-v0.2","","""event"",""trial"",""time""
""fullscreenenter"",""1"",""1648""
""fullscreenenter"",""1"",""1649""
","
","
","""event"",""trial"",""time""
""fullscreenenter"",""1"",""1648""
""fullscreenenter"",""1"",""1649""
","
","","","-1","","","13","12367","2486","a","elianto","#f73b6a7A"," ","-1","0","-10","[3045]","1","2","","","12367","96","7","3","lose","go","0"
"pit-trial","218","1397968","0.0-101.0","battery-v0.2","","""event"",""trial"",""time""
""fullscreenenter"",""1"",""1648""
""fullscreenenter"",""1"",""1649""
","
","
","""event"",""trial"",""time""
""fullscreenenter"",""1"",""1648""
""fullscreenenter"",""1"",""1649""
","
","","","1605","","","13","12367","2486","p","elianto","#3366ff99"," "," ","1","0","[2456]","1","2","","","12367","97","5","1","win","go","1"
"pit-trial","219","1402826","0.0-102.0","battery-v0.2","","""event"",""trial"",""time""
""fullscreenenter"",""1"",""1648""
""fullscreenenter"",""1"",""1649""
","
","
","""event"",""trial"",""time""
""fullscreenenter"",""1"",""1648""
""fullscreenenter"",""1"",""1649""
","
","","","-1","","","13","12367","2486","l","elianto","#3366ff99","-1","-1","1","+10","[3032]","1","2","","","12367","98","8","2","win","no-go","0"
"pit-trial","220","1407666","0.0-103.0","battery-v0.2","","""event"",""trial"",""time""
""fullscreenenter"",""1"",""1648""
""fullscreenenter"",""1"",""1649""
","
","
","""event"",""trial"",""time""
""fullscreenenter"",""1"",""1648""
""fullscreenenter"",""1"",""1649""
","
","","","1981","","","13","12367","2486","a","elianto","#f73b6a7A"," "," ","1","0","[2831.000000000233]","1","2","","","12367","99","7","3","lose","go","0"
"pit-trial","221","1412524","0.0-104.0","battery-v0.2","","""event"",""trial"",""time""
""fullscreenenter"",""1"",""1648""
""fullscreenenter"",""1"",""1649""
","
","
","""event"",""trial"",""time""
""fullscreenenter"",""1"",""1648""
""fullscreenenter"",""1"",""1649""
","
","","","-1","","","13","12367","2486","g","elianto","#f73b6a7A","-1","-1","1","0","[]","0","2","","","12367","100","6","4","lose","no-go","0"
"pit-trial","222","1417099","0.0-105.0","battery-v0.2","","""event"",""trial"",""time""
""fullscreenenter"",""1"",""1648""
""fullscreenenter"",""1"",""1649""
","
","
","""event"",""trial"",""time""
""fullscreenenter"",""1"",""1648""
""fullscreenenter"",""1"",""1649""
","
","","","1716","","","13","12367","2486","u","elianto","#3366ff99","-1"," ","0","0","[2568]","1","2","","","12367","101","9","2","win","no-go","0"
"pit-trial","223","1421130","0.0-106.0","battery-v0.2","","""event"",""trial"",""time""
""fullscreenenter"",""1"",""1648""
""fullscreenenter"",""1"",""1649""
","
","
","""event"",""trial"",""time""
""fullscreenenter"",""1"",""1648""
""fullscreenenter"",""1"",""1649""
","
","","","1173","","","13","12367","2486","p","elianto","#3366ff99"," "," ","1","+10","[2024]","1","2","","","12367","102","5","1","win","go","0"
"pit-trial","224","1425391","0.0-107.0","battery-v0.2","","""event"",""trial"",""time""
""fullscreenenter"",""1"",""1648""
""fullscreenenter"",""1"",""1649""
","
","
","""event"",""trial"",""time""
""fullscreenenter"",""1"",""1648""
""fullscreenenter"",""1"",""1649""
","
","","","1404","","","13","12367","2486","l","elianto","#3366ff99","-1"," ","0","0","[2255]","1","2","","","12367","103","8","2","win","no-go","0"
"pit-trial","225","1430250","0.0-108.0","battery-v0.2","","""event"",""trial"",""time""
""fullscreenenter"",""1"",""1648""
""fullscreenenter"",""1"",""1649""
","
","
","""event"",""trial"",""time""
""fullscreenenter"",""1"",""1648""
""fullscreenenter"",""1"",""1649""
","
","","","-1","","","13","12367","2486","g","elianto","#f73b6a7A","-1","-1","1","0","[]","0","2","","","12367","104","6","4","lose","no-go","0"
"pit-trial","226","1435108","0.0-109.0","battery-v0.2","","""event"",""trial"",""time""
""fullscreenenter"",""1"",""1648""
""fullscreenenter"",""1"",""1649""
","
","
","""event"",""trial"",""time""
""fullscreenenter"",""1"",""1648""
""fullscreenenter"",""1"",""1649""
","
","","","-1","","","13","12367","2486","g","elianto","#f73b6a7A","-1","-1","1","0","[]","0","2","","","12367","105","6","4","lose","no-go","0"
"pit-trial","227","1439084","0.0-110.0","battery-v0.2","","""event"",""trial"",""time""
""fullscreenenter"",""1"",""1648""
""fullscreenenter"",""1"",""1649""
","
","
","""event"",""trial"",""time""
""fullscreenenter"",""1"",""1648""
""fullscreenenter"",""1"",""1649""
","
","","","1118","","","13","12367","2486","u","elianto","#3366ff99","-1"," ","0","+10","[1969]","1","2","","","12367","106","9","2","win","no-go","1"
"pit-trial","228","1442875","0.0-111.0","battery-v0.2","","""event"",""trial"",""time""
""fullscreenenter"",""1"",""1648""
""fullscreenenter"",""1"",""1649""
","
","
","""event"",""trial"",""time""
""fullscreenenter"",""1"",""1648""
""fullscreenenter"",""1"",""1649""
","
