"trial_type","trial_index","time_elapsed","internal_node_id","task_version","subject_id","interactions","blur_events","focus_events","fullscreenenter_events","fullscreenexit_events","success","view_history","rt","responses","num_errors","age","subject","participantId","rune","rune_set","hex","correct","choice","accuracy","outcome","keys","total_keys","block","practice","value","sub","trial","stimulus","robot","valence","action","sham"
"pavlovia","0","26","0.0-0.0","battery-v0.2","","""event"",""trial"",""time""
""fullscreenenter"",""1"",""2141""
","
","
","""event"",""trial"",""time""
""fullscreenenter"",""1"",""2141""
","
","","","","","","","","","","","","","","","","","","","","","","","","","","",""
"fullscreen","1","3079","0.0-1.0","battery-v0.2","","""event"",""trial"",""time""
""fullscreenenter"",""1"",""2141""
","
","
","""event"",""trial"",""time""
""fullscreenenter"",""1"",""2141""
","
","true","","","","","","","","","","","","","","","","","","","","","","","","","",""
"pit-instructions","2","7691","0.0-2.0-0.0","battery-v0.2","","""event"",""trial"",""time""
""fullscreenenter"",""1"",""2141""
","
","
","""event"",""trial"",""time""
""fullscreenenter"",""1"",""2141""
","
","","[{""page_index"":0,""viewing_time"":4605.69999999553}]","4606.39999999851","","","","","","","","","","","","","","","","","","","","","","","",""
"pit-comprehension","3","11279","0.0-2.0-1.0-0.0","battery-v0.2","","""event"",""trial"",""time""
""fullscreenenter"",""1"",""2141""
","
","
","""event"",""trial"",""time""
""fullscreenenter"",""1"",""2141""
","
","","","3574.6999999955297","[""shark""]","0","16","9665","4033","","","","","","","","","","","","","","","","","","",""
"pit-instructions","4","14064","0.0-2.0-1.0-1.0","battery-v0.2","","""event"",""trial"",""time""
""fullscreenenter"",""1"",""2141""
","
","
","""event"",""trial"",""time""
""fullscreenenter"",""1"",""2141""
","
","","[{""page_index"":0,""viewing_time"":2763.8000000044703}]","2765.10000000149","","","","","","","","","","","","","","","","","","","","","","","",""
"pit-comprehension","5","16628","0.0-2.0-2.0-0.0","battery-v0.2","","""event"",""trial"",""time""
""fullscreenenter"",""1"",""2141""
","
","
","""event"",""trial"",""time""
""fullscreenenter"",""1"",""2141""
","
","","","2553.5999999940395","[""tiger""]","0","16","9665","4033","","","","","","","","","","","","","","","","","","",""
"pit-instructions","6","17591","0.0-2.0-2.0-1.0","battery-v0.2","","""event"",""trial"",""time""
""fullscreenenter"",""1"",""2141""
","
","
","""event"",""trial"",""time""
""fullscreenenter"",""1"",""2141""
","
","","[{""page_index"":0,""viewing_time"":955.8000000044703}]","956.8000000044703","","","","","","","","","","","","","","","","","","","","","","","",""
"pit-instructions","7","147556","0.0-2.0-3.0","battery-v0.2","","""event"",""trial"",""time""
""fullscreenenter"",""1"",""2141""
","
","
","""event"",""trial"",""time""
""fullscreenenter"",""1"",""2141""
","
","","[{""page_index"":0,""viewing_time"":14916.79999999702},{""page_index"":1,""viewing_time"":8456.30000000447},{""page_index"":2,""viewing_time"":19952.19999999553},{""page_index"":3,""viewing_time"":7566.10000000149},{""page_index"":4,""viewing_time"":6577.10000000149},{""page_index"":5,""viewing_time"":7471.89999999851},{""page_index"":6,""viewing_time"":8311.39999999851},{""page_index"":7,""viewing_time"":6654.39999999851},{""page_index"":8,""viewing_time"":6215.70000000298},{""page_index"":9,""viewing_time"":12928.5},{""page_index"":10,""viewing_time"":9254.10000000149},{""page_index"":11,""viewing_time"":8802.69999999553},{""page_index"":12,""viewing_time"":6513.4000000059605},{""page_index"":13,""viewing_time"":6337}]","129958.19999999553","","","","","","","","","","","","","","","","","","","","","","","",""
"pit-trial","8","150518","0.0-2.0-4.0-0.0","battery-v0.2","","""event"",""trial"",""time""
""fullscreenenter"",""1"",""2141""
","
","
","""event"",""trial"",""time""
""fullscreenenter"",""1"",""2141""
","
","","","85.39999999850988","","","16","9665","4033","&#9784;","elianto","#FFFFF080"," "," ","1","&#10004","[938.2000000029802]","1","0","0","","","","","","","",""
"pit-trial","9","153510","0.0-2.0-4.1-0.1","battery-v0.2","","""event"",""trial"",""time""
""fullscreenenter"",""1"",""2141""
","
","
","""event"",""trial"",""time""
""fullscreenenter"",""1"",""2141""
","
","","","128.39999999850988","","","16","9665","4033","&#9784;","elianto","#FFFFF080"," "," ","1","&#10004","[978.6000000014901]","1","0","0","","","","","","","",""
"pit-trial","10","156483","0.0-2.0-4.2-0.2","battery-v0.2","","""event"",""trial"",""time""
""fullscreenenter"",""1"",""2141""
","
","
","""event"",""trial"",""time""
""fullscreenenter"",""1"",""2141""
","
","","","115.39999999850988","","","16","9665","4033","&#9784;","elianto","#FFFFF080"," "," ","1","&#10004","[965.9000000059605]","1","0","0","","","","","","","",""
"pit-trial","11","159462","0.0-2.0-4.3-0.3","battery-v0.2","","""event"",""trial"",""time""
""fullscreenenter"",""1"",""2141""
","
","
","""event"",""trial"",""time""
""fullscreenenter"",""1"",""2141""
","
","","","113.5","","","16","9665","4033","&#9784;","elianto","#FFFFF080"," "," ","1","&#10004","[970.3999999985099]","1","0","0","","","","","","","",""
"pit-trial","12","162389","0.0-2.0-4.4-0.4","battery-v0.2","","""event"",""trial"",""time""
""fullscreenenter"",""1"",""2141""
","
","
","""event"",""trial"",""time""
""fullscreenenter"",""1"",""2141""
","
","","","69.39999999850988","","","16","9665","4033","&#9784;","elianto","#FFFFF080"," "," ","1","&#10004","[920.5]","1","0","0","","","","","","","",""
"pit-instructions","13","201742","0.0-2.0-5.0","battery-v0.2","","""event"",""trial"",""time""
""fullscreenenter"",""1"",""2141""
","
","
","""event"",""trial"",""time""
""fullscreenenter"",""1"",""2141""
","
","","[{""page_index"":0,""viewing_time"":18092.70000000298},{""page_index"":1,""viewing_time"":7830.29999999702},{""page_index"":2,""viewing_time"":6387.79999999702},{""page_index"":3,""viewing_time"":7035.60000000149}]","39347.60000000149","","","","","","","","","","","","","","","","","","","","","","","",""
"pit-trial","14","206627","0.0-2.0-6.0-0.0","battery-v0.2","","""event"",""trial"",""time""
""fullscreenenter"",""1"",""2141""
","
","
","""event"",""trial"",""time""
""fullscreenenter"",""1"",""2141""
","
","","","-1","","","16","9665","4033","&#9854;","elianto","#FFFFF080","-1","-1","1","&#10004","[]","0","0","1","","","","","","","",""
"pit-trial","15","211493","0.0-2.0-6.1-0.1","battery-v0.2","","""event"",""trial"",""time""
""fullscreenenter"",""1"",""2141""
","
","
","""event"",""trial"",""time""
""fullscreenenter"",""1"",""2141""
","
","","","-1","","","16","9665","4033","&#9854;","elianto","#FFFFF080","-1","-1","1","&#10004","[]","0","0","1","","","","","","","",""
"pit-trial","16","216359","0.0-2.0-6.2-0.2","battery-v0.2","","""event"",""trial"",""time""
""fullscreenenter"",""1"",""2141""
","
","
","""event"",""trial"",""time""
""fullscreenenter"",""1"",""2141""
","
","","","-1","","","16","9665","4033","&#9854;","elianto","#FFFFF080","-1","-1","1","&#10004","[]","0","0","1","","","","","","","",""
"pit-trial","17","221238","0.0-2.0-6.3-0.3","battery-v0.2","","""event"",""trial"",""time""
""fullscreenenter"",""1"",""2141""
","
","
","""event"",""trial"",""time""
""fullscreenenter"",""1"",""2141""
","
","","","-1","","","16","9665","4033","&#9854;","elianto","#FFFFF080","-1","-1","1","&#10004","[]","0","0","1","","","","","","","",""
"pit-trial","18","226122","0.0-2.0-6.4-0.4","battery-v0.2","","""event"",""trial"",""time""
""fullscreenenter"",""1"",""2141""
","
","
","""event"",""trial"",""time""
""fullscreenenter"",""1"",""2141""
","
","","","-1","","","16","9665","4033","&#9854;","elianto","#FFFFF080","-1","-1","1","&#10004","[]","0","0","1","","","","","","","",""
"pit-instructions","19","364086","0.0-2.0-7.0","battery-v0.2","","""event"",""trial"",""time""
""fullscreenenter"",""1"",""2141""
","
","
","""event"",""trial"",""time""
""fullscreenenter"",""1"",""2141""
","
","","[{""page_index"":0,""viewing_time"":7360.29999999702},{""page_index"":1,""viewing_time"":10123.40000000596},{""page_index"":2,""viewing_time"":6393.39999999851},{""page_index"":3,""viewing_time"":6883.10000000149},{""page_index"":4,""viewing_time"":7317.79999999702},{""page_index"":5,""viewing_time"":6837.79999999702},{""page_index"":6,""viewing_time"":7169.80000000447},{""page_index"":7,""viewing_time"":9085.69999999553},{""page_index"":8,""viewing_time"":7513.60000000149},{""page_index"":9,""viewing_time"":7305.70000000298},{""page_index"":10,""viewing_time"":7215.19999999553},{""page_index"":11,""viewing_time"":6220.9000000059605},{""page_index"":12,""viewing_time"":7626.19999999553},{""page_index"":13,""viewing_time"":7887.80000000447},{""page_index"":14,""viewing_time"":8459.89999999851},{""page_index"":15,""viewing_time"":6643.79999999702},{""page_index"":16,""viewing_time"":8744},{""page_index"":17,""viewing_time"":9168.30000000447}]","137957.70000000298","","","","","","","","","","","","","","","","","","","","","","","",""
"pit-trial","20","367281","0.0-2.0-8.0-0.0","battery-v0.2","","""event"",""trial"",""time""
""fullscreenenter"",""1"",""2141""
","
","
","""event"",""trial"",""time""
""fullscreenenter"",""1"",""2141""
","
","","","335.1000000014901","","","16","9665","4033","&#9776;","elianto","#3366ff99"," "," ","1","+10","[1189]","1","0","1","","","","","","","",""
"pit-trial","21","370935","0.0-2.0-8.0-1.0","battery-v0.2","","""event"",""trial"",""time""
""fullscreenenter"",""1"",""2141""
","
","
","""event"",""trial"",""time""
""fullscreenenter"",""1"",""2141""
","
","","","781.0999999940395","","","16","9665","4033","&#9776;","elianto","#3366ff99"," "," ","1","+10","[1637.6000000014901]","1","0","1","","","","","","","",""
"pit-trial","22","374214","0.0-2.0-8.0-2.0","battery-v0.2","","""event"",""trial"",""time""
""fullscreenenter"",""1"",""2141""
","
","
","""event"",""trial"",""time""
""fullscreenenter"",""1"",""2141""
","
","","","415","","","16","9665","4033","&#9776;","elianto","#3366ff99"," "," ","1","+10","[1266.2999999970198]","1","0","1","","","","","","","",""
"pit-trial","23","377416","0.0-2.0-8.0-3.0","battery-v0.2","","""event"",""trial"",""time""
""fullscreenenter"",""1"",""2141""
","
","
","""event"",""trial"",""time""
""fullscreenenter"",""1"",""2141""
","
","","","346.8999999985099","","","16","9665","4033","&#9776;","elianto","#3366ff99"," "," ","1","0","[1198.3000000044703]","1","0","1","","","","","","","",""
"pit-trial","24","380590","0.0-2.0-8.0-4.0","battery-v0.2","","""event"",""trial"",""time""
""fullscreenenter"",""1"",""2141""
","
","
","""event"",""trial"",""time""
""fullscreenenter"",""1"",""2141""
","
","","","301.8999999985099","","","16","9665","4033","&#9776;","elianto","#3366ff99"," "," ","1","+10","[1155]","1","0","1","","","","","","","",""
"pit-trial","25","383810","0.0-2.0-8.1-0.1","battery-v0.2","","""event"",""trial"",""time""
""fullscreenenter"",""1"",""2141""
","
","
","""event"",""trial"",""time""
""fullscreenenter"",""1"",""2141""
","
","","","364.69999999552965","","","16","9665","4033","&#9776;","elianto","#3366ff99"," "," ","1","+10","[1214.8999999985099]","1","0","1","","","","","","","",""
"pit-trial","26","387068","0.0-2.0-8.1-1.1","battery-v0.2","","""event"",""trial"",""time""
""fullscreenenter"",""1"",""2141""
","
","
","""event"",""trial"",""time""
""fullscreenenter"",""1"",""2141""
","
","","","386.1000000014901","","","16","9665","4033","&#9776;","elianto","#3366ff99"," "," ","1","+10","[1243.3999999985099]","1","0","1","","","","","","","",""
"pit-trial","27","390325","0.0-2.0-8.1-2.1","battery-v0.2","","""event"",""trial"",""time""
""fullscreenenter"",""1"",""2141""
","
","
","""event"",""trial"",""time""
""fullscreenenter"",""1"",""2141""
","
","","","390.5","","","16","9665","4033","&#9776;","elianto","#3366ff99"," "," ","1","+10","[1240.8000000044703]","1","0","1","","","","","","","",""
"pit-trial","28","393565","0.0-2.0-8.1-3.1","battery-v0.2","","""event"",""trial"",""time""
""fullscreenenter"",""1"",""2141""
","
","
","""event"",""trial"",""time""
""fullscreenenter"",""1"",""2141""
","
","","","375.3999999985099","","","16","9665","4033","&#9776;","elianto","#3366ff99"," "," ","1","0","[1228.6000000014901]","1","0","1","","","","","","","",""
"pit-trial","29","396499","0.0-2.0-8.1-4.1","battery-v0.2","","""event"",""trial"",""time""
""fullscreenenter"",""1"",""2141""
","
","
","""event"",""trial"",""time""
""fullscreenenter"",""1"",""2141""
","
","","","71.80000000447035","","","16","9665","4033","&#9776;","elianto","#3366ff99"," "," ","1","+10","[928.3999999985099]","1","0","1","","","","","","","",""
"pit-trial","30","399444","0.0-2.0-8.2-0.2","battery-v0.2","","""event"",""trial"",""time""
""fullscreenenter"",""1"",""2141""
","
","
","""event"",""trial"",""time""
""fullscreenenter"",""1"",""2141""
","
","","","57.20000000298023","","","16","9665","4033","&#9776;","elianto","#3366ff99"," "," ","1","+10","[925.2000000029802]","1","0","1","","","","","","","",""
"pit-trial","31","402374","0.0-2.0-8.2-1.2","battery-v0.2","","""event"",""trial"",""time""
""fullscreenenter"",""1"",""2141""
","
","
","""event"",""trial"",""time""
""fullscreenenter"",""1"",""2141""
","
","","","57.79999999701977","","","16","9665","4033","&#9776;","elianto","#3366ff99"," "," ","1","+10","[911.0999999940395]","1","0","1","","","","","","","",""
"pit-trial","32","405399","0.0-2.0-8.2-2.2","battery-v0.2","","""event"",""trial"",""time""
""fullscreenenter"",""1"",""2141""
","
","
","""event"",""trial"",""time""
""fullscreenenter"",""1"",""2141""
","
","","","139.29999999701977","","","16","9665","4033","&#9776;","elianto","#3366ff99"," "," ","1","+10","[1009.5999999940395]","1","0","1","","","","","","","",""
"pit-trial","33","408378","0.0-2.0-8.2-3.2","battery-v0.2","","""event"",""trial"",""time""
""fullscreenenter"",""1"",""2141""
","
","
","""event"",""trial"",""time""
""fullscreenenter"",""1"",""2141""
","
","","","114.60000000149012","","","16","9665","4033","&#9776;","elianto","#3366ff99"," "," ","1","0","[971.7999999970198]","1","0","1","","","","","","","",""
"pit-trial","34","411582","0.0-2.0-8.2-4.2","battery-v0.2","","""event"",""trial"",""time""
""fullscreenenter"",""1"",""2141""
","
","
","""event"",""trial"",""time""
""fullscreenenter"",""1"",""2141""
","
","","","335.29999999701977","","","16","9665","4033","&#9776;","elianto","#3366ff99"," "," ","1","+10","[1198.2999999970198]","1","0","1","","","","","","","",""
"call-function","35","411585","0.0-2.0-9.0","battery-v0.2","","""event"",""trial"",""time""
""fullscreenenter"",""1"",""2141""
","
","
","""event"",""trial"",""time""
""fullscreenenter"",""1"",""2141""
","
","","","","","","","","","","","","","","","","","","","","","","","","","","",""
"pit-instructions","36","462316","0.0-2.0-10.0","battery-v0.2","","""event"",""trial"",""time""
""fullscreenenter"",""1"",""2141""
","
","
","""event"",""trial"",""time""
""fullscreenenter"",""1"",""2141""
","
","","[{""page_index"":0,""viewing_time"":8916.79999999702},{""page_index"":1,""viewing_time"":8733.29999999702},{""page_index"":2,""viewing_time"":10238.40000000596},{""page_index"":3,""viewing_time"":11848.69999999553},{""page_index"":4,""viewing_time"":10987.5}]","50726.89999999851","","","","","","","","","","","","","","","","","","","","","","","",""
"pit-trial","37","465596","0.0-2.0-11.0-0.0","battery-v0.2","","""event"",""trial"",""time""
""fullscreenenter"",""1"",""2141""
","
","
","""event"",""trial"",""time""
""fullscreenenter"",""1"",""2141""
","
","","","413.3999999985099","","","16","9665","4033","&#9761;","elianto","#3366ff99","-1"," ","0","0","[1270.4000000059605]","1","0","2","","","","","","","",""
"pit-trial","38","468702","0.0-2.0-11.0-1.0","battery-v0.2","","""event"",""trial"",""time""
""fullscreenenter"",""1"",""2141""
","
","
","""event"",""trial"",""time""
""fullscreenenter"",""1"",""2141""
","
","","","250.39999999850988","","","16","9665","4033","&#9761;","elianto","#3366ff99","-1"," ","0","0","[1100.5]","1","0","2","","","","","","","",""
"pit-trial","39","471605","0.0-2.0-11.0-2.0","battery-v0.2","","""event"",""trial"",""time""
""fullscreenenter"",""1"",""2141""
","
","
","""event"",""trial"",""time""
""fullscreenenter"",""1"",""2141""
","
","","","32","","","16","9665","4033","&#9761;","elianto","#3366ff99","-1"," ","0","0","[884.7000000029802]","1","0","2","","","","","","","",""
"pit-trial","40","476472","0.0-2.0-11.0-3.0","battery-v0.2","","""event"",""trial"",""time""
""fullscreenenter"",""1"",""2141""
","
","
","""event"",""trial"",""time""
""fullscreenenter"",""1"",""2141""
","
","","","-1","","","16","9665","4033","&#9761;","elianto","#3366ff99","-1","-1","1","0","[]","0","0","2","","","","","","","",""
"pit-trial","41","481342","0.0-2.0-11.0-4.0","battery-v0.2","","""event"",""trial"",""time""
""fullscreenenter"",""1"",""2141""
","
","
","""event"",""trial"",""time""
""fullscreenenter"",""1"",""2141""
","
","","","-1","","","16","9665","4033","&#9761;","elianto","#3366ff99","-1","-1","1","+10","[]","0","0","2","","","","","","","",""
"pit-trial","42","484417","0.0-2.0-11.1-0.1","battery-v0.2","","""event"",""trial"",""time""
""fullscreenenter"",""1"",""2141""
","
","
","""event"",""trial"",""time""
""fullscreenenter"",""1"",""2141""
","
","","","206.60000000149012","","","16","9665","4033","&#9761;","elianto","#3366ff99","-1"," ","0","0","[1060.1000000014901]","1","0","2","","","","","","","",""
"pit-trial","43","487601","0.0-2.0-11.1-1.1","battery-v0.2","","""event"",""trial"",""time""
""fullscreenenter"",""1"",""2141""
","
","
","""event"",""trial"",""time""
""fullscreenenter"",""1"",""2141""
","
","","","314.8999999985099","","","16","9665","4033","&#9761;","elianto","#3366ff99","-1"," ","0","0","[1168.1000000014901]","1","0","2","","","","","","","",""
"pit-trial","44","490702","0.0-2.0-11.1-2.1","battery-v0.2","","""event"",""trial"",""time""
""fullscreenenter"",""1"",""2141""
","
","
","""event"",""trial"",""time""
""fullscreenenter"",""1"",""2141""
","
","","","240","","","16","9665","4033","&#9761;","elianto","#3366ff99","-1"," ","0","0","[1094.8999999985099]","1","0","2","","","","","","","",""
"pit-trial","45","493677","0.0-2.0-11.1-3.1","battery-v0.2","","""event"",""trial"",""time""
""fullscreenenter"",""1"",""2141""
","
","
","""event"",""trial"",""time""
""fullscreenenter"",""1"",""2141""
","
","","","104.5","","","16","9665","4033","&#9761;","elianto","#3366ff99","-1"," ","0","+10","[959.5]","1","0","2","","","","","","","",""
"pit-trial","46","498571","0.0-2.0-11.1-4.1","battery-v0.2","","""event"",""trial"",""time""
""fullscreenenter"",""1"",""2141""
","
","
","""event"",""trial"",""time""
""fullscreenenter"",""1"",""2141""
","
","","","-1","","","16","9665","4033","&#9761;","elianto","#3366ff99","-1","-1","1","+10","[]","0","0","2","","","","","","","",""
"pit-trial","47","502237","0.0-2.0-11.2-0.2","battery-v0.2","","""event"",""trial"",""time""
""fullscreenenter"",""1"",""2141""
","
","
","""event"",""trial"",""time""
""fullscreenenter"",""1"",""2141""
","
","","","807.1999999955297","","","16","9665","4033","&#9761;","elianto","#3366ff99","-1"," ","0","0","[1660]","1","0","2","","","","","","","",""
"pit-trial","48","507142","0.0-2.0-11.2-1.2","battery-v0.2","","""event"",""trial"",""time""
""fullscreenenter"",""1"",""2141""
","
","
","""event"",""trial"",""time""
""fullscreenenter"",""1"",""2141""
","
","","","-1","","","16","9665","4033","&#9761;","elianto","#3366ff99","-1","-1","1","+10","[]","0","0","2","","","","","","","",""
"pit-trial","49","512060","0.0-2.0-11.2-2.2","battery-v0.2","","""event"",""trial"",""time""
""fullscreenenter"",""1"",""2141""
","
","
","""event"",""trial"",""time""
""fullscreenenter"",""1"",""2141""
","
","","","-1","","","16","9665","4033","&#9761;","elianto","#3366ff99","-1","-1","1","+10","[]","0","0","2","","","","","","","",""
"pit-trial","50","515735","0.0-2.0-11.2-3.2","battery-v0.2","","""event"",""trial"",""time""
""fullscreenenter"",""1"",""2141""
","
","
","""event"",""trial"",""time""
""fullscreenenter"",""1"",""2141""
","
","","","804.6000000014901","","","16","9665","4033","&#9761;","elianto","#3366ff99","-1"," ","0","+10","[1670.2999999970198,2007.1999999955297]","2","0","2","","","","","","","",""
"pit-trial","51","518906","0.0-2.0-11.2-4.2","battery-v0.2","","""event"",""trial"",""time""
""fullscreenenter"",""1"",""2141""
","
","
","""event"",""trial"",""time""
""fullscreenenter"",""1"",""2141""
","
","","","284.20000000298023","","","16","9665","4033","&#9761;","elianto","#3366ff99","-1"," ","0","0","[1138.2999999970198]","1","0","2","","","","","","","",""
"pit-trial","52","523821","0.0-2.0-11.3-0.3","battery-v0.2","","""event"",""trial"",""time""
""fullscreenenter"",""1"",""2141""
","
","
","""event"",""trial"",""time""
""fullscreenenter"",""1"",""2141""
","
","","","-1","","","16","9665","4033","&#9761;","elianto","#3366ff99","-1","-1","1","+10","[]","0","0","2","","","","","","","",""
"pit-trial","53","527342","0.0-2.0-11.3-1.3","battery-v0.2","","""event"",""trial"",""time""
""fullscreenenter"",""1"",""2141""
","
","
","""event"",""trial"",""time""
""fullscreenenter"",""1"",""2141""
","
","","","639.5","","","16","9665","4033","&#9761;","elianto","#3366ff99","-1"," ","0","0","[1515.2000000029802]","1","0","2","","","","","","","",""
"pit-trial","54","530695","0.0-2.0-11.3-2.3","battery-v0.2","","""event"",""trial"",""time""
""fullscreenenter"",""1"",""2141""
","
","
","""event"",""trial"",""time""
""fullscreenenter"",""1"",""2141""
","
","","","472.29999999701977","","","16","9665","4033","&#9761;","elianto","#3366ff99","-1"," ","0","0","[1328.8999999985099]","1","0","2","","","","","","","",""
"pit-trial","55","535611","0.0-2.0-11.3-3.3","battery-v0.2","","""event"",""trial"",""time""
""fullscreenenter"",""1"",""2141""
","
","
","""event"",""trial"",""time""
""fullscreenenter"",""1"",""2141""
","
","","","-1","","","16","9665","4033","&#9761;","elianto","#3366ff99","-1","-1","1","0","[]","0","0","2","","","","","","","",""
"pit-trial","56","539045","0.0-2.0-11.3-4.3","battery-v0.2","","""event"",""trial"",""time""
""fullscreenenter"",""1"",""2141""
","
","
","""event"",""trial"",""time""
""fullscreenenter"",""1"",""2141""
","
","","","554.3000000044703","","","16","9665","4033","&#9761;","elianto","#3366ff99","-1"," ","0","0","[1422.3999999985099]","1","0","2","","","","","","","",""
"call-function","57","539047","0.0-2.0-12.0","battery-v0.2","","""event"",""trial"",""time""
""fullscreenenter"",""1"",""2141""
","
","
","""event"",""trial"",""time""
""fullscreenenter"",""1"",""2141""
","
","","","","","","","","","","","","","","","","","","","","","","","","","","",""
"pit-instructions","58","609370","0.0-2.0-13.0","battery-v0.2","","""event"",""trial"",""time""
""fullscreenenter"",""1"",""2141""
","
","
","""event"",""trial"",""time""
""fullscreenenter"",""1"",""2141""
","
","","[{""page_index"":0,""viewing_time"":6241.29999999702},{""page_index"":1,""viewing_time"":29409.20000000298},{""page_index"":2,""viewing_time"":8586.39999999851},{""page_index"":3,""viewing_time"":14838.60000000149},{""page_index"":4,""viewing_time"":11246.09999999404}]","70322.29999999702","","","","","","","","","","","","","","","","","","","","","","","",""
"pit-trial","59","614249","0.0-2.0-14.0-0.0","battery-v0.2","","""event"",""trial"",""time""
""fullscreenenter"",""1"",""2141""
","
","
","""event"",""trial"",""time""
""fullscreenenter"",""1"",""2141""
","
","","","-1","","","16","9665","4033","&#9826;","elianto","#f73b6a7A","-1","-1","1","0","[]","0","0","3","","","","","","","",""
"pit-trial","60","619125","0.0-2.0-14.0-1.0","battery-v0.2","","""event"",""trial"",""time""
""fullscreenenter"",""1"",""2141""
","
","
","""event"",""trial"",""time""
""fullscreenenter"",""1"",""2141""
","
","","","-1","","","16","9665","4033","&#9826;","elianto","#f73b6a7A","-1","-1","1","0","[]","0","0","3","","","","","","","",""
"pit-trial","61","623997","0.0-2.0-14.0-2.0","battery-v0.2","","""event"",""trial"",""time""
""fullscreenenter"",""1"",""2141""
","
","
","""event"",""trial"",""time""
""fullscreenenter"",""1"",""2141""
","
","","","-1","","","16","9665","4033","&#9826;","elianto","#f73b6a7A","-1","-1","1","0","[]","0","0","3","","","","","","","",""
"pit-trial","62","628869","0.0-2.0-14.0-3.0","battery-v0.2","","""event"",""trial"",""time""
""fullscreenenter"",""1"",""2141""
","
","
","""event"",""trial"",""time""
""fullscreenenter"",""1"",""2141""
","
","","","-1","","","16","9665","4033","&#9826;","elianto","#f73b6a7A","-1","-1","1","-10","[]","0","0","3","","","","","","","",""
"pit-trial","63","633739","0.0-2.0-14.0-4.0","battery-v0.2","","""event"",""trial"",""time""
""fullscreenenter"",""1"",""2141""
","
","
","""event"",""trial"",""time""
""fullscreenenter"",""1"",""2141""
","
","","","-1","","","16","9665","4033","&#9826;","elianto","#f73b6a7A","-1","-1","1","0","[]","0","0","3","","","","","","","",""
"pit-trial","64","638634","0.0-2.0-14.1-0.1","battery-v0.2","","""event"",""trial"",""time""
""fullscreenenter"",""1"",""2141""
","
","
","""event"",""trial"",""time""
""fullscreenenter"",""1"",""2141""
","
","","","-1","","","16","9665","4033","&#9826;","elianto","#f73b6a7A","-1","-1","1","0","[]","0","0","3","","","","","","","",""
"pit-trial","65","643520","0.0-2.0-14.1-1.1","battery-v0.2","","""event"",""trial"",""time""
""fullscreenenter"",""1"",""2141""
","
","
","""event"",""trial"",""time""
""fullscreenenter"",""1"",""2141""
","
","","","-1","","","16","9665","4033","&#9826;","elianto","#f73b6a7A","-1","-1","1","0","[]","0","0","3","","","","","","","",""
"pit-trial","66","650111","0.0-2.0-14.1-2.1","battery-v0.2","","""event"",""trial"",""time""
""fullscreenenter"",""1"",""2141""
","
","
","""event"",""trial"",""time""
""fullscreenenter"",""1"",""2141""
","
","","","-1","","","16","9665","4033","&#9826;","elianto","#f73b6a7A","-1","-1","1","0","[]","0","0","3","","","","","","","",""
"pit-trial","67","656113","0.0-2.0-14.1-3.1","battery-v0.2","","""event"",""trial"",""time""
""fullscreenenter"",""1"",""2141""
","
","
","""event"",""trial"",""time""
""fullscreenenter"",""1"",""2141""
","
","","","-1","","","16","9665","4033","&#9826;","elianto","#f73b6a7A","-1","-1","1","-10","[]","0","0","3","","","","","","","",""
"pit-trial","68","662113","0.0-2.0-14.1-4.1","battery-v0.2","","""event"",""trial"",""time""
""fullscreenenter"",""1"",""2141""
","
","
","""event"",""trial"",""time""
""fullscreenenter"",""1"",""2141""
","
","","","-1","","","16","9665","4033","&#9826;","elianto","#f73b6a7A","-1","-1","1","0","[]","0","0","3","","","","","","","",""
"pit-trial","69","668118","0.0-2.0-14.2-0.2","battery-v0.2","","""event"",""trial"",""time""
""fullscreenenter"",""1"",""2141""
","
","
","""event"",""trial"",""time""
""fullscreenenter"",""1"",""2141""
","
","","","-1","","","16","9665","4033","&#9826;","elianto","#f73b6a7A","-1","-1","1","0","[]","0","0","3","","","","","","","",""
"pit-trial","70","674119","0.0-2.0-14.2-1.2","battery-v0.2","","""event"",""trial"",""time""
""fullscreenenter"",""1"",""2141""
","
","
","""event"",""trial"",""time""
""fullscreenenter"",""1"",""2141""
","
","","","-1","","","16","9665","4033","&#9826;","elianto","#f73b6a7A","-1","-1","1","0","[]","0","0","3","","","","","","","",""
"pit-trial","71","680121","0.0-2.0-14.2-2.2","battery-v0.2","","""event"",""trial"",""time""
""fullscreenenter"",""1"",""2141""
","
","
","""event"",""trial"",""time""
""fullscreenenter"",""1"",""2141""
","
","","","-1","","","16","9665","4033","&#9826;","elianto","#f73b6a7A","-1","-1","1","0","[]","0","0","3","","","","","","","",""
"pit-trial","72","683629","0.0-2.0-14.2-3.2","battery-v0.2","","""event"",""trial"",""time""
""fullscreenenter"",""1"",""2141""
","
","
","""event"",""trial"",""time""
""fullscreenenter"",""1"",""2141""
","
","","","506","","","16","9665","4033","&#9826;","elianto","#f73b6a7A","-1"," ","0","0","[1492.1000000014901]","1","0","3","","","","","","","",""
"pit-trial","73","687717","0.0-2.0-14.2-4.2","battery-v0.2","","""event"",""trial"",""time""
""fullscreenenter"",""1"",""2141""
","
","
","""event"",""trial"",""time""
""fullscreenenter"",""1"",""2141""
","
","","","1199.3999999985099","","","16","9665","4033","&#9826;","elianto","#f73b6a7A","-1"," ","0","-10","[2054.60000000149]","1","0","3","","","","","","","",""
"pit-trial","74","692634","0.0-2.0-14.3-0.3","battery-v0.2","","""event"",""trial"",""time""
""fullscreenenter"",""1"",""2141""
","
","
","""event"",""trial"",""time""
""fullscreenenter"",""1"",""2141""
","
","","","-1","","","16","9665","4033","&#9826;","elianto","#f73b6a7A","-1","-1","1","0","[]","0","0","3","","","","","","","",""
"pit-trial","75","697518","0.0-2.0-14.3-1.3","battery-v0.2","","""event"",""trial"",""time""
""fullscreenenter"",""1"",""2141""
","
","
","""event"",""trial"",""time""
""fullscreenenter"",""1"",""2141""
","
","","","-1","","","16","9665","4033","&#9826;","elianto","#f73b6a7A","-1","-1","1","0","[]","0","0","3","","","","","","","",""
"pit-trial","76","702421","0.0-2.0-14.3-2.3","battery-v0.2","","""event"",""trial"",""time""
""fullscreenenter"",""1"",""2141""
","
","
","""event"",""trial"",""time""
""fullscreenenter"",""1"",""2141""
","
","","","-1","","","16","9665","4033","&#9826;","elianto","#f73b6a7A","-1","-1","1","0","[]","0","0","3","","","","","","","",""
"pit-trial","77","707300","0.0-2.0-14.3-3.3","battery-v0.2","","""event"",""trial"",""time""
""fullscreenenter"",""1"",""2141""
","
","
","""event"",""trial"",""time""
""fullscreenenter"",""1"",""2141""
","
","","","-1","","","16","9665","4033","&#9826;","elianto","#f73b6a7A","-1","-1","1","-10","[]","0","0","3","","","","","","","",""
"pit-trial","78","712196","0.0-2.0-14.3-4.3","battery-v0.2","","""event"",""trial"",""time""
""fullscreenenter"",""1"",""2141""
","
","
","""event"",""trial"",""time""
""fullscreenenter"",""1"",""2141""
","
","","","-1","","","16","9665","4033","&#9826;","elianto","#f73b6a7A","-1","-1","1","0","[]","0","0","3","","","","","","","",""
"call-function","79","712199","0.0-2.0-15.0","battery-v0.2","","""event"",""trial"",""time""
""fullscreenenter"",""1"",""2141""
","
","
","""event"",""trial"",""time""
""fullscreenenter"",""1"",""2141""
","
","","","","","","","","","","","","","","","","","","","","","","","","","","",""
"pit-instructions","80","756291","0.0-2.0-16.0","battery-v0.2","","""event"",""trial"",""time""
""fullscreenenter"",""1"",""2141""
","
","
","""event"",""trial"",""time""
""fullscreenenter"",""1"",""2141""
","
","","[{""page_index"":0,""viewing_time"":19800.90000000596},{""page_index"":1,""viewing_time"":13675.39999999851},{""page_index"":2,""viewing_time"":5100.89999999851},{""page_index"":3,""viewing_time"":5514.5}]","44092.20000000298","","","","","","","","","","","","","","","","","","","","","","","",""
"pit-trial","81","759345","0.0-2.0-17.0-0.0","battery-v0.2","","""event"",""trial"",""time""
""fullscreenenter"",""1"",""2141""
","
","
","""event"",""trial"",""time""
""fullscreenenter"",""1"",""2141""
","
","","","187.69999999552965","","","16","9665","4033","&#9789;","elianto","#f73b6a7A"," "," ","1","0","[1038.5]","1","0","4","","","","","","","",""
"pit-trial","82","763018","0.0-2.0-17.0-1.0","battery-v0.2","","""event"",""trial"",""time""
""fullscreenenter"",""1"",""2141""
","
","
","""event"",""trial"",""time""
""fullscreenenter"",""1"",""2141""
","
","","","812.2999999970198","","","16","9665","4033","&#9789;","elianto","#f73b6a7A"," "," ","1","0","[1665.1999999955297]","1","0","4","","","","","","","",""
"pit-trial","83","766053","0.0-2.0-17.0-2.0","battery-v0.2","","""event"",""trial"",""time""
""fullscreenenter"",""1"",""2141""
","
","
","""event"",""trial"",""time""
""fullscreenenter"",""1"",""2141""
","
","","","171","","","16","9665","4033","&#9789;","elianto","#f73b6a7A"," "," ","1","0","[1023.5]","1","0","4","","","","","","","",""
"pit-trial","84","769016","0.0-2.0-17.0-3.0","battery-v0.2","","""event"",""trial"",""time""
""fullscreenenter"",""1"",""2141""
","
","
","""event"",""trial"",""time""
""fullscreenenter"",""1"",""2141""
","
","","","92.39999999850988","","","16","9665","4033","&#9789;","elianto","#f73b6a7A"," "," ","1","-10","[948.1000000014901]","1","0","4","","","","","","","",""
"pit-trial","85","773891","0.0-2.0-17.0-4.0","battery-v0.2","","""event"",""trial"",""time""
""fullscreenenter"",""1"",""2141""
","
","
","""event"",""trial"",""time""
""fullscreenenter"",""1"",""2141""
","
","","","-1","","","16","9665","4033","&#9789;","elianto","#f73b6a7A"," ","-1","0","-10","[]","0","0","4","","","","","","","",""
"pit-trial","86","778771","0.0-2.0-17.1-0.1","battery-v0.2","","""event"",""trial"",""time""
""fullscreenenter"",""1"",""2141""
","
","
","""event"",""trial"",""time""
""fullscreenenter"",""1"",""2141""
","
","","","-1","","","16","9665","4033","&#9789;","elianto","#f73b6a7A"," ","-1","0","-10","[]","0","0","4","","","","","","","",""
"pit-trial","87","783638","0.0-2.0-17.1-1.1","battery-v0.2","","""event"",""trial"",""time""
""fullscreenenter"",""1"",""2141""
","
","
","""event"",""trial"",""time""
""fullscreenenter"",""1"",""2141""
","
","","","-1","","","16","9665","4033","&#9789;","elianto","#f73b6a7A"," ","-1","0","-10","[]","0","0","4","","","","","","","",""
"pit-trial","88","788506","0.0-2.0-17.1-2.1","battery-v0.2","","""event"",""trial"",""time""
""fullscreenenter"",""1"",""2141""
","
","
","""event"",""trial"",""time""
""fullscreenenter"",""1"",""2141""
","
","","","-1","","","16","9665","4033","&#9789;","elianto","#f73b6a7A"," ","-1","0","-10","[]","0","0","4","","","","","","","",""
"pit-trial","89","793410","0.0-2.0-17.1-3.1","battery-v0.2","","""event"",""trial"",""time""
""fullscreenenter"",""1"",""2141""
","
","
","""event"",""trial"",""time""
""fullscreenenter"",""1"",""2141""
","
","","","-1","","","16","9665","4033","&#9789;","elianto","#f73b6a7A"," ","-1","0","0","[]","0","0","4","","","","","","","",""
"pit-trial","90","798290","0.0-2.0-17.1-4.1","battery-v0.2","","""event"",""trial"",""time""
""fullscreenenter"",""1"",""2141""
","
","
","""event"",""trial"",""time""
""fullscreenenter"",""1"",""2141""
","
","","","-1","","","16","9665","4033","&#9789;","elianto","#f73b6a7A"," ","-1","0","-10","[]","0","0","4","","","","","","","",""
"pit-trial","91","805113","0.0-2.0-17.2-0.2","battery-v0.2","","""event"",""trial"",""time""
""fullscreenenter"",""1"",""2141""
","
","
","""event"",""trial"",""time""
""fullscreenenter"",""1"",""2141""
","
","","","-1","","","16","9665","4033","&#9789;","elianto","#f73b6a7A"," ","-1","0","-10","[]","0","0","4","","","","","","","",""
"pit-trial","92","811120","0.0-2.0-17.2-1.2","battery-v0.2","","""event"",""trial"",""time""
""fullscreenenter"",""1"",""2141""
","
","
","""event"",""trial"",""time""
""fullscreenenter"",""1"",""2141""
","
","","","-1","","","16","9665","4033","&#9789;","elianto","#f73b6a7A"," ","-1","0","-10","[]","0","0","4","","","","","","","",""
"pit-trial","93","817108","0.0-2.0-17.2-2.2","battery-v0.2","","""event"",""trial"",""time""
""fullscreenenter"",""1"",""2141""
","
","
","""event"",""trial"",""time""
""fullscreenenter"",""1"",""2141""
","
","","","-1","","","16","9665","4033","&#9789;","elianto","#f73b6a7A"," ","-1","0","-10","[]","0","0","4","","","","","","","",""
"pit-trial","94","823107","0.0-2.0-17.2-3.2","battery-v0.2","","""event"",""trial"",""time""
""fullscreenenter"",""1"",""2141""
","
","
","""event"",""trial"",""time""
""fullscreenenter"",""1"",""2141""
","
","","","-1","","","16","9665","4033","&#9789;","elianto","#f73b6a7A"," ","-1","0","0","[]","0","0","4","","","","","","","",""
"pit-trial","95","829116","0.0-2.0-17.2-4.2","battery-v0.2","","""event"",""trial"",""time""
""fullscreenenter"",""1"",""2141""
","
","
","""event"",""trial"",""time""
""fullscreenenter"",""1"",""2141""
","
","","","-1","","","16","9665","4033","&#9789;","elianto","#f73b6a7A"," ","-1","0","-10","[]","0","0","4","","","","","","","",""
"pit-trial","96","833983","0.0-2.0-17.3-0.3","battery-v0.2","","""event"",""trial"",""time""
""fullscreenenter"",""1"",""2141""
","
","
","""event"",""trial"",""time""
""fullscreenenter"",""1"",""2141""
","
","","","-1","","","16","9665","4033","&#9789;","elianto","#f73b6a7A"," ","-1","0","-10","[837.7000000029802]","1","0","4","","","","","","","",""
"pit-trial","97","838913","0.0-2.0-17.3-1.3","battery-v0.2","","""event"",""trial"",""time""
""fullscreenenter"",""1"",""2141""
","
","
","""event"",""trial"",""time""
""fullscreenenter"",""1"",""2141""
","
","","","-1","","","16","9665","4033","&#9789;","elianto","#f73b6a7A"," ","-1","0","-10","[]","0","0","4","","","","","","","",""
"pit-trial","98","843806","0.0-2.0-17.3-2.3","battery-v0.2","","""event"",""trial"",""time""
""fullscreenenter"",""1"",""2141""
","
","
","""event"",""trial"",""time""
""fullscreenenter"",""1"",""2141""
","
","","","-1","","","16","9665","4033","&#9789;","elianto","#f73b6a7A"," ","-1","0","-10","[]","0","0","4","","","","","","","",""
"pit-trial","99","848697","0.0-2.0-17.3-3.3","battery-v0.2","","""event"",""trial"",""time""
""fullscreenenter"",""1"",""2141""
","
","
","""event"",""trial"",""time""
""fullscreenenter"",""1"",""2141""
","
","","","-1","","","16","9665","4033","&#9789;","elianto","#f73b6a7A"," ","-1","0","0","[]","0","0","4","","","","","","","",""
"pit-trial","100","853580","0.0-2.0-17.3-4.3","battery-v0.2","","""event"",""trial"",""time""
""fullscreenenter"",""1"",""2141""
","
","
","""event"",""trial"",""time""
""fullscreenenter"",""1"",""2141""
","
","","","-1","","","16","9665","4033","&#9789;","elianto","#f73b6a7A"," ","-1","0","-10","[]","0","0","4","","","","","","","",""
"call-function","101","853582","0.0-2.0-18.0","battery-v0.2","","""event"",""trial"",""time""
""fullscreenenter"",""1"",""2141""
","
","
","""event"",""trial"",""time""
""fullscreenenter"",""1"",""2141""
","
","","","","","","","","","","","","","","","","","","","","","","","","","","",""
"pit-instructions","102","930247","0.0-2.0-19.0","battery-v0.2","","""event"",""trial"",""time""
""fullscreenenter"",""1"",""2141""
","
","
","""event"",""trial"",""time""
""fullscreenenter"",""1"",""2141""
","
","","[{""page_index"":0,""viewing_time"":6786.70000000298},{""page_index"":1,""viewing_time"":7306.5},{""page_index"":2,""viewing_time"":15107.89999999851},{""page_index"":3,""viewing_time"":7991.20000000298},{""page_index"":4,""viewing_time"":10239.79999999702},{""page_index"":5,""viewing_time"":9055.30000000447},{""page_index"":6,""viewing_time"":9267.29999999702},{""page_index"":7,""viewing_time"":6789.5},{""page_index"":8,""viewing_time"":4122}]","76667.40000000596","","","","","","","","","","","","","","","","","","","","","","","",""
"pit-comprehension","103","934808","0.0-2.0-20.0-0.0","battery-v0.2","","""event"",""trial"",""time""
""fullscreenenter"",""1"",""2141""
","
","
","""event"",""trial"",""time""
""fullscreenenter"",""1"",""2141""
","
","","","4553.10000000149","[""SPACE""]","0","16","9665","4033","","","","","","","","","","","","","","","","","","",""
"pit-instructions","104","938064","0.0-2.0-20.0-1.0","battery-v0.2","","""event"",""trial"",""time""
""fullscreenenter"",""1"",""2141""
","
","
","""event"",""trial"",""time""
""fullscreenenter"",""1"",""2141""
","
","","[{""page_index"":0,""viewing_time"":3186.5}]","3188.2000000029802","","","","","","","","","","","","","","","","","","","","","","","",""
"pit-comprehension","105","944890","0.0-2.0-21.0-0.0","battery-v0.2","","""event"",""trial"",""time""
""fullscreenenter"",""1"",""2141""
","
","
","""event"",""trial"",""time""
""fullscreenenter"",""1"",""2141""
","
","","","6810.10000000149","[""10""]","0","16","9665","4033","","","","","","","","","","","","","","","","","","",""
"pit-instructions","106","946559","0.0-2.0-21.0-1.0","battery-v0.2","","""event"",""trial"",""time""
""fullscreenenter"",""1"",""2141""
","
","
","""event"",""trial"",""time""
""fullscreenenter"",""1"",""2141""
","
","","[{""page_index"":0,""viewing_time"":1574}]","1574.3999999985099","","","","","","","","","","","","","","","","","","","","","","","",""
"pit-comprehension","107","958422","0.0-2.0-22.0-0.0","battery-v0.2","","""event"",""trial"",""time""
""fullscreenenter"",""1"",""2141""
","
","
","""event"",""trial"",""time""
""fullscreenenter"",""1"",""2141""
","
","","","11858.79999999702","[""0""]","0","16","9665","4033","","","","","","","","","","","","","","","","","","",""
"pit-instructions","108","962683","0.0-2.0-22.0-1.0","battery-v0.2","","""event"",""trial"",""time""
""fullscreenenter"",""1"",""2141""
","
","
","""event"",""trial"",""time""
""fullscreenenter"",""1"",""2141""
","
","","[{""page_index"":0,""viewing_time"":4192}]","4193.10000000149","","","","","","","","","","","","","","","","","","","","","","","",""
"pit-comprehension","109","973606","0.0-2.0-23.0-0.0","battery-v0.2","","""event"",""trial"",""time""
""fullscreenenter"",""1"",""2141""
","
","
","""event"",""trial"",""time""
""fullscreenenter"",""1"",""2141""
","
","","","10912.79999999702","[""True""]","0","16","9665","4033","","","","","","","","","","","","","","","","","","",""
"pit-instructions","110","978141","0.0-2.0-23.0-1.0","battery-v0.2","","""event"",""trial"",""time""
""fullscreenenter"",""1"",""2141""
","
","
","""event"",""trial"",""time""
""fullscreenenter"",""1"",""2141""
","
","","[{""page_index"":0,""viewing_time"":4467.19999999553}]","4468.29999999702","","","","","","","","","","","","","","","","","","","","","","","",""
"pit-comprehension","111","985955","0.0-2.0-24.0-0.0","battery-v0.2","","""event"",""trial"",""time""
""fullscreenenter"",""1"",""2141""
","
","
","""event"",""trial"",""time""
""fullscreenenter"",""1"",""2141""
","
","","","7805","[""True""]","0","16","9665","4033","","","","","","","","","","","","","","","","","","",""
"pit-instructions","112","990936","0.0-2.0-24.0-1.0","battery-v0.2","","""event"",""trial"",""time""
""fullscreenenter"",""1"",""2141""
","
","
","""event"",""trial"",""time""
""fullscreenenter"",""1"",""2141""
","
","","[{""page_index"":0,""viewing_time"":4885}]","4886","","","","","","","","","","","","","","","","","","","","","","","",""
"pit-comprehension","113","1002940","0.0-2.0-25.0-0.0","battery-v0.2","","""event"",""trial"",""time""
""fullscreenenter"",""1"",""2141""
","
","
","""event"",""trial"",""time""
""fullscreenenter"",""1"",""2141""
","
","","","11995.5","[""True""]","0","16","9665","4033","","","","","","","","","","","","","","","","","","",""
"pit-instructions","114","1005364","0.0-2.0-25.0-1.0","battery-v0.2","","""event"",""trial"",""time""
""fullscreenenter"",""1"",""2141""
","
","
","""event"",""trial"",""time""
""fullscreenenter"",""1"",""2141""
","
","","[{""page_index"":0,""viewing_time"":2353.39999999851}]","2354.5","","","","","","","","","","","","","","","","","","","","","","","",""
"pit-comprehension","115","1012909","0.0-2.0-26.0-0.0","battery-v0.2","","""event"",""trial"",""time""
""fullscreenenter"",""1"",""2141""
","
","
","""event"",""trial"",""time""
""fullscreenenter"",""1"",""2141""
","
","","","7535.80000000447","[""False""]","0","16","9665","4033","","","","","","","","","","","","","","","","","","",""
"pit-instructions","116","1015139","0.0-2.0-26.0-1.0","battery-v0.2","","""event"",""trial"",""time""
""fullscreenenter"",""1"",""2141""
","
","
","""event"",""trial"",""time""
""fullscreenenter"",""1"",""2141""
","
","","[{""page_index"":0,""viewing_time"":2141.0999999940395}]","2142.2999999970198","","","","","","","","","","","","","","","","","","","","","","","",""
"pit-instructions","117","1180089","0.0-3.0","battery-v0.2","","""event"",""trial"",""time""
""fullscreenenter"",""1"",""2141""
","
","
","""event"",""trial"",""time""
""fullscreenenter"",""1"",""2141""
","
","","[{""page_index"":0,""viewing_time"":152856.3999999985},{""page_index"":1,""viewing_time"":5703.70000000298},{""page_index"":2,""viewing_time"":6382.89999999851}]","164943.5","","","","","","","","","","","","","","","","","","","","","","","",""
"pit-trial","118","1184958","0.0-4.0","battery-v0.2","","""event"",""trial"",""time""
""fullscreenenter"",""1"",""2141""
","
","
","""event"",""trial"",""time""
""fullscreenenter"",""1"",""2141""
","
","","","-1","","","16","9665","4033","&#9728;","elianto","#f73b6a7A","-1","-1","1","0","[]","0","1","","","9665","1","0","4","lose","no-go","0"
"pit-trial","119","1188669","0.0-5.0","battery-v0.2","","""event"",""trial"",""time""
""fullscreenenter"",""1"",""2141""
","
","
","""event"",""trial"",""time""
""fullscreenenter"",""1"",""2141""
","
","","","846.6999999955297","","","16","9665","4033","&#9730;","elianto","#3366ff99"," "," ","1","+10","[1702.4000000059605]","1","1","","","9665","2","1","1","win","go","0"
"pit-trial","120","1192484","0.0-6.0","battery-v0.2","","""event"",""trial"",""time""
""fullscreenenter"",""1"",""2141""
","
","
","""event"",""trial"",""time""
""fullscreenenter"",""1"",""2141""
","
","","","952.1000000014901","","","16","9665","4033","&#9752;","elianto","#f73b6a7A"," "," ","1","-10","[1804.2000000029802]","1","1","","","9665","3","3","3","lose","go","1"
"pit-trial","121","1196200","0.0-7.0","battery-v0.2","","""event"",""trial"",""time""
""fullscreenenter"",""1"",""2141""
","
","
","""event"",""trial"",""time""
""fullscreenenter"",""1"",""2141""
","
","","","836.6999999955297","","","16","9665","4033","&#9733;","elianto","#3366ff99","-1"," ","0","0","[1697.1999999955297]","1","1","","","9665","4","2","2","win","no-go","0"
"pit-trial","122","1200348","0.0-8.0","battery-v0.2","","""event"",""trial"",""time""
""fullscreenenter"",""1"",""2141""
","
","
","""event"",""trial"",""time""
""fullscreenenter"",""1"",""2141""
","
","","","1276.6999999955297","","","16","9665","4033","&#9728;","elianto","#f73b6a7A","-1"," ","0","0","[2130.10000000149]","1","1","","","9665","5","0","4","lose","no-go","1"
"pit-trial","123","1204300","0.0-9.0","battery-v0.2","","""event"",""trial"",""time""
""fullscreenenter"",""1"",""2141""
","
","
","""event"",""trial"",""time""
""fullscreenenter"",""1"",""2141""
","
","","","1086.7000000029802","","","16","9665","4033","&#9730;","elianto","#3366ff99"," "," ","1","+10","[1941.2000000029802]","1","1","","","9665","6","1","1","win","go","0"
"pit-trial","124","1207991","0.0-10.0","battery-v0.2","","""event"",""trial"",""time""
""fullscreenenter"",""1"",""2141""
","
","
","""event"",""trial"",""time""
""fullscreenenter"",""1"",""2141""
","
","","","823.7000000029802","","","16","9665","4033","&#9733;","elianto","#3366ff99","-1"," ","0","0","[1674.7000000029802]","1","1","","","9665","7","2","2","win","no-go","0"
"pit-trial","125","1212858","0.0-11.0","battery-v0.2","","""event"",""trial"",""time""
""fullscreenenter"",""1"",""2141""
","
","
","""event"",""trial"",""time""
""fullscreenenter"",""1"",""2141""
","
","","","-1","","","16","9665","4033","&#9752;","elianto","#f73b6a7A"," ","-1","0","-10","[]","0","1","","","9665","8","3","3","lose","go","0"
"pit-trial","126","1217757","0.0-12.0","battery-v0.2","","""event"",""trial"",""time""
""fullscreenenter"",""1"",""2141""
","
","
","""event"",""trial"",""time""
""fullscreenenter"",""1"",""2141""
","
","","","-1","","","16","9665","4033","&#9728;","elianto","#f73b6a7A","-1","-1","1","0","[]","0","1","","","9665","9","0","4","lose","no-go","0"
"pit-trial","127","1221415","0.0-13.0","battery-v0.2","","""event"",""trial"",""time""
""fullscreenenter"",""1"",""2141""
","
","
","""event"",""trial"",""time""
""fullscreenenter"",""1"",""2141""
","
","","","781.7000000029802","","","16","9665","4033","&#9733;","elianto","#3366ff99","-1"," ","0","0","[1640.5]","1","1","","","9665","10","2","2","win","no-go","0"
"pit-trial","128","1226301","0.0-14.0","battery-v0.2","","""event"",""trial"",""time""
""fullscreenenter"",""1"",""2141""
","
","
","""event"",""trial"",""time""
""fullscreenenter"",""1"",""2141""
","
","","","-1","","","16","9665","4033","&#9752;","elianto","#f73b6a7A"," ","-1","0","-10","[]","0","1","","","9665","11","3","3","lose","go","0"
"pit-trial","129","1229657","0.0-15.0","battery-v0.2","","""event"",""trial"",""time""
""fullscreenenter"",""1"",""2141""
","
","
","""event"",""trial"",""time""
""fullscreenenter"",""1"",""2141""
","
","","","484.8999999985099","","","16","9665","4033","&#9730;","elianto","#3366ff99"," "," ","1","+10","[1352.6999999955297]","1","1","","","9665","12","1","1","win","go","0"
"pit-trial","130","1233985","0.0-16.0","battery-v0.2","","""event"",""trial"",""time""
""fullscreenenter"",""1"",""2141""
","
","
","""event"",""trial"",""time""
""fullscreenenter"",""1"",""2141""
","
","","","1431.5","","","16","9665","4033","&#9728;","elianto","#f73b6a7A","-1"," ","0","0","[2293.10000000149]","1","1","","","9665","13","0","4","lose","no-go","1"
"pit-trial","131","1237453","0.0-17.0","battery-v0.2","","""event"",""trial"",""time""
""fullscreenenter"",""1"",""2141""
","
","
","""event"",""trial"",""time""
""fullscreenenter"",""1"",""2141""
","
","","","603.3000000044703","","","16","9665","4033","&#9730;","elianto","#3366ff99"," "," ","1","+10","[1461.7000000029802]","1","1","","","9665","14","1","1","win","go","0"
"pit-trial","132","1242330","0.0-18.0","battery-v0.2","","""event"",""trial"",""time""
""fullscreenenter"",""1"",""2141""
","
","
","""event"",""trial"",""time""
""fullscreenenter"",""1"",""2141""
","
","","","-1","","","16","9665","4033","&#9752;","elianto","#f73b6a7A"," ","-1","0","0","[]","0","1","","","9665","15","3","3","lose","go","1"
"pit-trial","133","1247202","0.0-19.0","battery-v0.2","","""event"",""trial"",""time""
""fullscreenenter"",""1"",""2141""
","
","
","""event"",""trial"",""time""
""fullscreenenter"",""1"",""2141""
","
","","","-1","","","16","9665","4033","&#9733;","elianto","#3366ff99","-1","-1","1","+10","[3572.7999999970198]","1","1","","","9665","16","2","2","win","no-go","0"
"pit-trial","134","1252076","0.0-20.0","battery-v0.2","","""event"",""trial"",""time""
""fullscreenenter"",""1"",""2141""
","
","
","""event"",""trial"",""time""
""fullscreenenter"",""1"",""2141""
","
","","","-1","","","16","9665","4033","&#9728;","elianto","#f73b6a7A","-1","-1","1","0","[]","0","1","","","9665","17","0","4","lose","no-go","0"
"pit-trial","135","1255468","0.0-21.0","battery-v0.2","","""event"",""trial"",""time""
""fullscreenenter"",""1"",""2141""
","
","
","""event"",""trial"",""time""
""fullscreenenter"",""1"",""2141""
","
","","","511.29999999701977","","","16","9665","4033","&#9730;","elianto","#3366ff99"," "," ","1","+10","[1373.5999999940395]","1","1","","","9665","18","1","1","win","go","0"
"pit-trial","136","1260349","0.0-22.0","battery-v0.2","","""event"",""trial"",""time""
""fullscreenenter"",""1"",""2141""
","
","
","""event"",""trial"",""time""
""fullscreenenter"",""1"",""2141""
","
","","","-1","","","16","9665","4033","&#9752;","elianto","#f73b6a7A"," ","-1","0","-10","[]","0","1","","","9665","19","3","3","lose","go","0"
"pit-trial","137","1263640","0.0-23.0","battery-v0.2","","""event"",""trial"",""time""
""fullscreenenter"",""1"",""2141""
","
","
","""event"",""trial"",""time""
""fullscreenenter"",""1"",""2141""
","
","","","417.1000000014901","","","16","9665","4033","&#9733;","elianto","#3366ff99","-1"," ","0","+10","[1280]","1","1","","","9665","20","2","2","win","no-go","1"
"pit-instructions","138","1278241","0.0-24.0","battery-v0.2","","""event"",""trial"",""time""
""fullscreenenter"",""1"",""2141""
","
","
","""event"",""trial"",""time""
""fullscreenenter"",""1"",""2141""
","
","","[{""page_index"":0,""viewing_time"":8435.19999999553},{""page_index"":1,""viewing_time"":6162.10000000149}]","14598.39999999851","","","","","","","","","","","","","","","","","","","","","","","",""
"pit-trial","139","1283115","0.0-25.0","battery-v0.2","","""event"",""trial"",""time""
""fullscreenenter"",""1"",""2141""
","
","
","""event"",""trial"",""time""
""fullscreenenter"",""1"",""2141""
","
","","","-1","","","16","9665","4033","y","elianto","#f73b6a7A"," ","-1","0","-10","[]","0","2","","","9665","21","2","3","lose","go","0"
"pit-trial","140","1287992","0.0-26.0","battery-v0.2","","""event"",""trial"",""time""
""fullscreenenter"",""1"",""2141""
","
","
","""event"",""trial"",""time""
""fullscreenenter"",""1"",""2141""
","
","","","-1","","","16","9665","4033","h","elianto","#f73b6a7A","-1","-1","1","0","[3279.89999999851]","1","2","","","9665","22","3","4","lose","no-go","0"
"pit-trial","141","1292301","0.0-27.0","battery-v0.2","","""event"",""trial"",""time""
""fullscreenenter"",""1"",""2141""
","
","
","""event"",""trial"",""time""
""fullscreenenter"",""1"",""2141""
","
","","","1436.1999999955297","","","16","9665","4033","r","elianto","#3366ff99","-1"," ","0","0","[2290.60000000149]","1","2","","","9665","23","1","2","win","no-go","0"
"pit-trial","142","1297177","0.0-28.0","battery-v0.2","","""event"",""trial"",""time""
""fullscreenenter"",""1"",""2141""
","
","
","""event"",""trial"",""time""
""fullscreenenter"",""1"",""2141""
","
","","","-1","","","16","9665","4033","m","elianto","#f73b6a7A"," ","-1","0","-10","[]","0","2","","","9665","24","0","3","lose","go","0"
"pit-trial","143","1302054","0.0-29.0","battery-v0.2","","""event"",""trial"",""time""
""fullscreenenter"",""1"",""2141""
","
","
","""event"",""trial"",""time""
""fullscreenenter"",""1"",""2141""
","
","","","-1","","","16","9665","4033","h","elianto","#f73b6a7A","-1","-1","1","0","[]","0","2","","","9665","25","3","4","lose","no-go","0"
"pit-trial","144","1306939","0.0-30.0","battery-v0.2","","""event"",""trial"",""time""
""fullscreenenter"",""1"",""2141""
","
","
","""event"",""trial"",""time""
""fullscreenenter"",""1"",""2141""
","
","","","-1","","","16","9665","4033","r","elianto","#3366ff99","-1","-1","1","+10","[3344.3000000044703]","1","2","","","9665","26","1","2","win","no-go","0"
"pit-trial","145","1311830","0.0-31.0","battery-v0.2","","""event"",""trial"",""time""
""fullscreenenter"",""1"",""2141""
","
","
","""event"",""trial"",""time""
""fullscreenenter"",""1"",""2141""
","
","","","-1","","","16","9665","4033","y","elianto","#f73b6a7A"," ","-1","0","-10","[]","0","2","","","9665","27","2","3","lose","go","0"
"pit-trial","146","1316751","0.0-32.0","battery-v0.2","","""event"",""trial"",""time""
""fullscreenenter"",""1"",""2141""
","
","
","""event"",""trial"",""time""
""fullscreenenter"",""1"",""2141""
","
","","","-1","","","16","9665","4033","m","elianto","#f73b6a7A"," ","-1","0","-10","[]","0","2","","","9665","28","0","3","lose","go","0"
"pit-trial","147","1321673","0.0-33.0","battery-v0.2","","""event"",""trial"",""time""
""fullscreenenter"",""1"",""2141""
","
","
","""event"",""trial"",""time""
""fullscreenenter"",""1"",""2141""
","
","","","-1","","","16","9665","4033","m","elianto","#f73b6a7A"," ","-1","0","-10","[]","0","2","","","9665","29","0","3","lose","go","0"
"pit-trial","148","1326591","0.0-34.0","battery-v0.2","","""event"",""trial"",""time""
""fullscreenenter"",""1"",""2141""
","
","
","""event"",""trial"",""time""
""fullscreenenter"",""1"",""2141""
","
","","","-1","","","16","9665","4033","y","elianto","#f73b6a7A"," ","-1","0","-10","[]","0","2","","","9665","30","2","3","lose","go","0"
"pit-trial","149","1330012","0.0-35.0","battery-v0.2","","""event"",""trial"",""time""
""fullscreenenter"",""1"",""2141""
","
","
","""event"",""trial"",""time""
""fullscreenenter"",""1"",""2141""
","
","","","542.3999999985099","","","16","9665","4033","r","elianto","#3366ff99","-1"," ","0","0","[1402.8999999985099]","1","2","","","9665","31","1","2","win","no-go","0"
"pit-trial","150","1334898","0.0-36.0","battery-v0.2","","""event"",""trial"",""time""
""fullscreenenter"",""1"",""2141""
","
","
","""event"",""trial"",""time""
""fullscreenenter"",""1"",""2141""
","
","","","-1","","","16","9665","4033","h","elianto","#f73b6a7A","-1","-1","1","0","[]","0","2","","","9665","32","3","4","lose","no-go","0"
"pit-trial","151","1339796","0.0-37.0","battery-v0.2","","""event"",""trial"",""time""
""fullscreenenter"",""1"",""2141""
","
","
","""event"",""trial"",""time""
""fullscreenenter"",""1"",""2141""
","
","","","-1","","","16","9665","4033","m","elianto","#f73b6a7A"," ","-1","0","0","[]","0","2","","","9665","33","0","3","lose","go","1"
"pit-trial","152","1343441","0.0-38.0","battery-v0.2","","""event"",""trial"",""time""
""fullscreenenter"",""1"",""2141""
","
","
","""event"",""trial"",""time""
""fullscreenenter"",""1"",""2141""
","
","","","775.5","","","16","9665","4033","r","elianto","#3366ff99","-1"," ","0","+10","[1630.7000000029802]","1","2","","","9665","34","1","2","win","no-go","1"
"pit-trial","153","1346866","0.0-39.0","battery-v0.2","","""event"",""trial"",""time""
""fullscreenenter"",""1"",""2141""
","
","
","""event"",""trial"",""time""
""fullscreenenter"",""1"",""2141""
","
","","","557.2999999970198","","","16","9665","4033","y","elianto","#f73b6a7A"," "," ","1","0","[1414.2999999970198]","1","2","","","9665","35","2","3","lose","go","0"
"pit-trial","154","1351767","0.0-40.0","battery-v0.2","","""event"",""trial"",""time""
""fullscreenenter"",""1"",""2141""
","
","
","""event"",""trial"",""time""
""fullscreenenter"",""1"",""2141""
","
","","","-1","","","16","9665","4033","h","elianto","#f73b6a7A","-1","-1","1","0","[]","0","2","","","9665","36","3","4","lose","no-go","0"
"pit-trial","155","1356650","0.0-41.0","battery-v0.2","","""event"",""trial"",""time""
""fullscreenenter"",""1"",""2141""
","
","
","""event"",""trial"",""time""
""fullscreenenter"",""1"",""2141""
","
","","","-1","","","16","9665","4033","h","elianto","#f73b6a7A","-1","-1","1","0","[]","0","2","","","9665","37","3","4","lose","no-go","0"
"pit-trial","156","1361572","0.0-42.0","battery-v0.2","","""event"",""trial"",""time""
""fullscreenenter"",""1"",""2141""
","
","
","""event"",""trial"",""time""
""fullscreenenter"",""1"",""2141""
","
","","","-1","","","16","9665","4033","y","elianto","#f73b6a7A"," ","-1","0","-10","[]","0","2","","","9665","38","2","3","lose","go","0"
"pit-trial","157","1365047","0.0-43.0","battery-v0.2","","""event"",""trial"",""time""
""fullscreenenter"",""1"",""2141""
","
","
","""event"",""trial"",""time""
""fullscreenenter"",""1"",""2141""
","
","","","597.3999999985099","","","16","9665","4033","r","elianto","#3366ff99","-1"," ","0","0","[1458.6000000014901]","1","2","","","9665","39","1","2","win","no-go","0"
"pit-trial","158","1369951","0.0-44.0","battery-v0.2","","""event"",""trial"",""time""
""fullscreenenter"",""1"",""2141""
","
","
","""event"",""trial"",""time""
""fullscreenenter"",""1"",""2141""
","
","","","-1","","","16","9665","4033","m","elianto","#f73b6a7A"," ","-1","0","-10","[]","0","2","","","9665","40","0","3","lose","go","0"
"pit-trial","159","1373324","0.0-45.0","battery-v0.2","","""event"",""trial"",""time""
""fullscreenenter"",""1"",""2141""
","
","
","""event"",""trial"",""time""
""fullscreenenter"",""1"",""2141""
","
","","","514.8999999985099","","","16","9665","4033","y","elianto","#f73b6a7A"," "," ","1","0","[1368.8999999985099]","1","2","","","9665","41","2","3","lose","go","0"
"pit-trial","160","1376764","0.0-46.0","battery-v0.2","","""event"",""trial"",""time""
""fullscreenenter"",""1"",""2141""
","
","
","""event"",""trial"",""time""
""fullscreenenter"",""1"",""2141""
","
","","","542.1999999955297","","","16","9665","4033","h","elianto","#f73b6a7A","-1"," ","0","-10","[1398.0999999940395]","1","2","","","9665","42","3","4","lose","no-go","0"
"pit-trial","161","1380918","0.0-47.0","battery-v0.2","","""event"",""trial"",""time""
""fullscreenenter"",""1"",""2141""
","
","
","""event"",""trial"",""time""
""fullscreenenter"",""1"",""2141""
","
","","","1261.4000000059605","","","16","9665","4033","r","elianto","#3366ff99","-1"," ","0","0","[2144]","1","2","","","9665","43","1","2","win","no-go","0"
"pit-trial","162","1385819","0.0-48.0","battery-v0.2","","""event"",""trial"",""time""
""fullscreenenter"",""1"",""2141""
","
","
","""event"",""trial"",""time""
""fullscreenenter"",""1"",""2141""
","
","","","-1","","","16","9665","4033","m","elianto","#f73b6a7A"," ","-1","0","-10","[]","0","2","","","9665","44","0","3","lose","go","0"
"pit-trial","163","1390708","0.0-49.0","battery-v0.2","","""event"",""trial"",""time""
""fullscreenenter"",""1"",""2141""
","
","
","""event"",""trial"",""time""
""fullscreenenter"",""1"",""2141""
","
","","","-1","","","16","9665","4033","h","elianto","#f73b6a7A","-1","-1","1","0","[]","0","2","","","9665","45","3","4","lose","no-go","0"
"pit-trial","164","1395623","0.0-50.0","battery-v0.2","","""event"",""trial"",""time""
""fullscreenenter"",""1"",""2141""
","
","
","""event"",""trial"",""time""
""fullscreenenter"",""1"",""2141""
","
","","","-1","","","16","9665","4033","y","elianto","#f73b6a7A"," ","-1","0","0","[]","0","2","","","9665","46","2","3","lose","go","1"
"pit-trial","165","1400540","0.0-51.0","battery-v0.2","","""event"",""trial"",""time""
""fullscreenenter"",""1"",""2141""
","
","
","""event"",""trial"",""time""
""fullscreenenter"",""1"",""2141""
","
","","","-1","","","16","9665","4033","m","elianto","#f73b6a7A"," ","-1","0","-10","[]","0","2","","","9665","47","0","3","lose","go","0"
"pit-trial","166","1403869","0.0-52.0","battery-v0.2","","""event"",""trial"",""time""
""fullscreenenter"",""1"",""2141""
","
","
","""event"",""trial"",""time""
""fullscreenenter"",""1"",""2141""
","
","","","456.1000000014901","","","16","9665","4033","r","elianto","#3366ff99","-1"," ","0","0","[1323.1000000014901]","1","2","","","9665","48","1","2","win","no-go","0"
"pit-trial","167","1407438","0.0-53.0","battery-v0.2","","""event"",""trial"",""time""
""fullscreenenter"",""1"",""2141""
","
","
","""event"",""trial"",""time""
""fullscreenenter"",""1"",""2141""
","
","","","691.9000000059605","","","16","9665","4033","m","elianto","#f73b6a7A"," "," ","1","0","[1542.3999999985099]","1","2","","","9665","49","0","3","lose","go","0"
"pit-trial","168","1412341","0.0-54.0","battery-v0.2","","""event"",""trial"",""time""
""fullscreenenter"",""1"",""2141""
","
","
","""event"",""trial"",""time""
""fullscreenenter"",""1"",""2141""
","
","","","-1","","","16","9665","4033","y","elianto","#f73b6a7A"," ","-1","0","-10","[]","0","2","","","9665","50","2","3","lose","go","0"
"pit-trial","169","1417225","0.0-55.0","battery-v0.2","","""event"",""trial"",""time""
""fullscreenenter"",""1"",""2141""
","
","
","""event"",""trial"",""time""
""fullscreenenter"",""1"",""2141""
","
","","","-1","","","16","9665","4033","h","elianto","#f73b6a7A","-1","-1","1","0","[]","0","2","","","9665","51","3","4","lose","no-go","0"
"pit-trial","170","1422121","0.0-56.0","battery-v0.2","","""event"",""trial"",""time""
""fullscreenenter"",""1"",""2141""
","
","
","""event"",""trial"",""time""
""fullscreenenter"",""1"",""2141""
","
","","","-1","","","16","9665","4033","r","elianto","#3366ff99","-1","-1","1","0","[]","0","2","","","9665","52","1","2","win","no-go","1"
"pit-trial","171","1426708","0.0-57.0","battery-v0.2","","""event"",""trial"",""time""
""fullscreenenter"",""1"",""2141""
","
","
","""event"",""trial"",""time""
""fullscreenenter"",""1"",""2141""
","
","","","1721.5","","","16","9665","4033","r","elianto","#3366ff99","-1"," ","0","0","[2576.1999999955297]","1","2","","","9665","53","1","2","win","no-go","0"
"pit-trial","172","1431586","0.0-58.0","battery-v0.2","","""event"",""trial"",""time""
""fullscreenenter"",""1"",""2141""
","
","
","""event"",""trial"",""time""
""fullscreenenter"",""1"",""2141""
","
","","","-1","","","16","9665","4033","m","elianto","#f73b6a7A"," ","-1","0","-10","[]","0","2","","","9665","54","0","3","lose","go","0"
"pit-trial","173","1434998","0.0-59.0","battery-v0.2","","""event"",""trial"",""time""
""fullscreenenter"",""1"",""2141""
","
","
","""event"",""trial"",""time""
""fullscreenenter"",""1"",""2141""
","
","","","539.3999999985099","","","16","9665","4033","h","elianto","#f73b6a7A","-1"," ","0","-10","[1406.5]","1","2","","","9665","55","3","4","lose","no-go","0"
"pit-trial","174","1439881","0.0-60.0","battery-v0.2","","""event"",""trial"",""time""
""fullscreenenter"",""1"",""2141""
","
","
","""event"",""trial"",""time""
""fullscreenenter"",""1"",""2141""
","
","","","-1","","","16","9665","4033","y","elianto","#f73b6a7A"," ","-1","0","0","[]","0","2","","","9665","56","2","3","lose","go","1"
"pit-trial","175","1444766","0.0-61.0","battery-v0.2","","""event"",""trial"",""time""
""fullscreenenter"",""1"",""2141""
","
","
","""event"",""trial"",""time""
""fullscreenenter"",""1"",""2141""
","
","","","-1","","","16","9665","4033","y","elianto","#f73b6a7A"," ","-1","0","-10","[]","0","2","","","9665","57","2","3","lose","go","0"
"pit-trial","176","1449690","0.0-62.0","battery-v0.2","","""event"",""trial"",""time""
""fullscreenenter"",""1"",""2141""
","
","
","""event"",""trial"",""time""
""fullscreenenter"",""1"",""2141""
","
","","","-1","","","16","9665","4033","z","elianto","#3366ff99"," ","-1","0","0","[]","0","2","","","9665","58","4","1","win","go","0"
"pit-trial","177","1454573","0.0-63.0","battery-v0.2","","""event"",""trial"",""time""
""fullscreenenter"",""1"",""2141""
","
","
","""event"",""trial"",""time""
""fullscreenenter"",""1"",""2141""
","
","","","-1","","","16","9665","4033","m","elianto","#f73b6a7A"," ","-1","0","-10","[]","0","2","","","9665","59","0","3","lose","go","0"
"pit-trial","178","1459461","0.0-64.0","battery-v0.2","","""event"",""trial"",""time""
""fullscreenenter"",""1"",""2141""
","
","
","""event"",""trial"",""time""
""fullscreenenter"",""1"",""2141""
","
","","","-1","","","16","9665","4033","h","elianto","#f73b6a7A","-1","-1","1","-10","[]","0","2","","","9665","60","3","4","lose","no-go","1"
"pit-trial","179","1464358","0.0-65.0","battery-v0.2","","""event"",""trial"",""time""
""fullscreenenter"",""1"",""2141""
","
","
","""event"",""trial"",""time""
""fullscreenenter"",""1"",""2141""
","
","","","-1","","","16","9665","4033","r","elianto","#3366ff99","-1","-1","1","0","[]","0","2","","","9665","61","1","2","win","no-go","1"
"pit-trial","180","1470122","0.0-66.0","battery-v0.2","","""event"",""trial"",""time""
""fullscreenenter"",""1"",""2141""
","
","
","""event"",""trial"",""time""
""fullscreenenter"",""1"",""2141""
","
","","","-1","","","16","9665","4033","y","elianto","#f73b6a7A"," ","-1","0","-10","[]","0","2","","","9665","62","2","3","lose","go","0"
"pit-trial","181","1476114","0.0-67.0","battery-v0.2","","""event"",""trial"",""time""
""fullscreenenter"",""1"",""2141""
","
","
","""event"",""trial"",""time""
""fullscreenenter"",""1"",""2141""
","
","","","-1","","","16","9665","4033","z","elianto","#3366ff99"," ","-1","0","0","[]","0","2","","","9665","63","4","1","win","go","0"
"pit-trial","182","1482114","0.0-68.0","battery-v0.2","","""event"",""trial"",""time""
""fullscreenenter"",""1"",""2141""
","
","
","""event"",""trial"",""time""
""fullscreenenter"",""1"",""2141""
","
","","","-1","","","16","9665","4033","h","elianto","#f73b6a7A","-1","-1","1","-10","[]","0","2","","","9665","64","3","4","lose","no-go","1"
"pit-trial","183","1488115","0.0-69.0","battery-v0.2","","""event"",""trial"",""time""
""fullscreenenter"",""1"",""2141""
","
","
","""event"",""trial"",""time""
""fullscreenenter"",""1"",""2141""
","
","","","-1","","","16","9665","4033","r","elianto","#3366ff99","-1","-1","1","0","[]","0","2","","","9665","65","1","2","win","no-go","1"
"pit-trial","184","1494114","0.0-70.0","battery-v0.2","","""event"",""trial"",""time""
""fullscreenenter"",""1"",""2141""
","
","
","""event"",""trial"",""time""
""fullscreenenter"",""1"",""2141""
","
","","","-1","","","16","9665","4033","h","elianto","#f73b6a7A","-1","-1","1","0","[]","0","2","","","9665","66","3","4","lose","no-go","0"
"pit-trial","185","1498341","0.0-71.0","battery-v0.2","","""event"",""trial"",""time""
""fullscreenenter"",""1"",""2141""
","
","
","""event"",""trial"",""time""
""fullscreenenter"",""1"",""2141""
","
","","","1220.7000000029802","","","16","9665","4033","c","elianto","#3366ff99","-1"," ","0","0","[2215.7000000029802]","1","2","","","9665","67","5","2","win","no-go","0"
"pit-trial","186","1503226","0.0-72.0","battery-v0.2","","""event"",""trial"",""time""
""fullscreenenter"",""1"",""2141""
","
","
","""event"",""trial"",""time""
""fullscreenenter"",""1"",""2141""
","
","","","-1","","","16","9665","4033","z","elianto","#3366ff99"," ","-1","0","0","[]","0","2","","","9665","68","4","1","win","go","0"
"pit-trial","187","1508113","0.0-73.0","battery-v0.2","","""event"",""trial"",""time""
""fullscreenenter"",""1"",""2141""
","
","
","""event"",""trial"",""time""
""fullscreenenter"",""1"",""2141""
","
","","","-1","","","16","9665","4033","z","elianto","#3366ff99"," ","-1","0","0","[]","0","2","","","9665","69","4","1","win","go","0"
"pit-trial","188","1513015","0.0-74.0","battery-v0.2","","""event"",""trial"",""time""
""fullscreenenter"",""1"",""2141""
","
","
","""event"",""trial"",""time""
""fullscreenenter"",""1"",""2141""
","
","","","-1","","","16","9665","4033","r","elianto","#3366ff99","-1","-1","1","+10","[]","0","2","","","9665","70","1","2","win","no-go","0"
"pit-trial","189","1517901","0.0-75.0","battery-v0.2","","""event"",""trial"",""time""
""fullscreenenter"",""1"",""2141""
","
","
","""event"",""trial"",""time""
""fullscreenenter"",""1"",""2141""
","
","","","-1","","","16","9665","4033","c","elianto","#3366ff99","-1","-1","1","+10","[3614.89999999851]","1","2","","","9665","71","5","2","win","no-go","0"
"pit-trial","190","1522787","0.0-76.0","battery-v0.2","","""event"",""trial"",""time""
""fullscreenenter"",""1"",""2141""
","
","
","""event"",""trial"",""time""
""fullscreenenter"",""1"",""2141""
","
","","","-1","","","16","9665","4033","y","elianto","#f73b6a7A"," ","-1","0","-10","[]","0","2","","","9665","72","2","3","lose","go","0"
"pit-trial","191","1526513","0.0-77.0","battery-v0.2","","""event"",""trial"",""time""
""fullscreenenter"",""1"",""2141""
","
","
","""event"",""trial"",""time""
""fullscreenenter"",""1"",""2141""
","
","","","847.8999999985099","","","16","9665","4033","z","elianto","#3366ff99"," "," ","1","0","[1720.6999999955297]","1","2","","","9665","73","4","1","win","go","1"
"pit-trial","192","1529925","0.0-78.0","battery-v0.2","","""event"",""trial"",""time""
""fullscreenenter"",""1"",""2141""
","
","
","""event"",""trial"",""time""
""fullscreenenter"",""1"",""2141""
","
","","","518.1000000014901","","","16","9665","4033","r","elianto","#3366ff99","-1"," ","0","0","[1375.8000000044703]","1","2","","","9665","74","1","2","win","no-go","0"
"pit-trial","193","1532917","0.0-79.0","battery-v0.2","","""event"",""trial"",""time""
""fullscreenenter"",""1"",""2141""
","
","
","""event"",""trial"",""time""
""fullscreenenter"",""1"",""2141""
","
","","","116.40000000596046","","","16","9665","4033","h","elianto","#f73b6a7A","-1"," ","0","-10","[980.7999999970198]","1","2","","","9665","75","3","4","lose","no-go","0"
"pit-trial","194","1536655","0.0-80.0","battery-v0.2","","""event"",""trial"",""time""
""fullscreenenter"",""1"",""2141""
","
","
","""event"",""trial"",""time""
""fullscreenenter"",""1"",""2141""
","
","","","868.3000000044703","","","16","9665","4033","c","elianto","#3366ff99","-1"," ","0","0","[1719.7000000029802]","1","2","","","9665","76","5","2","win","no-go","0"
"pit-trial","195","1540663","0.0-81.0","battery-v0.2","","""event"",""trial"",""time""
""fullscreenenter"",""1"",""2141""
","
","
","""event"",""trial"",""time""
""fullscreenenter"",""1"",""2141""
","
","","","1142.5","","","16","9665","4033","c","elianto","#3366ff99","-1"," ","0","+10","[1997.8999999985099,3518.2999999970198]","2","2","","","9665","77","5","2","win","no-go","1"
"pit-trial","196","1545568","0.0-82.0","battery-v0.2","","""event"",""trial"",""time""
""fullscreenenter"",""1"",""2141""
","
","
","""event"",""trial"",""time""
""fullscreenenter"",""1"",""2141""
","
","","","-1","","","16","9665","4033","h","elianto","#f73b6a7A","-1","-1","1","0","[]","0","2","","","9665","78","3","4","lose","no-go","0"
"pit-trial","197","1549799","0.0-83.0","battery-v0.2","","""event"",""trial"",""time""
""fullscreenenter"",""1"",""2141""
","
","
","""event"",""trial"",""time""
""fullscreenenter"",""1"",""2141""
","
","","","1364.6000000014901","","","16","9665","4033","z","elianto","#3366ff99"," "," ","1","0","[2219.6999999955297]","1","2","","","9665","79","4","1","win","go","1"
"pit-trial","198","1554589","0.0-84.0","battery-v0.2","","""event"",""trial"",""time""
""fullscreenenter"",""1"",""2141""
","
","
","""event"",""trial"",""time""
""fullscreenenter"",""1"",""2141""
","
","","","1929.5999999940395","","","16","9665","4033","z","elianto","#3366ff99"," "," ","1","0","[2781.2999999970198]","1","2","","","9665","80","4","1","win","go","1"
"pit-trial","199","1559479","0.0-85.0","battery-v0.2","","""event"",""trial"",""time""
""fullscreenenter"",""1"",""2141""
","
","
","""event"",""trial"",""time""
""fullscreenenter"",""1"",""2141""
","
","","","-1","","","16","9665","4033","t","elianto","#f73b6a7A","-1","-1","1","0","[]","0","2","","","9665","81","7","4","lose","no-go","0"
"pit-trial","200","1564368","0.0-86.0","battery-v0.2","","""event"",""trial"",""time""
""fullscreenenter"",""1"",""2141""
","
","
","""event"",""trial"",""time""
""fullscreenenter"",""1"",""2141""
","
","","","-1","","","16","9665","4033","c","elianto","#3366ff99","-1","-1","1","+10","[3633.89999999851]","1","2","","","9665","82","5","2","win","no-go","0"
"pit-trial","201","1569256","0.0-87.0","battery-v0.2","","""event"",""trial"",""time""
""fullscreenenter"",""1"",""2141""
","
","
","""event"",""trial"",""time""
""fullscreenenter"",""1"",""2141""
","
","","","-1","","","16","9665","4033","z","elianto","#3366ff99"," ","-1","0","0","[]","0","2","","","9665","83","4","1","win","go","0"
"pit-trial","202","1574147","0.0-88.0","battery-v0.2","","""event"",""trial"",""time""
""fullscreenenter"",""1"",""2141""
","
","
","""event"",""trial"",""time""
""fullscreenenter"",""1"",""2141""
","
","","","-1","","","16","9665","4033","h","elianto","#f73b6a7A","-1","-1","1","0","[]","0","2","","","9665","84","3","4","lose","no-go","0"
"pit-trial","203","1577950","0.0-89.0","battery-v0.2","","""event"",""trial"",""time""
""fullscreenenter"",""1"",""2141""
","
","
","""event"",""trial"",""time""
""fullscreenenter"",""1"",""2141""
","
","","","919","","","16","9665","4033","c","elianto","#3366ff99","-1"," ","0","0","[1791.5]","1","2","","","9665","85","5","2","win","no-go","0"
"pit-trial","204","1582818","0.0-90.0","battery-v0.2","","""event"",""trial"",""time""
""fullscreenenter"",""1"",""2141""
","
","
","""event"",""trial"",""time""
""fullscreenenter"",""1"",""2141""
","
","","","-1","","","16","9665","4033","b","elianto","#f73b6a7A"," ","-1","0","-10","[]","0","2","","","9665","86","6","3","lose","go","0"
"pit-trial","205","1586583","0.0-91.0","battery-v0.2","","""event"",""trial"",""time""
""fullscreenenter"",""1"",""2141""
","
","
","""event"",""trial"",""time""
""fullscreenenter"",""1"",""2141""
","
","","","888.3999999985099","","","16","9665","4033","z","elianto","#3366ff99"," "," ","1","+10","[1753.3999999985099]","1","2","","","9665","87","4","1","win","go","0"
"pit-trial","206","1591470","0.0-92.0","battery-v0.2","","""event"",""trial"",""time""
""fullscreenenter"",""1"",""2141""
","
","
","""event"",""trial"",""time""
""fullscreenenter"",""1"",""2141""
","
","","","-1","","","16","9665","4033","t","elianto","#f73b6a7A","-1","-1","1","0","[]","0","2","","","9665","88","7","4","lose","no-go","0"
"pit-trial","207","1596358","0.0-93.0","battery-v0.2","","""event"",""trial"",""time""
""fullscreenenter"",""1"",""2141""
","
","
","""event"",""trial"",""time""
""fullscreenenter"",""1"",""2141""
","
","","","-1","","","16","9665","4033","t","elianto","#f73b6a7A","-1","-1","1","0","[]","0","2","","","9665","89","7","4","lose","no-go","0"
"pit-trial","208","1601277","0.0-94.0","battery-v0.2","","""event"",""trial"",""time""
""fullscreenenter"",""1"",""2141""
","
","
","""event"",""trial"",""time""
""fullscreenenter"",""1"",""2141""
","
","","","-1","","","16","9665","4033","b","elianto","#f73b6a7A"," ","-1","0","0","[]","0","2","","","9665","90","6","3","lose","go","1"
"pit-trial","209","1605268","0.0-95.0","battery-v0.2","","""event"",""trial"",""time""
""fullscreenenter"",""1"",""2141""
","
","
","""event"",""trial"",""time""
""fullscreenenter"",""1"",""2141""
","
","","","1126.5","","","16","9665","4033","z","elianto","#3366ff99"," "," ","1","+10","[1982.7000000029802]","1","2","","","9665","91","4","1","win","go","0"
"pit-trial","210","1609850","0.0-96.0","battery-v0.2","","""event"",""trial"",""time""
""fullscreenenter"",""1"",""2141""
","
","
","""event"",""trial"",""time""
""fullscreenenter"",""1"",""2141""
","
","","","1705.1000000014901","","","16","9665","4033","c","elianto","#3366ff99","-1"," ","0","+10","[2558.8000000044703]","1","2","","","9665","92","5","2","win","no-go","1"
"pit-trial","211","1613238","0.0-97.0","battery-v0.2","","""event"",""trial"",""time""
""fullscreenenter"",""1"",""2141""
","
","
","""event"",""trial"",""time""
""fullscreenenter"",""1"",""2141""
","
","","","518.0999999940395","","","16","9665","4033","f","elianto","#3366ff99"," "," ","1","+10","[1382.5]","1","2","","","9665","93","8","1","win","go","0"
"pit-trial","212","1616546","0.0-98.0","battery-v0.2","","""event"",""trial"",""time""
""fullscreenenter"",""1"",""2141""
","
","
","""event"",""trial"",""time""
""fullscreenenter"",""1"",""2141""
","
","","","416.59999999403954","","","16","9665","4033","c","elianto","#3366ff99","-1"," ","0","0","[1271.8999999985099]","1","2","","","9665","94","5","2","win","no-go","0"
"pit-trial","213","1621462","0.0-99.0","battery-v0.2","","""event"",""trial"",""time""
""fullscreenenter"",""1"",""2141""
","
","
","""event"",""trial"",""time""
""fullscreenenter"",""1"",""2141""
","
","","","-1","","","16","9665","4033","b","elianto","#f73b6a7A"," ","-1","0","-10","[]","0","2","","","9665","95","6","3","lose","go","0"
"pit-trial","214","1626359","0.0-100.0","battery-v0.2","","""event"",""trial"",""time""
""fullscreenenter"",""1"",""2141""
","
","
","""event"",""trial"",""time""
""fullscreenenter"",""1"",""2141""
","
","","","-1","","","16","9665","4033","t","elianto","#f73b6a7A","-1","-1","1","0","[]","0","2","","","9665","96","7","4","lose","no-go","0"
"pit-trial","215","1630450","0.0-101.0","battery-v0.2","","""event"",""trial"",""time""
""fullscreenenter"",""1"",""2141""
","
","
","""event"",""trial"",""time""
""fullscreenenter"",""1"",""2141""
","
","","","1223.5","","","16","9665","4033","f","elianto","#3366ff99"," "," ","1","+10","[2078.4000000059605]","1","2","","","9665","97","8","1","win","go","0"
"pit-trial","216","1633761","0.0-102.0","battery-v0.2","","""event"",""trial"",""time""
""fullscreenenter"",""1"",""2141""
","
","
","""event"",""trial"",""time""
""fullscreenenter"",""1"",""2141""
","
","","","425.1000000014901","","","16","9665","4033","c","elianto","#3366ff99","-1"," ","0","0","[1280]","1","2","","","9665","98","5","2","win","no-go","0"
"pit-trial","217","1638649","0.0-103.0","battery-v0.2","","""event"",""trial"",""time""
""fullscreenenter"",""1"",""2141""
","
","
","""event"",""trial"",""time""
""fullscreenenter"",""1"",""2141""
","
","","","-1","","","16","9665","4033","t","elianto","#f73b6a7A","-1","-1","1","0","[]","0","2","","","9665","99","7","4","lose","no-go","0"
"pit-trial","218","1643578","0.0-104.0","battery-v0.2","","""event"",""trial"",""time""
""fullscreenenter"",""1"",""2141""
","
","
","""event"",""trial"",""time""
""fullscreenenter"",""1"",""2141""
","
","","","-1","","","16","9665","4033","b","elianto","#f73b6a7A"," ","-1","0","-10","[]","0","2","","","9665","100","6","3","lose","go","0"
"pit-trial","219","1646903","0.0-105.0","battery-v0.2","","""event"",""trial"",""time""
""fullscreenenter"",""1"",""2141""
","
","
","""event"",""trial"",""time""
""fullscreenenter"",""1"",""2141""
","
","","","464.6000000014901","","","16","9665","4033","f","elianto","#3366ff99"," "," ","1","+10","[1319.8999999985099]","1","2","","","9665","101","8","1","win","go","0"
"pit-trial","220","1650740","0.0-106.0","battery-v0.2","","""event"",""trial"",""time""
""fullscreenenter"",""1"",""2141""
","
","
","""event"",""trial"",""time""
""fullscreenenter"",""1"",""2141""
","
","","","963","","","16","9665","4033","n","elianto","#3366ff99"," "," ","1","+10","[1813.6000000014901]","1","2","","","9665","102","9","1","win","go","0"
"pit-trial","221","1655629","0.0-107.0","battery-v0.2","","""event"",""trial"",""time""
""fullscreenenter"",""1"",""2141""
","
","
","""event"",""trial"",""time""
""fullscreenenter"",""1"",""2141""
","
","","","-1","","","16","9665","4033","t","elianto","#f73b6a7A","-1","-1","1","0","[]","0","2","","","9665","103","7","4","lose","no-go","0"
"pit-trial","222","1659067","0.0-108.0","battery-v0.2","","""event"",""trial"",""time""
""fullscreenenter"",""1"",""2141""
","
","
","""event"",""trial"",""time""
""fullscreenenter"",""1"",""2141""
","
","","","562.3999999985099","","","16","9665","4033","c","elianto","#3366ff99","-1"," ","0","0","[1429.6999999955297]","1","2","","","9665","104","5","2","win","no-go","0"
"pit-trial","223","1662478","0.0-109.0","battery-v0.2","","""event"",""trial"",""time""
""fullscreenenter"",""1"",""2141""
","
","
","""event"",""trial"",""time""
""fullscreenenter"",""1"",""2141""
","
","","","508.1000000014901","","","16","9665","4033","f","elianto","#3366ff99"," "," ","1","0","[1368.3999999985099]","1","2","","","9665","105","8","1","win","go","1"
"pit-trial","224","1665854","0.0-110.0","battery-v0.2","","""event"",""trial"",""time""
""fullscreenenter"",""1"",""2141""
","
","
","""event"",""trial"",""time""
""fullscreenenter"",""1"",""2141""
","
","","","514.2999999970198","","","16","9665","4033","z","elianto","#3366ff99"," "," ","1","+10","[1371.4000000059605]","1","2","","","9665","106","4","1","win","go","0"
"pit-trial","225","1670761","0.0-111.0","battery-v0.2","","""event"",""trial"",""time""
""fullscreenenter"",""1"",""2141""
","
","
","""event"",""trial"",""time""
""fullscreenenter"",""1"",""2141""
","
","","","-1","","","16","9665","4033","b","elianto","#f73b6a7A"," ","-1","0","-10","[]","0","2","","","9665","107","6","3","lose","go","0"
"pit-trial","226","1674596","0.0-112.0","battery-v0.2","","""event"",""trial"",""time""
""fullscreenenter"",""1"",""2141""
","
","
","""event"",""trial"",""time""
""fullscreenenter"",""1"",""2141""
","
","","","972.3999999985099","","","16","9665","4033","n","elianto","#3366ff99"," "," ","1","0","[1830.1999999955297]","1","2","","","9665","108","9","1","win","go","1"
"pit-trial","227","1679486","0.0-113.0","battery-v0.2","","""event"",""trial"",""time""
""fullscreenenter"",""1"",""2141""
","
","
","""event"",""trial"",""time""
""fullscreenenter"",""1"",""2141""
","
","","","-1","","","16","9665","4033","b","elianto","#f73b6a7A"," ","-1","0","0","[]","0","2","","","9665","109","6","3","lose","go","1"
"pit-trial","228","1683574","0.0-114.0","battery-v0.2","","""event"",""trial"",""time""
""fullscreenenter"",""1"",""2141""
","
","
","""event"",""trial"",""time""
""fullscreenenter"",""1"",""2141""
","
","","","1214.3999999985099","","","16","9665","4033","f","elianto","#3366ff99"," "," ","1","+10","[2076.8000000044703]","1","2","","","9665","110","8","1","win","go","0"
"pit-trial","229","1688459","0.0-115.0","battery-v0.2","","""event"",""trial"",""time""
""fullscreenenter"",""1"",""2141""
","
","
","""event"",""trial"",""time""
""fullscreenenter"",""1"",""2141""
","
","","","-1","","","16","9665","4033","c","elianto","#3366ff99","-1","-1","1","+10","[]","0","2","","","9665","111","5","2","win","no-go","0"
"pit-trial","230","1691866","0.0-116.0","battery-v0.2","","""event"",""trial"",""time""
""fullscreenenter"",""1"",""2141""
","
","
","""event"",""trial"",""time""
""fullscreenenter"",""1"",""2141""
","
","","","544.2999999970198","","","16","9665","4033","n","elianto","#3366ff99"," "," ","1","+10","[1400.7999999970198]","1","2","","","9665","112","9","1","win","go","0"
"pit-trial","231","1695209","0.0-117.0","battery-v0.2","","""event"",""trial"",""time""
""fullscreenenter"",""1"",""2141""
","
","
","""event"",""trial"",""time""
""fullscreenenter"",""1"",""2141""
","
","","","474","","","16","9665","4033","n","elianto","#3366ff99"," "," ","1","+10","[1326.7999999970198]","1","2","","","9665","113","9","1","win","go","0"
"pit-trial","232","1700094","0.0-118.0","battery-v0.2","","""event"",""trial"",""time""
""fullscreenenter"",""1"",""2141""
","
","
","""event"",""trial"",""time""
""fullscreenenter"",""1"",""2141""
","
","","","-1","","","16","9665","4033","b","elianto","#f73b6a7A"," ","-1","0","0","[]","0","2","","","9665","114","6","3","lose","go","1"
"pit-trial","233","1703470","0.0-119.0","battery-v0.2","","""event"",""trial"",""time""
""fullscreenenter"",""1"",""2141""
","
","
","""event"",""trial"",""time""
""fullscreenenter"",""1"",""2141""
","
","","","501.19999999552965","","","16","9665","4033","f","elianto","#3366ff99"," "," ","1","0","[1361]","1","2","","","9665","115","8","1","win","go","1"
"pit-trial","234","1708338","0.0-120.0","battery-v0.2","","""event"",""trial"",""time""
""fullscreenenter"",""1"",""2141""
","
","
","""event"",""trial"",""time""
""fullscreenenter"",""1"",""2141""
","
","","","-1","","","16","9665","4033","c","elianto","#3366ff99","-1","-1","1","+10","[]","0","2","","","9665","116","5","2","win","no-go","0"
"pit-trial","235","1711573","0.0-121.0","battery-v0.2","","""event"",""trial"",""time""
""fullscreenenter"",""1"",""2141""
","
","
","""event"",""trial"",""time""
""fullscreenenter"",""1"",""2141""
","
","","","362.20000000298023","","","16","9665","4033","f","elianto","#3366ff99"," "," ","1","0","[1228.5]","1","2","","","9665","117","8","1","win","go","1"
"pit-trial","236","1714888","0.0-122.0","battery-v0.2","","""event"",""trial"",""time""
""fullscreenenter"",""1"",""2141""
","
","
","""event"",""trial"",""time""
""fullscreenenter"",""1"",""2141""
","
","","","441.79999999701977","","","16","9665","4033","n","elianto","#3366ff99"," "," ","1","+10","[1297.1000000014901]","1","2","","","9665","118","9","1","win","go","0"
"pit-trial","237","1719803","0.0-123.0","battery-v0.2","","""event"",""trial"",""time""
""fullscreenenter"",""1"",""2141""
","
","
","""event"",""trial"",""time""
""fullscreenenter"",""1"",""2141""
","
","","","-1","","","16","9665","4033","b","elianto","#f73b6a7A"," ","-1","0","0","[]","0","2","","","9665","119","6","3","lose","go","1"
"pit-trial","238","1723149","0.0-124.0","battery-v0.2","","""event"",""trial"",""time""
""fullscreenenter"",""1"",""2141""
","
","
","""event"",""trial"",""time""
""fullscreenenter"",""1"",""2141""
","
","","","471.8999999985099","","","16","9665","4033","c","elianto","#3366ff99","-1"," ","0","0","[1337.9000000059605]","1","2","","","9665","120","5","2","win","no-go","0"
"pit-trial","239","1726736","0.0-125.0","battery-v0.2","","""event"",""trial"",""time""
""fullscreenenter"",""1"",""2141""
","
","
","""event"",""trial"",""time""
""fullscreenenter"",""1"",""2141""
","
","","","701.1999999955297","","","16","9665","4033","f","elianto","#3366ff99"," "," ","1","+10","[1554.3000000044703]","1","2","","","9665","121","8","1","win","go","0"
"pit-trial","240","1731653","0.0-126.0","battery-v0.2","","""event"",""trial"",""time""
""fullscreenenter"",""1"",""2141""
","
","
","""event"",""trial"",""time""
""fullscreenenter"",""1"",""2141""
","
","","","-1","","","16","9665","4033","t","elianto","#f73b6a7A","-1","-1","1","-10","[]","0","2","","","9665","122","7","4","lose","no-go","1"
"pit-trial","241","1736543","0.0-127.0","battery-v0.2","","""event"",""trial"",""time""
""fullscreenenter"",""1"",""2141""
","
","
","""event"",""trial"",""time""
""fullscreenenter"",""1"",""2141""
","
","","","-1","","","16","9665","4033","b","elianto","#f73b6a7A"," ","-1","0","-10","[]","0","2","","","9665","123","6","3","lose","go","0"
"pit-trial","242","1740206","0.0-128.0","battery-v0.2","","""event"",""trial"",""time""
""fullscreenenter"",""1"",""2141""
","
","
","""event"",""trial"",""time""
""fullscreenenter"",""1"",""2141""
","
","","","783.7000000029802","","","16","9665","4033","n","elianto","#3366ff99"," "," ","1","0","[1645.3999999985099]","1","2","","","9665","124","9","1","win","go","1"
"pit-trial","243","1745097","0.0-129.0","battery-v0.2","","""event"",""trial"",""time""
""fullscreenenter"",""1"",""2141""
","
","
","""event"",""trial"",""time""
""fullscreenenter"",""1"",""2141""
","
","","","-1","","","16","9665","4033","b","elianto","#f73b6a7A"," ","-1","0","-10","[]","0","2","","","9665","125","6","3","lose","go","0"
"pit-trial","244","1748429","0.0-130.0","battery-v0.2","","""event"",""trial"",""time""
""fullscreenenter"",""1"",""2141""
","
","
","""event"",""trial"",""time""
""fullscreenenter"",""1"",""2141""
","
","","","468.30000000447035","","","16","9665","4033","f","elianto","#3366ff99"," "," ","1","+10","[1326.2999999970198]","1","2","","","9665","126","8","1","win","go","0"
"pit-trial","245","1751935","0.0-131.0","battery-v0.2","","""event"",""trial"",""time""
""fullscreenenter"",""1"",""2141""
","
","
","""event"",""trial"",""time""
""fullscreenenter"",""1"",""2141""
","
","","","627.8999999985099","","","16","9665","4033","n","elianto","#3366ff99"," "," ","1","+10","[1483.7000000029802]","1","2","","","9665","127","9","1","win","go","0"
"pit-trial","246","1756819","0.0-132.0","battery-v0.2","","""event"",""trial"",""time""
""fullscreenenter"",""1"",""2141""
","
","
","""event"",""trial"",""time""
""fullscreenenter"",""1"",""2141""
","
","","","-1","","","16","9665","4033","t","elianto","#f73b6a7A","-1","-1","1","0","[]","0","2","","","9665","128","7","4","lose","no-go","0"
"pit-trial","247","1760323","0.0-133.0","battery-v0.2","","""event"",""trial"",""time""
""fullscreenenter"",""1"",""2141""
","
","
","""event"",""trial"",""time""
""fullscreenenter"",""1"",""2141""
","
","","","623.6999999955297","","","16","9665","4033","f","elianto","#3366ff99"," "," ","1","+10","[1487.5]","1","2","","","9665","129","8","1","win","go","0"
"pit-trial","248","1765187","0.0-134.0","battery-v0.2","","""event"",""trial"",""time""
""fullscreenenter"",""1"",""2141""
","
","
","""event"",""trial"",""time""
""fullscreenenter"",""1"",""2141""
","
","","","-1","","","16","9665","4033","b","elianto","#f73b6a7A"," ","-1","0","-10","[]","0","2","","","9665","130","6","3","lose","go","0"
"pit-trial","249","1768524","0.0-135.0","battery-v0.2","","""event"",""trial"",""time""
""fullscreenenter"",""1"",""2141""
","
","
","""event"",""trial"",""time""
""fullscreenenter"",""1"",""2141""
","
","","","465","","","16","9665","4033","n","elianto","#3366ff99"," "," ","1","+10","[1332.8000000044703]","1","2","","","9665","131","9","1","win","go","0"
"pit-trial","250","1773412","0.0-136.0","battery-v0.2","","""event"",""trial"",""time""
""fullscreenenter"",""1"",""2141""
","
","
","""event"",""trial"",""time""
""fullscreenenter"",""1"",""2141""
","
","","","-1","","","16","9665","4033","t","elianto","#f73b6a7A","-1","-1","1","0","[]","0","2","","","9665","132","7","4","lose","no-go","0"
"pit-trial","251","1778310","0.0-137.0","battery-v0.2","","""event"",""trial"",""time""
""fullscreenenter"",""1"",""2141""
","
","
","""event"",""trial"",""time""
""fullscreenenter"",""1"",""2141""
","
","","","-1","","","16","9665","4033","b","elianto","#f73b6a7A"," ","-1","0","0","[]","0","2","","","9665","133","6","3","lose","go","1"
"pit-trial","252","1781818","0.0-138.0","battery-v0.2","","""event"",""trial"",""time""
""fullscreenenter"",""1"",""2141""
","
","
","""event"",""trial"",""time""
""fullscreenenter"",""1"",""2141""
","
","","","641","","","16","9665","4033","f","elianto","#3366ff99"," "," ","1","+10","[1501.3000000044703]","1","2","","","9665","134","8","1","win","go","0"
"pit-trial","253","1786706","0.0-139.0","battery-v0.2","","""event"",""trial"",""time""
""fullscreenenter"",""1"",""2141""
","
","
","""event"",""trial"",""time""
""fullscreenenter"",""1"",""2141""
","
","","","-1","","","16","9665","4033","t","elianto","#f73b6a7A","-1","-1","1","0","[]","0","2","","","9665","135","7","4","lose","no-go","0"
"pit-trial","254","1790221","0.0-140.0","battery-v0.2","","""event"",""trial"",""time""
""fullscreenenter"",""1"",""2141""
","
","
","""event"",""trial"",""time""
""fullscreenenter"",""1"",""2141""
","
","","","645","","","16","9665","4033","n","elianto","#3366ff99"," "," ","1","+10","[1503.1000000014901]","1","2","","","9665","136","9","1","win","go","0"
"pit-trial","255","1795107","0.0-141.0","battery-v0.2","","""event"",""trial"",""time""
""fullscreenenter"",""1"",""2141""
","
","
","""event"",""trial"",""time""
""fullscreenenter"",""1"",""2141""
","
","","","-1","","","16","9665","4033","b","elianto","#f73b6a7A"," ","-1","0","0","[]","0","2","","","9665","137","6","3","lose","go","1"
"pit-trial","256","1798455","0.0-142.0","battery-v0.2","","""event"",""trial"",""time""
""fullscreenenter"",""1"",""2141""
","
","
","""event"",""trial"",""time""
""fullscreenenter"",""1"",""2141""
","
","","","478.1000000014901","","","16","9665","4033","f","elianto","#3366ff99"," "," ","1","+10","[1336.7999999970198]","1","2","","","9665","138","8","1","win","go","0"
"pit-trial","257","1801764","0.0-143.0","battery-v0.2","","""event"",""trial"",""time""
""fullscreenenter"",""1"",""2141""
","
","
","""event"",""trial"",""time""
""fullscreenenter"",""1"",""2141""
","
","","","423.70000000298023","","","16","9665","4033","n","elianto","#3366ff99"," "," ","1","+10","[1286]","1","2","","","9665","139","9","1","win","go","0"
"pit-trial","258","1806684","0.0-144.0","battery-v0.2","","""event"",""trial"",""time""
""fullscreenenter"",""1"",""2141""
","
","
","""event"",""trial"",""time""
""fullscreenenter"",""1"",""2141""
","
","","","-1","","","16","9665","4033","t","elianto","#f73b6a7A","-1","-1","1","0","[]","0","2","","","9665","140","7","4","lose","no-go","0"
"pit-instructions","259","1821176","0.0-145.0","battery-v0.2","","""event"",""trial"",""time""
""fullscreenenter"",""1"",""2141""
","
","
","""event"",""trial"",""time""
""fullscreenenter"",""1"",""2141""
","
","","[{""page_index"":0,""viewing_time"":6020.29999999702},{""page_index"":1,""viewing_time"":8468.5}]","14489.89999999851","","","","","","","","","","","","","","","","","","","","","","","",""
"pit-trial","260","1824617","0.0-146.0","battery-v0.2","","""event"",""trial"",""time""
""fullscreenenter"",""1"",""2141""
","
","
","""event"",""trial"",""time""
""fullscreenenter"",""1"",""2141""
","
","","","572.1000000014901","","","16","9665","4033","l","elianto","#3366ff99"," "," ","1","0","[1425]","1","3","","","9665","141","1","1","win","go","1"
"pit-trial","261","1829495","0.0-147.0","battery-v0.2","","""event"",""trial"",""time""
""fullscreenenter"",""1"",""2141""
","
","
","""event"",""trial"",""time""
""fullscreenenter"",""1"",""2141""
","
","","","-1","","","16","9665","4033","g","elianto","#f73b6a7A"," ","-1","0","-10","[]","0","3","","","9665","142","3","3","lose","go","0"
"pit-trial","262","1834354","0.0-148.0","battery-v0.2","","""event"",""trial"",""time""
""fullscreenenter"",""1"",""2141""
","
","
","""event"",""trial"",""time""
""fullscreenenter"",""1"",""2141""
","
","","","-1","","","16","9665","4033","u","elianto","#f73b6a7A","-1","-1","1","0","[]","0","3","","","9665","143","0","4","lose","no-go","0"
"pit-trial","263","1839217","0.0-149.0","battery-v0.2","","""event"",""trial"",""time""
""fullscreenenter"",""1"",""2141""
","
","
","""event"",""trial"",""time""
""fullscreenenter"",""1"",""2141""
","
","","","-1","","","16","9665","4033","a","elianto","#f73b6a7A","-1","-1","1","0","[]","0","3","","","9665","144","2","4","lose","no-go","0"
"pit-trial","264","1844082","0.0-150.0","battery-v0.2","","""event"",""trial"",""time""
""fullscreenenter"",""1"",""2141""
","
","
","""event"",""trial"",""time""
""fullscreenenter"",""1"",""2141""
","
","","","-1","","","16","9665","4033","a","elianto","#f73b6a7A","-1","-1","1","0","[]","0","3","","","9665","145","2","4","lose","no-go","0"
"pit-trial","265","1847508","0.0-151.0","battery-v0.2","","""event"",""trial"",""time""
""fullscreenenter"",""1"",""2141""
","
","
","""event"",""trial"",""time""
""fullscreenenter"",""1"",""2141""
","
","","","567.8999999985099","","","16","9665","4033","l","elianto","#3366ff99"," "," ","1","+10","[1422.1000000014901]","1","3","","","9665","146","1","1","win","go","0"
"pit-trial","266","1852401","0.0-152.0","battery-v0.2","","""event"",""trial"",""time""
""fullscreenenter"",""1"",""2141""
","
","
","""event"",""trial"",""time""
""fullscreenenter"",""1"",""2141""
","
","","","-1","","","16","9665","4033","g","elianto","#f73b6a7A"," ","-1","0","-10","[]","0","3","","","9665","147","3","3","lose","go","0"
"pit-trial","267","1857321","0.0-153.0","battery-v0.2","","""event"",""trial"",""time""
""fullscreenenter"",""1"",""2141""
","
","
","""event"",""trial"",""time""
""fullscreenenter"",""1"",""2141""
","
","","","-1","","","16","9665","4033","u","elianto","#f73b6a7A","-1","-1","1","0","[]","0","3","","","9665","148","0","4","lose","no-go","0"
"pit-trial","268","1862250","0.0-154.0","battery-v0.2","","""event"",""trial"",""time""
""fullscreenenter"",""1"",""2141""
","
","
","""event"",""trial"",""time""
""fullscreenenter"",""1"",""2141""
","
","","","-1","","","16","9665","4033","a","elianto","#f73b6a7A","-1","-1","1","-10","[]","0","3","","","9665","149","2","4","lose","no-go","1"
"pit-trial","269","1865946","0.0-155.0","battery-v0.2","","""event"",""trial"",""time""
""fullscreenenter"",""1"",""2141""
","
","
","""event"",""trial"",""time""
""fullscreenenter"",""1"",""2141""
","
