"trial_type","trial_index","time_elapsed","internal_node_id","task_version","subject_id","interactions","blur_events","focus_events","fullscreenenter_events","fullscreenexit_events","success","view_history","rt","responses","num_errors","age","subject","participantId","rune","rune_set","hex","correct","choice","accuracy","outcome","keys","total_keys","block","practice","value","sub","trial","stimulus","robot","valence","action","sham"
"pavlovia","0","26","0.0-0.0","battery-v0.2","","""event"",""trial"",""time""
""fullscreenenter"",""1"",""7853""
","
","
","""event"",""trial"",""time""
""fullscreenenter"",""1"",""7853""
","
","","","","","","","","","","","","","","","","","","","","","","","","","","",""
"fullscreen","1","8849","0.0-1.0","battery-v0.2","","""event"",""trial"",""time""
""fullscreenenter"",""1"",""7853""
","
","
","""event"",""trial"",""time""
""fullscreenenter"",""1"",""7853""
","
","true","","","","","","","","","","","","","","","","","","","","","","","","","",""
"pit-instructions","2","21179","0.0-2.0-0.0","battery-v0.2","","""event"",""trial"",""time""
""fullscreenenter"",""1"",""7853""
","
","
","""event"",""trial"",""time""
""fullscreenenter"",""1"",""7853""
","
","","[{""page_index"":0,""viewing_time"":12323.099999999627}]","12324.099999999627","","","","","","","","","","","","","","","","","","","","","","","",""
"pit-comprehension","3","30639","0.0-2.0-1.0-0.0","battery-v0.2","","""event"",""trial"",""time""
""fullscreenenter"",""1"",""7853""
","
","
","""event"",""trial"",""time""
""fullscreenenter"",""1"",""7853""
","
","","","9452.299999999814","[""shark""]","0","14","6118","3520","","","","","","","","","","","","","","","","","","",""
"pit-instructions","4","35669","0.0-2.0-1.0-1.0","battery-v0.2","","""event"",""trial"",""time""
""fullscreenenter"",""1"",""7853""
","
","
","""event"",""trial"",""time""
""fullscreenenter"",""1"",""7853""
","
","","[{""page_index"":0,""viewing_time"":5013.4000000003725}]","5014.5","","","","","","","","","","","","","","","","","","","","","","","",""
"pit-comprehension","5","42502","0.0-2.0-2.0-0.0","battery-v0.2","","""event"",""trial"",""time""
""fullscreenenter"",""1"",""7853""
","
","
","""event"",""trial"",""time""
""fullscreenenter"",""1"",""7853""
","
","","","6823.9000000003725","[""tiger""]","0","14","6118","3520","","","","","","","","","","","","","","","","","","",""
"pit-instructions","6","44497","0.0-2.0-2.0-1.0","battery-v0.2","","""event"",""trial"",""time""
""fullscreenenter"",""1"",""7853""
","
","
","""event"",""trial"",""time""
""fullscreenenter"",""1"",""7853""
","
","","[{""page_index"":0,""viewing_time"":1985.0999999996275}]","1987.5","","","","","","","","","","","","","","","","","","","","","","","",""
"pit-instructions","7","203353","0.0-2.0-3.0","battery-v0.2","","""event"",""trial"",""time""
""fullscreenenter"",""1"",""7853""
","
","
","""event"",""trial"",""time""
""fullscreenenter"",""1"",""7853""
","
","","[{""page_index"":0,""viewing_time"":12119},{""page_index"":1,""viewing_time"":8202.899999999441},{""page_index"":2,""viewing_time"":16040.900000000373},{""page_index"":3,""viewing_time"":6376.299999999814},{""page_index"":4,""viewing_time"":12208},{""page_index"":5,""viewing_time"":7541.5},{""page_index"":6,""viewing_time"":13021.400000000373},{""page_index"":7,""viewing_time"":29733.599999999627},{""page_index"":8,""viewing_time"":8796.5},{""page_index"":9,""viewing_time"":10412.799999999814},{""page_index"":10,""viewing_time"":9823.200000000186},{""page_index"":11,""viewing_time"":14307.400000000373},{""page_index"":12,""viewing_time"":6100.5},{""page_index"":13,""viewing_time"":4166.5}]","158851.7999999998","","","","","","","","","","","","","","","","","","","","","","","",""
"pit-trial","8","208215","0.0-2.0-4.0-0.0","battery-v0.2","","""event"",""trial"",""time""
""fullscreenenter"",""1"",""7853""
","
","
","""event"",""trial"",""time""
""fullscreenenter"",""1"",""7853""
","
","","","-1","","","14","6118","3520","&#9784;","elianto","#FFFFF080"," ","-1","0","&#10060","[4148,4187]","2","0","0","","","","","","","",""
"pit-trial","9","211082","0.0-2.0-4.1-0.1","battery-v0.2","","""event"",""trial"",""time""
""fullscreenenter"",""1"",""7853""
","
","
","""event"",""trial"",""time""
""fullscreenenter"",""1"",""7853""
","
","","","7.099999999627471","","","14","6118","3520","&#9784;","elianto","#FFFFF080"," "," ","1","&#10004","[190.29999999981374,381.5,565,713.2999999998137,857.1000000005588,1186.1000000005588,1470.2999999998137,1673.6000000005588,1889.7999999998137,2140.600000000559,2359.2999999998137,2587.7000000001863,2811.100000000559]","13","0","0","","","","","","","",""
"pit-trial","10","213984","0.0-2.0-4.2-0.2","battery-v0.2","","""event"",""trial"",""time""
""fullscreenenter"",""1"",""7853""
","
","
","""event"",""trial"",""time""
""fullscreenenter"",""1"",""7853""
","
","","","45.5","","","14","6118","3520","&#9784;","elianto","#FFFFF080"," "," ","1","&#10004","[195.40000000037253,418.79999999981374,644.5,895.5999999996275,1136.2999999998137,1369.4000000003725,1613.7999999998137,1848.0999999996275,2086.2999999998137,2313.5999999996275,2564,2798.7999999998137]","12","0","0","","","","","","","",""
"pit-trial","11","216918","0.0-2.0-4.3-0.3","battery-v0.2","","""event"",""trial"",""time""
""fullscreenenter"",""1"",""7853""
","
","
","""event"",""trial"",""time""
""fullscreenenter"",""1"",""7853""
","
","","","76.5","","","14","6118","3520","&#9784;","elianto","#FFFFF080"," "," ","1","&#10004","[137.6000000005588,382.70000000018626,653.6000000005588,926.6000000005588,1190.2000000001863,1454,1693,1912.4000000003725,2150,2412.7000000001863,2691.4000000003725]","11","0","0","","","","","","","",""
"pit-trial","12","220751","0.0-2.0-4.4-0.4","battery-v0.2","","""event"",""trial"",""time""
""fullscreenenter"",""1"",""7853""
","
","
","""event"",""trial"",""time""
""fullscreenenter"",""1"",""7853""
","
","","","975.7999999998137","","","14","6118","3520","&#9784;","elianto","#FFFFF080"," "," ","1","&#10004","[68,1825.9000000003725]","2","0","0","","","","","","","",""
"pit-instructions","13","253202","0.0-2.0-5.0","battery-v0.2","","""event"",""trial"",""time""
""fullscreenenter"",""1"",""7853""
","
","
","""event"",""trial"",""time""
""fullscreenenter"",""1"",""7853""
","
","","[{""page_index"":0,""viewing_time"":6015.5},{""page_index"":1,""viewing_time"":9704.099999999627},{""page_index"":2,""viewing_time"":8835.100000000559},{""page_index"":3,""viewing_time"":7888.0999999996275}]","32444.099999999627","","","","","","","","","","","","","","","","","","","","","","","",""
"pit-trial","14","258058","0.0-2.0-6.0-0.0","battery-v0.2","","""event"",""trial"",""time""
""fullscreenenter"",""1"",""7853""
","
","
","""event"",""trial"",""time""
""fullscreenenter"",""1"",""7853""
","
","","","-1","","","14","6118","3520","&#9854;","elianto","#FFFFF080","-1","-1","1","&#10004","[]","0","0","1","","","","","","","",""
"pit-trial","15","262916","0.0-2.0-6.1-0.1","battery-v0.2","","""event"",""trial"",""time""
""fullscreenenter"",""1"",""7853""
","
","
","""event"",""trial"",""time""
""fullscreenenter"",""1"",""7853""
","
","","","-1","","","14","6118","3520","&#9854;","elianto","#FFFFF080","-1","-1","1","&#10004","[]","0","0","1","","","","","","","",""
"pit-trial","16","267772","0.0-2.0-6.2-0.2","battery-v0.2","","""event"",""trial"",""time""
""fullscreenenter"",""1"",""7853""
","
","
","""event"",""trial"",""time""
""fullscreenenter"",""1"",""7853""
","
","","","-1","","","14","6118","3520","&#9854;","elianto","#FFFFF080","-1","-1","1","&#10004","[]","0","0","1","","","","","","","",""
"pit-trial","17","272630","0.0-2.0-6.3-0.3","battery-v0.2","","""event"",""trial"",""time""
""fullscreenenter"",""1"",""7853""
","
","
","""event"",""trial"",""time""
""fullscreenenter"",""1"",""7853""
","
","","","-1","","","14","6118","3520","&#9854;","elianto","#FFFFF080","-1","-1","1","&#10004","[]","0","0","1","","","","","","","",""
"pit-trial","18","277488","0.0-2.0-6.4-0.4","battery-v0.2","","""event"",""trial"",""time""
""fullscreenenter"",""1"",""7853""
","
","
","""event"",""trial"",""time""
""fullscreenenter"",""1"",""7853""
","
","","","-1","","","14","6118","3520","&#9854;","elianto","#FFFFF080","-1","-1","1","&#10004","[]","0","0","1","","","","","","","",""
"pit-instructions","19","474835","0.0-2.0-7.0","battery-v0.2","","""event"",""trial"",""time""
""fullscreenenter"",""1"",""7853""
","
","
","""event"",""trial"",""time""
""fullscreenenter"",""1"",""7853""
","
","","[{""page_index"":0,""viewing_time"":6633.700000000186},{""page_index"":1,""viewing_time"":8260.599999999627},{""page_index"":2,""viewing_time"":5688.800000000745},{""page_index"":3,""viewing_time"":5124.5},{""page_index"":4,""viewing_time"":9524.599999999627},{""page_index"":5,""viewing_time"":7409.5},{""page_index"":6,""viewing_time"":6942.299999999814},{""page_index"":7,""viewing_time"":14294.100000000559},{""page_index"":8,""viewing_time"":9508.599999999627},{""page_index"":9,""viewing_time"":10564.799999999814},{""page_index"":10,""viewing_time"":30546.60000000056},{""page_index"":11,""viewing_time"":5882},{""page_index"":12,""viewing_time"":8857.599999999627},{""page_index"":13,""viewing_time"":9883.299999999814},{""page_index"":14,""viewing_time"":19931},{""page_index"":15,""viewing_time"":10844.400000000373},{""page_index"":16,""viewing_time"":9515.299999999814},{""page_index"":17,""viewing_time"":17924.5}]","197338.10000000056","","","","","","","","","","","","","","","","","","","","","","","",""
"pit-trial","20","478847","0.0-2.0-8.0-0.0","battery-v0.2","","""event"",""trial"",""time""
""fullscreenenter"",""1"",""7853""
","
","
","""event"",""trial"",""time""
""fullscreenenter"",""1"",""7853""
","
","","","1156.5","","","14","6118","3520","&#9776;","elianto","#3366ff99"," "," ","1","+10","[2006.699999999255]","1","0","1","","","","","","","",""
"pit-trial","21","482549","0.0-2.0-8.0-1.0","battery-v0.2","","""event"",""trial"",""time""
""fullscreenenter"",""1"",""7853""
","
","
","""event"",""trial"",""time""
""fullscreenenter"",""1"",""7853""
","
","","","846.7999999998137","","","14","6118","3520","&#9776;","elianto","#3366ff99"," "," ","1","+10","[1696.9000000003725]","1","0","1","","","","","","","",""
"pit-trial","22","486058","0.0-2.0-8.0-2.0","battery-v0.2","","""event"",""trial"",""time""
""fullscreenenter"",""1"",""7853""
","
","
","""event"",""trial"",""time""
""fullscreenenter"",""1"",""7853""
","
","","","652.7000000001863","","","14","6118","3520","&#9776;","elianto","#3366ff99"," "," ","1","+10","[1502.7000000001863]","1","0","1","","","","","","","",""
"pit-trial","23","489528","0.0-2.0-8.0-3.0","battery-v0.2","","""event"",""trial"",""time""
""fullscreenenter"",""1"",""7853""
","
","
","""event"",""trial"",""time""
""fullscreenenter"",""1"",""7853""
","
","","","616.3000000007451","","","14","6118","3520","&#9776;","elianto","#3366ff99"," "," ","1","0","[1466.2999999998137]","1","0","1","","","","","","","",""
"pit-trial","24","493797","0.0-2.0-8.0-4.0","battery-v0.2","","""event"",""trial"",""time""
""fullscreenenter"",""1"",""7853""
","
","
","""event"",""trial"",""time""
""fullscreenenter"",""1"",""7853""
","
","","","1412","","","14","6118","3520","&#9776;","elianto","#3366ff99"," "," ","1","+10","[2262,2306.9000000003725]","2","0","1","","","","","","","",""
"pit-trial","25","497427","0.0-2.0-8.1-0.1","battery-v0.2","","""event"",""trial"",""time""
""fullscreenenter"",""1"",""7853""
","
","
","""event"",""trial"",""time""
""fullscreenenter"",""1"",""7853""
","
","","","772.7999999998137","","","14","6118","3520","&#9776;","elianto","#3366ff99"," "," ","1","+10","[1623.3999999994412]","1","0","1","","","","","","","",""
"pit-trial","26","501746","0.0-2.0-8.1-1.1","battery-v0.2","","""event"",""trial"",""time""
""fullscreenenter"",""1"",""7853""
","
","
","""event"",""trial"",""time""
""fullscreenenter"",""1"",""7853""
","
","","","1462.5","","","14","6118","3520","&#9776;","elianto","#3366ff99"," "," ","1","+10","[2312.7000000001863]","1","0","1","","","","","","","",""
"pit-trial","27","505909","0.0-2.0-8.1-2.1","battery-v0.2","","""event"",""trial"",""time""
""fullscreenenter"",""1"",""7853""
","
","
","""event"",""trial"",""time""
""fullscreenenter"",""1"",""7853""
","
","","","1307.7000000001863","","","14","6118","3520","&#9776;","elianto","#3366ff99"," "," ","1","+10","[2157.7999999998137]","1","0","1","","","","","","","",""
"pit-trial","28","510636","0.0-2.0-8.1-3.1","battery-v0.2","","""event"",""trial"",""time""
""fullscreenenter"",""1"",""7853""
","
","
","""event"",""trial"",""time""
""fullscreenenter"",""1"",""7853""
","
","","","1870.2999999998137","","","14","6118","3520","&#9776;","elianto","#3366ff99"," "," ","1","0","[2720.5]","1","0","1","","","","","","","",""
"pit-trial","29","515124","0.0-2.0-8.1-4.1","battery-v0.2","","""event"",""trial"",""time""
""fullscreenenter"",""1"",""7853""
","
","
","""event"",""trial"",""time""
""fullscreenenter"",""1"",""7853""
","
","","","1631.1000000005588","","","14","6118","3520","&#9776;","elianto","#3366ff99"," "," ","1","+10","[2481.0999999996275]","1","0","1","","","","","","","",""
"pit-trial","30","518447","0.0-2.0-8.2-0.2","battery-v0.2","","""event"",""trial"",""time""
""fullscreenenter"",""1"",""7853""
","
","
","""event"",""trial"",""time""
""fullscreenenter"",""1"",""7853""
","
","","","466.1000000005588","","","14","6118","3520","&#9776;","elianto","#3366ff99"," "," ","1","+10","[1316.5]","1","0","1","","","","","","","",""
"pit-trial","31","522171","0.0-2.0-8.2-1.2","battery-v0.2","","""event"",""trial"",""time""
""fullscreenenter"",""1"",""7853""
","
","
","""event"",""trial"",""time""
""fullscreenenter"",""1"",""7853""
","
","","","868.9000000003725","","","14","6118","3520","&#9776;","elianto","#3366ff99"," "," ","1","+10","[1719.1000000005588]","1","0","1","","","","","","","",""
"pit-trial","32","525357","0.0-2.0-8.2-2.2","battery-v0.2","","""event"",""trial"",""time""
""fullscreenenter"",""1"",""7853""
","
","
","""event"",""trial"",""time""
""fullscreenenter"",""1"",""7853""
","
","","","329.8999999994412","","","14","6118","3520","&#9776;","elianto","#3366ff99"," "," ","1","+10","[1180]","1","0","1","","","","","","","",""
"pit-trial","33","528846","0.0-2.0-8.2-3.2","battery-v0.2","","""event"",""trial"",""time""
""fullscreenenter"",""1"",""7853""
","
","
","""event"",""trial"",""time""
""fullscreenenter"",""1"",""7853""
","
","","","630.2999999998137","","","14","6118","3520","&#9776;","elianto","#3366ff99"," "," ","1","0","[1481.7000000001863]","1","0","1","","","","","","","",""
"pit-trial","34","533703","0.0-2.0-8.2-4.2","battery-v0.2","","""event"",""trial"",""time""
""fullscreenenter"",""1"",""7853""
","
","
","""event"",""trial"",""time""
""fullscreenenter"",""1"",""7853""
","
","","","-1","","","14","6118","3520","&#9776;","elianto","#3366ff99"," ","-1","0","0","[3111.0999999996275]","1","0","1","","","","","","","",""
"call-function","35","533706","0.0-2.0-9.0","battery-v0.2","","""event"",""trial"",""time""
""fullscreenenter"",""1"",""7853""
","
","
","""event"",""trial"",""time""
""fullscreenenter"",""1"",""7853""
","
","","","","","","","","","","","","","","","","","","","","","","","","","","",""
"pit-instructions","36","588215","0.0-2.0-10.0","battery-v0.2","","""event"",""trial"",""time""
""fullscreenenter"",""1"",""7853""
","
","
","""event"",""trial"",""time""
""fullscreenenter"",""1"",""7853""
","
","","[{""page_index"":0,""viewing_time"":7580.299999999814},{""page_index"":1,""viewing_time"":9413.400000000373},{""page_index"":2,""viewing_time"":15846.799999999814},{""page_index"":3,""viewing_time"":12859.599999999627},{""page_index"":4,""viewing_time"":8806.100000000559}]","54507.700000000186","","","","","","","","","","","","","","","","","","","","","","","",""
"pit-trial","37","592521","0.0-2.0-11.0-0.0","battery-v0.2","","""event"",""trial"",""time""
""fullscreenenter"",""1"",""7853""
","
","
","""event"",""trial"",""time""
""fullscreenenter"",""1"",""7853""
","
","","","1445.9000000003725","","","14","6118","3520","&#9761;","elianto","#3366ff99","-1"," ","0","0","[2297.9000000003725]","1","0","2","","","","","","","",""
"pit-trial","38","597376","0.0-2.0-11.0-1.0","battery-v0.2","","""event"",""trial"",""time""
""fullscreenenter"",""1"",""7853""
","
","
","""event"",""trial"",""time""
""fullscreenenter"",""1"",""7853""
","
","","","-1","","","14","6118","3520","&#9761;","elianto","#3366ff99","-1","-1","1","+10","[]","0","0","2","","","","","","","",""
"pit-trial","39","602232","0.0-2.0-11.0-2.0","battery-v0.2","","""event"",""trial"",""time""
""fullscreenenter"",""1"",""7853""
","
","
","""event"",""trial"",""time""
""fullscreenenter"",""1"",""7853""
","
","","","-1","","","14","6118","3520","&#9761;","elianto","#3366ff99","-1","-1","1","+10","[]","0","0","2","","","","","","","",""
"pit-trial","40","607089","0.0-2.0-11.0-3.0","battery-v0.2","","""event"",""trial"",""time""
""fullscreenenter"",""1"",""7853""
","
","
","""event"",""trial"",""time""
""fullscreenenter"",""1"",""7853""
","
","","","-1","","","14","6118","3520","&#9761;","elianto","#3366ff99","-1","-1","1","0","[]","0","0","2","","","","","","","",""
"pit-trial","41","611945","0.0-2.0-11.0-4.0","battery-v0.2","","""event"",""trial"",""time""
""fullscreenenter"",""1"",""7853""
","
","
","""event"",""trial"",""time""
""fullscreenenter"",""1"",""7853""
","
","","","-1","","","14","6118","3520","&#9761;","elianto","#3366ff99","-1","-1","1","+10","[]","0","0","2","","","","","","","",""
"pit-trial","42","616801","0.0-2.0-11.1-0.1","battery-v0.2","","""event"",""trial"",""time""
""fullscreenenter"",""1"",""7853""
","
","
","""event"",""trial"",""time""
""fullscreenenter"",""1"",""7853""
","
","","","-1","","","14","6118","3520","&#9761;","elianto","#3366ff99","-1","-1","1","+10","[]","0","0","2","","","","","","","",""
"pit-trial","43","621658","0.0-2.0-11.1-1.1","battery-v0.2","","""event"",""trial"",""time""
""fullscreenenter"",""1"",""7853""
","
","
","""event"",""trial"",""time""
""fullscreenenter"",""1"",""7853""
","
","","","-1","","","14","6118","3520","&#9761;","elianto","#3366ff99","-1","-1","1","+10","[]","0","0","2","","","","","","","",""
"pit-trial","44","626513","0.0-2.0-11.1-2.1","battery-v0.2","","""event"",""trial"",""time""
""fullscreenenter"",""1"",""7853""
","
","
","""event"",""trial"",""time""
""fullscreenenter"",""1"",""7853""
","
","","","-1","","","14","6118","3520","&#9761;","elianto","#3366ff99","-1","-1","1","+10","[]","0","0","2","","","","","","","",""
"pit-trial","45","631369","0.0-2.0-11.1-3.1","battery-v0.2","","""event"",""trial"",""time""
""fullscreenenter"",""1"",""7853""
","
","
","""event"",""trial"",""time""
""fullscreenenter"",""1"",""7853""
","
","","","-1","","","14","6118","3520","&#9761;","elianto","#3366ff99","-1","-1","1","0","[]","0","0","2","","","","","","","",""
"pit-trial","46","636225","0.0-2.0-11.1-4.1","battery-v0.2","","""event"",""trial"",""time""
""fullscreenenter"",""1"",""7853""
","
","
","""event"",""trial"",""time""
""fullscreenenter"",""1"",""7853""
","
","","","-1","","","14","6118","3520","&#9761;","elianto","#3366ff99","-1","-1","1","+10","[]","0","0","2","","","","","","","",""
"pit-trial","47","641082","0.0-2.0-11.2-0.2","battery-v0.2","","""event"",""trial"",""time""
""fullscreenenter"",""1"",""7853""
","
","
","""event"",""trial"",""time""
""fullscreenenter"",""1"",""7853""
","
","","","-1","","","14","6118","3520","&#9761;","elianto","#3366ff99","-1","-1","1","+10","[]","0","0","2","","","","","","","",""
"pit-trial","48","645941","0.0-2.0-11.2-1.2","battery-v0.2","","""event"",""trial"",""time""
""fullscreenenter"",""1"",""7853""
","
","
","""event"",""trial"",""time""
""fullscreenenter"",""1"",""7853""
","
","","","-1","","","14","6118","3520","&#9761;","elianto","#3366ff99","-1","-1","1","+10","[]","0","0","2","","","","","","","",""
"pit-trial","49","650798","0.0-2.0-11.2-2.2","battery-v0.2","","""event"",""trial"",""time""
""fullscreenenter"",""1"",""7853""
","
","
","""event"",""trial"",""time""
""fullscreenenter"",""1"",""7853""
","
","","","-1","","","14","6118","3520","&#9761;","elianto","#3366ff99","-1","-1","1","+10","[]","0","0","2","","","","","","","",""
"pit-trial","50","655659","0.0-2.0-11.2-3.2","battery-v0.2","","""event"",""trial"",""time""
""fullscreenenter"",""1"",""7853""
","
","
","""event"",""trial"",""time""
""fullscreenenter"",""1"",""7853""
","
","","","-1","","","14","6118","3520","&#9761;","elianto","#3366ff99","-1","-1","1","0","[]","0","0","2","","","","","","","",""
"pit-trial","51","660516","0.0-2.0-11.2-4.2","battery-v0.2","","""event"",""trial"",""time""
""fullscreenenter"",""1"",""7853""
","
","
","""event"",""trial"",""time""
""fullscreenenter"",""1"",""7853""
","
","","","-1","","","14","6118","3520","&#9761;","elianto","#3366ff99","-1","-1","1","+10","[]","0","0","2","","","","","","","",""
"pit-trial","52","665372","0.0-2.0-11.3-0.3","battery-v0.2","","""event"",""trial"",""time""
""fullscreenenter"",""1"",""7853""
","
","
","""event"",""trial"",""time""
""fullscreenenter"",""1"",""7853""
","
","","","-1","","","14","6118","3520","&#9761;","elianto","#3366ff99","-1","-1","1","+10","[]","0","0","2","","","","","","","",""
"pit-trial","53","670230","0.0-2.0-11.3-1.3","battery-v0.2","","""event"",""trial"",""time""
""fullscreenenter"",""1"",""7853""
","
","
","""event"",""trial"",""time""
""fullscreenenter"",""1"",""7853""
","
","","","-1","","","14","6118","3520","&#9761;","elianto","#3366ff99","-1","-1","1","+10","[]","0","0","2","","","","","","","",""
"pit-trial","54","675087","0.0-2.0-11.3-2.3","battery-v0.2","","""event"",""trial"",""time""
""fullscreenenter"",""1"",""7853""
","
","
","""event"",""trial"",""time""
""fullscreenenter"",""1"",""7853""
","
","","","-1","","","14","6118","3520","&#9761;","elianto","#3366ff99","-1","-1","1","+10","[]","0","0","2","","","","","","","",""
"pit-trial","55","678125","0.0-2.0-11.3-3.3","battery-v0.2","","""event"",""trial"",""time""
""fullscreenenter"",""1"",""7853""
","
","
","""event"",""trial"",""time""
""fullscreenenter"",""1"",""7853""
","
","","","177.29999999981374","","","14","6118","3520","&#9761;","elianto","#3366ff99","-1"," ","0","+10","[1028.5999999996275]","1","0","2","","","","","","","",""
"pit-trial","56","681742","0.0-2.0-11.3-4.3","battery-v0.2","","""event"",""trial"",""time""
""fullscreenenter"",""1"",""7853""
","
","
","""event"",""trial"",""time""
""fullscreenenter"",""1"",""7853""
","
","","","759.5","","","14","6118","3520","&#9761;","elianto","#3366ff99","-1"," ","0","0","[1609.5]","1","0","2","","","","","","","",""
"call-function","57","681745","0.0-2.0-12.0","battery-v0.2","","""event"",""trial"",""time""
""fullscreenenter"",""1"",""7853""
","
","
","""event"",""trial"",""time""
""fullscreenenter"",""1"",""7853""
","
","","","","","","","","","","","","","","","","","","","","","","","","","","",""
"pit-instructions","58","723814","0.0-2.0-13.0","battery-v0.2","","""event"",""trial"",""time""
""fullscreenenter"",""1"",""7853""
","
","
","""event"",""trial"",""time""
""fullscreenenter"",""1"",""7853""
","
","","[{""page_index"":0,""viewing_time"":7472.899999999441},{""page_index"":1,""viewing_time"":8489.600000000559},{""page_index"":2,""viewing_time"":6507.700000000186},{""page_index"":3,""viewing_time"":12599.599999999627},{""page_index"":4,""viewing_time"":6997.9000000003725}]","42068.200000000186","","","","","","","","","","","","","","","","","","","","","","","",""
"pit-trial","59","727417","0.0-2.0-14.0-0.0","battery-v0.2","","""event"",""trial"",""time""
""fullscreenenter"",""1"",""7853""
","
","
","""event"",""trial"",""time""
""fullscreenenter"",""1"",""7853""
","
","","","747.9000000003725","","","14","6118","3520","&#9826;","elianto","#f73b6a7A","-1"," ","0","-10","[1597.7999999998137]","1","0","3","","","","","","","",""
"pit-trial","60","732273","0.0-2.0-14.0-1.0","battery-v0.2","","""event"",""trial"",""time""
""fullscreenenter"",""1"",""7853""
","
","
","""event"",""trial"",""time""
""fullscreenenter"",""1"",""7853""
","
","","","-1","","","14","6118","3520","&#9826;","elianto","#f73b6a7A","-1","-1","1","0","[]","0","0","3","","","","","","","",""
"pit-trial","61","737128","0.0-2.0-14.0-2.0","battery-v0.2","","""event"",""trial"",""time""
""fullscreenenter"",""1"",""7853""
","
","
","""event"",""trial"",""time""
""fullscreenenter"",""1"",""7853""
","
","","","-1","","","14","6118","3520","&#9826;","elianto","#f73b6a7A","-1","-1","1","0","[]","0","0","3","","","","","","","",""
"pit-trial","62","740201","0.0-2.0-14.0-3.0","battery-v0.2","","""event"",""trial"",""time""
""fullscreenenter"",""1"",""7853""
","
","
","""event"",""trial"",""time""
""fullscreenenter"",""1"",""7853""
","
","","","214.40000000037253","","","14","6118","3520","&#9826;","elianto","#f73b6a7A","-1"," ","0","0","[1064.2999999998137]","1","0","3","","","","","","","",""
"pit-trial","63","745059","0.0-2.0-14.0-4.0","battery-v0.2","","""event"",""trial"",""time""
""fullscreenenter"",""1"",""7853""
","
","
","""event"",""trial"",""time""
""fullscreenenter"",""1"",""7853""
","
","","","-1","","","14","6118","3520","&#9826;","elianto","#f73b6a7A","-1","-1","1","0","[]","0","0","3","","","","","","","",""
"pit-trial","64","748667","0.0-2.0-14.1-0.1","battery-v0.2","","""event"",""trial"",""time""
""fullscreenenter"",""1"",""7853""
","
","
","""event"",""trial"",""time""
""fullscreenenter"",""1"",""7853""
","
","","","753","","","14","6118","3520","&#9826;","elianto","#f73b6a7A","-1"," ","0","-10","[1603]","1","0","3","","","","","","","",""
"pit-trial","65","753526","0.0-2.0-14.1-1.1","battery-v0.2","","""event"",""trial"",""time""
""fullscreenenter"",""1"",""7853""
","
","
","""event"",""trial"",""time""
""fullscreenenter"",""1"",""7853""
","
","","","-1","","","14","6118","3520","&#9826;","elianto","#f73b6a7A","-1","-1","1","0","[]","0","0","3","","","","","","","",""
"pit-trial","66","758383","0.0-2.0-14.1-2.1","battery-v0.2","","""event"",""trial"",""time""
""fullscreenenter"",""1"",""7853""
","
","
","""event"",""trial"",""time""
""fullscreenenter"",""1"",""7853""
","
","","","-1","","","14","6118","3520","&#9826;","elianto","#f73b6a7A","-1","-1","1","0","[]","0","0","3","","","","","","","",""
"pit-trial","67","763241","0.0-2.0-14.1-3.1","battery-v0.2","","""event"",""trial"",""time""
""fullscreenenter"",""1"",""7853""
","
","
","""event"",""trial"",""time""
""fullscreenenter"",""1"",""7853""
","
","","","-1","","","14","6118","3520","&#9826;","elianto","#f73b6a7A","-1","-1","1","-10","[]","0","0","3","","","","","","","",""
"pit-trial","68","766581","0.0-2.0-14.1-4.1","battery-v0.2","","""event"",""trial"",""time""
""fullscreenenter"",""1"",""7853""
","
","
","""event"",""trial"",""time""
""fullscreenenter"",""1"",""7853""
","
","","","481.19999999925494","","","14","6118","3520","&#9826;","elianto","#f73b6a7A","-1"," ","0","-10","[1335.199999999255]","1","0","3","","","","","","","",""
"pit-trial","69","771441","0.0-2.0-14.2-0.2","battery-v0.2","","""event"",""trial"",""time""
""fullscreenenter"",""1"",""7853""
","
","
","""event"",""trial"",""time""
""fullscreenenter"",""1"",""7853""
","
","","","-1","","","14","6118","3520","&#9826;","elianto","#f73b6a7A","-1","-1","1","0","[]","0","0","3","","","","","","","",""
"pit-trial","70","776299","0.0-2.0-14.2-1.2","battery-v0.2","","""event"",""trial"",""time""
""fullscreenenter"",""1"",""7853""
","
","
","""event"",""trial"",""time""
""fullscreenenter"",""1"",""7853""
","
","","","-1","","","14","6118","3520","&#9826;","elianto","#f73b6a7A","-1","-1","1","0","[]","0","0","3","","","","","","","",""
"pit-trial","71","781156","0.0-2.0-14.2-2.2","battery-v0.2","","""event"",""trial"",""time""
""fullscreenenter"",""1"",""7853""
","
","
","""event"",""trial"",""time""
""fullscreenenter"",""1"",""7853""
","
","","","-1","","","14","6118","3520","&#9826;","elianto","#f73b6a7A","-1","-1","1","0","[]","0","0","3","","","","","","","",""
"pit-trial","72","786014","0.0-2.0-14.2-3.2","battery-v0.2","","""event"",""trial"",""time""
""fullscreenenter"",""1"",""7853""
","
","
","""event"",""trial"",""time""
""fullscreenenter"",""1"",""7853""
","
","","","-1","","","14","6118","3520","&#9826;","elianto","#f73b6a7A","-1","-1","1","-10","[]","0","0","3","","","","","","","",""
"pit-trial","73","790872","0.0-2.0-14.2-4.2","battery-v0.2","","""event"",""trial"",""time""
""fullscreenenter"",""1"",""7853""
","
","
","""event"",""trial"",""time""
""fullscreenenter"",""1"",""7853""
","
","","","-1","","","14","6118","3520","&#9826;","elianto","#f73b6a7A","-1","-1","1","0","[]","0","0","3","","","","","","","",""
"pit-trial","74","793938","0.0-2.0-14.3-0.3","battery-v0.2","","""event"",""trial"",""time""
""fullscreenenter"",""1"",""7853""
","
","
","""event"",""trial"",""time""
""fullscreenenter"",""1"",""7853""
","
","","","208.09999999962747","","","14","6118","3520","&#9826;","elianto","#f73b6a7A","-1"," ","0","-10","[1058.2000000001863]","1","0","3","","","","","","","",""
"pit-trial","75","798796","0.0-2.0-14.3-1.3","battery-v0.2","","""event"",""trial"",""time""
""fullscreenenter"",""1"",""7853""
","
","
","""event"",""trial"",""time""
""fullscreenenter"",""1"",""7853""
","
","","","-1","","","14","6118","3520","&#9826;","elianto","#f73b6a7A","-1","-1","1","0","[]","0","0","3","","","","","","","",""
"pit-trial","76","803652","0.0-2.0-14.3-2.3","battery-v0.2","","""event"",""trial"",""time""
""fullscreenenter"",""1"",""7853""
","
","
","""event"",""trial"",""time""
""fullscreenenter"",""1"",""7853""
","
","","","-1","","","14","6118","3520","&#9826;","elianto","#f73b6a7A","-1","-1","1","0","[]","0","0","3","","","","","","","",""
"pit-trial","77","807099","0.0-2.0-14.3-3.3","battery-v0.2","","""event"",""trial"",""time""
""fullscreenenter"",""1"",""7853""
","
","
","""event"",""trial"",""time""
""fullscreenenter"",""1"",""7853""
","
","","","589","","","14","6118","3520","&#9826;","elianto","#f73b6a7A","-1"," ","0","0","[1439]","1","0","3","","","","","","","",""
"pit-trial","78","811955","0.0-2.0-14.3-4.3","battery-v0.2","","""event"",""trial"",""time""
""fullscreenenter"",""1"",""7853""
","
","
","""event"",""trial"",""time""
""fullscreenenter"",""1"",""7853""
","
","","","-1","","","14","6118","3520","&#9826;","elianto","#f73b6a7A","-1","-1","1","0","[]","0","0","3","","","","","","","",""
"call-function","79","811957","0.0-2.0-15.0","battery-v0.2","","""event"",""trial"",""time""
""fullscreenenter"",""1"",""7853""
","
","
","""event"",""trial"",""time""
""fullscreenenter"",""1"",""7853""
","
","","","","","","","","","","","","","","","","","","","","","","","","","","",""
"pit-instructions","80","856325","0.0-2.0-16.0","battery-v0.2","","""event"",""trial"",""time""
""fullscreenenter"",""1"",""7853""
","
","
","""event"",""trial"",""time""
""fullscreenenter"",""1"",""7853""
","
","","[{""page_index"":0,""viewing_time"":12075.099999999627},{""page_index"":1,""viewing_time"":19690.5},{""page_index"":2,""viewing_time"":5371.9000000003725},{""page_index"":3,""viewing_time"":7228.299999999814}]","44366.700000000186","","","","","","","","","","","","","","","","","","","","","","","",""
"pit-trial","81","860265","0.0-2.0-17.0-0.0","battery-v0.2","","""event"",""trial"",""time""
""fullscreenenter"",""1"",""7853""
","
","
","""event"",""trial"",""time""
""fullscreenenter"",""1"",""7853""
","
","","","1085.8999999994412","","","14","6118","3520","&#9789;","elianto","#f73b6a7A"," "," ","1","0","[1935.7999999998137]","1","0","4","","","","","","","",""
"pit-trial","82","863948","0.0-2.0-17.0-1.0","battery-v0.2","","""event"",""trial"",""time""
""fullscreenenter"",""1"",""7853""
","
","
","""event"",""trial"",""time""
""fullscreenenter"",""1"",""7853""
","
","","","826.2000000001863","","","14","6118","3520","&#9789;","elianto","#f73b6a7A"," "," ","1","0","[1676.2000000001863]","1","0","4","","","","","","","",""
"pit-trial","83","867304","0.0-2.0-17.0-2.0","battery-v0.2","","""event"",""trial"",""time""
""fullscreenenter"",""1"",""7853""
","
","
","""event"",""trial"",""time""
""fullscreenenter"",""1"",""7853""
","
","","","499.90000000037253","","","14","6118","3520","&#9789;","elianto","#f73b6a7A"," "," ","1","0","[472.3999999994412,1349.8999999994412]","2","0","4","","","","","","","",""
"pit-trial","84","872160","0.0-2.0-17.0-3.0","battery-v0.2","","""event"",""trial"",""time""
""fullscreenenter"",""1"",""7853""
","
","
","""event"",""trial"",""time""
""fullscreenenter"",""1"",""7853""
","
","","","-1","","","14","6118","3520","&#9789;","elianto","#f73b6a7A"," ","-1","0","0","[]","0","0","4","","","","","","","",""
"pit-trial","85","877018","0.0-2.0-17.0-4.0","battery-v0.2","","""event"",""trial"",""time""
""fullscreenenter"",""1"",""7853""
","
","
","""event"",""trial"",""time""
""fullscreenenter"",""1"",""7853""
","
","","","-1","","","14","6118","3520","&#9789;","elianto","#f73b6a7A"," ","-1","0","-10","[]","0","0","4","","","","","","","",""
"pit-trial","86","881874","0.0-2.0-17.1-0.1","battery-v0.2","","""event"",""trial"",""time""
""fullscreenenter"",""1"",""7853""
","
","
","""event"",""trial"",""time""
""fullscreenenter"",""1"",""7853""
","
","","","-1","","","14","6118","3520","&#9789;","elianto","#f73b6a7A"," ","-1","0","-10","[]","0","0","4","","","","","","","",""
"pit-trial","87","886732","0.0-2.0-17.1-1.1","battery-v0.2","","""event"",""trial"",""time""
""fullscreenenter"",""1"",""7853""
","
","
","""event"",""trial"",""time""
""fullscreenenter"",""1"",""7853""
","
","","","-1","","","14","6118","3520","&#9789;","elianto","#f73b6a7A"," ","-1","0","-10","[]","0","0","4","","","","","","","",""
"pit-trial","88","891589","0.0-2.0-17.1-2.1","battery-v0.2","","""event"",""trial"",""time""
""fullscreenenter"",""1"",""7853""
","
","
","""event"",""trial"",""time""
""fullscreenenter"",""1"",""7853""
","
","","","-1","","","14","6118","3520","&#9789;","elianto","#f73b6a7A"," ","-1","0","-10","[]","0","0","4","","","","","","","",""
"pit-trial","89","896446","0.0-2.0-17.1-3.1","battery-v0.2","","""event"",""trial"",""time""
""fullscreenenter"",""1"",""7853""
","
","
","""event"",""trial"",""time""
""fullscreenenter"",""1"",""7853""
","
","","","-1","","","14","6118","3520","&#9789;","elianto","#f73b6a7A"," ","-1","0","0","[]","0","0","4","","","","","","","",""
"pit-trial","90","899656","0.0-2.0-17.1-4.1","battery-v0.2","","""event"",""trial"",""time""
""fullscreenenter"",""1"",""7853""
","
","
","""event"",""trial"",""time""
""fullscreenenter"",""1"",""7853""
","
","","","351.5","","","14","6118","3520","&#9789;","elianto","#f73b6a7A"," "," ","1","0","[1204.2999999998137,2606.600000000559,2785.100000000559,2958.9000000003725,3160.9000000003725]","5","0","4","","","","","","","",""
"pit-trial","91","904512","0.0-2.0-17.2-0.2","battery-v0.2","","""event"",""trial"",""time""
""fullscreenenter"",""1"",""7853""
","
","
","""event"",""trial"",""time""
""fullscreenenter"",""1"",""7853""
","
","","","-1","","","14","6118","3520","&#9789;","elianto","#f73b6a7A"," ","-1","0","-10","[148.29999999981374,329.20000000018626,524.7999999998137,730.9000000003725]","4","0","4","","","","","","","",""
"pit-trial","92","909368","0.0-2.0-17.2-1.2","battery-v0.2","","""event"",""trial"",""time""
""fullscreenenter"",""1"",""7853""
","
","
","""event"",""trial"",""time""
""fullscreenenter"",""1"",""7853""
","
","","","-1","","","14","6118","3520","&#9789;","elianto","#f73b6a7A"," ","-1","0","-10","[]","0","0","4","","","","","","","",""
"pit-trial","93","914224","0.0-2.0-17.2-2.2","battery-v0.2","","""event"",""trial"",""time""
""fullscreenenter"",""1"",""7853""
","
","
","""event"",""trial"",""time""
""fullscreenenter"",""1"",""7853""
","
","","","-1","","","14","6118","3520","&#9789;","elianto","#f73b6a7A"," ","-1","0","-10","[]","0","0","4","","","","","","","",""
"pit-trial","94","919080","0.0-2.0-17.2-3.2","battery-v0.2","","""event"",""trial"",""time""
""fullscreenenter"",""1"",""7853""
","
","
","""event"",""trial"",""time""
""fullscreenenter"",""1"",""7853""
","
","","","-1","","","14","6118","3520","&#9789;","elianto","#f73b6a7A"," ","-1","0","0","[]","0","0","4","","","","","","","",""
"pit-trial","95","923937","0.0-2.0-17.2-4.2","battery-v0.2","","""event"",""trial"",""time""
""fullscreenenter"",""1"",""7853""
","
","
","""event"",""trial"",""time""
""fullscreenenter"",""1"",""7853""
","
","","","-1","","","14","6118","3520","&#9789;","elianto","#f73b6a7A"," ","-1","0","-10","[3824.100000000559,4358.100000000559,4535.4000000003725,4714.100000000559]","4","0","4","","","","","","","",""
"pit-trial","96","927187","0.0-2.0-17.3-0.3","battery-v0.2","","""event"",""trial"",""time""
""fullscreenenter"",""1"",""7853""
","
","
","""event"",""trial"",""time""
""fullscreenenter"",""1"",""7853""
","
","","","393.5","","","14","6118","3520","&#9789;","elianto","#f73b6a7A"," "," ","1","0","[1243.5]","1","0","4","","","","","","","",""
"pit-trial","97","932046","0.0-2.0-17.3-1.3","battery-v0.2","","""event"",""trial"",""time""
""fullscreenenter"",""1"",""7853""
","
","
","""event"",""trial"",""time""
""fullscreenenter"",""1"",""7853""
","
","","","-1","","","14","6118","3520","&#9789;","elianto","#f73b6a7A"," ","-1","0","-10","[]","0","0","4","","","","","","","",""
"pit-trial","98","936905","0.0-2.0-17.3-2.3","battery-v0.2","","""event"",""trial"",""time""
""fullscreenenter"",""1"",""7853""
","
","
","""event"",""trial"",""time""
""fullscreenenter"",""1"",""7853""
","
","","","-1","","","14","6118","3520","&#9789;","elianto","#f73b6a7A"," ","-1","0","-10","[]","0","0","4","","","","","","","",""
"pit-trial","99","941761","0.0-2.0-17.3-3.3","battery-v0.2","","""event"",""trial"",""time""
""fullscreenenter"",""1"",""7853""
","
","
","""event"",""trial"",""time""
""fullscreenenter"",""1"",""7853""
","
","","","-1","","","14","6118","3520","&#9789;","elianto","#f73b6a7A"," ","-1","0","0","[]","0","0","4","","","","","","","",""
"pit-trial","100","946617","0.0-2.0-17.3-4.3","battery-v0.2","","""event"",""trial"",""time""
""fullscreenenter"",""1"",""7853""
","
","
","""event"",""trial"",""time""
""fullscreenenter"",""1"",""7853""
","
","","","-1","","","14","6118","3520","&#9789;","elianto","#f73b6a7A"," ","-1","0","-10","[]","0","0","4","","","","","","","",""
"call-function","101","946623","0.0-2.0-18.0","battery-v0.2","","""event"",""trial"",""time""
""fullscreenenter"",""1"",""7853""
","
","
","""event"",""trial"",""time""
""fullscreenenter"",""1"",""7853""
","
","","","","","","","","","","","","","","","","","","","","","","","","","","",""
"pit-instructions","102","1086725","0.0-2.0-19.0","battery-v0.2","","""event"",""trial"",""time""
""fullscreenenter"",""1"",""7853""
","
","
","""event"",""trial"",""time""
""fullscreenenter"",""1"",""7853""
","
","","[{""page_index"":0,""viewing_time"":24327.89999999944},{""page_index"":1,""viewing_time"":30483.60000000056},{""page_index"":2,""viewing_time"":19268.89999999944},{""page_index"":3,""viewing_time"":12200.600000000559},{""page_index"":4,""viewing_time"":11983.5},{""page_index"":5,""viewing_time"":12969.799999999814},{""page_index"":6,""viewing_time"":10348.099999999627},{""page_index"":7,""viewing_time"":8419},{""page_index"":8,""viewing_time"":10095.700000000186}]","140099.2999999998","","","","","","","","","","","","","","","","","","","","","","","",""
"pit-comprehension","103","1100673","0.0-2.0-20.0-0.0","battery-v0.2","","""event"",""trial"",""time""
""fullscreenenter"",""1"",""7853""
","
","
","""event"",""trial"",""time""
""fullscreenenter"",""1"",""7853""
","
","","","13937.800000000745","[""SPACE""]","0","14","6118","3520","","","","","","","","","","","","","","","","","","",""
"pit-instructions","104","1106163","0.0-2.0-20.0-1.0","battery-v0.2","","""event"",""trial"",""time""
""fullscreenenter"",""1"",""7853""
","
","
","""event"",""trial"",""time""
""fullscreenenter"",""1"",""7853""
","
","","[{""page_index"":0,""viewing_time"":5453.700000000186}]","5455.899999999441","","","","","","","","","","","","","","","","","","","","","","","",""
"pit-comprehension","105","1114020","0.0-2.0-21.0-0.0","battery-v0.2","","""event"",""trial"",""time""
""fullscreenenter"",""1"",""7853""
","
","
","""event"",""trial"",""time""
""fullscreenenter"",""1"",""7853""
","
","","","7848.5999999996275","[""10""]","0","14","6118","3520","","","","","","","","","","","","","","","","","","",""
"pit-instructions","106","1124852","0.0-2.0-21.0-1.0","battery-v0.2","","""event"",""trial"",""time""
""fullscreenenter"",""1"",""7853""
","
","
","""event"",""trial"",""time""
""fullscreenenter"",""1"",""7853""
","
","","[{""page_index"":0,""viewing_time"":10801.099999999627}]","10801.799999999814","","","","","","","","","","","","","","","","","","","","","","","",""
"pit-comprehension","107","1134456","0.0-2.0-22.0-0.0","battery-v0.2","","""event"",""trial"",""time""
""fullscreenenter"",""1"",""7853""
","
","
","""event"",""trial"",""time""
""fullscreenenter"",""1"",""7853""
","
","","","9597","[""-10""]","1","14","6118","3520","","","","","","","","","","","","","","","","","","",""
"pit-instructions","108","1143534","0.0-2.0-22.0-1.0","battery-v0.2","","""event"",""trial"",""time""
""fullscreenenter"",""1"",""7853""
","
","
","""event"",""trial"",""time""
""fullscreenenter"",""1"",""7853""
","
","","[{""page_index"":0,""viewing_time"":9044.299999999814}]","9045.299999999814","","","","","","","","","","","","","","","","","","","","","","","",""
"pit-instructions","109","1147171","0.0-2.0-22.0-2.0-0.0","battery-v0.2","","""event"",""trial"",""time""
""fullscreenenter"",""1"",""7853""
","
","
","""event"",""trial"",""time""
""fullscreenenter"",""1"",""7853""
","
","","[{""page_index"":0,""viewing_time"":3630.5999999996275}]","3631.5","","","","","","","","","","","","","","","","","","","","","","","",""
"pit-comprehension","110","1153652","0.0-2.0-22.1-0.1","battery-v0.2","","""event"",""trial"",""time""
""fullscreenenter"",""1"",""7853""
","
","
","""event"",""trial"",""time""
""fullscreenenter"",""1"",""7853""
","
","","","6475.5999999996275","[""0""]","0","14","6118","3520","","","","","","","","","","","","","","","","","","",""
"pit-instructions","111","1157816","0.0-2.0-22.1-1.1","battery-v0.2","","""event"",""trial"",""time""
""fullscreenenter"",""1"",""7853""
","
","
","""event"",""trial"",""time""
""fullscreenenter"",""1"",""7853""
","
","","[{""page_index"":0,""viewing_time"":4132.5}]","4132.9000000003725","","","","","","","","","","","","","","","","","","","","","","","",""
"pit-comprehension","112","1169137","0.0-2.0-23.0-0.0","battery-v0.2","","""event"",""trial"",""time""
""fullscreenenter"",""1"",""7853""
","
","
","""event"",""trial"",""time""
""fullscreenenter"",""1"",""7853""
","
","","","11316.699999999255","[""True""]","0","14","6118","3520","","","","","","","","","","","","","","","","","","",""
"pit-instructions","113","1177146","0.0-2.0-23.0-1.0","battery-v0.2","","""event"",""trial"",""time""
""fullscreenenter"",""1"",""7853""
","
","
","""event"",""trial"",""time""
""fullscreenenter"",""1"",""7853""
","
","","[{""page_index"":0,""viewing_time"":7967.9000000003725}]","7968.9000000003725","","","","","","","","","","","","","","","","","","","","","","","",""
"pit-comprehension","114","1187508","0.0-2.0-24.0-0.0","battery-v0.2","","""event"",""trial"",""time""
""fullscreenenter"",""1"",""7853""
","
","
","""event"",""trial"",""time""
""fullscreenenter"",""1"",""7853""
","
","","","10355","[""True""]","0","14","6118","3520","","","","","","","","","","","","","","","","","","",""
"pit-instructions","115","1194682","0.0-2.0-24.0-1.0","battery-v0.2","","""event"",""trial"",""time""
""fullscreenenter"",""1"",""7853""
","
","
","""event"",""trial"",""time""
""fullscreenenter"",""1"",""7853""
","
","","[{""page_index"":0,""viewing_time"":7144.199999999255}]","7144.399999999441","","","","","","","","","","","","","","","","","","","","","","","",""
"pit-comprehension","116","1202142","0.0-2.0-25.0-0.0","battery-v0.2","","""event"",""trial"",""time""
""fullscreenenter"",""1"",""7853""
","
","
","""event"",""trial"",""time""
""fullscreenenter"",""1"",""7853""
","
","","","7454.300000000745","[""True""]","0","14","6118","3520","","","","","","","","","","","","","","","","","","",""
"pit-instructions","117","1207249","0.0-2.0-25.0-1.0","battery-v0.2","","""event"",""trial"",""time""
""fullscreenenter"",""1"",""7853""
","
","
","""event"",""trial"",""time""
""fullscreenenter"",""1"",""7853""
","
","","[{""page_index"":0,""viewing_time"":5075}]","5075.399999999441","","","","","","","","","","","","","","","","","","","","","","","",""
"pit-comprehension","118","1214349","0.0-2.0-26.0-0.0","battery-v0.2","","""event"",""trial"",""time""
""fullscreenenter"",""1"",""7853""
","
","
","""event"",""trial"",""time""
""fullscreenenter"",""1"",""7853""
","
","","","7094.399999999441","[""True""]","1","14","6118","3520","","","","","","","","","","","","","","","","","","",""
"pit-instructions","119","1219266","0.0-2.0-26.0-1.0","battery-v0.2","","""event"",""trial"",""time""
""fullscreenenter"",""1"",""7853""
","
","
","""event"",""trial"",""time""
""fullscreenenter"",""1"",""7853""
","
","","[{""page_index"":0,""viewing_time"":4879.399999999441}]","4880.399999999441","","","","","","","","","","","","","","","","","","","","","","","",""
"pit-instructions","120","1222324","0.0-2.0-26.0-2.0-0.0","battery-v0.2","","""event"",""trial"",""time""
""fullscreenenter"",""1"",""7853""
","
","
","""event"",""trial"",""time""
""fullscreenenter"",""1"",""7853""
","
","","[{""page_index"":0,""viewing_time"":3052.100000000559}]","3052.600000000559","","","","","","","","","","","","","","","","","","","","","","","",""
"pit-comprehension","121","1228379","0.0-2.0-26.1-0.1","battery-v0.2","","""event"",""trial"",""time""
""fullscreenenter"",""1"",""7853""
","
","
","""event"",""trial"",""time""
""fullscreenenter"",""1"",""7853""
","
","","","6051.9000000003725","[""True""]","1","14","6118","3520","","","","","","","","","","","","","","","","","","",""
"pit-instructions","122","1233170","0.0-2.0-26.1-1.1","battery-v0.2","","""event"",""trial"",""time""
""fullscreenenter"",""1"",""7853""
","
","
","""event"",""trial"",""time""
""fullscreenenter"",""1"",""7853""
","
","","[{""page_index"":0,""viewing_time"":4752.4000000003725}]","4752.9000000003725","","","","","","","","","","","","","","","","","","","","","","","",""
"pit-instructions","123","1234280","0.0-2.0-26.1-2.1-0.1","battery-v0.2","","""event"",""trial"",""time""
""fullscreenenter"",""1"",""7853""
","
","
","""event"",""trial"",""time""
""fullscreenenter"",""1"",""7853""
","
","","[{""page_index"":0,""viewing_time"":1106.9000000003725}]","1107.6000000005588","","","","","","","","","","","","","","","","","","","","","","","",""
"pit-comprehension","124","1239040","0.0-2.0-26.2-0.2","battery-v0.2","","""event"",""trial"",""time""
""fullscreenenter"",""1"",""7853""
","
","
","""event"",""trial"",""time""
""fullscreenenter"",""1"",""7853""
","
","","","4754.5","[""True""]","1","14","6118","3520","","","","","","","","","","","","","","","","","","",""
"pit-instructions","125","1244513","0.0-2.0-26.2-1.2","battery-v0.2","","""event"",""trial"",""time""
""fullscreenenter"",""1"",""7853""
","
","
","""event"",""trial"",""time""
""fullscreenenter"",""1"",""7853""
","
","","[{""page_index"":0,""viewing_time"":5440.399999999441}]","5441.299999999814","","","","","","","","","","","","","","","","","","","","","","","",""
"pit-instructions","126","1246466","0.0-2.0-26.2-2.2-0.2","battery-v0.2","","""event"",""trial"",""time""
""fullscreenenter"",""1"",""7853""
","
","
","""event"",""trial"",""time""
""fullscreenenter"",""1"",""7853""
","
","","[{""page_index"":0,""viewing_time"":1948.5}]","1949.2000000001863","","","","","","","","","","","","","","","","","","","","","","","",""
"pit-comprehension","127","1251768","0.0-2.0-26.3-0.3","battery-v0.2","","""event"",""trial"",""time""
""fullscreenenter"",""1"",""7853""
","
","
","""event"",""trial"",""time""
""fullscreenenter"",""1"",""7853""
","
","","","5298.799999999814","[""True""]","1","14","6118","3520","","","","","","","","","","","","","","","","","","",""
"pit-instructions","128","1254303","0.0-2.0-26.3-1.3","battery-v0.2","","""event"",""trial"",""time""
""fullscreenenter"",""1"",""7853""
","
","
","""event"",""trial"",""time""
""fullscreenenter"",""1"",""7853""
","
","","[{""page_index"":0,""viewing_time"":2502.2999999998137}]","2503.2000000001863","","","","","","","","","","","","","","","","","","","","","","","",""
"pit-instructions","129","1255382","0.0-2.0-26.3-2.3-0.3","battery-v0.2","","""event"",""trial"",""time""
""fullscreenenter"",""1"",""7853""
","
","
","""event"",""trial"",""time""
""fullscreenenter"",""1"",""7853""
","
","","[{""page_index"":0,""viewing_time"":1074.9000000003725}]","1075.2000000001863","","","","","","","","","","","","","","","","","","","","","","","",""
"pit-comprehension","130","1259967","0.0-2.0-26.4-0.4","battery-v0.2","","""event"",""trial"",""time""
""fullscreenenter"",""1"",""7853""
","
","
","""event"",""trial"",""time""
""fullscreenenter"",""1"",""7853""
","
","","","4581.0999999996275","[""False""]","0","14","6118","3520","","","","","","","","","","","","","","","","","","",""
"pit-instructions","131","1261980","0.0-2.0-26.4-1.4","battery-v0.2","","""event"",""trial"",""time""
""fullscreenenter"",""1"",""7853""
","
","
","""event"",""trial"",""time""
""fullscreenenter"",""1"",""7853""
","
","","[{""page_index"":0,""viewing_time"":1972}]","1972.2000000001863","","","","","","","","","","","","","","","","","","","","","","","",""
"pit-instructions","132","1285137","0.0-3.0","battery-v0.2","","""event"",""trial"",""time""
""fullscreenenter"",""1"",""7853""
","
","
","""event"",""trial"",""time""
""fullscreenenter"",""1"",""7853""
","
","","[{""page_index"":0,""viewing_time"":7026.9000000003725},{""page_index"":1,""viewing_time"":7560},{""page_index"":2,""viewing_time"":8567.799999999814}]","23155","","","","","","","","","","","","","","","","","","","","","","","",""
"pit-trial","133","1289931","0.0-4.0","battery-v0.2","","""event"",""trial"",""time""
""fullscreenenter"",""1"",""7853""
","
","
","""event"",""trial"",""time""
""fullscreenenter"",""1"",""7853""
","
","","","1936.2000000001863","","","14","6118","3520","&#9733;","elianto","#3366ff99","-1"," ","0","0","[2786.5]","1","1","","","6118","1","2","2","win","no-go","0"
"pit-trial","134","1294785","0.0-5.0","battery-v0.2","","""event"",""trial"",""time""
""fullscreenenter"",""1"",""7853""
","
","
","""event"",""trial"",""time""
""fullscreenenter"",""1"",""7853""
","
","","","-1","","","14","6118","3520","&#9728;","elianto","#f73b6a7A","-1","-1","1","0","[]","0","1","","","6118","2","0","4","lose","no-go","0"
"pit-trial","135","1298345","0.0-6.0","battery-v0.2","","""event"",""trial"",""time""
""fullscreenenter"",""1"",""7853""
","
","
","""event"",""trial"",""time""
""fullscreenenter"",""1"",""7853""
","
","","","704.7999999998137","","","14","6118","3520","&#9752;","elianto","#f73b6a7A"," "," ","1","0","[1554.7999999998137]","1","1","","","6118","3","3","3","lose","go","0"
"pit-trial","136","1301726","0.0-7.0","battery-v0.2","","""event"",""trial"",""time""
""fullscreenenter"",""1"",""7853""
","
","
","""event"",""trial"",""time""
""fullscreenenter"",""1"",""7853""
","
","","","524.4000000003725","","","14","6118","3520","&#9730;","elianto","#3366ff99"," "," ","1","+10","[1374.3999999994412]","1","1","","","6118","4","1","1","win","go","0"
"pit-trial","137","1305377","0.0-8.0","battery-v0.2","","""event"",""trial"",""time""
""fullscreenenter"",""1"",""7853""
","
","
","""event"",""trial"",""time""
""fullscreenenter"",""1"",""7853""
","
","","","794.7999999998137","","","14","6118","3520","&#9730;","elianto","#3366ff99"," "," ","1","+10","[1644.7999999998137]","1","1","","","6118","5","1","1","win","go","0"
"pit-trial","138","1310233","0.0-9.0","battery-v0.2","","""event"",""trial"",""time""
""fullscreenenter"",""1"",""7853""
","
","
","""event"",""trial"",""time""
""fullscreenenter"",""1"",""7853""
","
","","","-1","","","14","6118","3520","&#9752;","elianto","#f73b6a7A"," ","-1","0","-10","[]","0","1","","","6118","6","3","3","lose","go","0"
"pit-trial","139","1315087","0.0-10.0","battery-v0.2","","""event"",""trial"",""time""
""fullscreenenter"",""1"",""7853""
","
","
","""event"",""trial"",""time""
""fullscreenenter"",""1"",""7853""
","
","","","-1","","","14","6118","3520","&#9728;","elianto","#f73b6a7A","-1","-1","1","0","[]","0","1","","","6118","7","0","4","lose","no-go","0"
"pit-trial","140","1318700","0.0-11.0","battery-v0.2","","""event"",""trial"",""time""
""fullscreenenter"",""1"",""7853""
","
","
","""event"",""trial"",""time""
""fullscreenenter"",""1"",""7853""
","
","","","754","","","14","6118","3520","&#9733;","elianto","#3366ff99","-1"," ","0","+10","[1604.1000000005588]","1","1","","","6118","8","2","2","win","no-go","1"
"pit-trial","141","1322128","0.0-12.0","battery-v0.2","","""event"",""trial"",""time""
""fullscreenenter"",""1"",""7853""
","
","
","""event"",""trial"",""time""
""fullscreenenter"",""1"",""7853""
","
","","","569.7999999998137","","","14","6118","3520","&#9730;","elianto","#3366ff99"," "," ","1","+10","[1420.7999999998137]","1","1","","","6118","9","1","1","win","go","0"
"pit-trial","142","1326984","0.0-13.0","battery-v0.2","","""event"",""trial"",""time""
""fullscreenenter"",""1"",""7853""
","
","
","""event"",""trial"",""time""
""fullscreenenter"",""1"",""7853""
","
","","","-1","","","14","6118","3520","&#9752;","elianto","#f73b6a7A"," ","-1","0","-10","[]","0","1","","","6118","10","3","3","lose","go","0"
"pit-trial","143","1330553","0.0-14.0","battery-v0.2","","""event"",""trial"",""time""
""fullscreenenter"",""1"",""7853""
","
","
","""event"",""trial"",""time""
""fullscreenenter"",""1"",""7853""
","
","","","708.7999999998137","","","14","6118","3520","&#9733;","elianto","#3366ff99","-1"," ","0","0","[1558.800000000745,2798.800000000745,3354.600000000559,3550.4000000003725]","4","1","","","6118","11","2","2","win","no-go","0"
"pit-trial","144","1335408","0.0-15.0","battery-v0.2","","""event"",""trial"",""time""
""fullscreenenter"",""1"",""7853""
","
","
","""event"",""trial"",""time""
""fullscreenenter"",""1"",""7853""
","
","","","-1","","","14","6118","3520","&#9728;","elianto","#f73b6a7A","-1","-1","1","0","[240.59999999962747,2968.4000000003725]","2","1","","","6118","12","0","4","lose","no-go","0"
"pit-trial","145","1338924","0.0-16.0","battery-v0.2","","""event"",""trial"",""time""
""fullscreenenter"",""1"",""7853""
","
","
","""event"",""trial"",""time""
""fullscreenenter"",""1"",""7853""
","
","","","660.3000000007451","","","14","6118","3520","&#9733;","elianto","#3366ff99","-1"," ","0","0","[1510.2999999998137]","1","1","","","6118","13","2","2","win","no-go","0"
"pit-trial","146","1341852","0.0-17.0","battery-v0.2","","""event"",""trial"",""time""
""fullscreenenter"",""1"",""7853""
","
","
","""event"",""trial"",""time""
""fullscreenenter"",""1"",""7853""
","
","","","72.5","","","14","6118","3520","&#9730;","elianto","#3366ff99"," "," ","1","+10","[276.1000000005588,922.8000000007451,1120.300000000745,1336.7000000001863,1547.800000000745]","5","1","","","6118","14","1","1","win","go","0"
"pit-trial","147","1346709","0.0-18.0","battery-v0.2","","""event"",""trial"",""time""
""fullscreenenter"",""1"",""7853""
","
","
","""event"",""trial"",""time""
""fullscreenenter"",""1"",""7853""
","
","","","-1","","","14","6118","3520","&#9752;","elianto","#f73b6a7A"," ","-1","0","-10","[181,750,788.7000000001863]","3","1","","","6118","15","3","3","lose","go","0"
"pit-trial","148","1350037","0.0-19.0","battery-v0.2","","""event"",""trial"",""time""
""fullscreenenter"",""1"",""7853""
","
","
","""event"",""trial"",""time""
""fullscreenenter"",""1"",""7853""
","
","","","471.30000000074506","","","14","6118","3520","&#9728;","elianto","#f73b6a7A","-1"," ","0","-10","[1321.2999999998137]","1","1","","","6118","16","0","4","lose","no-go","0"
"pit-trial","149","1354345","0.0-20.0","battery-v0.2","","""event"",""trial"",""time""
""fullscreenenter"",""1"",""7853""
","
","
","""event"",""trial"",""time""
""fullscreenenter"",""1"",""7853""
","
","","","1450.6000000005588","","","14","6118","3520","&#9733;","elianto","#3366ff99","-1"," ","0","0","[2300.7000000001863]","1","1","","","6118","17","2","2","win","no-go","0"
"pit-trial","150","1359202","0.0-21.0","battery-v0.2","","""event"",""trial"",""time""
""fullscreenenter"",""1"",""7853""
","
","
","""event"",""trial"",""time""
""fullscreenenter"",""1"",""7853""
","
","","","-1","","","14","6118","3520","&#9752;","elianto","#f73b6a7A"," ","-1","0","-10","[]","0","1","","","6118","18","3","3","lose","go","0"
"pit-trial","151","1363708","0.0-22.0","battery-v0.2","","""event"",""trial"",""time""
""fullscreenenter"",""1"",""7853""
","
","
","""event"",""trial"",""time""
""fullscreenenter"",""1"",""7853""
","
","","","1644.9000000003725","","","14","6118","3520","&#9730;","elianto","#3366ff99"," "," ","1","+10","[2496.2999999998137]","1","1","","","6118","19","1","1","win","go","0"
"pit-trial","152","1368566","0.0-23.0","battery-v0.2","","""event"",""trial"",""time""
""fullscreenenter"",""1"",""7853""
","
","
","""event"",""trial"",""time""
""fullscreenenter"",""1"",""7853""
","
","","","-1","","","14","6118","3520","&#9728;","elianto","#f73b6a7A","-1","-1","1","0","[]","0","1","","","6118","20","0","4","lose","no-go","0"
"pit-instructions","153","1386043","0.0-24.0","battery-v0.2","","""event"",""trial"",""time""
""fullscreenenter"",""1"",""7853""
","
","
","""event"",""trial"",""time""
""fullscreenenter"",""1"",""7853""
","
","","[{""page_index"":0,""viewing_time"":9565},{""page_index"":1,""viewing_time"":7906.199999999255}]","17472.89999999944","","","","","","","","","","","","","","","","","","","","","","","",""
"pit-trial","154","1390903","0.0-25.0","battery-v0.2","","""event"",""trial"",""time""
""fullscreenenter"",""1"",""7853""
","
","
","""event"",""trial"",""time""
""fullscreenenter"",""1"",""7853""
","
","","","-1","","","14","6118","3520","j","elianto","#f73b6a7A"," ","-1","0","-10","[]","0","2","","","6118","21","0","3","lose","go","0"
"pit-trial","155","1395012","0.0-26.0","battery-v0.2","","""event"",""trial"",""time""
""fullscreenenter"",""1"",""7853""
","
","
","""event"",""trial"",""time""
""fullscreenenter"",""1"",""7853""
","
","","","1252.2999999998137","","","14","6118","3520","d","elianto","#3366ff99","-1"," ","0","0","[2102.4000000003725]","1","2","","","6118","22","1","2","win","no-go","0"
"pit-trial","156","1397981","0.0-27.0","battery-v0.2","","""event"",""trial"",""time""
""fullscreenenter"",""1"",""7853""
","
","
","""event"",""trial"",""time""
""fullscreenenter"",""1"",""7853""
","
","","","112","","","14","6118","3520","e","elianto","#f73b6a7A"," "," ","1","0","[444.5,696.7000000001863,962.2000000001863,999,1458.5999999996275,1800.2000000001863,2061.4000000003725,2343.0999999996275,2611.7999999998137,2865]","10","2","","","6118","23","2","3","lose","go","0"
"pit-trial","157","1402838","0.0-28.0","battery-v0.2","","""event"",""trial"",""time""
""fullscreenenter"",""1"",""7853""
","
","
","""event"",""trial"",""time""
""fullscreenenter"",""1"",""7853""
","
","","","-1","","","14","6118","3520","w","elianto","#f73b6a7A","-1","-1","1","0","[168.09999999962747]","1","2","","","6118","24","3","4","lose","no-go","0"
"pit-trial","158","1407694","0.0-29.0","battery-v0.2","","""event"",""trial"",""time""
""fullscreenenter"",""1"",""7853""
","
","
","""event"",""trial"",""time""
""fullscreenenter"",""1"",""7853""
","
","","","-1","","","14","6118","3520","e","elianto","#f73b6a7A"," ","-1","0","-10","[]","0","2","","","6118","25","2","3","lose","go","0"
"pit-trial","159","1412550","0.0-30.0","battery-v0.2","","""event"",""trial"",""time""
""fullscreenenter"",""1"",""7853""
","
","
","""event"",""trial"",""time""
""fullscreenenter"",""1"",""7853""
","
","","","-1","","","14","6118","3520","d","elianto","#3366ff99","-1","-1","1","0","[]","0","2","","","6118","26","1","2","win","no-go","1"
"pit-trial","160","1417406","0.0-31.0","battery-v0.2","","""event"",""trial"",""time""
""fullscreenenter"",""1"",""7853""
","
","
","""event"",""trial"",""time""
""fullscreenenter"",""1"",""7853""
","
","","","-1","","","14","6118","3520","w","elianto","#f73b6a7A","-1","-1","1","0","[]","0","2","","","6118","27","3","4","lose","no-go","0"
"pit-trial","161","1422261","0.0-32.0","battery-v0.2","","""event"",""trial"",""time""
""fullscreenenter"",""1"",""7853""
","
","
","""event"",""trial"",""time""
""fullscreenenter"",""1"",""7853""
","
","","","-1","","","14","6118","3520","j","elianto","#f73b6a7A"," ","-1","0","-10","[]","0","2","","","6118","28","0","3","lose","go","0"
"pit-trial","162","1427118","0.0-33.0","battery-v0.2","","""event"",""trial"",""time""
""fullscreenenter"",""1"",""7853""
","
","
","""event"",""trial"",""time""
""fullscreenenter"",""1"",""7853""
","
","","","-1","","","14","6118","3520","e","elianto","#f73b6a7A"," ","-1","0","-10","[]","0","2","","","6118","29","2","3","lose","go","0"
"pit-trial","163","1431977","0.0-34.0","battery-v0.2","","""event"",""trial"",""time""
""fullscreenenter"",""1"",""7853""
","
","
","""event"",""trial"",""time""
""fullscreenenter"",""1"",""7853""
","
","","","-1","","","14","6118","3520","j","elianto","#f73b6a7A"," ","-1","0","-10","[]","0","2","","","6118","30","0","3","lose","go","0"
"pit-trial","164","1436836","0.0-35.0","battery-v0.2","","""event"",""trial"",""time""
""fullscreenenter"",""1"",""7853""
","
","
","""event"",""trial"",""time""
""fullscreenenter"",""1"",""7853""
","
","","","-1","","","14","6118","3520","d","elianto","#3366ff99","-1","-1","1","+10","[]","0","2","","","6118","31","1","2","win","no-go","0"
"pit-trial","165","1441692","0.0-36.0","battery-v0.2","","""event"",""trial"",""time""
""fullscreenenter"",""1"",""7853""
","
","
","""event"",""trial"",""time""
""fullscreenenter"",""1"",""7853""
","
","","","-1","","","14","6118","3520","w","elianto","#f73b6a7A","-1","-1","1","-10","[]","0","2","","","6118","32","3","4","lose","no-go","1"
"pit-trial","166","1446549","0.0-37.0","battery-v0.2","","""event"",""trial"",""time""
""fullscreenenter"",""1"",""7853""
","
","
","""event"",""trial"",""time""
""fullscreenenter"",""1"",""7853""
","
","","","-1","","","14","6118","3520","d","elianto","#3366ff99","-1","-1","1","+10","[]","0","2","","","6118","33","1","2","win","no-go","0"
"pit-trial","167","1451409","0.0-38.0","battery-v0.2","","""event"",""trial"",""time""
""fullscreenenter"",""1"",""7853""
","
","
","""event"",""trial"",""time""
""fullscreenenter"",""1"",""7853""
","
","","","-1","","","14","6118","3520","j","elianto","#f73b6a7A"," ","-1","0","0","[]","0","2","","","6118","34","0","3","lose","go","1"
"pit-trial","168","1456266","0.0-39.0","battery-v0.2","","""event"",""trial"",""time""
""fullscreenenter"",""1"",""7853""
","
","
","""event"",""trial"",""time""
""fullscreenenter"",""1"",""7853""
","
","","","-1","","","14","6118","3520","e","elianto","#f73b6a7A"," ","-1","0","0","[]","0","2","","","6118","35","2","3","lose","go","1"
"pit-trial","169","1461124","0.0-40.0","battery-v0.2","","""event"",""trial"",""time""
""fullscreenenter"",""1"",""7853""
","
","
","""event"",""trial"",""time""
""fullscreenenter"",""1"",""7853""
","
","","","-1","","","14","6118","3520","w","elianto","#f73b6a7A","-1","-1","1","0","[]","0","2","","","6118","36","3","4","lose","no-go","0"
"pit-trial","170","1465979","0.0-41.0","battery-v0.2","","""event"",""trial"",""time""
""fullscreenenter"",""1"",""7853""
","
","
","""event"",""trial"",""time""
""fullscreenenter"",""1"",""7853""
","
","","","-1","","","14","6118","3520","e","elianto","#f73b6a7A"," ","-1","0","-10","[]","0","2","","","6118","37","2","3","lose","go","0"
"pit-trial","171","1470836","0.0-42.0","battery-v0.2","","""event"",""trial"",""time""
""fullscreenenter"",""1"",""7853""
","
","
","""event"",""trial"",""time""
""fullscreenenter"",""1"",""7853""
","
","","","-1","","","14","6118","3520","j","elianto","#f73b6a7A"," ","-1","0","-10","[]","0","2","","","6118","38","0","3","lose","go","0"
"pit-trial","172","1475691","0.0-43.0","battery-v0.2","","""event"",""trial"",""time""
""fullscreenenter"",""1"",""7853""
","
","
","""event"",""trial"",""time""
""fullscreenenter"",""1"",""7853""
","
","","","-1","","","14","6118","3520","d","elianto","#3366ff99","-1","-1","1","+10","[]","0","2","","","6118","39","1","2","win","no-go","0"
"pit-trial","173","1480551","0.0-44.0","battery-v0.2","","""event"",""trial"",""time""
""fullscreenenter"",""1"",""7853""
","
","
","""event"",""trial"",""time""
""fullscreenenter"",""1"",""7853""
","
","","","-1","","","14","6118","3520","w","elianto","#f73b6a7A","-1","-1","1","0","[]","0","2","","","6118","40","3","4","lose","no-go","0"
"pit-trial","174","1485407","0.0-45.0","battery-v0.2","","""event"",""trial"",""time""
""fullscreenenter"",""1"",""7853""
","
","
","""event"",""trial"",""time""
""fullscreenenter"",""1"",""7853""
","
","","","-1","","","14","6118","3520","w","elianto","#f73b6a7A","-1","-1","1","0","[]","0","2","","","6118","41","3","4","lose","no-go","0"
"pit-trial","175","1490267","0.0-46.0","battery-v0.2","","""event"",""trial"",""time""
""fullscreenenter"",""1"",""7853""
","
","
","""event"",""trial"",""time""
""fullscreenenter"",""1"",""7853""
","
","","","-1","","","14","6118","3520","d","elianto","#3366ff99","-1","-1","1","+10","[]","0","2","","","6118","42","1","2","win","no-go","0"
"pit-trial","176","1495124","0.0-47.0","battery-v0.2","","""event"",""trial"",""time""
""fullscreenenter"",""1"",""7853""
","
","
","""event"",""trial"",""time""
""fullscreenenter"",""1"",""7853""
","
","","","-1","","","14","6118","3520","e","elianto","#f73b6a7A"," ","-1","0","-10","[]","0","2","","","6118","43","2","3","lose","go","0"
"pit-trial","177","1499981","0.0-48.0","battery-v0.2","","""event"",""trial"",""time""
""fullscreenenter"",""1"",""7853""
""blur"",""178"",""1504076""
""focus"",""178"",""1504078""
""blur"",""178"",""1504611""
""focus"",""178"",""1504613""
","""event"",""trial"",""time""
""blur"",""178"",""1504076""
""blur"",""178"",""1504611""
","""event"",""trial"",""time""
""focus"",""178"",""1504078""
""focus"",""178"",""1504613""
","""event"",""trial"",""time""
""fullscreenenter"",""1"",""7853""
","
","","","-1","","","14","6118","3520","j","elianto","#f73b6a7A"," ","-1","0","-10","[]","0","2","","","6118","44","0","3","lose","go","0"
"pit-trial","178","1504838","0.0-49.0","battery-v0.2","","""event"",""trial"",""time""
""fullscreenenter"",""1"",""7853""
""blur"",""178"",""1504076""
""focus"",""178"",""1504078""
""blur"",""178"",""1504611""
""focus"",""178"",""1504613""
","""event"",""trial"",""time""
""blur"",""178"",""1504076""
""blur"",""178"",""1504611""
","""event"",""trial"",""time""
""focus"",""178"",""1504078""
""focus"",""178"",""1504613""
","""event"",""trial"",""time""
""fullscreenenter"",""1"",""7853""
","
","","","-1","","","14","6118","3520","d","elianto","#3366ff99","-1","-1","1","0","[]","0","2","","","6118","45","1","2","win","no-go","1"
"pit-trial","179","1509697","0.0-50.0","battery-v0.2","","""event"",""trial"",""time""
""fullscreenenter"",""1"",""7853""
""blur"",""178"",""1504076""
""focus"",""178"",""1504078""
""blur"",""178"",""1504611""
""focus"",""178"",""1504613""
","""event"",""trial"",""time""
""blur"",""178"",""1504076""
""blur"",""178"",""1504611""
","""event"",""trial"",""time""
""focus"",""178"",""1504078""
""focus"",""178"",""1504613""
","""event"",""trial"",""time""
""fullscreenenter"",""1"",""7853""
","
","","","-1","","","14","6118","3520","j","elianto","#f73b6a7A"," ","-1","0","-10","[]","0","2","","","6118","46","0","3","lose","go","0"
"pit-trial","180","1514553","0.0-51.0","battery-v0.2","","""event"",""trial"",""time""
""fullscreenenter"",""1"",""7853""
""blur"",""178"",""1504076""
""focus"",""178"",""1504078""
""blur"",""178"",""1504611""
""focus"",""178"",""1504613""
","""event"",""trial"",""time""
""blur"",""178"",""1504076""
""blur"",""178"",""1504611""
","""event"",""trial"",""time""
""focus"",""178"",""1504078""
""focus"",""178"",""1504613""
","""event"",""trial"",""time""
""fullscreenenter"",""1"",""7853""
","
","","","-1","","","14","6118","3520","w","elianto","#f73b6a7A","-1","-1","1","0","[]","0","2","","","6118","47","3","4","lose","no-go","0"
"pit-trial","181","1519414","0.0-52.0","battery-v0.2","","""event"",""trial"",""time""
""fullscreenenter"",""1"",""7853""
""blur"",""178"",""1504076""
""focus"",""178"",""1504078""
""blur"",""178"",""1504611""
""focus"",""178"",""1504613""
","""event"",""trial"",""time""
""blur"",""178"",""1504076""
""blur"",""178"",""1504611""
","""event"",""trial"",""time""
""focus"",""178"",""1504078""
""focus"",""178"",""1504613""
","""event"",""trial"",""time""
""fullscreenenter"",""1"",""7853""
","
","","","-1","","","14","6118","3520","e","elianto","#f73b6a7A"," ","-1","0","0","[]","0","2","","","6118","48","2","3","lose","go","1"
"pit-trial","182","1524270","0.0-53.0","battery-v0.2","","""event"",""trial"",""time""
""fullscreenenter"",""1"",""7853""
""blur"",""178"",""1504076""
""focus"",""178"",""1504078""
""blur"",""178"",""1504611""
""focus"",""178"",""1504613""
","""event"",""trial"",""time""
""blur"",""178"",""1504076""
""blur"",""178"",""1504611""
","""event"",""trial"",""time""
""focus"",""178"",""1504078""
""focus"",""178"",""1504613""
","""event"",""trial"",""time""
""fullscreenenter"",""1"",""7853""
","
","","","-1","","","14","6118","3520","w","elianto","#f73b6a7A","-1","-1","1","0","[]","0","2","","","6118","49","3","4","lose","no-go","0"
"pit-trial","183","1529127","0.0-54.0","battery-v0.2","","""event"",""trial"",""time""
""fullscreenenter"",""1"",""7853""
""blur"",""178"",""1504076""
""focus"",""178"",""1504078""
""blur"",""178"",""1504611""
""focus"",""178"",""1504613""
","""event"",""trial"",""time""
""blur"",""178"",""1504076""
""blur"",""178"",""1504611""
","""event"",""trial"",""time""
""focus"",""178"",""1504078""
""focus"",""178"",""1504613""
","""event"",""trial"",""time""
""fullscreenenter"",""1"",""7853""
","
","","","-1","","","14","6118","3520","j","elianto","#f73b6a7A"," ","-1","0","-10","[]","0","2","","","6118","50","0","3","lose","go","0"
"pit-trial","184","1533984","0.0-55.0","battery-v0.2","","""event"",""trial"",""time""
""fullscreenenter"",""1"",""7853""
""blur"",""178"",""1504076""
""focus"",""178"",""1504078""
""blur"",""178"",""1504611""
""focus"",""178"",""1504613""
","""event"",""trial"",""time""
""blur"",""178"",""1504076""
""blur"",""178"",""1504611""
","""event"",""trial"",""time""
""focus"",""178"",""1504078""
""focus"",""178"",""1504613""
","""event"",""trial"",""time""
""fullscreenenter"",""1"",""7853""
","
","","","-1","","","14","6118","3520","e","elianto","#f73b6a7A"," ","-1","0","-10","[]","0","2","","","6118","51","2","3","lose","go","0"
"pit-trial","185","1538842","0.0-56.0","battery-v0.2","","""event"",""trial"",""time""
""fullscreenenter"",""1"",""7853""
""blur"",""178"",""1504076""
""focus"",""178"",""1504078""
""blur"",""178"",""1504611""
""focus"",""178"",""1504613""
","""event"",""trial"",""time""
""blur"",""178"",""1504076""
""blur"",""178"",""1504611""
","""event"",""trial"",""time""
""focus"",""178"",""1504078""
""focus"",""178"",""1504613""
","""event"",""trial"",""time""
""fullscreenenter"",""1"",""7853""
","
","","","-1","","","14","6118","3520","d","elianto","#3366ff99","-1","-1","1","+10","[]","0","2","","","6118","52","1","2","win","no-go","0"
"pit-trial","186","1543701","0.0-57.0","battery-v0.2","","""event"",""trial"",""time""
""fullscreenenter"",""1"",""7853""
""blur"",""178"",""1504076""
""focus"",""178"",""1504078""
""blur"",""178"",""1504611""
""focus"",""178"",""1504613""
","""event"",""trial"",""time""
""blur"",""178"",""1504076""
""blur"",""178"",""1504611""
","""event"",""trial"",""time""
""focus"",""178"",""1504078""
""focus"",""178"",""1504613""
","""event"",""trial"",""time""
""fullscreenenter"",""1"",""7853""
","
","","","-1","","","14","6118","3520","e","elianto","#f73b6a7A"," ","-1","0","-10","[]","0","2","","","6118","53","2","3","lose","go","0"
"pit-trial","187","1548557","0.0-58.0","battery-v0.2","","""event"",""trial"",""time""
""fullscreenenter"",""1"",""7853""
""blur"",""178"",""1504076""
""focus"",""178"",""1504078""
""blur"",""178"",""1504611""
""focus"",""178"",""1504613""
","""event"",""trial"",""time""
""blur"",""178"",""1504076""
""blur"",""178"",""1504611""
","""event"",""trial"",""time""
""focus"",""178"",""1504078""
""focus"",""178"",""1504613""
","""event"",""trial"",""time""
""fullscreenenter"",""1"",""7853""
","
","","","-1","","","14","6118","3520","w","elianto","#f73b6a7A","-1","-1","1","0","[]","0","2","","","6118","54","3","4","lose","no-go","0"
"pit-trial","188","1553414","0.0-59.0","battery-v0.2","","""event"",""trial"",""time""
""fullscreenenter"",""1"",""7853""
""blur"",""178"",""1504076""
""focus"",""178"",""1504078""
""blur"",""178"",""1504611""
""focus"",""178"",""1504613""
","""event"",""trial"",""time""
""blur"",""178"",""1504076""
""blur"",""178"",""1504611""
","""event"",""trial"",""time""
""focus"",""178"",""1504078""
""focus"",""178"",""1504613""
","""event"",""trial"",""time""
""fullscreenenter"",""1"",""7853""
","
","","","-1","","","14","6118","3520","j","elianto","#f73b6a7A"," ","-1","0","-10","[]","0","2","","","6118","55","0","3","lose","go","0"
"pit-trial","189","1558271","0.0-60.0","battery-v0.2","","""event"",""trial"",""time""
""fullscreenenter"",""1"",""7853""
""blur"",""178"",""1504076""
""focus"",""178"",""1504078""
""blur"",""178"",""1504611""
""focus"",""178"",""1504613""
","""event"",""trial"",""time""
""blur"",""178"",""1504076""
""blur"",""178"",""1504611""
","""event"",""trial"",""time""
""focus"",""178"",""1504078""
""focus"",""178"",""1504613""
","""event"",""trial"",""time""
""fullscreenenter"",""1"",""7853""
","
","","","-1","","","14","6118","3520","d","elianto","#3366ff99","-1","-1","1","+10","[]","0","2","","","6118","56","1","2","win","no-go","0"
"pit-trial","190","1563127","0.0-61.0","battery-v0.2","","""event"",""trial"",""time""
""fullscreenenter"",""1"",""7853""
""blur"",""178"",""1504076""
""focus"",""178"",""1504078""
""blur"",""178"",""1504611""
""focus"",""178"",""1504613""
","""event"",""trial"",""time""
""blur"",""178"",""1504076""
""blur"",""178"",""1504611""
","""event"",""trial"",""time""
""focus"",""178"",""1504078""
""focus"",""178"",""1504613""
","""event"",""trial"",""time""
""fullscreenenter"",""1"",""7853""
","
","","","-1","","","14","6118","3520","e","elianto","#f73b6a7A"," ","-1","0","-10","[]","0","2","","","6118","57","2","3","lose","go","0"
"pit-trial","191","1567984","0.0-62.0","battery-v0.2","","""event"",""trial"",""time""
""fullscreenenter"",""1"",""7853""
""blur"",""178"",""1504076""
""focus"",""178"",""1504078""
""blur"",""178"",""1504611""
""focus"",""178"",""1504613""
","""event"",""trial"",""time""
""blur"",""178"",""1504076""
""blur"",""178"",""1504611""
","""event"",""trial"",""time""
""focus"",""178"",""1504078""
""focus"",""178"",""1504613""
","""event"",""trial"",""time""
""fullscreenenter"",""1"",""7853""
","
","","","-1","","","14","6118","3520","w","elianto","#f73b6a7A","-1","-1","1","0","[]","0","2","","","6118","58","3","4","lose","no-go","0"
"pit-trial","192","1572840","0.0-63.0","battery-v0.2","","""event"",""trial"",""time""
""fullscreenenter"",""1"",""7853""
""blur"",""178"",""1504076""
""focus"",""178"",""1504078""
""blur"",""178"",""1504611""
""focus"",""178"",""1504613""
","""event"",""trial"",""time""
""blur"",""178"",""1504076""
""blur"",""178"",""1504611""
","""event"",""trial"",""time""
""focus"",""178"",""1504078""
""focus"",""178"",""1504613""
","""event"",""trial"",""time""
""fullscreenenter"",""1"",""7853""
","
","","","-1","","","14","6118","3520","j","elianto","#f73b6a7A"," ","-1","0","0","[]","0","2","","","6118","59","0","3","lose","go","1"
"pit-trial","193","1577697","0.0-64.0","battery-v0.2","","""event"",""trial"",""time""
""fullscreenenter"",""1"",""7853""
""blur"",""178"",""1504076""
""focus"",""178"",""1504078""
""blur"",""178"",""1504611""
""focus"",""178"",""1504613""
","""event"",""trial"",""time""
""blur"",""178"",""1504076""
""blur"",""178"",""1504611""
","""event"",""trial"",""time""
""focus"",""178"",""1504078""
""focus"",""178"",""1504613""
","""event"",""trial"",""time""
""fullscreenenter"",""1"",""7853""
","
","","","-1","","","14","6118","3520","s","elianto","#3366ff99"," ","-1","0","0","[]","0","2","","","6118","60","4","1","win","go","0"
"pit-trial","194","1582553","0.0-65.0","battery-v0.2","","""event"",""trial"",""time""
""fullscreenenter"",""1"",""7853""
""blur"",""178"",""1504076""
""focus"",""178"",""1504078""
""blur"",""178"",""1504611""
""focus"",""178"",""1504613""
","""event"",""trial"",""time""
""blur"",""178"",""1504076""
""blur"",""178"",""1504611""
","""event"",""trial"",""time""
""focus"",""178"",""1504078""
""focus"",""178"",""1504613""
","""event"",""trial"",""time""
""fullscreenenter"",""1"",""7853""
","
","","","-1","","","14","6118","3520","w","elianto","#f73b6a7A","-1","-1","1","0","[]","0","2","","","6118","61","3","4","lose","no-go","0"
"pit-trial","195","1587412","0.0-66.0","battery-v0.2","","""event"",""trial"",""time""
""fullscreenenter"",""1"",""7853""
""blur"",""178"",""1504076""
""focus"",""178"",""1504078""
""blur"",""178"",""1504611""
""focus"",""178"",""1504613""
","""event"",""trial"",""time""
""blur"",""178"",""1504076""
""blur"",""178"",""1504611""
","""event"",""trial"",""time""
""focus"",""178"",""1504078""
""focus"",""178"",""1504613""
","""event"",""trial"",""time""
""fullscreenenter"",""1"",""7853""
","
","","","-1","","","14","6118","3520","e","elianto","#f73b6a7A"," ","-1","0","-10","[]","0","2","","","6118","62","2","3","lose","go","0"
"pit-trial","196","1592269","0.0-67.0","battery-v0.2","","""event"",""trial"",""time""
""fullscreenenter"",""1"",""7853""
""blur"",""178"",""1504076""
""focus"",""178"",""1504078""
""blur"",""178"",""1504611""
""focus"",""178"",""1504613""
","""event"",""trial"",""time""
""blur"",""178"",""1504076""
""blur"",""178"",""1504611""
","""event"",""trial"",""time""
""focus"",""178"",""1504078""
""focus"",""178"",""1504613""
","""event"",""trial"",""time""
""fullscreenenter"",""1"",""7853""
","
","","","-1","","","14","6118","3520","s","elianto","#3366ff99"," ","-1","0","0","[]","0","2","","","6118","63","4","1","win","go","0"
"pit-trial","197","1597126","0.0-68.0","battery-v0.2","","""event"",""trial"",""time""
""fullscreenenter"",""1"",""7853""
""blur"",""178"",""1504076""
""focus"",""178"",""1504078""
""blur"",""178"",""1504611""
""focus"",""178"",""1504613""
","""event"",""trial"",""time""
""blur"",""178"",""1504076""
""blur"",""178"",""1504611""
","""event"",""trial"",""time""
""focus"",""178"",""1504078""
""focus"",""178"",""1504613""
","""event"",""trial"",""time""
""fullscreenenter"",""1"",""7853""
","
","","","-1","","","14","6118","3520","d","elianto","#3366ff99","-1","-1","1","+10","[]","0","2","","","6118","64","1","2","win","no-go","0"
"pit-trial","198","1601984","0.0-69.0","battery-v0.2","","""event"",""trial"",""time""
""fullscreenenter"",""1"",""7853""
""blur"",""178"",""1504076""
""focus"",""178"",""1504078""
""blur"",""178"",""1504611""
""focus"",""178"",""1504613""
","""event"",""trial"",""time""
""blur"",""178"",""1504076""
""blur"",""178"",""1504611""
","""event"",""trial"",""time""
""focus"",""178"",""1504078""
""focus"",""178"",""1504613""
","""event"",""trial"",""time""
""fullscreenenter"",""1"",""7853""
","
","","","-1","","","14","6118","3520","w","elianto","#f73b6a7A","-1","-1","1","-10","[]","0","2","","","6118","65","3","4","lose","no-go","1"
"pit-trial","199","1606840","0.0-70.0","battery-v0.2","","""event"",""trial"",""time""
""fullscreenenter"",""1"",""7853""
""blur"",""178"",""1504076""
""focus"",""178"",""1504078""
""blur"",""178"",""1504611""
""focus"",""178"",""1504613""
","""event"",""trial"",""time""
""blur"",""178"",""1504076""
""blur"",""178"",""1504611""
","""event"",""trial"",""time""
""focus"",""178"",""1504078""
""focus"",""178"",""1504613""
","""event"",""trial"",""time""
""fullscreenenter"",""1"",""7853""
","
","","","-1","","","14","6118","3520","p","elianto","#3366ff99","-1","-1","1","+10","[]","0","2","","","6118","66","5","2","win","no-go","0"
"pit-trial","200","1611697","0.0-71.0","battery-v0.2","","""event"",""trial"",""time""
""fullscreenenter"",""1"",""7853""
""blur"",""178"",""1504076""
""focus"",""178"",""1504078""
""blur"",""178"",""1504611""
""focus"",""178"",""1504613""
","""event"",""trial"",""time""
""blur"",""178"",""1504076""
""blur"",""178"",""1504611""
","""event"",""trial"",""time""
""focus"",""178"",""1504078""
""focus"",""178"",""1504613""
","""event"",""trial"",""time""
""fullscreenenter"",""1"",""7853""
","
","","","-1","","","14","6118","3520","d","elianto","#3366ff99","-1","-1","1","0","[]","0","2","","","6118","67","1","2","win","no-go","1"
"pit-trial","201","1616559","0.0-72.0","battery-v0.2","","""event"",""trial"",""time""
""fullscreenenter"",""1"",""7853""
""blur"",""178"",""1504076""
""focus"",""178"",""1504078""
""blur"",""178"",""1504611""
""focus"",""178"",""1504613""
","""event"",""trial"",""time""
""blur"",""178"",""1504076""
""blur"",""178"",""1504611""
","""event"",""trial"",""time""
""focus"",""178"",""1504078""
""focus"",""178"",""1504613""
","""event"",""trial"",""time""
""fullscreenenter"",""1"",""7853""
","
","","","-1","","","14","6118","3520","s","elianto","#3366ff99"," ","-1","0","0","[]","0","2","","","6118","68","4","1","win","go","0"
"pit-trial","202","1621419","0.0-73.0","battery-v0.2","","""event"",""trial"",""time""
""fullscreenenter"",""1"",""7853""
""blur"",""178"",""1504076""
""focus"",""178"",""1504078""
""blur"",""178"",""1504611""
""focus"",""178"",""1504613""
","""event"",""trial"",""time""
""blur"",""178"",""1504076""
""blur"",""178"",""1504611""
","""event"",""trial"",""time""
""focus"",""178"",""1504078""
""focus"",""178"",""1504613""
","""event"",""trial"",""time""
""fullscreenenter"",""1"",""7853""
","
","","","-1","","","14","6118","3520","p","elianto","#3366ff99","-1","-1","1","+10","[]","0","2","","","6118","69","5","2","win","no-go","0"
"pit-trial","203","1626277","0.0-74.0","battery-v0.2","","""event"",""trial"",""time""
""fullscreenenter"",""1"",""7853""
""blur"",""178"",""1504076""
""focus"",""178"",""1504078""
""blur"",""178"",""1504611""
""focus"",""178"",""1504613""
","""event"",""trial"",""time""
""blur"",""178"",""1504076""
""blur"",""178"",""1504611""
","""event"",""trial"",""time""
""focus"",""178"",""1504078""
""focus"",""178"",""1504613""
","""event"",""trial"",""time""
""fullscreenenter"",""1"",""7853""
","
","","","-1","","","14","6118","3520","d","elianto","#3366ff99","-1","-1","1","+10","[]","0","2","","","6118","70","1","2","win","no-go","0"
"pit-trial","204","1631133","0.0-75.0","battery-v0.2","","""event"",""trial"",""time""
""fullscreenenter"",""1"",""7853""
""blur"",""178"",""1504076""
""focus"",""178"",""1504078""
""blur"",""178"",""1504611""
""focus"",""178"",""1504613""
","""event"",""trial"",""time""
""blur"",""178"",""1504076""
""blur"",""178"",""1504611""
","""event"",""trial"",""time""
""focus"",""178"",""1504078""
""focus"",""178"",""1504613""
","""event"",""trial"",""time""
""fullscreenenter"",""1"",""7853""
","
","","","-1","","","14","6118","3520","e","elianto","#f73b6a7A"," ","-1","0","-10","[]","0","2","","","6118","71","2","3","lose","go","0"
"pit-trial","205","1635990","0.0-76.0","battery-v0.2","","""event"",""trial"",""time""
""fullscreenenter"",""1"",""7853""
""blur"",""178"",""1504076""
""focus"",""178"",""1504078""
""blur"",""178"",""1504611""
""focus"",""178"",""1504613""
","""event"",""trial"",""time""
""blur"",""178"",""1504076""
""blur"",""178"",""1504611""
","""event"",""trial"",""time""
""focus"",""178"",""1504078""
""focus"",""178"",""1504613""
","""event"",""trial"",""time""
""fullscreenenter"",""1"",""7853""
","
","","","-1","","","14","6118","3520","s","elianto","#3366ff99"," ","-1","0","+10","[]","0","2","","","6118","72","4","1","win","go","1"
"pit-trial","206","1640849","0.0-77.0","battery-v0.2","","""event"",""trial"",""time""
""fullscreenenter"",""1"",""7853""
""blur"",""178"",""1504076""
""focus"",""178"",""1504078""
""blur"",""178"",""1504611""
""focus"",""178"",""1504613""
","""event"",""trial"",""time""
""blur"",""178"",""1504076""
""blur"",""178"",""1504611""
","""event"",""trial"",""time""
""focus"",""178"",""1504078""
""focus"",""178"",""1504613""
","""event"",""trial"",""time""
""fullscreenenter"",""1"",""7853""
","
","","","-1","","","14","6118","3520","w","elianto","#f73b6a7A","-1","-1","1","0","[]","0","2","","","6118","73","3","4","lose","no-go","0"
"pit-trial","207","1645708","0.0-78.0","battery-v0.2","","""event"",""trial"",""time""
""fullscreenenter"",""1"",""7853""
""blur"",""178"",""1504076""
""focus"",""178"",""1504078""
""blur"",""178"",""1504611""
""focus"",""178"",""1504613""
","""event"",""trial"",""time""
""blur"",""178"",""1504076""
""blur"",""178"",""1504611""
","""event"",""trial"",""time""
""focus"",""178"",""1504078""
""focus"",""178"",""1504613""
","""event"",""trial"",""time""
""fullscreenenter"",""1"",""7853""
","
","","","-1","","","14","6118","3520","p","elianto","#3366ff99","-1","-1","1","+10","[]","0","2","","","6118","74","5","2","win","no-go","0"
"pit-trial","208","1650565","0.0-79.0","battery-v0.2","","""event"",""trial"",""time""
""fullscreenenter"",""1"",""7853""
""blur"",""178"",""1504076""
""focus"",""178"",""1504078""
""blur"",""178"",""1504611""
""focus"",""178"",""1504613""
","""event"",""trial"",""time""
""blur"",""178"",""1504076""
""blur"",""178"",""1504611""
","""event"",""trial"",""time""
""focus"",""178"",""1504078""
""focus"",""178"",""1504613""
","""event"",""trial"",""time""
""fullscreenenter"",""1"",""7853""
","
","","","-1","","","14","6118","3520","s","elianto","#3366ff99"," ","-1","0","0","[]","0","2","","","6118","75","4","1","win","go","0"
"pit-trial","209","1655422","0.0-80.0","battery-v0.2","","""event"",""trial"",""time""
""fullscreenenter"",""1"",""7853""
""blur"",""178"",""1504076""
""focus"",""178"",""1504078""
""blur"",""178"",""1504611""
""focus"",""178"",""1504613""
","""event"",""trial"",""time""
""blur"",""178"",""1504076""
""blur"",""178"",""1504611""
","""event"",""trial"",""time""
""focus"",""178"",""1504078""
""focus"",""178"",""1504613""
","""event"",""trial"",""time""
""fullscreenenter"",""1"",""7853""
","
","","","-1","","","14","6118","3520","d","elianto","#3366ff99","-1","-1","1","+10","[]","0","2","","","6118","76","1","2","win","no-go","0"
"pit-trial","210","1660281","0.0-81.0","battery-v0.2","","""event"",""trial"",""time""
""fullscreenenter"",""1"",""7853""
""blur"",""178"",""1504076""
""focus"",""178"",""1504078""
""blur"",""178"",""1504611""
""focus"",""178"",""1504613""
","""event"",""trial"",""time""
""blur"",""178"",""1504076""
""blur"",""178"",""1504611""
","""event"",""trial"",""time""
""focus"",""178"",""1504078""
""focus"",""178"",""1504613""
","""event"",""trial"",""time""
""fullscreenenter"",""1"",""7853""
","
","","","-1","","","14","6118","3520","w","elianto","#f73b6a7A","-1","-1","1","0","[]","0","2","","","6118","77","3","4","lose","no-go","0"
"pit-trial","211","1665140","0.0-82.0","battery-v0.2","","""event"",""trial"",""time""
""fullscreenenter"",""1"",""7853""
""blur"",""178"",""1504076""
""focus"",""178"",""1504078""
""blur"",""178"",""1504611""
""focus"",""178"",""1504613""
","""event"",""trial"",""time""
""blur"",""178"",""1504076""
""blur"",""178"",""1504611""
","""event"",""trial"",""time""
""focus"",""178"",""1504078""
""focus"",""178"",""1504613""
","""event"",""trial"",""time""
""fullscreenenter"",""1"",""7853""
","
","","","-1","","","14","6118","3520","s","elianto","#3366ff99"," ","-1","0","0","[]","0","2","","","6118","78","4","1","win","go","0"
"pit-trial","212","1669997","0.0-83.0","battery-v0.2","","""event"",""trial"",""time""
""fullscreenenter"",""1"",""7853""
""blur"",""178"",""1504076""
""focus"",""178"",""1504078""
""blur"",""178"",""1504611""
""focus"",""178"",""1504613""
","""event"",""trial"",""time""
""blur"",""178"",""1504076""
""blur"",""178"",""1504611""
","""event"",""trial"",""time""
""focus"",""178"",""1504078""
""focus"",""178"",""1504613""
","""event"",""trial"",""time""
""fullscreenenter"",""1"",""7853""
","
","","","-1","","","14","6118","3520","s","elianto","#3366ff99"," ","-1","0","0","[]","0","2","","","6118","79","4","1","win","go","0"
"pit-trial","213","1674854","0.0-84.0","battery-v0.2","","""event"",""trial"",""time""
""fullscreenenter"",""1"",""7853""
""blur"",""178"",""1504076""
""focus"",""178"",""1504078""
""blur"",""178"",""1504611""
""focus"",""178"",""1504613""
","""event"",""trial"",""time""
""blur"",""178"",""1504076""
""blur"",""178"",""1504611""
","""event"",""trial"",""time""
""focus"",""178"",""1504078""
""focus"",""178"",""1504613""
","""event"",""trial"",""time""
""fullscreenenter"",""1"",""7853""
","
","","","-1","","","14","6118","3520","p","elianto","#3366ff99","-1","-1","1","+10","[]","0","2","","","6118","80","5","2","win","no-go","0"
"pit-trial","214","1679710","0.0-85.0","battery-v0.2","","""event"",""trial"",""time""
""fullscreenenter"",""1"",""7853""
""blur"",""178"",""1504076""
""focus"",""178"",""1504078""
""blur"",""178"",""1504611""
""focus"",""178"",""1504613""
","""event"",""trial"",""time""
""blur"",""178"",""1504076""
""blur"",""178"",""1504611""
","""event"",""trial"",""time""
""focus"",""178"",""1504078""
""focus"",""178"",""1504613""
","""event"",""trial"",""time""
""fullscreenenter"",""1"",""7853""
","
","","","-1","","","14","6118","3520","s","elianto","#3366ff99"," ","-1","0","+10","[]","0","2","","","6118","81","4","1","win","go","1"
"pit-trial","215","1684567","0.0-86.0","battery-v0.2","","""event"",""trial"",""time""
""fullscreenenter"",""1"",""7853""
""blur"",""178"",""1504076""
""focus"",""178"",""1504078""
""blur"",""178"",""1504611""
""focus"",""178"",""1504613""
","""event"",""trial"",""time""
""blur"",""178"",""1504076""
""blur"",""178"",""1504611""
","""event"",""trial"",""time""
""focus"",""178"",""1504078""
""focus"",""178"",""1504613""
","""event"",""trial"",""time""
""fullscreenenter"",""1"",""7853""
","
","","","-1","","","14","6118","3520","a","elianto","#f73b6a7A","-1","-1","1","0","[]","0","2","","","6118","82","7","4","lose","no-go","0"
"pit-trial","216","1689425","0.0-87.0","battery-v0.2","","""event"",""trial"",""time""
""fullscreenenter"",""1"",""7853""
""blur"",""178"",""1504076""
""focus"",""178"",""1504078""
""blur"",""178"",""1504611""
""focus"",""178"",""1504613""
","""event"",""trial"",""time""
""blur"",""178"",""1504076""
""blur"",""178"",""1504611""
","""event"",""trial"",""time""
""focus"",""178"",""1504078""
""focus"",""178"",""1504613""
","""event"",""trial"",""time""
""fullscreenenter"",""1"",""7853""
","
","","","-1","","","14","6118","3520","p","elianto","#3366ff99","-1","-1","1","0","[]","0","2","","","6118","83","5","2","win","no-go","1"
"pit-trial","217","1694281","0.0-88.0","battery-v0.2","","""event"",""trial"",""time""
""fullscreenenter"",""1"",""7853""
""blur"",""178"",""1504076""
""focus"",""178"",""1504078""
""blur"",""178"",""1504611""
""focus"",""178"",""1504613""
","""event"",""trial"",""time""
""blur"",""178"",""1504076""
""blur"",""178"",""1504611""
","""event"",""trial"",""time""
""focus"",""178"",""1504078""
""focus"",""178"",""1504613""
","""event"",""trial"",""time""
""fullscreenenter"",""1"",""7853""
","
","","","-1","","","14","6118","3520","w","elianto","#f73b6a7A","-1","-1","1","0","[]","0","2","","","6118","84","3","4","lose","no-go","0"
"pit-trial","218","1699141","0.0-89.0","battery-v0.2","","""event"",""trial"",""time""
""fullscreenenter"",""1"",""7853""
""blur"",""178"",""1504076""
""focus"",""178"",""1504078""
""blur"",""178"",""1504611""
""focus"",""178"",""1504613""
","""event"",""trial"",""time""
""blur"",""178"",""1504076""
""blur"",""178"",""1504611""
","""event"",""trial"",""time""
""focus"",""178"",""1504078""
""focus"",""178"",""1504613""
","""event"",""trial"",""time""
""fullscreenenter"",""1"",""7853""
","
","","","-1","","","14","6118","3520","p","elianto","#3366ff99","-1","-1","1","+10","[]","0","2","","","6118","85","5","2","win","no-go","0"
"pit-trial","219","1703998","0.0-90.0","battery-v0.2","","""event"",""trial"",""time""
""fullscreenenter"",""1"",""7853""
""blur"",""178"",""1504076""
""focus"",""178"",""1504078""
""blur"",""178"",""1504611""
""focus"",""178"",""1504613""
","""event"",""trial"",""time""
""blur"",""178"",""1504076""
""blur"",""178"",""1504611""
","""event"",""trial"",""time""
""focus"",""178"",""1504078""
""focus"",""178"",""1504613""
","""event"",""trial"",""time""
""fullscreenenter"",""1"",""7853""
","
","","","-1","","","14","6118","3520","s","elianto","#3366ff99"," ","-1","0","0","[]","0","2","","","6118","86","4","1","win","go","0"
"pit-trial","220","1708854","0.0-91.0","battery-v0.2","","""event"",""trial"",""time""
""fullscreenenter"",""1"",""7853""
""blur"",""178"",""1504076""
""focus"",""178"",""1504078""
""blur"",""178"",""1504611""
""focus"",""178"",""1504613""
","""event"",""trial"",""time""
""blur"",""178"",""1504076""
""blur"",""178"",""1504611""
","""event"",""trial"",""time""
""focus"",""178"",""1504078""
""focus"",""178"",""1504613""
","""event"",""trial"",""time""
""fullscreenenter"",""1"",""7853""
","
","","","-1","","","14","6118","3520","a","elianto","#f73b6a7A","-1","-1","1","-10","[]","0","2","","","6118","87","7","4","lose","no-go","1"
"pit-trial","221","1713711","0.0-92.0","battery-v0.2","","""event"",""trial"",""time""
""fullscreenenter"",""1"",""7853""
""blur"",""178"",""1504076""
""focus"",""178"",""1504078""
""blur"",""178"",""1504611""
""focus"",""178"",""1504613""
","""event"",""trial"",""time""
""blur"",""178"",""1504076""
""blur"",""178"",""1504611""
","""event"",""trial"",""time""
""focus"",""178"",""1504078""
""focus"",""178"",""1504613""
","""event"",""trial"",""time""
""fullscreenenter"",""1"",""7853""
","
","","","-1","","","14","6118","3520","g","elianto","#f73b6a7A"," ","-1","0","0","[]","0","2","","","6118","88","6","3","lose","go","1"
"pit-trial","222","1718569","0.0-93.0","battery-v0.2","","""event"",""trial"",""time""
""fullscreenenter"",""1"",""7853""
""blur"",""178"",""1504076""
""focus"",""178"",""1504078""
""blur"",""178"",""1504611""
""focus"",""178"",""1504613""
","""event"",""trial"",""time""
""blur"",""178"",""1504076""
""blur"",""178"",""1504611""
","""event"",""trial"",""time""
""focus"",""178"",""1504078""
""focus"",""178"",""1504613""
","""event"",""trial"",""time""
""fullscreenenter"",""1"",""7853""
","
","","","-1","","","14","6118","3520","s","elianto","#3366ff99"," ","-1","0","0","[]","0","2","","","6118","89","4","1","win","go","0"
"pit-trial","223","1723427","0.0-94.0","battery-v0.2","","""event"",""trial"",""time""
""fullscreenenter"",""1"",""7853""
""blur"",""178"",""1504076""
""focus"",""178"",""1504078""
""blur"",""178"",""1504611""
""focus"",""178"",""1504613""
","""event"",""trial"",""time""
""blur"",""178"",""1504076""
""blur"",""178"",""1504611""
","""event"",""trial"",""time""
""focus"",""178"",""1504078""
""focus"",""178"",""1504613""
","""event"",""trial"",""time""
""fullscreenenter"",""1"",""7853""
","
","","","-1","","","14","6118","3520","p","elianto","#3366ff99","-1","-1","1","+10","[]","0","2","","","6118","90","5","2","win","no-go","0"
"pit-trial","224","1728284","0.0-95.0","battery-v0.2","","""event"",""trial"",""time""
""fullscreenenter"",""1"",""7853""
""blur"",""178"",""1504076""
""focus"",""178"",""1504078""
""blur"",""178"",""1504611""
""focus"",""178"",""1504613""
","""event"",""trial"",""time""
""blur"",""178"",""1504076""
""blur"",""178"",""1504611""
","""event"",""trial"",""time""
""focus"",""178"",""1504078""
""focus"",""178"",""1504613""
","""event"",""trial"",""time""
""fullscreenenter"",""1"",""7853""
","
","","","-1","","","14","6118","3520","a","elianto","#f73b6a7A","-1","-1","1","0","[]","0","2","","","6118","91","7","4","lose","no-go","0"
"pit-trial","225","1733140","0.0-96.0","battery-v0.2","","""event"",""trial"",""time""
""fullscreenenter"",""1"",""7853""
""blur"",""178"",""1504076""
""focus"",""178"",""1504078""
""blur"",""178"",""1504611""
""focus"",""178"",""1504613""
","""event"",""trial"",""time""
""blur"",""178"",""1504076""
""blur"",""178"",""1504611""
","""event"",""trial"",""time""
""focus"",""178"",""1504078""
""focus"",""178"",""1504613""
","""event"",""trial"",""time""
""fullscreenenter"",""1"",""7853""
","
","","","-1","","","14","6118","3520","g","elianto","#f73b6a7A"," ","-1","0","-10","[]","0","2","","","6118","92","6","3","lose","go","0"
"pit-trial","226","1737995","0.0-97.0","battery-v0.2","","""event"",""trial"",""time""
""fullscreenenter"",""1"",""7853""
""blur"",""178"",""1504076""
""focus"",""178"",""1504078""
""blur"",""178"",""1504611""
""focus"",""178"",""1504613""
","""event"",""trial"",""time""
""blur"",""178"",""1504076""
""blur"",""178"",""1504611""
","""event"",""trial"",""time""
""focus"",""178"",""1504078""
""focus"",""178"",""1504613""
","""event"",""trial"",""time""
""fullscreenenter"",""1"",""7853""
","
","","","-1","","","14","6118","3520","l","elianto","#3366ff99"," ","-1","0","0","[]","0","2","","","6118","93","8","1","win","go","0"
"pit-trial","227","1742849","0.0-98.0","battery-v0.2","","""event"",""trial"",""time""
""fullscreenenter"",""1"",""7853""
""blur"",""178"",""1504076""
""focus"",""178"",""1504078""
""blur"",""178"",""1504611""