"trial_type","trial_index","time_elapsed","internal_node_id","task_version","subject_id","interactions","blur_events","focus_events","fullscreenenter_events","fullscreenexit_events","success","view_history","rt","responses","num_errors","age","subject","participantId","rune","rune_set","hex","correct","choice","accuracy","outcome","keys","total_keys","block","practice","value","sub","trial","stimulus","robot","valence","action","sham"
"pavlovia","0","9","0.0-0.0","battery-v0.2","","""event"",""trial"",""time""
""fullscreenenter"",""1"",""4221""
","
","
","""event"",""trial"",""time""
""fullscreenenter"",""1"",""4221""
","
","","","","","","","","","","","","","","","","","","","","","","","","","","",""
"fullscreen","1","5172","0.0-1.0","battery-v0.2","","""event"",""trial"",""time""
""fullscreenenter"",""1"",""4221""
","
","
","""event"",""trial"",""time""
""fullscreenenter"",""1"",""4221""
","
","true","","","","","","","","","","","","","","","","","","","","","","","","","",""
"pit-instructions","2","10635","0.0-2.0-0.0","battery-v0.2","","""event"",""trial"",""time""
""fullscreenenter"",""1"",""4221""
","
","
","""event"",""trial"",""time""
""fullscreenenter"",""1"",""4221""
","
","","[{""page_index"":0,""viewing_time"":5460.200000047684}]","5460.600000023842","","","","","","","","","","","","","","","","","","","","","","","",""
"pit-comprehension","3","13944","0.0-2.0-1.0-0.0","battery-v0.2","","""event"",""trial"",""time""
""fullscreenenter"",""1"",""4221""
","
","
","""event"",""trial"",""time""
""fullscreenenter"",""1"",""4221""
","
","","","3306.100000023842","[""shark""]","0","24","20692","7836","","","","","","","","","","","","","","","","","","",""
"pit-instructions","4","15187","0.0-2.0-1.0-1.0","battery-v0.2","","""event"",""trial"",""time""
""fullscreenenter"",""1"",""4221""
","
","
","""event"",""trial"",""time""
""fullscreenenter"",""1"",""4221""
","
","","[{""page_index"":0,""viewing_time"":1229.4000000953674}]","1229.7000000476837","","","","","","","","","","","","","","","","","","","","","","","",""
"pit-comprehension","5","17686","0.0-2.0-2.0-0.0","battery-v0.2","","""event"",""trial"",""time""
""fullscreenenter"",""1"",""4221""
","
","
","""event"",""trial"",""time""
""fullscreenenter"",""1"",""4221""
","
","","","2495.2999999523163","[""tiger""]","0","24","20692","7836","","","","","","","","","","","","","","","","","","",""
"pit-instructions","6","18821","0.0-2.0-2.0-1.0","battery-v0.2","","""event"",""trial"",""time""
""fullscreenenter"",""1"",""4221""
","
","
","""event"",""trial"",""time""
""fullscreenenter"",""1"",""4221""
","
","","[{""page_index"":0,""viewing_time"":1133.6000000238419}]","1133.9000000953674","","","","","","","","","","","","","","","","","","","","","","","",""
"pit-instructions","7","111978","0.0-2.0-3.0","battery-v0.2","","""event"",""trial"",""time""
""fullscreenenter"",""1"",""4221""
","
","
","""event"",""trial"",""time""
""fullscreenenter"",""1"",""4221""
","
","","[{""page_index"":0,""viewing_time"":7614.700000047684},{""page_index"":1,""viewing_time"":5649.299999952316},{""page_index"":2,""viewing_time"":6177.700000047684},{""page_index"":3,""viewing_time"":5266.699999928474},{""page_index"":4,""viewing_time"":5786},{""page_index"":5,""viewing_time"":5367.600000023842},{""page_index"":6,""viewing_time"":7179.700000047684},{""page_index"":7,""viewing_time"":6974.299999952316},{""page_index"":8,""viewing_time"":6073.799999952316},{""page_index"":9,""viewing_time"":8386.100000023842},{""page_index"":10,""viewing_time"":7183.5},{""page_index"":11,""viewing_time"":7628.300000071526},{""page_index"":12,""viewing_time"":6802.199999928474},{""page_index"":13,""viewing_time"":7065.100000023842}]","93155.39999997616","","","","","","","","","","","","","","","","","","","","","","","",""
"pit-trial","8","115357","0.0-2.0-4.0-0.0","battery-v0.2","","""event"",""trial"",""time""
""fullscreenenter"",""1"",""4221""
","
","
","""event"",""trial"",""time""
""fullscreenenter"",""1"",""4221""
","
","","","524.7999999523163","","","24","20692","7836","&#9784;","elianto","#FFFFF080"," "," ","1","&#10004","[1375.8999999761581]","1","0","0","","","","","","","",""
"pit-trial","9","118721","0.0-2.0-4.1-0.1","battery-v0.2","","""event"",""trial"",""time""
""fullscreenenter"",""1"",""4221""
","
","
","""event"",""trial"",""time""
""fullscreenenter"",""1"",""4221""
","
","","","511.89999997615814","","","24","20692","7836","&#9784;","elianto","#FFFFF080"," "," ","1","&#10004","[1362.8999999761581]","1","0","0","","","","","","","",""
"pit-trial","10","122135","0.0-2.0-4.2-0.2","battery-v0.2","","""event"",""trial"",""time""
""fullscreenenter"",""1"",""4221""
","
","
","""event"",""trial"",""time""
""fullscreenenter"",""1"",""4221""
","
","","","560.7000000476837","","","24","20692","7836","&#9784;","elianto","#FFFFF080"," "," ","1","&#10004","[1411.7000000476837]","1","0","0","","","","","","","",""
"pit-trial","11","125527","0.0-2.0-4.3-0.3","battery-v0.2","","""event"",""trial"",""time""
""fullscreenenter"",""1"",""4221""
","
","
","""event"",""trial"",""time""
""fullscreenenter"",""1"",""4221""
","
","","","539","","","24","20692","7836","&#9784;","elianto","#FFFFF080"," "," ","1","&#10004","[1390]","1","0","0","","","","","","","",""
"pit-trial","12","128866","0.0-2.0-4.4-0.4","battery-v0.2","","""event"",""trial"",""time""
""fullscreenenter"",""1"",""4221""
","
","
","""event"",""trial"",""time""
""fullscreenenter"",""1"",""4221""
","
","","","484.89999997615814","","","24","20692","7836","&#9784;","elianto","#FFFFF080"," "," ","1","&#10004","[1336.6000000238419]","1","0","0","","","","","","","",""
"pit-instructions","13","151472","0.0-2.0-5.0","battery-v0.2","","""event"",""trial"",""time""
""fullscreenenter"",""1"",""4221""
","
","
","""event"",""trial"",""time""
""fullscreenenter"",""1"",""4221""
","
","","[{""page_index"":0,""viewing_time"":5370.599999904633},{""page_index"":1,""viewing_time"":6504.100000023842},{""page_index"":2,""viewing_time"":5090},{""page_index"":3,""viewing_time"":5638.100000023842}]","22603.199999928474","","","","","","","","","","","","","","","","","","","","","","","",""
"pit-trial","14","156324","0.0-2.0-6.0-0.0","battery-v0.2","","""event"",""trial"",""time""
""fullscreenenter"",""1"",""4221""
","
","
","""event"",""trial"",""time""
""fullscreenenter"",""1"",""4221""
","
","","","-1","","","24","20692","7836","&#9854;","elianto","#FFFFF080","-1","-1","1","&#10004","[]","0","0","1","","","","","","","",""
"pit-trial","15","161177","0.0-2.0-6.1-0.1","battery-v0.2","","""event"",""trial"",""time""
""fullscreenenter"",""1"",""4221""
","
","
","""event"",""trial"",""time""
""fullscreenenter"",""1"",""4221""
","
","","","-1","","","24","20692","7836","&#9854;","elianto","#FFFFF080","-1","-1","1","&#10004","[]","0","0","1","","","","","","","",""
"pit-trial","16","166030","0.0-2.0-6.2-0.2","battery-v0.2","","""event"",""trial"",""time""
""fullscreenenter"",""1"",""4221""
","
","
","""event"",""trial"",""time""
""fullscreenenter"",""1"",""4221""
","
","","","-1","","","24","20692","7836","&#9854;","elianto","#FFFFF080","-1","-1","1","&#10004","[]","0","0","1","","","","","","","",""
"pit-trial","17","170883","0.0-2.0-6.3-0.3","battery-v0.2","","""event"",""trial"",""time""
""fullscreenenter"",""1"",""4221""
","
","
","""event"",""trial"",""time""
""fullscreenenter"",""1"",""4221""
","
","","","-1","","","24","20692","7836","&#9854;","elianto","#FFFFF080","-1","-1","1","&#10004","[]","0","0","1","","","","","","","",""
"pit-trial","18","175736","0.0-2.0-6.4-0.4","battery-v0.2","","""event"",""trial"",""time""
""fullscreenenter"",""1"",""4221""
","
","
","""event"",""trial"",""time""
""fullscreenenter"",""1"",""4221""
","
","","","-1","","","24","20692","7836","&#9854;","elianto","#FFFFF080","-1","-1","1","&#10004","[]","0","0","1","","","","","","","",""
"pit-instructions","19","290833","0.0-2.0-7.0","battery-v0.2","","""event"",""trial"",""time""
""fullscreenenter"",""1"",""4221""
","
","
","""event"",""trial"",""time""
""fullscreenenter"",""1"",""4221""
","
","","[{""page_index"":0,""viewing_time"":6385.300000071526},{""page_index"":1,""viewing_time"":7290.199999928474},{""page_index"":2,""viewing_time"":6228.200000047684},{""page_index"":3,""viewing_time"":6873.899999976158},{""page_index"":4,""viewing_time"":6308.5},{""page_index"":5,""viewing_time"":5665.600000023842},{""page_index"":6,""viewing_time"":4471.600000023842},{""page_index"":7,""viewing_time"":7694.399999976158},{""page_index"":8,""viewing_time"":6395.799999952316},{""page_index"":9,""viewing_time"":5848.100000023842},{""page_index"":10,""viewing_time"":6784.200000047684},{""page_index"":11,""viewing_time"":4489.799999952316},{""page_index"":12,""viewing_time"":6802},{""page_index"":13,""viewing_time"":7044.100000023842},{""page_index"":14,""viewing_time"":7103.899999976158},{""page_index"":15,""viewing_time"":6298.100000023842},{""page_index"":16,""viewing_time"":6257.899999976158},{""page_index"":17,""viewing_time"":7153.800000071526}]","115095.80000007153","","","","","","","","","","","","","","","","","","","","","","","",""
"pit-trial","20","294316","0.0-2.0-8.0-0.0","battery-v0.2","","""event"",""trial"",""time""
""fullscreenenter"",""1"",""4221""
","
","
","""event"",""trial"",""time""
""fullscreenenter"",""1"",""4221""
","
","","","631.3999999761581","","","24","20692","7836","&#9776;","elianto","#3366ff99"," "," ","1","+10","[1481.8999999761581]","1","0","1","","","","","","","",""
"pit-trial","21","297595","0.0-2.0-8.0-1.0","battery-v0.2","","""event"",""trial"",""time""
""fullscreenenter"",""1"",""4221""
","
","
","""event"",""trial"",""time""
""fullscreenenter"",""1"",""4221""
","
","","","426.5","","","24","20692","7836","&#9776;","elianto","#3366ff99"," "," ","1","+10","[1276.8000000715256]","1","0","1","","","","","","","",""
"pit-trial","22","300892","0.0-2.0-8.0-2.0","battery-v0.2","","""event"",""trial"",""time""
""fullscreenenter"",""1"",""4221""
","
","
","""event"",""trial"",""time""
""fullscreenenter"",""1"",""4221""
","
","","","444.39999997615814","","","24","20692","7836","&#9776;","elianto","#3366ff99"," "," ","1","+10","[1294.8999999761581]","1","0","1","","","","","","","",""
"pit-trial","23","304209","0.0-2.0-8.0-3.0","battery-v0.2","","""event"",""trial"",""time""
""fullscreenenter"",""1"",""4221""
","
","
","""event"",""trial"",""time""
""fullscreenenter"",""1"",""4221""
","
","","","463.5","","","24","20692","7836","&#9776;","elianto","#3366ff99"," "," ","1","0","[1314]","1","0","1","","","","","","","",""
"pit-trial","24","307479","0.0-2.0-8.0-4.0","battery-v0.2","","""event"",""trial"",""time""
""fullscreenenter"",""1"",""4221""
","
","
","""event"",""trial"",""time""
""fullscreenenter"",""1"",""4221""
","
","","","417.5","","","24","20692","7836","&#9776;","elianto","#3366ff99"," "," ","1","+10","[1268.1000000238419]","1","0","1","","","","","","","",""
"pit-trial","25","310722","0.0-2.0-8.1-0.1","battery-v0.2","","""event"",""trial"",""time""
""fullscreenenter"",""1"",""4221""
","
","
","""event"",""trial"",""time""
""fullscreenenter"",""1"",""4221""
","
","","","389.1999999284744","","","24","20692","7836","&#9776;","elianto","#3366ff99"," "," ","1","+10","[1240.1999999284744]","1","0","1","","","","","","","",""
"pit-trial","26","313959","0.0-2.0-8.1-1.1","battery-v0.2","","""event"",""trial"",""time""
""fullscreenenter"",""1"",""4221""
","
","
","""event"",""trial"",""time""
""fullscreenenter"",""1"",""4221""
","
","","","385.6999999284744","","","24","20692","7836","&#9776;","elianto","#3366ff99"," "," ","1","+10","[1235.7999999523163]","1","0","1","","","","","","","",""
"pit-trial","27","317251","0.0-2.0-8.1-2.1","battery-v0.2","","""event"",""trial"",""time""
""fullscreenenter"",""1"",""4221""
","
","
","""event"",""trial"",""time""
""fullscreenenter"",""1"",""4221""
","
","","","440.10000002384186","","","24","20692","7836","&#9776;","elianto","#3366ff99"," "," ","1","+10","[1290.8999999761581]","1","0","1","","","","","","","",""
"pit-trial","28","320466","0.0-2.0-8.1-3.1","battery-v0.2","","""event"",""trial"",""time""
""fullscreenenter"",""1"",""4221""
","
","
","""event"",""trial"",""time""
""fullscreenenter"",""1"",""4221""
","
","","","361.7999999523163","","","24","20692","7836","&#9776;","elianto","#3366ff99"," "," ","1","0","[1212.2000000476837]","1","0","1","","","","","","","",""
"pit-trial","29","323673","0.0-2.0-8.1-4.1","battery-v0.2","","""event"",""trial"",""time""
""fullscreenenter"",""1"",""4221""
","
","
","""event"",""trial"",""time""
""fullscreenenter"",""1"",""4221""
","
","","","354.8000000715256","","","24","20692","7836","&#9776;","elianto","#3366ff99"," "," ","1","+10","[1205]","1","0","1","","","","","","","",""
"pit-trial","30","326891","0.0-2.0-8.2-0.2","battery-v0.2","","""event"",""trial"",""time""
""fullscreenenter"",""1"",""4221""
","
","
","""event"",""trial"",""time""
""fullscreenenter"",""1"",""4221""
","
","","","363.10000002384186","","","24","20692","7836","&#9776;","elianto","#3366ff99"," "," ","1","+10","[1214.7999999523163]","1","0","1","","","","","","","",""
"pit-trial","31","330102","0.0-2.0-8.2-1.2","battery-v0.2","","""event"",""trial"",""time""
""fullscreenenter"",""1"",""4221""
","
","
","""event"",""trial"",""time""
""fullscreenenter"",""1"",""4221""
","
","","","359.2000000476837","","","24","20692","7836","&#9776;","elianto","#3366ff99"," "," ","1","+10","[1209.7000000476837]","1","0","1","","","","","","","",""
"pit-trial","32","333365","0.0-2.0-8.2-2.2","battery-v0.2","","""event"",""trial"",""time""
""fullscreenenter"",""1"",""4221""
","
","
","""event"",""trial"",""time""
""fullscreenenter"",""1"",""4221""
","
","","","409.2000000476837","","","24","20692","7836","&#9776;","elianto","#3366ff99"," "," ","1","+10","[1260.6000000238419]","1","0","1","","","","","","","",""
"pit-trial","33","336592","0.0-2.0-8.2-3.2","battery-v0.2","","""event"",""trial"",""time""
""fullscreenenter"",""1"",""4221""
","
","
","""event"",""trial"",""time""
""fullscreenenter"",""1"",""4221""
","
","","","376","","","24","20692","7836","&#9776;","elianto","#3366ff99"," "," ","1","0","[1226.3999999761581]","1","0","1","","","","","","","",""
"pit-trial","34","339852","0.0-2.0-8.2-4.2","battery-v0.2","","""event"",""trial"",""time""
""fullscreenenter"",""1"",""4221""
","
","
","""event"",""trial"",""time""
""fullscreenenter"",""1"",""4221""
","
","","","407.1999999284744","","","24","20692","7836","&#9776;","elianto","#3366ff99"," "," ","1","+10","[1258.2999999523163]","1","0","1","","","","","","","",""
"call-function","35","339853","0.0-2.0-9.0","battery-v0.2","","""event"",""trial"",""time""
""fullscreenenter"",""1"",""4221""
","
","
","""event"",""trial"",""time""
""fullscreenenter"",""1"",""4221""
","
","","","","","","","","","","","","","","","","","","","","","","","","","","",""
"pit-instructions","36","380509","0.0-2.0-10.0","battery-v0.2","","""event"",""trial"",""time""
""fullscreenenter"",""1"",""4221""
","
","
","""event"",""trial"",""time""
""fullscreenenter"",""1"",""4221""
","
","","[{""page_index"":0,""viewing_time"":6561.299999952316},{""page_index"":1,""viewing_time"":6812},{""page_index"":2,""viewing_time"":10794.100000023842},{""page_index"":3,""viewing_time"":9090.100000023842},{""page_index"":4,""viewing_time"":7397.899999976158}]","40655.700000047684","","","","","","","","","","","","","","","","","","","","","","","",""
"pit-trial","37","385364","0.0-2.0-11.0-0.0","battery-v0.2","","""event"",""trial"",""time""
""fullscreenenter"",""1"",""4221""
","
","
","""event"",""trial"",""time""
""fullscreenenter"",""1"",""4221""
","
","","","-1","","","24","20692","7836","&#9761;","elianto","#3366ff99","-1","-1","1","+10","[]","0","0","2","","","","","","","",""
"pit-trial","38","390216","0.0-2.0-11.0-1.0","battery-v0.2","","""event"",""trial"",""time""
""fullscreenenter"",""1"",""4221""
","
","
","""event"",""trial"",""time""
""fullscreenenter"",""1"",""4221""
","
","","","-1","","","24","20692","7836","&#9761;","elianto","#3366ff99","-1","-1","1","+10","[]","0","0","2","","","","","","","",""
"pit-trial","39","395069","0.0-2.0-11.0-2.0","battery-v0.2","","""event"",""trial"",""time""
""fullscreenenter"",""1"",""4221""
","
","
","""event"",""trial"",""time""
""fullscreenenter"",""1"",""4221""
","
","","","-1","","","24","20692","7836","&#9761;","elianto","#3366ff99","-1","-1","1","+10","[]","0","0","2","","","","","","","",""
"pit-trial","40","399921","0.0-2.0-11.0-3.0","battery-v0.2","","""event"",""trial"",""time""
""fullscreenenter"",""1"",""4221""
","
","
","""event"",""trial"",""time""
""fullscreenenter"",""1"",""4221""
","
","","","-1","","","24","20692","7836","&#9761;","elianto","#3366ff99","-1","-1","1","0","[]","0","0","2","","","","","","","",""
"pit-trial","41","404774","0.0-2.0-11.0-4.0","battery-v0.2","","""event"",""trial"",""time""
""fullscreenenter"",""1"",""4221""
","
","
","""event"",""trial"",""time""
""fullscreenenter"",""1"",""4221""
","
","","","-1","","","24","20692","7836","&#9761;","elianto","#3366ff99","-1","-1","1","+10","[]","0","0","2","","","","","","","",""
"pit-trial","42","409626","0.0-2.0-11.1-0.1","battery-v0.2","","""event"",""trial"",""time""
""fullscreenenter"",""1"",""4221""
","
","
","""event"",""trial"",""time""
""fullscreenenter"",""1"",""4221""
","
","","","-1","","","24","20692","7836","&#9761;","elianto","#3366ff99","-1","-1","1","+10","[]","0","0","2","","","","","","","",""
"pit-trial","43","414479","0.0-2.0-11.1-1.1","battery-v0.2","","""event"",""trial"",""time""
""fullscreenenter"",""1"",""4221""
","
","
","""event"",""trial"",""time""
""fullscreenenter"",""1"",""4221""
","
","","","-1","","","24","20692","7836","&#9761;","elianto","#3366ff99","-1","-1","1","+10","[]","0","0","2","","","","","","","",""
"pit-trial","44","419331","0.0-2.0-11.1-2.1","battery-v0.2","","""event"",""trial"",""time""
""fullscreenenter"",""1"",""4221""
","
","
","""event"",""trial"",""time""
""fullscreenenter"",""1"",""4221""
","
","","","-1","","","24","20692","7836","&#9761;","elianto","#3366ff99","-1","-1","1","+10","[]","0","0","2","","","","","","","",""
"pit-trial","45","424184","0.0-2.0-11.1-3.1","battery-v0.2","","""event"",""trial"",""time""
""fullscreenenter"",""1"",""4221""
","
","
","""event"",""trial"",""time""
""fullscreenenter"",""1"",""4221""
","
","","","-1","","","24","20692","7836","&#9761;","elianto","#3366ff99","-1","-1","1","0","[]","0","0","2","","","","","","","",""
"pit-trial","46","429036","0.0-2.0-11.1-4.1","battery-v0.2","","""event"",""trial"",""time""
""fullscreenenter"",""1"",""4221""
","
","
","""event"",""trial"",""time""
""fullscreenenter"",""1"",""4221""
","
","","","-1","","","24","20692","7836","&#9761;","elianto","#3366ff99","-1","-1","1","+10","[]","0","0","2","","","","","","","",""
"pit-trial","47","433888","0.0-2.0-11.2-0.2","battery-v0.2","","""event"",""trial"",""time""
""fullscreenenter"",""1"",""4221""
","
","
","""event"",""trial"",""time""
""fullscreenenter"",""1"",""4221""
","
","","","-1","","","24","20692","7836","&#9761;","elianto","#3366ff99","-1","-1","1","+10","[]","0","0","2","","","","","","","",""
"pit-trial","48","438740","0.0-2.0-11.2-1.2","battery-v0.2","","""event"",""trial"",""time""
""fullscreenenter"",""1"",""4221""
","
","
","""event"",""trial"",""time""
""fullscreenenter"",""1"",""4221""
","
","","","-1","","","24","20692","7836","&#9761;","elianto","#3366ff99","-1","-1","1","+10","[]","0","0","2","","","","","","","",""
"pit-trial","49","443591","0.0-2.0-11.2-2.2","battery-v0.2","","""event"",""trial"",""time""
""fullscreenenter"",""1"",""4221""
","
","
","""event"",""trial"",""time""
""fullscreenenter"",""1"",""4221""
","
","","","-1","","","24","20692","7836","&#9761;","elianto","#3366ff99","-1","-1","1","+10","[]","0","0","2","","","","","","","",""
"pit-trial","50","448443","0.0-2.0-11.2-3.2","battery-v0.2","","""event"",""trial"",""time""
""fullscreenenter"",""1"",""4221""
","
","
","""event"",""trial"",""time""
""fullscreenenter"",""1"",""4221""
","
","","","-1","","","24","20692","7836","&#9761;","elianto","#3366ff99","-1","-1","1","0","[]","0","0","2","","","","","","","",""
"pit-trial","51","453295","0.0-2.0-11.2-4.2","battery-v0.2","","""event"",""trial"",""time""
""fullscreenenter"",""1"",""4221""
","
","
","""event"",""trial"",""time""
""fullscreenenter"",""1"",""4221""
","
","","","-1","","","24","20692","7836","&#9761;","elianto","#3366ff99","-1","-1","1","+10","[]","0","0","2","","","","","","","",""
"pit-trial","52","458147","0.0-2.0-11.3-0.3","battery-v0.2","","""event"",""trial"",""time""
""fullscreenenter"",""1"",""4221""
","
","
","""event"",""trial"",""time""
""fullscreenenter"",""1"",""4221""
","
","","","-1","","","24","20692","7836","&#9761;","elianto","#3366ff99","-1","-1","1","+10","[]","0","0","2","","","","","","","",""
"pit-trial","53","462998","0.0-2.0-11.3-1.3","battery-v0.2","","""event"",""trial"",""time""
""fullscreenenter"",""1"",""4221""
","
","
","""event"",""trial"",""time""
""fullscreenenter"",""1"",""4221""
","
","","","-1","","","24","20692","7836","&#9761;","elianto","#3366ff99","-1","-1","1","+10","[]","0","0","2","","","","","","","",""
"pit-trial","54","467850","0.0-2.0-11.3-2.3","battery-v0.2","","""event"",""trial"",""time""
""fullscreenenter"",""1"",""4221""
","
","
","""event"",""trial"",""time""
""fullscreenenter"",""1"",""4221""
","
","","","-1","","","24","20692","7836","&#9761;","elianto","#3366ff99","-1","-1","1","+10","[]","0","0","2","","","","","","","",""
"pit-trial","55","472703","0.0-2.0-11.3-3.3","battery-v0.2","","""event"",""trial"",""time""
""fullscreenenter"",""1"",""4221""
","
","
","""event"",""trial"",""time""
""fullscreenenter"",""1"",""4221""
","
","","","-1","","","24","20692","7836","&#9761;","elianto","#3366ff99","-1","-1","1","0","[]","0","0","2","","","","","","","",""
"pit-trial","56","477555","0.0-2.0-11.3-4.3","battery-v0.2","","""event"",""trial"",""time""
""fullscreenenter"",""1"",""4221""
","
","
","""event"",""trial"",""time""
""fullscreenenter"",""1"",""4221""
","
","","","-1","","","24","20692","7836","&#9761;","elianto","#3366ff99","-1","-1","1","+10","[]","0","0","2","","","","","","","",""
"call-function","57","477556","0.0-2.0-12.0","battery-v0.2","","""event"",""trial"",""time""
""fullscreenenter"",""1"",""4221""
","
","
","""event"",""trial"",""time""
""fullscreenenter"",""1"",""4221""
","
","","","","","","","","","","","","","","","","","","","","","","","","","","",""
"pit-instructions","58","513845","0.0-2.0-13.0","battery-v0.2","","""event"",""trial"",""time""
""fullscreenenter"",""1"",""4221""
","
","
","""event"",""trial"",""time""
""fullscreenenter"",""1"",""4221""
","
","","[{""page_index"":0,""viewing_time"":7222.699999928474},{""page_index"":1,""viewing_time"":7686.400000095367},{""page_index"":2,""viewing_time"":5027.599999904633},{""page_index"":3,""viewing_time"":10977.900000095367},{""page_index"":4,""viewing_time"":5374}]","36288.89999997616","","","","","","","","","","","","","","","","","","","","","","","",""
"pit-trial","59","517191","0.0-2.0-14.0-0.0","battery-v0.2","","""event"",""trial"",""time""
""fullscreenenter"",""1"",""4221""
","
","
","""event"",""trial"",""time""
""fullscreenenter"",""1"",""4221""
","
","","","493.39999997615814","","","24","20692","7836","&#9826;","elianto","#f73b6a7A","-1"," ","0","-10","[1344.3999999761581]","1","0","3","","","","","","","",""
"pit-trial","60","520254","0.0-2.0-14.0-1.0","battery-v0.2","","""event"",""trial"",""time""
""fullscreenenter"",""1"",""4221""
","
","
","""event"",""trial"",""time""
""fullscreenenter"",""1"",""4221""
","
","","","209.89999997615814","","","24","20692","7836","&#9826;","elianto","#f73b6a7A","-1"," ","0","-10","[1060.6999999284744]","1","0","3","","","","","","","",""
"pit-trial","61","525107","0.0-2.0-14.0-2.0","battery-v0.2","","""event"",""trial"",""time""
""fullscreenenter"",""1"",""4221""
","
","
","""event"",""trial"",""time""
""fullscreenenter"",""1"",""4221""
","
","","","-1","","","24","20692","7836","&#9826;","elianto","#f73b6a7A","-1","-1","1","0","[]","0","0","3","","","","","","","",""
"pit-trial","62","529959","0.0-2.0-14.0-3.0","battery-v0.2","","""event"",""trial"",""time""
""fullscreenenter"",""1"",""4221""
","
","
","""event"",""trial"",""time""
""fullscreenenter"",""1"",""4221""
","
","","","-1","","","24","20692","7836","&#9826;","elianto","#f73b6a7A","-1","-1","1","-10","[]","0","0","3","","","","","","","",""
"pit-trial","63","534812","0.0-2.0-14.0-4.0","battery-v0.2","","""event"",""trial"",""time""
""fullscreenenter"",""1"",""4221""
","
","
","""event"",""trial"",""time""
""fullscreenenter"",""1"",""4221""
","
","","","-1","","","24","20692","7836","&#9826;","elianto","#f73b6a7A","-1","-1","1","0","[]","0","0","3","","","","","","","",""
"pit-trial","64","539665","0.0-2.0-14.1-0.1","battery-v0.2","","""event"",""trial"",""time""
""fullscreenenter"",""1"",""4221""
","
","
","""event"",""trial"",""time""
""fullscreenenter"",""1"",""4221""
","
","","","-1","","","24","20692","7836","&#9826;","elianto","#f73b6a7A","-1","-1","1","0","[]","0","0","3","","","","","","","",""
"pit-trial","65","544518","0.0-2.0-14.1-1.1","battery-v0.2","","""event"",""trial"",""time""
""fullscreenenter"",""1"",""4221""
","
","
","""event"",""trial"",""time""
""fullscreenenter"",""1"",""4221""
","
","","","-1","","","24","20692","7836","&#9826;","elianto","#f73b6a7A","-1","-1","1","0","[]","0","0","3","","","","","","","",""
"pit-trial","66","549371","0.0-2.0-14.1-2.1","battery-v0.2","","""event"",""trial"",""time""
""fullscreenenter"",""1"",""4221""
","
","
","""event"",""trial"",""time""
""fullscreenenter"",""1"",""4221""
","
","","","-1","","","24","20692","7836","&#9826;","elianto","#f73b6a7A","-1","-1","1","0","[]","0","0","3","","","","","","","",""
"pit-trial","67","554223","0.0-2.0-14.1-3.1","battery-v0.2","","""event"",""trial"",""time""
""fullscreenenter"",""1"",""4221""
","
","
","""event"",""trial"",""time""
""fullscreenenter"",""1"",""4221""
","
","","","-1","","","24","20692","7836","&#9826;","elianto","#f73b6a7A","-1","-1","1","-10","[]","0","0","3","","","","","","","",""
"pit-trial","68","559075","0.0-2.0-14.1-4.1","battery-v0.2","","""event"",""trial"",""time""
""fullscreenenter"",""1"",""4221""
","
","
","""event"",""trial"",""time""
""fullscreenenter"",""1"",""4221""
","
","","","-1","","","24","20692","7836","&#9826;","elianto","#f73b6a7A","-1","-1","1","0","[]","0","0","3","","","","","","","",""
"pit-trial","69","563928","0.0-2.0-14.2-0.2","battery-v0.2","","""event"",""trial"",""time""
""fullscreenenter"",""1"",""4221""
","
","
","""event"",""trial"",""time""
""fullscreenenter"",""1"",""4221""
","
","","","-1","","","24","20692","7836","&#9826;","elianto","#f73b6a7A","-1","-1","1","0","[]","0","0","3","","","","","","","",""
"pit-trial","70","568780","0.0-2.0-14.2-1.2","battery-v0.2","","""event"",""trial"",""time""
""fullscreenenter"",""1"",""4221""
","
","
","""event"",""trial"",""time""
""fullscreenenter"",""1"",""4221""
","
","","","-1","","","24","20692","7836","&#9826;","elianto","#f73b6a7A","-1","-1","1","0","[]","0","0","3","","","","","","","",""
"pit-trial","71","573632","0.0-2.0-14.2-2.2","battery-v0.2","","""event"",""trial"",""time""
""fullscreenenter"",""1"",""4221""
","
","
","""event"",""trial"",""time""
""fullscreenenter"",""1"",""4221""
","
","","","-1","","","24","20692","7836","&#9826;","elianto","#f73b6a7A","-1","-1","1","0","[]","0","0","3","","","","","","","",""
"pit-trial","72","578483","0.0-2.0-14.2-3.2","battery-v0.2","","""event"",""trial"",""time""
""fullscreenenter"",""1"",""4221""
","
","
","""event"",""trial"",""time""
""fullscreenenter"",""1"",""4221""
","
","","","-1","","","24","20692","7836","&#9826;","elianto","#f73b6a7A","-1","-1","1","-10","[]","0","0","3","","","","","","","",""
"pit-trial","73","583335","0.0-2.0-14.2-4.2","battery-v0.2","","""event"",""trial"",""time""
""fullscreenenter"",""1"",""4221""
","
","
","""event"",""trial"",""time""
""fullscreenenter"",""1"",""4221""
","
","","","-1","","","24","20692","7836","&#9826;","elianto","#f73b6a7A","-1","-1","1","0","[]","0","0","3","","","","","","","",""
"pit-trial","74","588189","0.0-2.0-14.3-0.3","battery-v0.2","","""event"",""trial"",""time""
""fullscreenenter"",""1"",""4221""
","
","
","""event"",""trial"",""time""
""fullscreenenter"",""1"",""4221""
","
","","","-1","","","24","20692","7836","&#9826;","elianto","#f73b6a7A","-1","-1","1","0","[]","0","0","3","","","","","","","",""
"pit-trial","75","593041","0.0-2.0-14.3-1.3","battery-v0.2","","""event"",""trial"",""time""
""fullscreenenter"",""1"",""4221""
","
","
","""event"",""trial"",""time""
""fullscreenenter"",""1"",""4221""
","
","","","-1","","","24","20692","7836","&#9826;","elianto","#f73b6a7A","-1","-1","1","0","[]","0","0","3","","","","","","","",""
"pit-trial","76","597893","0.0-2.0-14.3-2.3","battery-v0.2","","""event"",""trial"",""time""
""fullscreenenter"",""1"",""4221""
","
","
","""event"",""trial"",""time""
""fullscreenenter"",""1"",""4221""
","
","","","-1","","","24","20692","7836","&#9826;","elianto","#f73b6a7A","-1","-1","1","0","[]","0","0","3","","","","","","","",""
"pit-trial","77","602746","0.0-2.0-14.3-3.3","battery-v0.2","","""event"",""trial"",""time""
""fullscreenenter"",""1"",""4221""
","
","
","""event"",""trial"",""time""
""fullscreenenter"",""1"",""4221""
","
","","","-1","","","24","20692","7836","&#9826;","elianto","#f73b6a7A","-1","-1","1","-10","[]","0","0","3","","","","","","","",""
"pit-trial","78","607599","0.0-2.0-14.3-4.3","battery-v0.2","","""event"",""trial"",""time""
""fullscreenenter"",""1"",""4221""
","
","
","""event"",""trial"",""time""
""fullscreenenter"",""1"",""4221""
","
","","","-1","","","24","20692","7836","&#9826;","elianto","#f73b6a7A","-1","-1","1","0","[]","0","0","3","","","","","","","",""
"call-function","79","607600","0.0-2.0-15.0","battery-v0.2","","""event"",""trial"",""time""
""fullscreenenter"",""1"",""4221""
","
","
","""event"",""trial"",""time""
""fullscreenenter"",""1"",""4221""
","
","","","","","","","","","","","","","","","","","","","","","","","","","","",""
"pit-instructions","80","632597","0.0-2.0-16.0","battery-v0.2","","""event"",""trial"",""time""
""fullscreenenter"",""1"",""4221""
","
","
","""event"",""trial"",""time""
""fullscreenenter"",""1"",""4221""
","
","","[{""page_index"":0,""viewing_time"":6938.100000023842},{""page_index"":1,""viewing_time"":8204.099999904633},{""page_index"":2,""viewing_time"":4812.200000047684},{""page_index"":3,""viewing_time"":5041.799999952316}]","24996.5","","","","","","","","","","","","","","","","","","","","","","","",""
"pit-trial","81","636032","0.0-2.0-17.0-0.0","battery-v0.2","","""event"",""trial"",""time""
""fullscreenenter"",""1"",""4221""
","
","
","""event"",""trial"",""time""
""fullscreenenter"",""1"",""4221""
","
","","","581.0999999046326","","","24","20692","7836","&#9789;","elianto","#f73b6a7A"," "," ","1","0","[1432]","1","0","4","","","","","","","",""
"pit-trial","82","639167","0.0-2.0-17.0-1.0","battery-v0.2","","""event"",""trial"",""time""
""fullscreenenter"",""1"",""4221""
","
","
","""event"",""trial"",""time""
""fullscreenenter"",""1"",""4221""
","
","","","282.7999999523163","","","24","20692","7836","&#9789;","elianto","#f73b6a7A"," "," ","1","0","[1134.3999999761581]","1","0","4","","","","","","","",""
"pit-trial","83","642272","0.0-2.0-17.0-2.0","battery-v0.2","","""event"",""trial"",""time""
""fullscreenenter"",""1"",""4221""
","
","
","""event"",""trial"",""time""
""fullscreenenter"",""1"",""4221""
","
","","","250.69999992847443","","","24","20692","7836","&#9789;","elianto","#f73b6a7A"," "," ","1","0","[1102.6999999284744]","1","0","4","","","","","","","",""
"pit-trial","84","645349","0.0-2.0-17.0-3.0","battery-v0.2","","""event"",""trial"",""time""
""fullscreenenter"",""1"",""4221""
","
","
","""event"",""trial"",""time""
""fullscreenenter"",""1"",""4221""
","
","","","224.29999995231628","","","24","20692","7836","&#9789;","elianto","#f73b6a7A"," "," ","1","-10","[1074.8999999761581]","1","0","4","","","","","","","",""
"pit-trial","85","648549","0.0-2.0-17.0-4.0","battery-v0.2","","""event"",""trial"",""time""
""fullscreenenter"",""1"",""4221""
","
","
","""event"",""trial"",""time""
""fullscreenenter"",""1"",""4221""
","
","","","347.6999999284744","","","24","20692","7836","&#9789;","elianto","#f73b6a7A"," "," ","1","0","[1198.1999999284744]","1","0","4","","","","","","","",""
"pit-trial","86","651796","0.0-2.0-17.1-0.1","battery-v0.2","","""event"",""trial"",""time""
""fullscreenenter"",""1"",""4221""
","
","
","""event"",""trial"",""time""
""fullscreenenter"",""1"",""4221""
","
","","","394.10000002384186","","","24","20692","7836","&#9789;","elianto","#f73b6a7A"," "," ","1","0","[1245.3000000715256]","1","0","4","","","","","","","",""
"pit-trial","87","655033","0.0-2.0-17.1-1.1","battery-v0.2","","""event"",""trial"",""time""
""fullscreenenter"",""1"",""4221""
","
","
","""event"",""trial"",""time""
""fullscreenenter"",""1"",""4221""
","
","","","384.2999999523163","","","24","20692","7836","&#9789;","elianto","#f73b6a7A"," "," ","1","0","[1234.6000000238419]","1","0","4","","","","","","","",""
"pit-trial","88","658273","0.0-2.0-17.1-2.1","battery-v0.2","","""event"",""trial"",""time""
""fullscreenenter"",""1"",""4221""
","
","
","""event"",""trial"",""time""
""fullscreenenter"",""1"",""4221""
","
","","","387.5","","","24","20692","7836","&#9789;","elianto","#f73b6a7A"," "," ","1","0","[1238.3999999761581]","1","0","4","","","","","","","",""
"pit-trial","89","661494","0.0-2.0-17.1-3.1","battery-v0.2","","""event"",""trial"",""time""
""fullscreenenter"",""1"",""4221""
","
","
","""event"",""trial"",""time""
""fullscreenenter"",""1"",""4221""
","
","","","368.2000000476837","","","24","20692","7836","&#9789;","elianto","#f73b6a7A"," "," ","1","-10","[1218.4000000953674]","1","0","4","","","","","","","",""
"pit-trial","90","664575","0.0-2.0-17.1-4.1","battery-v0.2","","""event"",""trial"",""time""
""fullscreenenter"",""1"",""4221""
","
","
","""event"",""trial"",""time""
""fullscreenenter"",""1"",""4221""
","
","","","228.10000002384186","","","24","20692","7836","&#9789;","elianto","#f73b6a7A"," "," ","1","0","[1078.7000000476837]","1","0","4","","","","","","","",""
"pit-trial","91","667812","0.0-2.0-17.2-0.2","battery-v0.2","","""event"",""trial"",""time""
""fullscreenenter"",""1"",""4221""
","
","
","""event"",""trial"",""time""
""fullscreenenter"",""1"",""4221""
","
","","","383.90000009536743","","","24","20692","7836","&#9789;","elianto","#f73b6a7A"," "," ","1","0","[1235.6000000238419]","1","0","4","","","","","","","",""
"pit-trial","92","670934","0.0-2.0-17.2-1.2","battery-v0.2","","""event"",""trial"",""time""
""fullscreenenter"",""1"",""4221""
","
","
","""event"",""trial"",""time""
""fullscreenenter"",""1"",""4221""
","
","","","268.8000000715256","","","24","20692","7836","&#9789;","elianto","#f73b6a7A"," "," ","1","0","[1120.5]","1","0","4","","","","","","","",""
"pit-trial","93","674146","0.0-2.0-17.2-2.2","battery-v0.2","","""event"",""trial"",""time""
""fullscreenenter"",""1"",""4221""
","
","
","""event"",""trial"",""time""
""fullscreenenter"",""1"",""4221""
","
","","","360.1999999284744","","","24","20692","7836","&#9789;","elianto","#f73b6a7A"," "," ","1","0","[1210.6000000238419]","1","0","4","","","","","","","",""
"pit-trial","94","677397","0.0-2.0-17.2-3.2","battery-v0.2","","""event"",""trial"",""time""
""fullscreenenter"",""1"",""4221""
","
","
","""event"",""trial"",""time""
""fullscreenenter"",""1"",""4221""
","
","","","397.89999997615814","","","24","20692","7836","&#9789;","elianto","#f73b6a7A"," "," ","1","-10","[1249]","1","0","4","","","","","","","",""
"pit-trial","95","680592","0.0-2.0-17.2-4.2","battery-v0.2","","""event"",""trial"",""time""
""fullscreenenter"",""1"",""4221""
","
","
","""event"",""trial"",""time""
""fullscreenenter"",""1"",""4221""
","
","","","342.7000000476837","","","24","20692","7836","&#9789;","elianto","#f73b6a7A"," "," ","1","0","[1193.8999999761581]","1","0","4","","","","","","","",""
"pit-trial","96","683804","0.0-2.0-17.3-0.3","battery-v0.2","","""event"",""trial"",""time""
""fullscreenenter"",""1"",""4221""
","
","
","""event"",""trial"",""time""
""fullscreenenter"",""1"",""4221""
","
","","","358.1999999284744","","","24","20692","7836","&#9789;","elianto","#f73b6a7A"," "," ","1","0","[1209.1999999284744]","1","0","4","","","","","","","",""
"pit-trial","97","687019","0.0-2.0-17.3-1.3","battery-v0.2","","""event"",""trial"",""time""
""fullscreenenter"",""1"",""4221""
","
","
","""event"",""trial"",""time""
""fullscreenenter"",""1"",""4221""
","
","","","363.7999999523163","","","24","20692","7836","&#9789;","elianto","#f73b6a7A"," "," ","1","0","[1213.7999999523163]","1","0","4","","","","","","","",""
"pit-trial","98","690267","0.0-2.0-17.3-2.3","battery-v0.2","","""event"",""trial"",""time""
""fullscreenenter"",""1"",""4221""
","
","
","""event"",""trial"",""time""
""fullscreenenter"",""1"",""4221""
","
","","","395","","","24","20692","7836","&#9789;","elianto","#f73b6a7A"," "," ","1","0","[1245.8999999761581]","1","0","4","","","","","","","",""
"pit-trial","99","693485","0.0-2.0-17.3-3.3","battery-v0.2","","""event"",""trial"",""time""
""fullscreenenter"",""1"",""4221""
","
","
","""event"",""trial"",""time""
""fullscreenenter"",""1"",""4221""
","
","","","364.3000000715256","","","24","20692","7836","&#9789;","elianto","#f73b6a7A"," "," ","1","-10","[1216.3000000715256]","1","0","4","","","","","","","",""
"pit-trial","100","696704","0.0-2.0-17.3-4.3","battery-v0.2","","""event"",""trial"",""time""
""fullscreenenter"",""1"",""4221""
","
","
","""event"",""trial"",""time""
""fullscreenenter"",""1"",""4221""
","
","","","367.09999990463257","","","24","20692","7836","&#9789;","elianto","#f73b6a7A"," "," ","1","0","[1217.1000000238419]","1","0","4","","","","","","","",""
"call-function","101","696705","0.0-2.0-18.0","battery-v0.2","","""event"",""trial"",""time""
""fullscreenenter"",""1"",""4221""
","
","
","""event"",""trial"",""time""
""fullscreenenter"",""1"",""4221""
","
","","","","","","","","","","","","","","","","","","","","","","","","","","",""
"pit-instructions","102","764201","0.0-2.0-19.0","battery-v0.2","","""event"",""trial"",""time""
""fullscreenenter"",""1"",""4221""
","
","
","""event"",""trial"",""time""
""fullscreenenter"",""1"",""4221""
","
","","[{""page_index"":0,""viewing_time"":6645.799999952316},{""page_index"":1,""viewing_time"":6181.799999952316},{""page_index"":2,""viewing_time"":13843.5},{""page_index"":3,""viewing_time"":7382.400000095367},{""page_index"":4,""viewing_time"":8315.5},{""page_index"":5,""viewing_time"":8558.599999904633},{""page_index"":6,""viewing_time"":6585.800000071526},{""page_index"":7,""viewing_time"":6142.399999976158},{""page_index"":8,""viewing_time"":3839.5}]","67495.59999990463","","","","","","","","","","","","","","","","","","","","","","","",""
"pit-comprehension","103","768742","0.0-2.0-20.0-0.0","battery-v0.2","","""event"",""trial"",""time""
""fullscreenenter"",""1"",""4221""
","
","
","""event"",""trial"",""time""
""fullscreenenter"",""1"",""4221""
","
","","","4539","[""SPACE""]","0","24","20692","7836","","","","","","","","","","","","","","","","","","",""
"pit-instructions","104","771657","0.0-2.0-20.0-1.0","battery-v0.2","","""event"",""trial"",""time""
""fullscreenenter"",""1"",""4221""
","
","
","""event"",""trial"",""time""
""fullscreenenter"",""1"",""4221""
","
","","[{""page_index"":0,""viewing_time"":2876}]","2876.399999976158","","","","","","","","","","","","","","","","","","","","","","","",""
"pit-comprehension","105","776515","0.0-2.0-21.0-0.0","battery-v0.2","","""event"",""trial"",""time""
""fullscreenenter"",""1"",""4221""
","
","
","""event"",""trial"",""time""
""fullscreenenter"",""1"",""4221""
","
","","","4855.600000023842","[""10""]","0","24","20692","7836","","","","","","","","","","","","","","","","","","",""
"pit-instructions","106","778154","0.0-2.0-21.0-1.0","battery-v0.2","","""event"",""trial"",""time""
""fullscreenenter"",""1"",""4221""
","
","
","""event"",""trial"",""time""
""fullscreenenter"",""1"",""4221""
","
","","[{""page_index"":0,""viewing_time"":1610.6999999284744}]","1610.7999999523163","","","","","","","","","","","","","","","","","","","","","","","",""
"pit-comprehension","107","784663","0.0-2.0-22.0-0.0","battery-v0.2","","""event"",""trial"",""time""
""fullscreenenter"",""1"",""4221""
","
","
","""event"",""trial"",""time""
""fullscreenenter"",""1"",""4221""
","
","","","6507.200000047684","[""0""]","0","24","20692","7836","","","","","","","","","","","","","","","","","","",""
"pit-instructions","108","786211","0.0-2.0-22.0-1.0","battery-v0.2","","""event"",""trial"",""time""
""fullscreenenter"",""1"",""4221""
","
","
","""event"",""trial"",""time""
""fullscreenenter"",""1"",""4221""
","
","","[{""page_index"":0,""viewing_time"":1520.5}]","1520.8999999761581","","","","","","","","","","","","","","","","","","","","","","","",""
"pit-comprehension","109","794628","0.0-2.0-23.0-0.0","battery-v0.2","","""event"",""trial"",""time""
""fullscreenenter"",""1"",""4221""
","
","
","""event"",""trial"",""time""
""fullscreenenter"",""1"",""4221""
","
","","","8414.199999928474","[""True""]","0","24","20692","7836","","","","","","","","","","","","","","","","","","",""
"pit-instructions","110","796619","0.0-2.0-23.0-1.0","battery-v0.2","","""event"",""trial"",""time""
""fullscreenenter"",""1"",""4221""
","
","
","""event"",""trial"",""time""
""fullscreenenter"",""1"",""4221""
","
","","[{""page_index"":0,""viewing_time"":1962.9000000953674}]","1963.4000000953674","","","","","","","","","","","","","","","","","","","","","","","",""
"pit-comprehension","111","804066","0.0-2.0-24.0-0.0","battery-v0.2","","""event"",""trial"",""time""
""fullscreenenter"",""1"",""4221""
","
","
","""event"",""trial"",""time""
""fullscreenenter"",""1"",""4221""
","
","","","7444.599999904633","[""True""]","0","24","20692","7836","","","","","","","","","","","","","","","","","","",""
"pit-instructions","112","805704","0.0-2.0-24.0-1.0","battery-v0.2","","""event"",""trial"",""time""
""fullscreenenter"",""1"",""4221""
","
","
","""event"",""trial"",""time""
""fullscreenenter"",""1"",""4221""
","
","","[{""page_index"":0,""viewing_time"":1606.7999999523163}]","1607.1999999284744","","","","","","","","","","","","","","","","","","","","","","","",""
"pit-comprehension","113","812269","0.0-2.0-25.0-0.0","battery-v0.2","","""event"",""trial"",""time""
""fullscreenenter"",""1"",""4221""
","
","
","""event"",""trial"",""time""
""fullscreenenter"",""1"",""4221""
","
","","","6562.800000071526","[""True""]","0","24","20692","7836","","","","","","","","","","","","","","","","","","",""
"pit-instructions","114","813855","0.0-2.0-25.0-1.0","battery-v0.2","","""event"",""trial"",""time""
""fullscreenenter"",""1"",""4221""
","
","
","""event"",""trial"",""time""
""fullscreenenter"",""1"",""4221""
","
","","[{""page_index"":0,""viewing_time"":1553.6000000238419}]","1554","","","","","","","","","","","","","","","","","","","","","","","",""
"pit-comprehension","115","818767","0.0-2.0-26.0-0.0","battery-v0.2","","""event"",""trial"",""time""
""fullscreenenter"",""1"",""4221""
","
","
","""event"",""trial"",""time""
""fullscreenenter"",""1"",""4221""
","
","","","4909.800000071526","[""False""]","0","24","20692","7836","","","","","","","","","","","","","","","","","","",""
"pit-instructions","116","820293","0.0-2.0-26.0-1.0","battery-v0.2","","""event"",""trial"",""time""
""fullscreenenter"",""1"",""4221""
","
","
","""event"",""trial"",""time""
""fullscreenenter"",""1"",""4221""
","
","","[{""page_index"":0,""viewing_time"":1493.7999999523163}]","1494.2000000476837","","","","","","","","","","","","","","","","","","","","","","","",""
"pit-instructions","117","836734","0.0-3.0","battery-v0.2","","""event"",""trial"",""time""
""fullscreenenter"",""1"",""4221""
","
","
","""event"",""trial"",""time""
""fullscreenenter"",""1"",""4221""
","
","","[{""page_index"":0,""viewing_time"":4192.699999928474},{""page_index"":1,""viewing_time"":5290.100000023842},{""page_index"":2,""viewing_time"":6957.5}]","16440.699999928474","","","","","","","","","","","","","","","","","","","","","","","",""
"pit-trial","118","840278","0.0-4.0","battery-v0.2","","""event"",""trial"",""time""
""fullscreenenter"",""1"",""4221""
","
","
","""event"",""trial"",""time""
""fullscreenenter"",""1"",""4221""
","
","","","690.1999999284744","","","24","20692","7836","&#9730;","elianto","#3366ff99"," "," ","1","+10","[1540.6999999284744]","1","1","","","20692","1","1","1","win","go","0"
"pit-trial","119","843868","0.0-5.0","battery-v0.2","","""event"",""trial"",""time""
""fullscreenenter"",""1"",""4221""
","
","
","""event"",""trial"",""time""
""fullscreenenter"",""1"",""4221""
","
","","","737.8999999761581","","","24","20692","7836","&#9733;","elianto","#3366ff99","-1"," ","0","0","[1588.1999999284744]","1","1","","","20692","2","2","2","win","no-go","0"
"pit-trial","120","847888","0.0-6.0","battery-v0.2","","""event"",""trial"",""time""
""fullscreenenter"",""1"",""4221""
","
","
","""event"",""trial"",""time""
""fullscreenenter"",""1"",""4221""
","
","","","1167.6000000238419","","","24","20692","7836","&#9752;","elianto","#f73b6a7A"," "," ","1","-10","[2018.5]","1","1","","","20692","3","3","3","lose","go","1"
"pit-trial","121","851558","0.0-7.0","battery-v0.2","","""event"",""trial"",""time""
""fullscreenenter"",""1"",""4221""
","
","
","""event"",""trial"",""time""
""fullscreenenter"",""1"",""4221""
","
","","","815.5","","","24","20692","7836","&#9728;","elianto","#f73b6a7A","-1"," ","0","-10","[1667.3000000715256]","1","1","","","20692","4","0","4","lose","no-go","0"
"pit-trial","122","855313","0.0-8.0","battery-v0.2","","""event"",""trial"",""time""
""fullscreenenter"",""1"",""4221""
","
","
","""event"",""trial"",""time""
""fullscreenenter"",""1"",""4221""
","
","","","903","","","24","20692","7836","&#9728;","elianto","#f73b6a7A","-1"," ","0","-10","[1753.0999999046326]","1","1","","","20692","5","0","4","lose","no-go","0"
"pit-trial","123","858854","0.0-9.0","battery-v0.2","","""event"",""trial"",""time""
""fullscreenenter"",""1"",""4221""
","
","
","""event"",""trial"",""time""
""fullscreenenter"",""1"",""4221""
","
","","","688.1000000238419","","","24","20692","7836","&#9730;","elianto","#3366ff99"," "," ","1","0","[1538.6000000238419]","1","1","","","20692","6","1","1","win","go","1"
"pit-trial","124","862820","0.0-10.0","battery-v0.2","","""event"",""trial"",""time""
""fullscreenenter"",""1"",""4221""
","
","
","""event"",""trial"",""time""
""fullscreenenter"",""1"",""4221""
","
","","","1112.8000000715256","","","24","20692","7836","&#9752;","elianto","#f73b6a7A"," "," ","1","-10","[1964.8999999761581]","1","1","","","20692","7","3","3","lose","go","1"
"pit-trial","125","866537","0.0-11.0","battery-v0.2","","""event"",""trial"",""time""
""fullscreenenter"",""1"",""4221""
","
","
","""event"",""trial"",""time""
""fullscreenenter"",""1"",""4221""
","
","","","863.3999999761581","","","24","20692","7836","&#9733;","elianto","#3366ff99","-1"," ","0","0","[1714.5]","1","1","","","20692","8","2","2","win","no-go","0"
"pit-trial","126","871389","0.0-12.0","battery-v0.2","","""event"",""trial"",""time""
""fullscreenenter"",""1"",""4221""
","
","
","""event"",""trial"",""time""
""fullscreenenter"",""1"",""4221""
","
","","","-1","","","24","20692","7836","&#9733;","elianto","#3366ff99","-1","-1","1","0","[]","0","1","","","20692","9","2","2","win","no-go","1"
"pit-trial","127","876241","0.0-13.0","battery-v0.2","","""event"",""trial"",""time""
""fullscreenenter"",""1"",""4221""
","
","
","""event"",""trial"",""time""
""fullscreenenter"",""1"",""4221""
","
","","","-1","","","24","20692","7836","&#9728;","elianto","#f73b6a7A","-1","-1","1","0","[]","0","1","","","20692","10","0","4","lose","no-go","0"
"pit-trial","128","880029","0.0-14.0","battery-v0.2","","""event"",""trial"",""time""
""fullscreenenter"",""1"",""4221""
","
","
","""event"",""trial"",""time""
""fullscreenenter"",""1"",""4221""
","
","","","935.8999999761581","","","24","20692","7836","&#9730;","elianto","#3366ff99"," "," ","1","+10","[1786.2000000476837]","1","1","","","20692","11","1","1","win","go","0"
"pit-trial","129","884881","0.0-15.0","battery-v0.2","","""event"",""trial"",""time""
""fullscreenenter"",""1"",""4221""
","
","
","""event"",""trial"",""time""
""fullscreenenter"",""1"",""4221""
","
","","","-1","","","24","20692","7836","&#9752;","elianto","#f73b6a7A"," ","-1","0","-10","[]","0","1","","","20692","12","3","3","lose","go","0"
"pit-trial","130","889015","0.0-16.0","battery-v0.2","","""event"",""trial"",""time""
""fullscreenenter"",""1"",""4221""
","
","
","""event"",""trial"",""time""
""fullscreenenter"",""1"",""4221""
","
","","","1281.6000000238419","","","24","20692","7836","&#9752;","elianto","#f73b6a7A"," "," ","1","-10","[2131.7000000476837]","1","1","","","20692","13","3","3","lose","go","1"
"pit-trial","131","893868","0.0-17.0","battery-v0.2","","""event"",""trial"",""time""
""fullscreenenter"",""1"",""4221""
","
","
","""event"",""trial"",""time""
""fullscreenenter"",""1"",""4221""
","
","","","-1","","","24","20692","7836","&#9733;","elianto","#3366ff99","-1","-1","1","+10","[]","0","1","","","20692","14","2","2","win","no-go","0"
"pit-trial","132","898202","0.0-18.0","battery-v0.2","","""event"",""trial"",""time""
""fullscreenenter"",""1"",""4221""
","
","
","""event"",""trial"",""time""
""fullscreenenter"",""1"",""4221""
","
","","","1481","","","24","20692","7836","&#9728;","elianto","#f73b6a7A","-1"," ","0","-10","[2331.7999999523163]","1","1","","","20692","15","0","4","lose","no-go","0"
"pit-trial","133","901686","0.0-19.0","battery-v0.2","","""event"",""trial"",""time""
""fullscreenenter"",""1"",""4221""
","
","
","""event"",""trial"",""time""
""fullscreenenter"",""1"",""4221""
","
","","","630.5999999046326","","","24","20692","7836","&#9730;","elianto","#3366ff99"," "," ","1","0","[1481.5]","1","1","","","20692","16","1","1","win","go","1"
"pit-trial","134","906539","0.0-20.0","battery-v0.2","","""event"",""trial"",""time""
""fullscreenenter"",""1"",""4221""
","
","
","""event"",""trial"",""time""
""fullscreenenter"",""1"",""4221""
","
","","","-1","","","24","20692","7836","&#9733;","elianto","#3366ff99","-1","-1","1","+10","[]","0","1","","","20692","17","2","2","win","no-go","0"
"pit-trial","135","910562","0.0-21.0","battery-v0.2","","""event"",""trial"",""time""
""fullscreenenter"",""1"",""4221""
","
","
","""event"",""trial"",""time""
""fullscreenenter"",""1"",""4221""
","
","","","1171.9000000953674","","","24","20692","7836","&#9730;","elianto","#3366ff99"," "," ","1","+10","[2022.1000000238419]","1","1","","","20692","18","1","1","win","go","0"
"pit-trial","136","915416","0.0-22.0","battery-v0.2","","""event"",""trial"",""time""
""fullscreenenter"",""1"",""4221""
","
","
","""event"",""trial"",""time""
""fullscreenenter"",""1"",""4221""
","
","","","-1","","","24","20692","7836","&#9728;","elianto","#f73b6a7A","-1","-1","1","-10","[]","0","1","","","20692","19","0","4","lose","no-go","1"
"pit-trial","137","920268","0.0-23.0","battery-v0.2","","""event"",""trial"",""time""
""fullscreenenter"",""1"",""4221""
","
","
","""event"",""trial"",""time""
""fullscreenenter"",""1"",""4221""
","
","","","-1","","","24","20692","7836","&#9752;","elianto","#f73b6a7A"," ","-1","0","-10","[]","0","1","","","20692","20","3","3","lose","go","0"
"pit-instructions","138","933943","0.0-24.0","battery-v0.2","","""event"",""trial"",""time""
""fullscreenenter"",""1"",""4221""
","
","
","""event"",""trial"",""time""
""fullscreenenter"",""1"",""4221""
","
","","[{""page_index"":0,""viewing_time"":6710},{""page_index"":1,""viewing_time"":6963.899999976158}]","13674.299999952316","","","","","","","","","","","","","","","","","","","","","","","",""
"pit-trial","139","937488","0.0-25.0","battery-v0.2","","""event"",""trial"",""time""
""fullscreenenter"",""1"",""4221""
","
","
","""event"",""trial"",""time""
""fullscreenenter"",""1"",""4221""
","
","","","691","","","24","20692","7836","l","elianto","#3366ff99","-1"," ","0","0","[1542.2000000476837]","1","2","","","20692","21","1","2","win","no-go","0"
"pit-trial","140","941313","0.0-26.0","battery-v0.2","","""event"",""trial"",""time""
""fullscreenenter"",""1"",""4221""
","
","
","""event"",""trial"",""time""
""fullscreenenter"",""1"",""4221""
","
","","","973.3000000715256","","","24","20692","7836","g","elianto","#f73b6a7A","-1"," ","0","-10","[1823.6000000238419]","1","2","","","20692","22","3","4","lose","no-go","0"
"pit-trial","141","945066","0.0-27.0","battery-v0.2","","""event"",""trial"",""time""
""fullscreenenter"",""1"",""4221""
","
","
","""event"",""trial"",""time""
""fullscreenenter"",""1"",""4221""
","
","","","900.7000000476837","","","24","20692","7836","u","elianto","#f73b6a7A"," "," ","1","0","[1750.9000000953674]","1","2","","","20692","23","0","3","lose","go","0"
"pit-trial","142","948972","0.0-28.0","battery-v0.2","","""event"",""trial"",""time""
""fullscreenenter"",""1"",""4221""
","
","
","""event"",""trial"",""time""
""fullscreenenter"",""1"",""4221""
","
","","","1053.2000000476837","","","24","20692","7836","a","elianto","#f73b6a7A"," "," ","1","0","[1904.3999999761581]","1","2","","","20692","24","2","3","lose","go","0"
"pit-trial","143","953824","0.0-29.0","battery-v0.2","","""event"",""trial"",""time""
""fullscreenenter"",""1"",""4221""
","
","
","""event"",""trial"",""time""
""fullscreenenter"",""1"",""4221""
","
","","","-1","","","24","20692","7836","l","elianto","#3366ff99","-1","-1","1","0","[]","0","2","","","20692","25","1","2","win","no-go","1"
"pit-trial","144","957466","0.0-30.0","battery-v0.2","","""event"",""trial"",""time""
""fullscreenenter"",""1"",""4221""
","
","
","""event"",""trial"",""time""
""fullscreenenter"",""1"",""4221""
","
","","","789.3999999761581","","","24","20692","7836","u","elianto","#f73b6a7A"," "," ","1","0","[1639.7000000476837]","1","2","","","20692","26","0","3","lose","go","0"
"pit-trial","145","962318","0.0-31.0","battery-v0.2","","""event"",""trial"",""time""
""fullscreenenter"",""1"",""4221""
","
","
","""event"",""trial"",""time""
""fullscreenenter"",""1"",""4221""
","
","","","-1","","","24","20692","7836","g","elianto","#f73b6a7A","-1","-1","1","0","[]","0","2","","","20692","27","3","4","lose","no-go","0"
"pit-trial","146","965781","0.0-32.0","battery-v0.2","","""event"",""trial"",""time""
""fullscreenenter"",""1"",""4221""
","
","
","""event"",""trial"",""time""
""fullscreenenter"",""1"",""4221""
","
","","","609.5","","","24","20692","7836","a","elianto","#f73b6a7A"," "," ","1","0","[1461.2000000476837]","1","2","","","20692","28","2","3","lose","go","0"
"pit-trial","147","969262","0.0-33.0","battery-v0.2","","""event"",""trial"",""time""
""fullscreenenter"",""1"",""4221""
","
","
","""event"",""trial"",""time""
""fullscreenenter"",""1"",""4221""
","
","","","629.5","","","24","20692","7836","a","elianto","#f73b6a7A"," "," ","1","0","[1479.6000000238419]","1","2","","","20692","29","2","3","lose","go","0"
"pit-trial","148","974115","0.0-34.0","battery-v0.2","","""event"",""trial"",""time""
""fullscreenenter"",""1"",""4221""
","
","
","""event"",""trial"",""time""
""fullscreenenter"",""1"",""4221""
","
","","","-1","","","24","20692","7836","g","elianto","#f73b6a7A","-1","-1","1","0","[]","0","2","","","20692","30","3","4","lose","no-go","0"
"pit-trial","149","977598","0.0-35.0","battery-v0.2","","""event"",""trial"",""time""
""fullscreenenter"",""1"",""4221""
","
","
","""event"",""trial"",""time""
""fullscreenenter"",""1"",""4221""
","
","","","631.1000000238419","","","24","20692","7836","u","elianto","#f73b6a7A"," "," ","1","0","[1481.6000000238419]","1","2","","","20692","31","0","3","lose","go","0"
"pit-trial","150","981356","0.0-36.0","battery-v0.2","","""event"",""trial"",""time""
""fullscreenenter"",""1"",""4221""
","
","
","""event"",""trial"",""time""
""fullscreenenter"",""1"",""4221""
","
","","","904.5","","","24","20692","7836","l","elianto","#3366ff99","-1"," ","0","0","[1755.8999999761581]","1","2","","","20692","32","1","2","win","no-go","0"
"pit-trial","151","986208","0.0-37.0","battery-v0.2","","""event"",""trial"",""time""
""fullscreenenter"",""1"",""4221""
","
","
","""event"",""trial"",""time""
""fullscreenenter"",""1"",""4221""
","
","","","-1","","","24","20692","7836","g","elianto","#f73b6a7A","-1","-1","1","0","[]","0","2","","","20692","33","3","4","lose","no-go","0"
"pit-trial","152","989583","0.0-38.0","battery-v0.2","","""event"",""trial"",""time""
""fullscreenenter"",""1"",""4221""
","
","
","""event"",""trial"",""time""
""fullscreenenter"",""1"",""4221""
","
","","","519.6999999284744","","","24","20692","7836","u","elianto","#f73b6a7A"," "," ","1","0","[1369.7000000476837]","1","2","","","20692","34","0","3","lose","go","0"
"pit-trial","153","994436","0.0-39.0","battery-v0.2","","""event"",""trial"",""time""
""fullscreenenter"",""1"",""4221""
","
","
","""event"",""trial"",""time""
""fullscreenenter"",""1"",""4221""
","
","","","-1","","","24","20692","7836","l","elianto","#3366ff99","-1","-1","1","+10","[]","0","2","","","20692","35","1","2","win","no-go","0"
"pit-trial","154","997945","0.0-40.0","battery-v0.2","","""event"",""trial"",""time""
""fullscreenenter"",""1"",""4221""
","
","
","""event"",""trial"",""time""
""fullscreenenter"",""1"",""4221""
","
","","","657","","","24","20692","7836","a","elianto","#f73b6a7A"," "," ","1","0","[1507.6000000238419]","1","2","","","20692","36","2","3","lose","go","0"
"pit-trial","155","1002797","0.0-41.0","battery-v0.2","","""event"",""trial"",""time""
""fullscreenenter"",""1"",""4221""
","
","
","""event"",""trial"",""time""
""fullscreenenter"",""1"",""4221""
","
","","","-1","","","24","20692","7836","g","elianto","#f73b6a7A","-1","-1","1","0","[]","0","2","","","20692","37","3","4","lose","no-go","0"
"pit-trial","156","1006373","0.0-42.0","battery-v0.2","","""event"",""trial"",""time""
""fullscreenenter"",""1"",""4221""
","
","
","""event"",""trial"",""time""
""fullscreenenter"",""1"",""4221""
","
","","","723.7000000476837","","","24","20692","7836","a","elianto","#f73b6a7A"," "," ","1","0","[1573.7999999523163]","1","2","","","20692","38","2","3","lose","go","0"
"pit-trial","157","1011225","0.0-43.0","battery-v0.2","","""event"",""trial"",""time""
""fullscreenenter"",""1"",""4221""
","
","
","""event"",""trial"",""time""
""fullscreenenter"",""1"",""4221""
","
","","","-1","","","24","20692","7836","l","elianto","#3366ff99","-1","-1","1","+10","[]","0","2","","","20692","39","1","2","win","no-go","0"
"pit-trial","158","1014766","0.0-44.0","battery-v0.2","","""event"",""trial"",""time""
""fullscreenenter"",""1"",""4221""
","
","
","""event"",""trial"",""time""
""fullscreenenter"",""1"",""4221""
","
","","","688.8000000715256","","","24","20692","7836","u","elianto","#f73b6a7A"," "," ","1","-10","[1539.3999999761581]","1","2","","","20692","40","0","3","lose","go","1"
"pit-trial","159","1019620","0.0-45.0","battery-v0.2","","""event"",""trial"",""time""
""fullscreenenter"",""1"",""4221""
","
","
","""event"",""trial"",""time""
""fullscreenenter"",""1"",""4221""
","
","","","-1","","","24","20692","7836","l","elianto","#3366ff99","-1","-1","1","+10","[]","0","2","","","20692","41","1","2","win","no-go","0"
"pit-trial","160","1024473","0.0-46.0","battery-v0.2","","""event"",""trial"",""time""
""fullscreenenter"",""1"",""4221""
","
","
","""event"",""trial"",""time""
""fullscreenenter"",""1"",""4221""
","
","","","-1","","","24","20692","7836","g","elianto","#f73b6a7A","-1","-1","1","0","[]","0","2","","","20692","42","3","4","lose","no-go","0"
"pit-trial","161","1027953","0.0-47.0","battery-v0.2","","""event"",""trial"",""time""
""fullscreenenter"",""1"",""4221""
","
","
","""event"",""trial"",""time""
""fullscreenenter"",""1"",""4221""
","
","","","627.8000000715256","","","24","20692","7836","u","elianto","#f73b6a7A"," "," ","1","0","[1478.2000000476837]","1","2","","","20692","43","0","3","lose","go","0"
"pit-trial","162","1031438","0.0-48.0","battery-v0.2","","""event"",""trial"",""time""
""fullscreenenter"",""1"",""4221""
","
","
","""event"",""trial"",""time""
""fullscreenenter"",""1"",""4221""
","
","","","633.1999999284744","","","24","20692","7836","a","elianto","#f73b6a7A"," "," ","1","0","[1483.5999999046326]","1","2","","","20692","44","2","3","lose","go","0"
"pit-trial","163","1035149","0.0-49.0","battery-v0.2","","""event"",""trial"",""time""
""fullscreenenter"",""1"",""4221""
","
","
","""event"",""trial"",""time""
""fullscreenenter"",""1"",""4221""
","
","","","858.7000000476837","","","24","20692","7836","u","elianto","#f73b6a7A"," "," ","1","0","[1709.1000000238419]","1","2","","","20692","45","0","3","lose","go","0"
"pit-trial","164","1038702","0.0-50.0","battery-v0.2","","""event"",""trial"",""time""
""fullscreenenter"",""1"",""4221""
","
","
","""event"",""trial"",""time""
""fullscreenenter"",""1"",""4221""
","
","","","701.7000000476837","","","24","20692","7836","a","elianto","#f73b6a7A"," "," ","1","0","[1552.2000000476837]","1","2","","","20692","46","2","3","lose","go","0"
"pit-trial","165","1043556","0.0-51.0","battery-v0.2","","""event"",""trial"",""time""
""fullscreenenter"",""1"",""4221""
","
","
","""event"",""trial"",""time""
""fullscreenenter"",""1"",""4221""
","
","","","-1","","","24","20692","7836","l","elianto","#3366ff99","-1","-1","1","+10","[]","0","2","","","20692","47","1","2","win","no-go","0"
"pit-trial","166","1048408","0.0-52.0","battery-v0.2","","""event"",""trial"",""time""
""fullscreenenter"",""1"",""4221""
","
","
","""event"",""trial"",""time""
""fullscreenenter"",""1"",""4221""
","
","","","-1","","","24","20692","7836","g","elianto","#f73b6a7A","-1","-1","1","0","[]","0","2","","","20692","48","3","4","lose","no-go","0"
"pit-trial","167","1052198","0.0-53.0","battery-v0.2","","""event"",""trial"",""time""
""fullscreenenter"",""1"",""4221""
","
","
","""event"",""trial"",""time""
""fullscreenenter"",""1"",""4221""
","
","","","936.8999999761581","","","24","20692","7836","u","elianto","#f73b6a7A"," "," ","1","0","[1787.3999999761581]","1","2","","","20692","49","0","3","lose","go","0"
"pit-trial","168","1057049","0.0-54.0","battery-v0.2","","""event"",""trial"",""time""
""fullscreenenter"",""1"",""4221""
","
","
","""event"",""trial"",""time""
""fullscreenenter"",""1"",""4221""
","
","","","-1","","","24","20692","7836","g","elianto","#f73b6a7A","-1","-1","1","0","[]","0","2","","","20692","50","3","4","lose","no-go","0"
"pit-trial","169","1060517","0.0-55.0","battery-v0.2","","""event"",""trial"",""time""
""fullscreenenter"",""1"",""4221""
","
","
","""event"",""trial"",""time""
""fullscreenenter"",""1"",""4221""
","
","","","613.8999999761581","","","24","20692","7836","a","elianto","#f73b6a7A"," "," ","1","-10","[1465.0999999046326]","1","2","","","20692","51","2","3","lose","go","1"
"pit-trial","170","1065369","0.0-56.0","battery-v0.2","","""event"",""trial"",""time""
""fullscreenenter"",""1"",""4221""
","
","
","""event"",""trial"",""time""
""fullscreenenter"",""1"",""4221""
","
","","","-1","","","24","20692","7836","l","elianto","#3366ff99","-1","-1","1","+10","[]","0","2","","","20692","52","1","2","win","no-go","0"
"pit-trial","171","1070229","0.0-57.0","battery-v0.2","","""event"",""trial"",""time""
""fullscreenenter"",""1"",""4221""
","
","
","""event"",""trial"",""time""
""fullscreenenter"",""1"",""4221""
","
","","","-1","","","24","20692","7836","g","elianto","#f73b6a7A","-1","-1","1","0","[]","0","2","","","20692","53","3","4","lose","no-go","0"
"pit-trial","172","1073806","0.0-58.0","battery-v0.2","","""event"",""trial"",""time""
""fullscreenenter"",""1"",""4221""
","
","
","""event"",""trial"",""time""
""fullscreenenter"",""1"",""4221""
","
","","","722.5","","","24","20692","7836","u","elianto","#f73b6a7A"," "," ","1","-10","[1574.2999999523163]","1","2","","","20692","54","0","3","lose","go","1"
"pit-trial","173","1077265","0.0-59.0","battery-v0.2","","""event"",""trial"",""time""
""fullscreenenter"",""1"",""4221""
","
","
","""event"",""trial"",""time""
""fullscreenenter"",""1"",""4221""
","
","","","606.6000000238419","","","24","20692","7836","a","elianto","#f73b6a7A"," "," ","1","-10","[1457.2999999523163]","1","2","","","20692","55","2","3","lose","go","1"
"pit-trial","174","1082128","0.0-60.0","battery-v0.2","","""event"",""trial"",""time""
""fullscreenenter"",""1"",""4221""
","
","
","""event"",""trial"",""time""
""fullscreenenter"",""1"",""4221""
","
","","","-1","","","24","20692","7836","l","elianto","#3366ff99","-1","-1","1","0","[]","0","2","","","20692","56","1","2","win","no-go","1"
"pit-trial","175","1085949","0.0-61.0","battery-v0.2","","""event"",""trial"",""time""
""fullscreenenter"",""1"",""4221""
","
","
","""event"",""trial"",""time""
""fullscreenenter"",""1"",""4221""
","
","","","968.3999999761581","","","24","20692","7836","u","elianto","#f73b6a7A"," "," ","1","-10","[1819.8999999761581]","1","2","","","20692","57","0","3","lose","go","1"
"pit-trial","176","1090801","0.0-62.0","battery-v0.2","","""event"",""trial"",""time""
""fullscreenenter"",""1"",""4221""
","
","
","""event"",""trial"",""time""
""fullscreenenter"",""1"",""4221""
","
","","","-1","","","24","20692","7836","g","elianto","#f73b6a7A","-1","-1","1","0","[]","0","2","","","20692","58","3","4","lose","no-go","0"
"pit-trial","177","1095101","0.0-63.0","battery-v0.2","","""event"",""trial"",""time""
""fullscreenenter"",""1"",""4221""
","
","
","""event"",""trial"",""time""
""fullscreenenter"",""1"",""4221""
","
","","","1446.3999999761581","","","24","20692","7836","p","elianto","#3366ff99"," "," ","1","+10","[2297.7999999523163]","1","2","","","20692","59","4","1","win","go","0"
"pit-trial","178","1098756","0.0-64.0","battery-v0.2","","""event"",""trial"",""time""
""fullscreenenter"",""1"",""4221""
","
","
","""event"",""trial"",""time""
""fullscreenenter"",""1"",""4221""
","
","","","801.5","","","24","20692","7836","a","elianto","#f73b6a7A"," "," ","1","-10","[1653.1999999284744]","1","2","","","20692","60","2","3","lose","go","1"
"pit-trial","179","1102527","0.0-65.0","battery-v0.2","","""event"",""trial"",""time""
""fullscreenenter"",""1"",""4221""
","
","
","""event"",""trial"",""time""
""fullscreenenter"",""1"",""4221""
","
","","","919.3000000715256","","","24","20692","7836","a","elianto","#f73b6a7A"," "," ","1","0","[1769.4000000953674]","1","2","","","20692","61","2","3","lose","go","0"
"pit-trial","180","1107380","0.0-66.0","battery-v0.2","","""event"",""trial"",""time""
""fullscreenenter"",""1"",""4221""
","
","
","""event"",""trial"",""time""
""fullscreenenter"",""1"",""4221""
","
","","","-1","","","24","20692","7836","g","elianto","#f73b6a7A","-1","-1","1","0","[]","0","2","","","20692","62","3","4","lose","no-go","0"
"pit-trial","181","1112232","0.0-67.0","battery-v0.2","","""event"",""trial"",""time""
""fullscreenenter"",""1"",""4221""
","
","
","""event"",""trial"",""time""
""fullscreenenter"",""1"",""4221""
","
","","","-1","","","24","20692","7836","l","elianto","#3366ff99","-1","-1","1","+10","[]","0","2","","","20692","63","1","2","win","no-go","0"
"pit-trial","182","1115942","0.0-68.0","battery-v0.2","","""event"",""trial"",""time""
""fullscreenenter"",""1"",""4221""
","
","
","""event"",""trial"",""time""
""fullscreenenter"",""1"",""4221""
","
","","","857.5999999046326","","","24","20692","7836","p","elianto","#3366ff99"," "," ","1","0","[1708.1999999284744]","1","2","","","20692","64","4","1","win","go","1"
"pit-trial","183","1120794","0.0-69.0","battery-v0.2","","""event"",""trial"",""time""
""fullscreenenter"",""1"",""4221""
","
","
","""event"",""trial"",""time""
""fullscreenenter"",""1"",""4221""
","
","","","-1","","","24","20692","7836","l","elianto","#3366ff99","-1","-1","1","+10","[]","0","2","","","20692","65","1","2","win","no-go","0"
"pit-trial","184","1125646","0.0-70.0","battery-v0.2","","""event"",""trial"",""time""
""fullscreenenter"",""1"",""4221""
","
","
","""event"",""trial"",""time""
""fullscreenenter"",""1"",""4221""
","
","","","-1","","","24","20692","7836","g","elianto","#f73b6a7A","-1","-1","1","0","[]","0","2","","","20692","66","3","4","lose","no-go","0"
"pit-trial","185","1129516","0.0-71.0","battery-v0.2","","""event"",""trial"",""time""
""fullscreenenter"",""1"",""4221""
","
","
","""event"",""trial"",""time""
""fullscreenenter"",""1"",""4221""
","
","","","1018.1000000238419","","","24","20692","7836","s","elianto","#3366ff99","-1"," ","0","0","[1868.7999999523163]","1","2","","","20692","67","5","2","win","no-go","0"
"pit-trial","186","1133082","0.0-72.0","battery-v0.2","","""event"",""trial"",""time""
""fullscreenenter"",""1"",""4221""
","
","
","""event"",""trial"",""time""
""fullscreenenter"",""1"",""4221""
","
","","","714.1999999284744","","","24","20692","7836","p","elianto","#3366ff99"," "," ","1","+10","[1564.1999999284744]","1","2","","","20692","68","4","1","win","go","0"
"pit-trial","187","1136847","0.0-73.0","battery-v0.2","","""event"",""trial"",""time""
""fullscreenenter"",""1"",""4221""
","
","
","""event"",""trial"",""time""
""fullscreenenter"",""1"",""4221""
","
","","","912.6000000238419","","","24","20692","7836","p","elianto","#3366ff99"," "," ","1","+10","[1762.7999999523163]","1","2","","","20692","69","4","1","win","go","0"
"pit-trial","188","1140776","0.0-74.0","battery-v0.2","","""event"",""trial"",""time""
""fullscreenenter"",""1"",""4221""
","
","
","""event"",""trial"",""time""
""fullscreenenter"",""1"",""4221""
","
","","","1077.7000000476837","","","24","20692","7836","s","elianto","#3366ff99","-1"," ","0","0","[1927.8999999761581]","1","2","","","20692","70","5","2","win","no-go","0"
"pit-trial","189","1144372","0.0-75.0","battery-v0.2","","""event"",""trial"",""time""
""fullscreenenter"",""1"",""4221""
","
","
","""event"",""trial"",""time""
""fullscreenenter"",""1"",""4221""
","
","","","743.6999999284744","","","24","20692","7836","a","elianto","#f73b6a7A"," "," ","1","0","[1593.7000000476837]","1","2","","","20692","71","2","3","lose","go","0"
"pit-trial","190","1149224","0.0-76.0","battery-v0.2","","""event"",""trial"",""time""
""fullscreenenter"",""1"",""4221""
","
","
","""event"",""trial"",""time""
""fullscreenenter"",""1"",""4221""
","
","","","-1","","","24","20692","7836","l","elianto","#3366ff99","-1","-1","1","+10","[]","0","2","","","20692","72","1","2","win","no-go","0"
"pit-trial","191","1154076","0.0-77.0","battery-v0.2","","""event"",""trial"",""time""
""fullscreenenter"",""1"",""4221""
","
","
","""event"",""trial"",""time""
""fullscreenenter"",""1"",""4221""
","
","","","-1","","","24","20692","7836","s","elianto","#3366ff99","-1","-1","1","+10","[]","0","2","","","20692","73","5","2","win","no-go","0"
"pit-trial","192","1157916","0.0-78.0","battery-v0.2","","""event"",""trial"",""time""
""fullscreenenter"",""1"",""4221""
","
","
","""event"",""trial"",""time""
""fullscreenenter"",""1"",""4221""
","
","","","986.6000000238419","","","24","20692","7836","p","elianto","#3366ff99"," "," ","1","+10","[1837.2999999523163]","1","2","","","20692","74","4","1","win","go","0"
"pit-trial","193","1162768","0.0-79.0","battery-v0.2","","""event"",""trial"",""time""
""fullscreenenter"",""1"",""4221""
","
","
","""event"",""trial"",""time""
""fullscreenenter"",""1"",""4221""
","
","","","-1","","","24","20692","7836","g","elianto","#f73b6a7A","-1","-1","1","0","[]","0","2","","","20692","75","3","4","lose","no-go","0"
"pit-trial","194","1167620","0.0-80.0","battery-v0.2","","""event"",""trial"",""time""
""fullscreenenter"",""1"",""4221""
","
","
","""event"",""trial"",""time""
""fullscreenenter"",""1"",""4221""
","
","","","-1","","","24","20692","7836","l","elianto","#3366ff99","-1","-1","1","+10","[]","0","2","","","20692","76","1","2","win","no-go","0"
"pit-trial","195","1171609","0.0-81.0","battery-v0.2","","""event"",""trial"",""time""
""fullscreenenter"",""1"",""4221""
","
","
","""event"",""trial"",""time""
""fullscreenenter"",""1"",""4221""
","
","","","1137.6000000238419","","","24","20692","7836","p","elianto","#3366ff99"," "," ","1","+10","[1987.5999999046326]","1","2","","","20692","77","4","1","win","go","0"
"pit-trial","196","1175225","0.0-82.0","battery-v0.2","","""event"",""trial"",""time""
""fullscreenenter"",""1"",""4221""
","
","
","""event"",""trial"",""time""
""fullscreenenter"",""1"",""4221""
","
","","","763.7000000476837","","","24","20692","7836","p","elianto","#3366ff99"," "," ","1","+10","[1614.2000000476837]","1","2","","","20692","78","4","1","win","go","0"
"pit-trial","197","1180078","0.0-83.0","battery-v0.2","","""event"",""trial"",""time""
""fullscreenenter"",""1"",""4221""
","
","
","""event"",""trial"",""time""
""fullscreenenter"",""1"",""4221""
","
","","","-1","","","24","20692","7836","s","elianto","#3366ff99","-1","-1","1","+10","[]","0","2","","","20692","79","5","2","win","no-go","0"
"pit-trial","198","1184930","0.0-84.0","battery-v0.2","","""event"",""trial"",""time""
""fullscreenenter"",""1"",""4221""
","
","
","""event"",""trial"",""time""
""fullscreenenter"",""1"",""4221""
","
","","","-1","","","24","20692","7836","g","elianto","#f73b6a7A","-1","-1","1","-10","[]","0","2","","","20692","80","3","4","lose","no-go","1"
"pit-trial","199","1188845","0.0-85.0","battery-v0.2","","""event"",""trial"",""time""
""fullscreenenter"",""1"",""4221""
","
","
","""event"",""trial"",""time""
""fullscreenenter"",""1"",""4221""
","
","","","1062.1999999284744","","","24","20692","7836","e","elianto","#f73b6a7A","-1"," ","0","-10","[1912.2999999523163]","1","2","","","20692","81","7","4","lose","no-go","0"
"pit-trial","200","1193697","0.0-86.0","battery-v0.2","","""event"",""trial"",""time""
""fullscreenenter"",""1"",""4221""
","
","
","""event"",""trial"",""time""
""fullscreenenter"",""1"",""4221""
","
","","","-1","","","24","20692","7836","s","elianto","#3366ff99","-1","-1","1","+10","[]","0","2","","","20692","82","5","2","win","no-go","0"
"pit-trial","201","1198549","0.0-87.0","battery-v0.2","","""event"",""trial"",""time""
""fullscreenenter"",""1"",""4221""
","
","
","""event"",""trial"",""time""
""fullscreenenter"",""1"",""4221""
","
","","","-1","","","24","20692","7836","g","elianto","#f73b6a7A","-1","-1","1","0","[]","0","2","","","20692","83","3","4","lose","no-go","0"
"pit-trial","202","1202202","0.0-88.0","battery-v0.2","","""event"",""trial"",""time""
""fullscreenenter"",""1"",""4221""
","
","
","""event"",""trial"",""time""
""fullscreenenter"",""1"",""4221""
","
","","","800.5","","","24","20692","7836","p","elianto","#3366ff99"," "," ","1","+10","[1651.5]","1","2","","","20692","84","4","1","win","go","0"
"pit-trial","203","1205989","0.0-89.0","battery-v0.2","","""event"",""trial"",""time""
""fullscreenenter"",""1"",""4221""
","
","
","""event"",""trial"",""time""
""fullscreenenter"",""1"",""4221""
","
","","","933.2999999523163","","","24","20692","7836","e","elianto","#f73b6a7A","-1"," ","0","0","[1785]","1","2","","","20692","85","7","4","lose","no-go","1"
"pit-trial","204","1209627","0.0-90.0","battery-v0.2","","""event"",""trial"",""time""
""fullscreenenter"",""1"",""4221""
","
","
","""event"",""trial"",""time""
""fullscreenenter"",""1"",""4221""
","
","","","785.8999999761581","","","24","20692","7836","p","elianto","#3366ff99"," "," ","1","0","[1636.7999999523163]","1","2","","","20692","86","4","1","win","go","1"
"pit-trial","205","1214479","0.0-91.0","battery-v0.2","","""event"",""trial"",""time""
""fullscreenenter"",""1"",""4221""
","
","
","""event"",""trial"",""time""
""fullscreenenter"",""1"",""4221""
","
","","","-1","","","24","20692","7836","s","elianto","#3366ff99","-1","-1","1","+10","[]","0","2","","","20692","87","5","2","win","no-go","0"
"pit-trial","206","1218386","0.0-92.0","battery-v0.2","","""event"",""trial"",""time""
""fullscreenenter"",""1"",""4221""
","
","
","""event"",""trial"",""time""
""fullscreenenter"",""1"",""4221""
","
","","","1055.6000000238419","","","24","20692","7836","w","elianto","#f73b6a7A"," "," ","1","-10","[1906.3999999761581]","1","2","","","20692","88","6","3","lose","go","1"
"pit-trial","207","1221997","0.0-93.0","battery-v0.2","","""event"",""trial"",""time""
""fullscreenenter"",""1"",""4221""
","
","
","""event"",""trial"",""time""
""fullscreenenter"",""1"",""4221""
","
","","","757.0999999046326","","","24","20692","7836","p","elianto","#3366ff99"," "," ","1","+10","[1607.7000000476837]","1","2","","","20692","89","4","1","win","go","0"
"pit-trial","208","1226849","0.0-94.0","battery-v0.2","","""event"",""trial"",""time""
""fullscreenenter"",""1"",""4221""
","
","
","""event"",""trial"",""time""
""fullscreenenter"",""1"",""4221""
","
","","","-1","","","24","20692","7836","s","elianto","#3366ff99","-1","-1","1","+10","[]","0","2","","","20692","90","5","2","win","no-go","0"
"pit-trial","209","1231549","0.0-95.0","battery-v0.2","","""event"",""trial"",""time""
""fullscreenenter"",""1"",""4221""
","
","
","""event"",""trial"",""time""
""fullscreenenter"",""1"",""4221""
","
","","","1848","","","24","20692","7836","w","elianto","#f73b6a7A"," "," ","1","0","[2698]","1","2","","","20692","91","6","3","lose","go","0"
"pit-trial","210","1235891","0.0-96.0","battery-v0.2","","""event"",""trial"",""time""
""fullscreenenter"",""1"",""4221""
","
","
","""event"",""trial"",""time""
""fullscreenenter"",""1"",""4221""
","
","","","1491","","","24","20692","7836","e","elianto","#f73b6a7A","-1"," ","0","-10","[2340.899999976158]","1","2","","","20692","92","7","4","lose","no-go","0"
"pit-trial","211","1240744","0.0-97.0","battery-v0.2","","""event"",""trial"",""time""
""fullscreenenter"",""1"",""4221""
","
","
","""event"",""trial"",""time""
""fullscreenenter"",""1"",""4221""
","
","","","-1","","","24","20692","7836","e","elianto","#f73b6a7A","-1","-1","1","0","[]","0","2","","","20692","93","7","4","lose","no-go","0"
"pit-trial","212","1245598","0.0-98.0","battery-v0.2","","""event"",""trial"",""time""
""fullscreenenter"",""1"",""4221""
","
","
","""event"",""trial"",""time""
""fullscreenenter"",""1"",""4221""
","
","","","-1","","","24","20692","7836","s","elianto","#3366ff99","-1","-1","1","+10","[]","0","2","","","20692","94","5","2","win","no-go","0"
"pit-trial","213","1250450","0.0-99.0","battery-v0.2","","""event"",""trial"",""time""
""fullscreenenter"",""1"",""4221""
","
","
","""event"",""trial"",""time""
""fullscreenenter"",""1"",""4221""
","
","","","-1","","","24","20692","7836","w","elianto","#f73b6a7A"," ","-1","0","-10","[]","0","2","","","20692","95","6","3","lose","go","0"
"pit-trial","214","1254355","0.0-100.0","battery-v0.2","","""event"",""trial"",""time""
""fullscreenenter"",""1"",""4221""
","
","
","""event"",""trial"",""time""
""fullscreenenter"",""1"",""4221""
","
","","","1051.5","","","24","20692","7836","d","elianto","#3366ff99"," "," ","1","0","[1901.6999999284744]","1","2","","","20692","96","8","1","win","go","1"
"pit-trial","215","1259207","0.0-101.0","battery-v0.2","","""event"",""trial"",""time""
""fullscreenenter"",""1"",""4221""
","
","
","""event"",""trial"",""time""
""fullscreenenter"",""1"",""4221""
","
","","","-1","","","24","20692","7836","s","elianto","#3366ff99","-1","-1","1","+10","[]","0","2","","","20692","97","5","2","win","no-go","0"
"pit-trial","216","1263762","0.0-102.0","battery-v0.2","","""event"",""trial"",""time""
""fullscreenenter"",""1"",""4221""
","
","
","""event"",""trial"",""time""
""fullscreenenter"",""1"",""4221""
","
","","","1701.3999999761581","","","24","20692","7836","d","elianto","#3366ff99"," "," ","1","+10","[2552.5]","1","2","","","20692","98","8","1","win","go","0"
"pit-trial","217","1267389","0.0-103.0","battery-v0.2","","""event"",""trial"",""time""
""fullscreenenter"",""1"",""4221""
","
","
","""event"",""trial"",""time""
""fullscreenenter"",""1"",""4221""
","
","","","774.3000000715256","","","24","20692","7836","w","elianto","#f73b6a7A"," "," ","1","0","[1625.2000000476837]","1","2","","","20692","99","6","3","lose","go","0"
"pit-trial","218","1272259","0.0-104.0","battery-v0.2","","""event"",""trial"",""time""
""fullscreenenter"",""1"",""4221""
","
","
","""event"",""trial"",""time""
""fullscreenenter"",""1"",""4221""
","
","","","-1","","","24","20692","7836","e","elianto","#f73b6a7A","-1","-1","1","0","[]","0","2","","","20692","100","7","4","lose","no-go","0"
"pit-trial","219","1276062","0.0-105.0","battery-v0.2","","""event"",""trial"",""time""
""fullscreenenter"",""1"",""4221""
","
","
","""event"",""trial"",""time""
""fullscreenenter"",""1"",""4221""
","
","","","950","","","24","20692","7836","j","elianto","#3366ff99"," "," ","1","+10","[1801.3999999761581]","1","2","","","20692","101","9","1","win","go","0"
"pit-trial","220","1280916","0.0-106.0","battery-v0.2","","""event"",""trial"",""time""
""fullscreenenter"",""1"",""4221""
","
","
","""event"",""trial"",""time""
""fullscreenenter"",""1"",""4221""
","
","","","-1","","","24","20692","7836","e","elianto","#f73b6a7A","-1","-1","1","0","[]","0","2","","","20692","102","7","4","lose","no-go","0"
"pit-trial","221","1284435","0.0-107.0","battery-v0.2","","""event"",""trial"",""time""
""fullscreenenter"",""1"",""4221""
","
","
","""event"",""trial"",""time""
""fullscreenenter"",""1"",""4221""
","
","","","666.3999999761581","","","24","20692","7836","d","elianto","#3366ff99"," "," ","1","0","[1517.1000000238419]","1","2","","","20692","103","8","1","win","go","1"
"pit-trial","222","1289288","0.0-108.0","battery-v0.2","","""event"",""trial"",""time""
""fullscreenenter"",""1"",""4221""
","
","
","""event"",""trial"",""time""
""fullscreenenter"",""1"",""4221""
","
","","","-1","","","24","20692","7836","s","elianto","#3366ff99","-1","-1","1","+10","[]","0","2","","","20692","104","5","2","win","no-go","0"
"pit-trial","223","1292835","0.0-109.0","battery-v0.2","","""event"",""trial"",""time""
""fullscreenenter"",""1"",""4221""
","
","
","""event"",""trial"",""time""
""fullscreenenter"",""1"",""4221""
","
","","","694.9000000953674","","","24","20692","7836","d","elianto","#3366ff99"," "," ","1","+10","[1545.1000000238419]","1","2","","","20692","105","8","1","win","go","0"
"pit-trial","224","1296772","0.0-110.0","battery-v0.2","","""event"",""trial"",""time""
""fullscreenenter"",""1"",""4221""
","
","
","""event"",""trial"",""time""
""fullscreenenter"",""1"",""4221""
","
","","","1084.5","","","24","20692","7836","w","elianto","#f73b6a7A"," "," ","1","0","[1935]","1","2","","","20692","106","6","3","lose","go","0"
"pit-trial","225","1300400","0.0-111.0","battery-v0.2","","""event"",""trial"",""time""
""fullscreenenter"",""1"",""4221""
","
","
","""event"",""trial"",""time""
""fullscreenenter"",""1"",""4221""
","
","","","775.1000000238419","","","24","20692","7836","p","elianto","#3366ff99"," "," ","1","0","[1626.3999999761581]","1","2","","","20692","107","4","1","win","go","1"
"pit-trial","226","1303948","0.0-112.0","battery-v0.2","","""event"",""trial"",""time""
""fullscreenenter"",""1"",""4221""
","
","
","""event"",""trial"",""time""
""fullscreenenter"",""1"",""4221""
","
","","","694.2000000476837","","","24","20692","7836","j","elianto","#3366ff99"," "," ","1","0","[1545.1000000238419]","1","2","","","20692","108","9","1","win","go","1"
"pit-trial","227","1308801","0.0-113.0","battery-v0.2","","""event"",""trial"",""time""
""fullscreenenter"",""1"",""4221""
","
","
","""event"",""trial"",""time""
""fullscreenenter"",""1"",""4221""
","
","","","-1","","","24","20692","7836","s","elianto","#3366ff99","-1","-1","1","+10","[]","0","2","","","20692","109","5","2","win","no-go","0"
"pit-trial","228","1312417","0.0-114.0","battery-v0.2","","""event"",""trial"",""time""
""fullscreenenter"",""1"",""4221""
","
","
","""event"",""trial"",""time""
""fullscreenenter"",""1"",""4221""
","
","","","764.3999999761581","","","24","20692","7836","d","elianto","#3366ff99"," "," ","1","+10","[1615]","1","2","","","20692","110","8","1","win","go","0"
"pit-trial","229","1316145","0.0-115.0","battery-v0.2","","""event"",""trial"",""time""
""fullscreenenter"",""1"",""4221""
","
","
","""event"",""trial"",""time""
""fullscreenenter"",""1"",""4221""
","
","","","874.3999999761581","","","24","20692","7836","w","elianto","#f73b6a7A"," "," ","1","0","[1725]","1","2","","","20692","111","6","3","lose","go","0"
"pit-trial","230","1319813","0.0-116.0","battery-v0.2","","""event"",""trial"",""time""
""fullscreenenter"",""1"",""4221""
","
","
","""event"",""trial"",""time""
""fullscreenenter"",""1"",""4221""
","
","","","814.1000000238419","","","24","20692","7836","j","elianto","#3366ff99"," "," ","1","+10","[1665.3999999761581]","1","2","","","20692","112","9","1","win","go","0"
"pit-trial","231","1323463","0.0-117.0","battery-v0.2","","""event"",""trial"",""time""
""fullscreenenter"",""1"",""4221""
","
","
","""event"",""trial"",""time""
""fullscreenenter"",""1"",""4221""
","
","","","798.3999999761581","","","24","20692","7836","j","elianto","#3366ff99"," "," ","1","+10","[1648.7000000476837]","1","2","","","20692","113","9","1","win","go","0"
"pit-trial","232","1326977","0.0-118.0","battery-v0.2","","""event"",""trial"",""time""
""fullscreenenter"",""1"",""4221""
","
","
","""event"",""trial"",""time""
""fullscreenenter"",""1"",""4221""
","
","","","661.3000000715256","","","24","20692","7836","w","elianto","#f73b6a7A"," "," ","1","0","[1512.1000000238419]","1","2","","","20692","114","6","3","lose","go","0"
"pit-trial","233","1331022","0.0-119.0","battery-v0.2","","""event"",""trial"",""time""
""fullscreenenter"",""1"",""4221""
","
","
","""event"",""trial"",""time""
""fullscreenenter"",""1"",""4221""
","
","","","1193.6000000238419","","","24","20692","7836","d","elianto","#3366ff99"," "," ","1","+10","[2043.9000000953674]","1","2","","","20692","115","8","1","win","go","0"
"pit-trial","234","1335875","0.0-120.0","battery-v0.2","","""event"",""trial"",""time""
""fullscreenenter"",""1"",""4221""
","
","
","""event"",""trial"",""time""
""fullscreenenter"",""1"",""4221""
","
","","","-1","","","24","20692","7836","s","elianto","#3366ff99","-1","-1","1","+10","[]","0","2","","","20692","116","5","2","win","no-go","0"
"pit-trial","235","1340727","0.0-121.0","battery-v0.2","","""event"",""trial"",""time""
""fullscreenenter"",""1"",""4221""
","
","
","""event"",""trial"",""time""
""fullscreenenter"",""1"",""4221""
","
","","","-1","","","24","20692","7836","s","elianto","#3366ff99","-1","-1","1","+10","[]","0","2","","","20692","117","5","2","win","no-go","0"
"pit-trial","236","1344510","0.0-122.0","battery-v0.2","","""event"",""trial"",""time""
""fullscreenenter"",""1"",""4221""
","
","
","""event"",""trial"",""time""
""fullscreenenter"",""1"",""4221""
","
","","","929.1000000238419","","","24","20692","7836","w","elianto","#f73b6a7A"," "," ","1","0","[1780.3999999761581]","1","2","","","20692","118","6","3","lose","go","0"
"pit-trial","237","1348522","0.0-123.0","battery-v0.2","","""event"",""trial"",""time""
""fullscreenenter"",""1"",""4221""
","
","
","""event"",""trial"",""time""
""fullscreenenter"",""1"",""4221""
","
","","","1159","","","24","20692","7836","d","elianto","#3366ff99"," "," ","1","+10","[2010.1999999284744]","1","2","","","20692","119","8","1","win","go","0"
"pit-trial","238","1352060","0.0-124.0","battery-v0.2","","""event"",""trial"",""time""
""fullscreenenter"",""1"",""4221""
","
","
","""event"",""trial"",""time""
""fullscreenenter"",""1"",""4221""
","
","","","685.1000000238419","","","24","20692","7836","j","elianto","#3366ff99"," "," ","1","0","[1536.3000000715256]","1","2","","","20692","120","9","1","win","go","1"
"pit-trial","239","1355565","0.0-125.0","battery-v0.2","","""event"",""trial"",""time""
""fullscreenenter"",""1"",""4221""
","
","
","""event"",""trial"",""time""
""fullscreenenter"",""1"",""4221""
","
","","","653.6000000238419","","","24","20692","7836","w","elianto","#f73b6a7A"," "," ","1","0","[1503.8000000715256]","1","2","","","20692","121","6","3","lose","go","0"
"pit-trial","240","1359184","0.0-126.0","battery-v0.2","","""event"",""trial"",""time""
""fullscreenenter"",""1"",""4221""
","
","
","""event"",""trial"",""time""
""fullscreenenter"",""1"",""4221""
","
","","","766.2999999523163","","","24","20692","7836","j","elianto","#3366ff99"," "," ","1","+10","[1616.3999999761581]","1","2","","","20692","122","9","1","win","go","0"
"pit-trial","241","1364037","0.0-127.0","battery-v0.2","","""event"",""trial"",""time""
""fullscreenenter"",""1"",""4221""
","
","
","""event"",""trial"",""time""
""fullscreenenter"",""1"",""4221""
","
","","","-1","","","24","20692","7836","e","elianto","#f73b6a7A","-1","-1","1","0","[]","0","2","","","20692","123","7","4","lose","no-go","0"
"pit-trial","242","1367638","0.0-128.0","battery-v0.2","","""event"",""trial"",""time""
""fullscreenenter"",""1"",""4221""
","
","
","""event"",""trial"",""time""
""fullscreenenter"",""1"",""4221""
","
","","","748.7000000476837","","","24","20692","7836","d","elianto","#3366ff99"," "," ","1","+10","[1598.8000000715256]","1","2","","","20692","124","8","1","win","go","0"
"pit-trial","243","1371214","0.0-129.0","battery-v0.2","","""event"",""trial"",""time""
""fullscreenenter"",""1"",""4221""
","
","
","""event"",""trial"",""time""
""fullscreenenter"",""1"",""4221""
","
","","","723.2000000476837","","","24","20692","7836","d","elianto","#3366ff99"," "," ","1","+10","[1573.7000000476837]","1","2","","","20692","125","8","1","win","go","0"
"pit-trial","244","1374798","0.0-130.0","battery-v0.2","","""event"",""trial"",""time""
""fullscreenenter"",""1"",""4221""
","
","
","""event"",""trial"",""time""
""fullscreenenter"",""1"",""4221""
","
","","","732.2000000476837","","","24","20692","7836","j","elianto","#3366ff99"," "," ","1","0","[1583]","1","2","","","20692","126","9","1","win","go","1"
"pit-trial","245","1378608","0.0-131.0","battery-v0.2","","""event"",""trial"",""time""
""fullscreenenter"",""1"",""4221""
","
","
","""event"",""trial"",""time""
""fullscreenenter"",""1"",""4221""
","
","","","957.3999999761581","","","24","20692","7836","w","elianto","#f73b6a7A"," "," ","1","0","[1808.6999999284744]","1","2","","","20692","127","6","3","lose","go","0"
"pit-trial","246","1383461","0.0-132.0","battery-v0.2","","""event"",""trial"",""time""
""fullscreenenter"",""1"",""4221""
","
","
","""event"",""trial"",""time""
""fullscreenenter"",""1"",""4221""
","
","","","-1","","","24","20692","7836","e","elianto","#f73b6a7A","-1","-1","1","0","[]","0","2","","","20692","128","7","4","lose","no-go","0"
"pit-trial","247","1388314","0.0-133.0","battery-v0.2","","""event"",""trial"",""time""
""fullscreenenter"",""1"",""4221""
","
","
","""event"",""trial"",""time""
""fullscreenenter"",""1"",""4221""
","
","","","-1","","","24","20692","7836","e","elianto","#f73b6a7A","-1","-1","1","-10","[]","0","2","","","20692","129","7","4","lose","no-go","1"
"pit-trial","248","1391912","0.0-134.0","battery-v0.2","","""event"",""trial"",""time""
""fullscreenenter"",""1"",""4221""
","
","
","""event"",""trial"",""time""
""fullscreenenter"",""1"",""4221""
","
","","","733.7000000476837","","","24","20692","7836","j","elianto","#3366ff99"," "," ","1","0","[1595.7999999523163]","1","2","","","20692","130","9","1","win","go","1"
"pit-trial","249","1395607","0.0-135.0","battery-v0.2","","""event"",""trial"",""time""
""fullscreenenter"",""1"",""4221""
","
","
","""event"",""trial"",""time""
""fullscreenenter"",""1"",""4221""
","
","","","841.2000000476837","","","24","20692","7836","d","elianto","#3366ff99"," "," ","1","0","[1692.6000000238419]","1","2","","","20692","131","8","1","win","go","1"
"pit-trial","250","1399309","0.0-136.0","battery-v0.2","","""event"",""trial"",""time""
""fullscreenenter"",""1"",""4221""
","
","
","""event"",""trial"",""time""
""fullscreenenter"",""1"",""4221""
","
","","","849.5","","","24","20692","7836","w","elianto","#f73b6a7A"," "," ","1","0","[1700.2999999523163]","1","2","","","20692","132","6","3","lose","go","0"
"pit-trial","251","1404162","0.0-137.0","battery-v0.2","","""event"",""trial"",""time""
""fullscreenenter"",""1"",""4221""
","
","
","""event"",""trial"",""time""
""fullscreenenter"",""1"",""4221""
","
","","","-1","","","24","20692","7836","e","elianto","#f73b6a7A","-1","-1","1","0","[]","0","2","","","20692","133","7","4","lose","no-go","0"
"pit-trial","252","1407615","0.0-138.0","battery-v0.2","","""event"",""trial"",""time""
""fullscreenenter"",""1"",""4221""
","
","
","""event"",""trial"",""time""
""fullscreenenter"",""1"",""4221""
","
","","","600.7999999523163","","","24","20692","7836","j","elianto","#3366ff99"," "," ","1","+10","[1451.1000000238419]","1","2","","","20692","134","9","1","win","go","0"
"pit-trial","253","1411100","0.0-139.0","battery-v0.2","","""event"",""trial"",""time""
""fullscreenenter"",""1"",""4221""
","
","
","""event"",""trial"",""time""
""fullscreenenter"",""1"",""4221""
","
","","","632.8999999761581","","","24","20692","7836","d","elianto","#3366ff99"," "," ","1","+10","[1483.8999999761581]","1","2","","","20692","135","8","1","win","go","0"
"pit-trial","254","1414968","0.0-140.0","battery-v0.2","","""event"",""trial"",""time""
""fullscreenenter"",""1"",""4221""
","
","
","""event"",""trial"",""time""
""fullscreenenter"",""1"",""4221""
","
","","","1017.1999999284744","","","24","20692","7836","w","elianto","#f73b6a7A"," "," ","1","0","[1867.3999999761581]","1","2","","","20692","136","6","3","lose","go","0"
"pit-trial","255","1419821","0.0-141.0","battery-v0.2","","""event"",""trial"",""time""
""fullscreenenter"",""1"",""4221""
","
","
","""event"",""trial"",""time""
""fullscreenenter"",""1"",""4221""
","
","","","-1","","","24","20692","7836","e","elianto","#f73b6a7A","-1","-1","1","0","[]","0","2","","","20692","137","7","4","lose","no-go","0"
"pit-trial","256","1423581","0.0-142.0","battery-v0.2","","""event"",""trial"",""time""
""fullscreenenter"",""1"",""4221""
","
","
","""event"",""trial"",""time""
""fullscreenenter"",""1"",""4221""
","
","","","907.6999999284744","","","24","20692","7836","w","elianto","#f73b6a7A"," "," ","1","0","[1758.8999999761581]","1","2","","","20692","138","6","3","lose","go","0"
"pit-trial","257","1427278","0.0-143.0","battery-v0.2","","""event"",""trial"",""time""
""fullscreenenter"",""1"",""4221""
","
","
","""event"",""trial"",""time""
""fullscreenenter"",""1"",""4221""
","
","","","845.3999999761581","","","24","20692","7836","d","elianto","#3366ff99"," "," ","1","0","[1696]","1","2","","","20692","139","8","1","win","go","1"
"pit-trial","258","1431525","0.0-144.0","battery-v0.2","","""event"",""trial"",""time""
""fullscreenenter"",""1"",""4221""
","
","
","""event"",""trial"",""time""
""fullscreenenter"",""1"",""4221""
","
","","","1393","","","24","20692","7836","j","elianto","#3366ff99"," "," ","1","0","[2243.7000000476837]","1","2","","","20692","140","9","1","win","go","1"
"pit-instructions","259","1551848","0.0-145.0","battery-v0.2","","""event"",""trial"",""time""
""fullscreenenter"",""1"",""4221""
","
","
","""event"",""trial"",""time""
""fullscreenenter"",""1"",""4221""
","
","","[{""page_index"":0,""viewing_time"":5901.099999904633},{""page_index"":1,""viewing_time"":114420.30000007153}]","120321.69999992847","","","","","","","","","","","","","","","","","","","","","","","",""
"pit-trial","260","1555262","0.0-146.0","battery-v0.2","","""event"",""trial"",""time""
""fullscreenenter"",""1"",""4221""
","
","
","""event"",""trial"",""time""
""fullscreenenter"",""1"",""4221""
","
","","","560","","","24","20692","7836","y","elianto","#f73b6a7A","-1"," ","0","0","[1411]","1","3","","","20692","141","2","4","lose","no-go","1"
"pit-trial","261","1558910","0.0-147.0","battery-v0.2","","""event"",""trial"",""time""
""fullscreenenter"",""1"",""4221""
","
","
","""event"",""trial"",""time""
""fullscreenenter"",""1"",""4221""
","
","","","795.7999999523163","","","24","20692","7836","m","elianto","#f73b6a7A","-1"," ","0","-10","[1646.5]","1","3","","","20692","142","0","4","lose","no-go","0"
"pit-trial","262","1562632","0.0-148.0","battery-v0.2","","""event"",""trial"",""time""
""fullscreenenter"",""1"",""4221""
","
","
","""event"",""trial"",""time""
""fullscreenenter"",""1"",""4221""
","
","","","869.6000000238419","","","24","20692","7836","h","elianto","#f73b6a7A"," "," ","1","0","[1720.3999999761581]","1","3","","","20692","143","3","3","lose","go","0"
"pit-trial","263","1566248","0.0-149.0","battery-v0.2","","""event"",""trial"",""time""
""fullscreenenter"",""1"",""4221""
","
","
","""event"",""trial"",""time""
""fullscreenenter"",""1"",""4221""
","
","","","763.3999999761581","","","24","20692","7836","r","elianto","#3366ff99"," "," ","1","0","[1613.8999999761581]","1","3","","","20692","144","1","1","win","go","1"
"pit-trial","264","1570233","0.0-150.0","battery-v0.2","","""event"",""trial"",""time""
""fullscreenenter"",""1"",""4221""
","
","
","""event"",""trial"",""time""
""fullscreenenter"",""1"",""4221""
","
","","","1129.8999999761581","","","24","20692","7836","h","elianto","#f73b6a7A"," "," ","1","0","[1982.6000000238419]","1","3","","","20692","145","3","3","lose","go","0"
"pit-trial","265","1574192","0.0-151.0","battery-v0.2","","""event"",""trial"",""time""
""fullscreenenter"",""1"",""4221""
","
","
","""event"",""trial"",""time""
""fullscreenenter"",""1"",""4221""
","
","","","1105.7000000476837","","","24","20692","7836","r","elianto","#3366ff99"," "," ","1","0","[1957.3999999761581]","1","3","","","20692","146","1","1","win","go","1"
