"trial_type","trial_index","time_elapsed","internal_node_id","task_version","subject_id","interactions","blur_events","focus_events","fullscreenenter_events","fullscreenexit_events","success","view_history","rt","responses","num_errors","age","subject","participantId","rune","rune_set","hex","correct","choice","accuracy","outcome","keys","total_keys","block","practice","value","sub","trial","stimulus","robot","valence","action","sham"
"pavlovia","0","8","0.0-0.0","battery-v0.2","","""event"",""trial"",""time""
""fullscreenenter"",""1"",""2239""
","
","
","""event"",""trial"",""time""
""fullscreenenter"",""1"",""2239""
","
","","","","","","","","","","","","","","","","","","","","","","","","","","",""
"fullscreen","1","3202","0.0-1.0","battery-v0.2","","""event"",""trial"",""time""
""fullscreenenter"",""1"",""2239""
","
","
","""event"",""trial"",""time""
""fullscreenenter"",""1"",""2239""
","
","true","","","","","","","","","","","","","","","","","","","","","","","","","",""
"pit-instructions","2","15557","0.0-2.0-0.0","battery-v0.2","","""event"",""trial"",""time""
""fullscreenenter"",""1"",""2239""
","
","
","""event"",""trial"",""time""
""fullscreenenter"",""1"",""2239""
","
","","[{""page_index"":0,""viewing_time"":12351.60000000149}]","12352.10000000149","","","","","","","","","","","","","","","","","","","","","","","",""
"pit-comprehension","3","22309","0.0-2.0-1.0-0.0","battery-v0.2","","""event"",""trial"",""time""
""fullscreenenter"",""1"",""2239""
","
","
","""event"",""trial"",""time""
""fullscreenenter"",""1"",""2239""
","
","","","6728.79999999702","[""shark""]","0","14","11476","5322","","","","","","","","","","","","","","","","","","",""
"pit-instructions","4","27665","0.0-2.0-1.0-1.0","battery-v0.2","","""event"",""trial"",""time""
""fullscreenenter"",""1"",""2239""
","
","
","""event"",""trial"",""time""
""fullscreenenter"",""1"",""2239""
","
","","[{""page_index"":0,""viewing_time"":5303.39999999851}]","5304.10000000149","","","","","","","","","","","","","","","","","","","","","","","",""
"pit-comprehension","5","33586","0.0-2.0-2.0-0.0","battery-v0.2","","""event"",""trial"",""time""
""fullscreenenter"",""1"",""2239""
","
","
","""event"",""trial"",""time""
""fullscreenenter"",""1"",""2239""
","
","","","5916","[""tiger""]","0","14","11476","5322","","","","","","","","","","","","","","","","","","",""
"pit-instructions","6","37026","0.0-2.0-2.0-1.0","battery-v0.2","","""event"",""trial"",""time""
""fullscreenenter"",""1"",""2239""
","
","
","""event"",""trial"",""time""
""fullscreenenter"",""1"",""2239""
","
","","[{""page_index"":0,""viewing_time"":3435.1999999955297}]","3435.2999999970198","","","","","","","","","","","","","","","","","","","","","","","",""
"pit-instructions","7","170799","0.0-2.0-3.0","battery-v0.2","","""event"",""trial"",""time""
""fullscreenenter"",""1"",""2239""
","
","
","""event"",""trial"",""time""
""fullscreenenter"",""1"",""2239""
","
","","[{""page_index"":0,""viewing_time"":12184.80000000447},{""page_index"":1,""viewing_time"":7197.79999999702},{""page_index"":2,""viewing_time"":6719.10000000149},{""page_index"":3,""viewing_time"":5951.29999999702},{""page_index"":4,""viewing_time"":6398.30000000447},{""page_index"":5,""viewing_time"":9074.79999999702},{""page_index"":6,""viewing_time"":9330.5},{""page_index"":5,""viewing_time"":4317.70000000298},{""page_index"":6,""viewing_time"":6978.89999999851},{""page_index"":7,""viewing_time"":8164},{""page_index"":8,""viewing_time"":6728.10000000149},{""page_index"":9,""viewing_time"":10090.39999999851},{""page_index"":10,""viewing_time"":7636.60000000149},{""page_index"":9,""viewing_time"":2439.5},{""page_index"":10,""viewing_time"":6935.39999999851},{""page_index"":11,""viewing_time"":9600.70000000298},{""page_index"":12,""viewing_time"":6477.5999999940395},{""page_index"":13,""viewing_time"":7545.70000000298}]","133772.20000000298","","","","","","","","","","","","","","","","","","","","","","","",""
"pit-trial","8","174190","0.0-2.0-4.0-0.0","battery-v0.2","","""event"",""trial"",""time""
""fullscreenenter"",""1"",""2239""
","
","
","""event"",""trial"",""time""
""fullscreenenter"",""1"",""2239""
","
","","","528.7000000029802","","","14","11476","5322","&#9784;","elianto","#FFFFF080"," "," ","1","&#10004","[1380.8999999985099]","1","0","0","","","","","","","",""
"pit-trial","9","177587","0.0-2.0-4.1-0.1","battery-v0.2","","""event"",""trial"",""time""
""fullscreenenter"",""1"",""2239""
","
","
","""event"",""trial"",""time""
""fullscreenenter"",""1"",""2239""
","
","","","539.6999999955297","","","14","11476","5322","&#9784;","elianto","#FFFFF080"," "," ","1","&#10004","[1390.8999999985099]","1","0","0","","","","","","","",""
"pit-trial","10","180969","0.0-2.0-4.2-0.2","battery-v0.2","","""event"",""trial"",""time""
""fullscreenenter"",""1"",""2239""
","
","
","""event"",""trial"",""time""
""fullscreenenter"",""1"",""2239""
","
","","","527.3999999985099","","","14","11476","5322","&#9784;","elianto","#FFFFF080"," "," ","1","&#10004","[1378.2999999970198]","1","0","0","","","","","","","",""
"pit-trial","11","184240","0.0-2.0-4.3-0.3","battery-v0.2","","""event"",""trial"",""time""
""fullscreenenter"",""1"",""2239""
","
","
","""event"",""trial"",""time""
""fullscreenenter"",""1"",""2239""
","
","","","409.69999999552965","","","14","11476","5322","&#9784;","elianto","#FFFFF080"," "," ","1","&#10004","[1260.6999999955297]","1","0","0","","","","","","","",""
"pit-trial","12","187676","0.0-2.0-4.4-0.4","battery-v0.2","","""event"",""trial"",""time""
""fullscreenenter"",""1"",""2239""
","
","
","""event"",""trial"",""time""
""fullscreenenter"",""1"",""2239""
","
","","","576.6999999955297","","","14","11476","5322","&#9784;","elianto","#FFFFF080"," "," ","1","&#10004","[1427.5]","1","0","0","","","","","","","",""
"pit-instructions","13","217843","0.0-2.0-5.0","battery-v0.2","","""event"",""trial"",""time""
""fullscreenenter"",""1"",""2239""
","
","
","""event"",""trial"",""time""
""fullscreenenter"",""1"",""2239""
","
","","[{""page_index"":0,""viewing_time"":10900.10000000149},{""page_index"":1,""viewing_time"":7787.5},{""page_index"":2,""viewing_time"":5899.39999999851},{""page_index"":3,""viewing_time"":5576.5}]","30163.80000000447","","","","","","","","","","","","","","","","","","","","","","","",""
"pit-trial","14","222703","0.0-2.0-6.0-0.0","battery-v0.2","","""event"",""trial"",""time""
""fullscreenenter"",""1"",""2239""
","
","
","""event"",""trial"",""time""
""fullscreenenter"",""1"",""2239""
","
","","","-1","","","14","11476","5322","&#9854;","elianto","#FFFFF080","-1","-1","1","&#10004","[]","0","0","1","","","","","","","",""
"pit-trial","15","227569","0.0-2.0-6.1-0.1","battery-v0.2","","""event"",""trial"",""time""
""fullscreenenter"",""1"",""2239""
","
","
","""event"",""trial"",""time""
""fullscreenenter"",""1"",""2239""
","
","","","-1","","","14","11476","5322","&#9854;","elianto","#FFFFF080","-1","-1","1","&#10004","[]","0","0","1","","","","","","","",""
"pit-trial","16","232426","0.0-2.0-6.2-0.2","battery-v0.2","","""event"",""trial"",""time""
""fullscreenenter"",""1"",""2239""
","
","
","""event"",""trial"",""time""
""fullscreenenter"",""1"",""2239""
","
","","","-1","","","14","11476","5322","&#9854;","elianto","#FFFFF080","-1","-1","1","&#10004","[]","0","0","1","","","","","","","",""
"pit-trial","17","237287","0.0-2.0-6.3-0.3","battery-v0.2","","""event"",""trial"",""time""
""fullscreenenter"",""1"",""2239""
","
","
","""event"",""trial"",""time""
""fullscreenenter"",""1"",""2239""
","
","","","-1","","","14","11476","5322","&#9854;","elianto","#FFFFF080","-1","-1","1","&#10004","[]","0","0","1","","","","","","","",""
"pit-trial","18","242153","0.0-2.0-6.4-0.4","battery-v0.2","","""event"",""trial"",""time""
""fullscreenenter"",""1"",""2239""
","
","
","""event"",""trial"",""time""
""fullscreenenter"",""1"",""2239""
","
","","","-1","","","14","11476","5322","&#9854;","elianto","#FFFFF080","-1","-1","1","&#10004","[]","0","0","1","","","","","","","",""
"pit-instructions","19","406045","0.0-2.0-7.0","battery-v0.2","","""event"",""trial"",""time""
""fullscreenenter"",""1"",""2239""
","
","
","""event"",""trial"",""time""
""fullscreenenter"",""1"",""2239""
","
","","[{""page_index"":0,""viewing_time"":11679.10000000149},{""page_index"":1,""viewing_time"":13852.20000000298},{""page_index"":2,""viewing_time"":10281.79999999702},{""page_index"":3,""viewing_time"":11320.10000000149},{""page_index"":4,""viewing_time"":9899.5},{""page_index"":5,""viewing_time"":7735.89999999851},{""page_index"":6,""viewing_time"":4832.20000000298},{""page_index"":7,""viewing_time"":15281.79999999702},{""page_index"":8,""viewing_time"":11759.39999999851},{""page_index"":9,""viewing_time"":7152.4000000059605},{""page_index"":10,""viewing_time"":7568.19999999553},{""page_index"":11,""viewing_time"":4911},{""page_index"":12,""viewing_time"":7626.60000000149},{""page_index"":13,""viewing_time"":7817.39999999851},{""page_index"":14,""viewing_time"":9021.39999999851},{""page_index"":15,""viewing_time"":8428},{""page_index"":16,""viewing_time"":7236.60000000149},{""page_index"":17,""viewing_time"":7484.80000000447}]","163889.90000000596","","","","","","","","","","","","","","","","","","","","","","","",""
"pit-trial","20","410288","0.0-2.0-8.0-0.0","battery-v0.2","","""event"",""trial"",""time""
""fullscreenenter"",""1"",""2239""
","
","
","""event"",""trial"",""time""
""fullscreenenter"",""1"",""2239""
","
","","","1380","","","14","11476","5322","&#9776;","elianto","#3366ff99"," "," ","1","+10","[2232.89999999851]","1","0","1","","","","","","","",""
"pit-trial","21","413805","0.0-2.0-8.0-1.0","battery-v0.2","","""event"",""trial"",""time""
""fullscreenenter"",""1"",""2239""
","
","
","""event"",""trial"",""time""
""fullscreenenter"",""1"",""2239""
","
","","","654.8999999985099","","","14","11476","5322","&#9776;","elianto","#3366ff99"," "," ","1","+10","[1507.2999999970198]","1","0","1","","","","","","","",""
"pit-trial","22","417181","0.0-2.0-8.0-2.0","battery-v0.2","","""event"",""trial"",""time""
""fullscreenenter"",""1"",""2239""
","
","
","""event"",""trial"",""time""
""fullscreenenter"",""1"",""2239""
","
","","","521.2000000029802","","","14","11476","5322","&#9776;","elianto","#3366ff99"," "," ","1","+10","[1371.7999999970198]","1","0","1","","","","","","","",""
"pit-trial","23","420488","0.0-2.0-8.0-3.0","battery-v0.2","","""event"",""trial"",""time""
""fullscreenenter"",""1"",""2239""
","
","
","""event"",""trial"",""time""
""fullscreenenter"",""1"",""2239""
","
","","","451.29999999701977","","","14","11476","5322","&#9776;","elianto","#3366ff99"," "," ","1","0","[1301.3000000044703]","1","0","1","","","","","","","",""
"pit-trial","24","423835","0.0-2.0-8.0-4.0","battery-v0.2","","""event"",""trial"",""time""
""fullscreenenter"",""1"",""2239""
","
","
","""event"",""trial"",""time""
""fullscreenenter"",""1"",""2239""
","
","","","486.8999999985099","","","14","11476","5322","&#9776;","elianto","#3366ff99"," "," ","1","+10","[1338.5]","1","0","1","","","","","","","",""
"pit-trial","25","427000","0.0-2.0-8.1-0.1","battery-v0.2","","""event"",""trial"",""time""
""fullscreenenter"",""1"",""2239""
","
","
","""event"",""trial"",""time""
""fullscreenenter"",""1"",""2239""
","
","","","305.79999999701977","","","14","11476","5322","&#9776;","elianto","#3366ff99"," "," ","1","+10","[1157]","1","0","1","","","","","","","",""
"pit-trial","26","430262","0.0-2.0-8.1-1.1","battery-v0.2","","""event"",""trial"",""time""
""fullscreenenter"",""1"",""2239""
","
","
","""event"",""trial"",""time""
""fullscreenenter"",""1"",""2239""
","
","","","407.80000000447035","","","14","11476","5322","&#9776;","elianto","#3366ff99"," "," ","1","+10","[1258.3999999985099]","1","0","1","","","","","","","",""
"pit-trial","27","433526","0.0-2.0-8.1-2.1","battery-v0.2","","""event"",""trial"",""time""
""fullscreenenter"",""1"",""2239""
","
","
","""event"",""trial"",""time""
""fullscreenenter"",""1"",""2239""
","
","","","401.80000000447035","","","14","11476","5322","&#9776;","elianto","#3366ff99"," "," ","1","+10","[1254.8000000044703]","1","0","1","","","","","","","",""
"pit-trial","28","436779","0.0-2.0-8.1-3.1","battery-v0.2","","""event"",""trial"",""time""
""fullscreenenter"",""1"",""2239""
","
","
","""event"",""trial"",""time""
""fullscreenenter"",""1"",""2239""
","
","","","389.6000000014901","","","14","11476","5322","&#9776;","elianto","#3366ff99"," "," ","1","0","[1241.5999999940395]","1","0","1","","","","","","","",""
"pit-trial","29","440047","0.0-2.0-8.1-4.1","battery-v0.2","","""event"",""trial"",""time""
""fullscreenenter"",""1"",""2239""
","
","
","""event"",""trial"",""time""
""fullscreenenter"",""1"",""2239""
","
","","","404.29999999701977","","","14","11476","5322","&#9776;","elianto","#3366ff99"," "," ","1","+10","[1256.4000000059605]","1","0","1","","","","","","","",""
"pit-trial","30","443367","0.0-2.0-8.2-0.2","battery-v0.2","","""event"",""trial"",""time""
""fullscreenenter"",""1"",""2239""
","
","
","""event"",""trial"",""time""
""fullscreenenter"",""1"",""2239""
","
","","","458.29999999701977","","","14","11476","5322","&#9776;","elianto","#3366ff99"," "," ","1","+10","[1308.9000000059605]","1","0","1","","","","","","","",""
"pit-trial","31","446680","0.0-2.0-8.2-1.2","battery-v0.2","","""event"",""trial"",""time""
""fullscreenenter"",""1"",""2239""
","
","
","""event"",""trial"",""time""
""fullscreenenter"",""1"",""2239""
","
","","","454","","","14","11476","5322","&#9776;","elianto","#3366ff99"," "," ","1","+10","[1304.5999999940395]","1","0","1","","","","","","","",""
"pit-trial","32","450064","0.0-2.0-8.2-2.2","battery-v0.2","","""event"",""trial"",""time""
""fullscreenenter"",""1"",""2239""
","
","
","""event"",""trial"",""time""
""fullscreenenter"",""1"",""2239""
","
","","","523.8000000044703","","","14","11476","5322","&#9776;","elianto","#3366ff99"," "," ","1","+10","[1376.5]","1","0","1","","","","","","","",""
"pit-trial","33","453505","0.0-2.0-8.2-3.2","battery-v0.2","","""event"",""trial"",""time""
""fullscreenenter"",""1"",""2239""
","
","
","""event"",""trial"",""time""
""fullscreenenter"",""1"",""2239""
","
","","","579.2000000029802","","","14","11476","5322","&#9776;","elianto","#3366ff99"," "," ","1","0","[1430]","1","0","1","","","","","","","",""
"pit-trial","34","456428","0.0-2.0-8.2-4.2","battery-v0.2","","""event"",""trial"",""time""
""fullscreenenter"",""1"",""2239""
","
","
","""event"",""trial"",""time""
""fullscreenenter"",""1"",""2239""
","
","","","64.70000000298023","","","14","11476","5322","&#9776;","elianto","#3366ff99"," "," ","1","+10","[916.7000000029802]","1","0","1","","","","","","","",""
"call-function","35","456433","0.0-2.0-9.0","battery-v0.2","","""event"",""trial"",""time""
""fullscreenenter"",""1"",""2239""
","
","
","""event"",""trial"",""time""
""fullscreenenter"",""1"",""2239""
","
","","","","","","","","","","","","","","","","","","","","","","","","","","",""
"pit-instructions","36","513061","0.0-2.0-10.0","battery-v0.2","","""event"",""trial"",""time""
""fullscreenenter"",""1"",""2239""
","
","
","""event"",""trial"",""time""
""fullscreenenter"",""1"",""2239""
","
","","[{""page_index"":0,""viewing_time"":7828},{""page_index"":1,""viewing_time"":8025.89999999851},{""page_index"":2,""viewing_time"":10667.89999999851},{""page_index"":3,""viewing_time"":12245.10000000149},{""page_index"":4,""viewing_time"":923},{""page_index"":3,""viewing_time"":9566.5},{""page_index"":4,""viewing_time"":7368.60000000149}]","56626.70000000298","","","","","","","","","","","","","","","","","","","","","","","",""
"pit-trial","37","517925","0.0-2.0-11.0-0.0","battery-v0.2","","""event"",""trial"",""time""
""fullscreenenter"",""1"",""2239""
","
","
","""event"",""trial"",""time""
""fullscreenenter"",""1"",""2239""
","
","","","-1","","","14","11476","5322","&#9761;","elianto","#3366ff99","-1","-1","1","+10","[]","0","0","2","","","","","","","",""
"pit-trial","38","522782","0.0-2.0-11.0-1.0","battery-v0.2","","""event"",""trial"",""time""
""fullscreenenter"",""1"",""2239""
","
","
","""event"",""trial"",""time""
""fullscreenenter"",""1"",""2239""
","
","","","-1","","","14","11476","5322","&#9761;","elianto","#3366ff99","-1","-1","1","+10","[]","0","0","2","","","","","","","",""
"pit-trial","39","527644","0.0-2.0-11.0-2.0","battery-v0.2","","""event"",""trial"",""time""
""fullscreenenter"",""1"",""2239""
","
","
","""event"",""trial"",""time""
""fullscreenenter"",""1"",""2239""
","
","","","-1","","","14","11476","5322","&#9761;","elianto","#3366ff99","-1","-1","1","+10","[]","0","0","2","","","","","","","",""
"pit-trial","40","532503","0.0-2.0-11.0-3.0","battery-v0.2","","""event"",""trial"",""time""
""fullscreenenter"",""1"",""2239""
","
","
","""event"",""trial"",""time""
""fullscreenenter"",""1"",""2239""
","
","","","-1","","","14","11476","5322","&#9761;","elianto","#3366ff99","-1","-1","1","0","[]","0","0","2","","","","","","","",""
"pit-trial","41","537366","0.0-2.0-11.0-4.0","battery-v0.2","","""event"",""trial"",""time""
""fullscreenenter"",""1"",""2239""
","
","
","""event"",""trial"",""time""
""fullscreenenter"",""1"",""2239""
","
","","","-1","","","14","11476","5322","&#9761;","elianto","#3366ff99","-1","-1","1","+10","[]","0","0","2","","","","","","","",""
"pit-trial","42","542233","0.0-2.0-11.1-0.1","battery-v0.2","","""event"",""trial"",""time""
""fullscreenenter"",""1"",""2239""
","
","
","""event"",""trial"",""time""
""fullscreenenter"",""1"",""2239""
","
","","","-1","","","14","11476","5322","&#9761;","elianto","#3366ff99","-1","-1","1","+10","[]","0","0","2","","","","","","","",""
"pit-trial","43","547095","0.0-2.0-11.1-1.1","battery-v0.2","","""event"",""trial"",""time""
""fullscreenenter"",""1"",""2239""
","
","
","""event"",""trial"",""time""
""fullscreenenter"",""1"",""2239""
","
","","","-1","","","14","11476","5322","&#9761;","elianto","#3366ff99","-1","-1","1","+10","[]","0","0","2","","","","","","","",""
"pit-trial","44","551969","0.0-2.0-11.1-2.1","battery-v0.2","","""event"",""trial"",""time""
""fullscreenenter"",""1"",""2239""
","
","
","""event"",""trial"",""time""
""fullscreenenter"",""1"",""2239""
","
","","","-1","","","14","11476","5322","&#9761;","elianto","#3366ff99","-1","-1","1","+10","[]","0","0","2","","","","","","","",""
"pit-trial","45","556835","0.0-2.0-11.1-3.1","battery-v0.2","","""event"",""trial"",""time""
""fullscreenenter"",""1"",""2239""
","
","
","""event"",""trial"",""time""
""fullscreenenter"",""1"",""2239""
","
","","","-1","","","14","11476","5322","&#9761;","elianto","#3366ff99","-1","-1","1","0","[]","0","0","2","","","","","","","",""
"pit-trial","46","561701","0.0-2.0-11.1-4.1","battery-v0.2","","""event"",""trial"",""time""
""fullscreenenter"",""1"",""2239""
","
","
","""event"",""trial"",""time""
""fullscreenenter"",""1"",""2239""
","
","","","-1","","","14","11476","5322","&#9761;","elianto","#3366ff99","-1","-1","1","+10","[]","0","0","2","","","","","","","",""
"pit-trial","47","566568","0.0-2.0-11.2-0.2","battery-v0.2","","""event"",""trial"",""time""
""fullscreenenter"",""1"",""2239""
","
","
","""event"",""trial"",""time""
""fullscreenenter"",""1"",""2239""
","
","","","-1","","","14","11476","5322","&#9761;","elianto","#3366ff99","-1","-1","1","+10","[]","0","0","2","","","","","","","",""
"pit-trial","48","571434","0.0-2.0-11.2-1.2","battery-v0.2","","""event"",""trial"",""time""
""fullscreenenter"",""1"",""2239""
","
","
","""event"",""trial"",""time""
""fullscreenenter"",""1"",""2239""
","
","","","-1","","","14","11476","5322","&#9761;","elianto","#3366ff99","-1","-1","1","+10","[]","0","0","2","","","","","","","",""
"pit-trial","49","576293","0.0-2.0-11.2-2.2","battery-v0.2","","""event"",""trial"",""time""
""fullscreenenter"",""1"",""2239""
","
","
","""event"",""trial"",""time""
""fullscreenenter"",""1"",""2239""
","
","","","-1","","","14","11476","5322","&#9761;","elianto","#3366ff99","-1","-1","1","+10","[]","0","0","2","","","","","","","",""
"pit-trial","50","581154","0.0-2.0-11.2-3.2","battery-v0.2","","""event"",""trial"",""time""
""fullscreenenter"",""1"",""2239""
","
","
","""event"",""trial"",""time""
""fullscreenenter"",""1"",""2239""
","
","","","-1","","","14","11476","5322","&#9761;","elianto","#3366ff99","-1","-1","1","0","[]","0","0","2","","","","","","","",""
"pit-trial","51","586009","0.0-2.0-11.2-4.2","battery-v0.2","","""event"",""trial"",""time""
""fullscreenenter"",""1"",""2239""
","
","
","""event"",""trial"",""time""
""fullscreenenter"",""1"",""2239""
","
","","","-1","","","14","11476","5322","&#9761;","elianto","#3366ff99","-1","-1","1","+10","[]","0","0","2","","","","","","","",""
"pit-trial","52","590876","0.0-2.0-11.3-0.3","battery-v0.2","","""event"",""trial"",""time""
""fullscreenenter"",""1"",""2239""
","
","
","""event"",""trial"",""time""
""fullscreenenter"",""1"",""2239""
","
","","","-1","","","14","11476","5322","&#9761;","elianto","#3366ff99","-1","-1","1","+10","[]","0","0","2","","","","","","","",""
"pit-trial","53","595739","0.0-2.0-11.3-1.3","battery-v0.2","","""event"",""trial"",""time""
""fullscreenenter"",""1"",""2239""
","
","
","""event"",""trial"",""time""
""fullscreenenter"",""1"",""2239""
","
","","","-1","","","14","11476","5322","&#9761;","elianto","#3366ff99","-1","-1","1","+10","[]","0","0","2","","","","","","","",""
"pit-trial","54","600601","0.0-2.0-11.3-2.3","battery-v0.2","","""event"",""trial"",""time""
""fullscreenenter"",""1"",""2239""
","
","
","""event"",""trial"",""time""
""fullscreenenter"",""1"",""2239""
","
","","","-1","","","14","11476","5322","&#9761;","elianto","#3366ff99","-1","-1","1","+10","[]","0","0","2","","","","","","","",""
"pit-trial","55","605464","0.0-2.0-11.3-3.3","battery-v0.2","","""event"",""trial"",""time""
""fullscreenenter"",""1"",""2239""
","
","
","""event"",""trial"",""time""
""fullscreenenter"",""1"",""2239""
","
","","","-1","","","14","11476","5322","&#9761;","elianto","#3366ff99","-1","-1","1","0","[]","0","0","2","","","","","","","",""
"pit-trial","56","610326","0.0-2.0-11.3-4.3","battery-v0.2","","""event"",""trial"",""time""
""fullscreenenter"",""1"",""2239""
","
","
","""event"",""trial"",""time""
""fullscreenenter"",""1"",""2239""
","
","","","-1","","","14","11476","5322","&#9761;","elianto","#3366ff99","-1","-1","1","+10","[]","0","0","2","","","","","","","",""
"call-function","57","610329","0.0-2.0-12.0","battery-v0.2","","""event"",""trial"",""time""
""fullscreenenter"",""1"",""2239""
","
","
","""event"",""trial"",""time""
""fullscreenenter"",""1"",""2239""
","
","","","","","","","","","","","","","","","","","","","","","","","","","","",""
"pit-instructions","58","645457","0.0-2.0-13.0","battery-v0.2","","""event"",""trial"",""time""
""fullscreenenter"",""1"",""2239""
","
","
","""event"",""trial"",""time""
""fullscreenenter"",""1"",""2239""
","
","","[{""page_index"":0,""viewing_time"":5976.60000000149},{""page_index"":1,""viewing_time"":8152.89999999851},{""page_index"":2,""viewing_time"":5721.9000000059605},{""page_index"":3,""viewing_time"":10298},{""page_index"":4,""viewing_time"":4976.29999999702}]","35126.70000000298","","","","","","","","","","","","","","","","","","","","","","","",""
"pit-trial","59","649109","0.0-2.0-14.0-0.0","battery-v0.2","","""event"",""trial"",""time""
""fullscreenenter"",""1"",""2239""
","
","
","""event"",""trial"",""time""
""fullscreenenter"",""1"",""2239""
","
","","","792.2999999970198","","","14","11476","5322","&#9826;","elianto","#f73b6a7A","-1"," ","0","-10","[1643.9000000059605]","1","0","3","","","","","","","",""
"pit-trial","60","653976","0.0-2.0-14.0-1.0","battery-v0.2","","""event"",""trial"",""time""
""fullscreenenter"",""1"",""2239""
","
","
","""event"",""trial"",""time""
""fullscreenenter"",""1"",""2239""
","
","","","-1","","","14","11476","5322","&#9826;","elianto","#f73b6a7A","-1","-1","1","0","[]","0","0","3","","","","","","","",""
"pit-trial","61","658840","0.0-2.0-14.0-2.0","battery-v0.2","","""event"",""trial"",""time""
""fullscreenenter"",""1"",""2239""
","
","
","""event"",""trial"",""time""
""fullscreenenter"",""1"",""2239""
","
","","","-1","","","14","11476","5322","&#9826;","elianto","#f73b6a7A","-1","-1","1","0","[]","0","0","3","","","","","","","",""
"pit-trial","62","663714","0.0-2.0-14.0-3.0","battery-v0.2","","""event"",""trial"",""time""
""fullscreenenter"",""1"",""2239""
","
","
","""event"",""trial"",""time""
""fullscreenenter"",""1"",""2239""
","
","","","-1","","","14","11476","5322","&#9826;","elianto","#f73b6a7A","-1","-1","1","-10","[2973.2999999970198]","1","0","3","","","","","","","",""
"pit-trial","63","668572","0.0-2.0-14.0-4.0","battery-v0.2","","""event"",""trial"",""time""
""fullscreenenter"",""1"",""2239""
","
","
","""event"",""trial"",""time""
""fullscreenenter"",""1"",""2239""
","
","","","-1","","","14","11476","5322","&#9826;","elianto","#f73b6a7A","-1","-1","1","0","[]","0","0","3","","","","","","","",""
"pit-trial","64","673440","0.0-2.0-14.1-0.1","battery-v0.2","","""event"",""trial"",""time""
""fullscreenenter"",""1"",""2239""
","
","
","""event"",""trial"",""time""
""fullscreenenter"",""1"",""2239""
","
","","","-1","","","14","11476","5322","&#9826;","elianto","#f73b6a7A","-1","-1","1","0","[]","0","0","3","","","","","","","",""
"pit-trial","65","678304","0.0-2.0-14.1-1.1","battery-v0.2","","""event"",""trial"",""time""
""fullscreenenter"",""1"",""2239""
","
","
","""event"",""trial"",""time""
""fullscreenenter"",""1"",""2239""
","
","","","-1","","","14","11476","5322","&#9826;","elianto","#f73b6a7A","-1","-1","1","0","[]","0","0","3","","","","","","","",""
"pit-trial","66","683160","0.0-2.0-14.1-2.1","battery-v0.2","","""event"",""trial"",""time""
""fullscreenenter"",""1"",""2239""
","
","
","""event"",""trial"",""time""
""fullscreenenter"",""1"",""2239""
","
","","","-1","","","14","11476","5322","&#9826;","elianto","#f73b6a7A","-1","-1","1","0","[]","0","0","3","","","","","","","",""
"pit-trial","67","688020","0.0-2.0-14.1-3.1","battery-v0.2","","""event"",""trial"",""time""
""fullscreenenter"",""1"",""2239""
","
","
","""event"",""trial"",""time""
""fullscreenenter"",""1"",""2239""
","
","","","-1","","","14","11476","5322","&#9826;","elianto","#f73b6a7A","-1","-1","1","-10","[]","0","0","3","","","","","","","",""
"pit-trial","68","692884","0.0-2.0-14.1-4.1","battery-v0.2","","""event"",""trial"",""time""
""fullscreenenter"",""1"",""2239""
","
","
","""event"",""trial"",""time""
""fullscreenenter"",""1"",""2239""
","
","","","-1","","","14","11476","5322","&#9826;","elianto","#f73b6a7A","-1","-1","1","0","[]","0","0","3","","","","","","","",""
"pit-trial","69","697751","0.0-2.0-14.2-0.2","battery-v0.2","","""event"",""trial"",""time""
""fullscreenenter"",""1"",""2239""
","
","
","""event"",""trial"",""time""
""fullscreenenter"",""1"",""2239""
","
","","","-1","","","14","11476","5322","&#9826;","elianto","#f73b6a7A","-1","-1","1","0","[]","0","0","3","","","","","","","",""
"pit-trial","70","702614","0.0-2.0-14.2-1.2","battery-v0.2","","""event"",""trial"",""time""
""fullscreenenter"",""1"",""2239""
","
","
","""event"",""trial"",""time""
""fullscreenenter"",""1"",""2239""
","
","","","-1","","","14","11476","5322","&#9826;","elianto","#f73b6a7A","-1","-1","1","0","[]","0","0","3","","","","","","","",""
"pit-trial","71","707474","0.0-2.0-14.2-2.2","battery-v0.2","","""event"",""trial"",""time""
""fullscreenenter"",""1"",""2239""
","
","
","""event"",""trial"",""time""
""fullscreenenter"",""1"",""2239""
","
","","","-1","","","14","11476","5322","&#9826;","elianto","#f73b6a7A","-1","-1","1","0","[]","0","0","3","","","","","","","",""
"pit-trial","72","712332","0.0-2.0-14.2-3.2","battery-v0.2","","""event"",""trial"",""time""
""fullscreenenter"",""1"",""2239""
","
","
","""event"",""trial"",""time""
""fullscreenenter"",""1"",""2239""
","
","","","-1","","","14","11476","5322","&#9826;","elianto","#f73b6a7A","-1","-1","1","-10","[]","0","0","3","","","","","","","",""
"pit-trial","73","717195","0.0-2.0-14.2-4.2","battery-v0.2","","""event"",""trial"",""time""
""fullscreenenter"",""1"",""2239""
","
","
","""event"",""trial"",""time""
""fullscreenenter"",""1"",""2239""
","
","","","-1","","","14","11476","5322","&#9826;","elianto","#f73b6a7A","-1","-1","1","0","[]","0","0","3","","","","","","","",""
"pit-trial","74","722062","0.0-2.0-14.3-0.3","battery-v0.2","","""event"",""trial"",""time""
""fullscreenenter"",""1"",""2239""
","
","
","""event"",""trial"",""time""
""fullscreenenter"",""1"",""2239""
","
","","","-1","","","14","11476","5322","&#9826;","elianto","#f73b6a7A","-1","-1","1","0","[]","0","0","3","","","","","","","",""
"pit-trial","75","726926","0.0-2.0-14.3-1.3","battery-v0.2","","""event"",""trial"",""time""
""fullscreenenter"",""1"",""2239""
","
","
","""event"",""trial"",""time""
""fullscreenenter"",""1"",""2239""
","
","","","-1","","","14","11476","5322","&#9826;","elianto","#f73b6a7A","-1","-1","1","0","[]","0","0","3","","","","","","","",""
"pit-trial","76","731783","0.0-2.0-14.3-2.3","battery-v0.2","","""event"",""trial"",""time""
""fullscreenenter"",""1"",""2239""
","
","
","""event"",""trial"",""time""
""fullscreenenter"",""1"",""2239""
","
","","","-1","","","14","11476","5322","&#9826;","elianto","#f73b6a7A","-1","-1","1","0","[]","0","0","3","","","","","","","",""
"pit-trial","77","736643","0.0-2.0-14.3-3.3","battery-v0.2","","""event"",""trial"",""time""
""fullscreenenter"",""1"",""2239""
","
","
","""event"",""trial"",""time""
""fullscreenenter"",""1"",""2239""
","
","","","-1","","","14","11476","5322","&#9826;","elianto","#f73b6a7A","-1","-1","1","-10","[]","0","0","3","","","","","","","",""
"pit-trial","78","741283","0.0-2.0-14.3-4.3","battery-v0.2","","""event"",""trial"",""time""
""fullscreenenter"",""1"",""2239""
","
","
","""event"",""trial"",""time""
""fullscreenenter"",""1"",""2239""
","
","","","1781.5","","","14","11476","5322","&#9826;","elianto","#f73b6a7A","-1"," ","0","-10","[2634.5]","1","0","3","","","","","","","",""
"call-function","79","741288","0.0-2.0-15.0","battery-v0.2","","""event"",""trial"",""time""
""fullscreenenter"",""1"",""2239""
","
","
","""event"",""trial"",""time""
""fullscreenenter"",""1"",""2239""
","
","","","","","","","","","","","","","","","","","","","","","","","","","","",""
"pit-instructions","80","776136","0.0-2.0-16.0","battery-v0.2","","""event"",""trial"",""time""
""fullscreenenter"",""1"",""2239""
","
","
","""event"",""trial"",""time""
""fullscreenenter"",""1"",""2239""
","
","","[{""page_index"":0,""viewing_time"":6833.5999999940395},{""page_index"":1,""viewing_time"":8984.40000000596},{""page_index"":2,""viewing_time"":12525.09999999404},{""page_index"":3,""viewing_time"":6502.80000000447}]","34847","","","","","","","","","","","","","","","","","","","","","","","",""
"pit-trial","81","779637","0.0-2.0-17.0-0.0","battery-v0.2","","""event"",""trial"",""time""
""fullscreenenter"",""1"",""2239""
","
","
","""event"",""trial"",""time""
""fullscreenenter"",""1"",""2239""
","
","","","639.2999999970198","","","14","11476","5322","&#9789;","elianto","#f73b6a7A"," "," ","1","0","[1490.5]","1","0","4","","","","","","","",""
"pit-trial","82","782680","0.0-2.0-17.0-1.0","battery-v0.2","","""event"",""trial"",""time""
""fullscreenenter"",""1"",""2239""
","
","
","""event"",""trial"",""time""
""fullscreenenter"",""1"",""2239""
","
","","","185.10000000149012","","","14","11476","5322","&#9789;","elianto","#f73b6a7A"," "," ","1","0","[1036.1000000014901]","1","0","4","","","","","","","",""
"pit-trial","83","785709","0.0-2.0-17.0-2.0","battery-v0.2","","""event"",""trial"",""time""
""fullscreenenter"",""1"",""2239""
","
","
","""event"",""trial"",""time""
""fullscreenenter"",""1"",""2239""
","
","","","171.19999999552965","","","14","11476","5322","&#9789;","elianto","#f73b6a7A"," "," ","1","0","[1022.2000000029802,2998.60000000149]","2","0","4","","","","","","","",""
"pit-trial","84","789134","0.0-2.0-17.0-3.0","battery-v0.2","","""event"",""trial"",""time""
""fullscreenenter"",""1"",""2239""
","
","
","""event"",""trial"",""time""
""fullscreenenter"",""1"",""2239""
","
","","","567.1999999955297","","","14","11476","5322","&#9789;","elianto","#f73b6a7A"," "," ","1","-10","[1419.3000000044703]","1","0","4","","","","","","","",""
"pit-trial","85","793997","0.0-2.0-17.0-4.0","battery-v0.2","","""event"",""trial"",""time""
""fullscreenenter"",""1"",""2239""
","
","
","""event"",""trial"",""time""
""fullscreenenter"",""1"",""2239""
","
","","","-1","","","14","11476","5322","&#9789;","elianto","#f73b6a7A"," ","-1","0","-10","[]","0","0","4","","","","","","","",""
"pit-trial","86","798860","0.0-2.0-17.1-0.1","battery-v0.2","","""event"",""trial"",""time""
""fullscreenenter"",""1"",""2239""
","
","
","""event"",""trial"",""time""
""fullscreenenter"",""1"",""2239""
","
","","","-1","","","14","11476","5322","&#9789;","elianto","#f73b6a7A"," ","-1","0","-10","[]","0","0","4","","","","","","","",""
"pit-trial","87","803722","0.0-2.0-17.1-1.1","battery-v0.2","","""event"",""trial"",""time""
""fullscreenenter"",""1"",""2239""
","
","
","""event"",""trial"",""time""
""fullscreenenter"",""1"",""2239""
","
","","","-1","","","14","11476","5322","&#9789;","elianto","#f73b6a7A"," ","-1","0","-10","[]","0","0","4","","","","","","","",""
"pit-trial","88","807228","0.0-2.0-17.1-2.1","battery-v0.2","","""event"",""trial"",""time""
""fullscreenenter"",""1"",""2239""
","
","
","""event"",""trial"",""time""
""fullscreenenter"",""1"",""2239""
","
","","","643.5999999940395","","","14","11476","5322","&#9789;","elianto","#f73b6a7A"," "," ","1","0","[1495.1000000014901]","1","0","4","","","","","","","",""
"pit-trial","89","810212","0.0-2.0-17.1-3.1","battery-v0.2","","""event"",""trial"",""time""
""fullscreenenter"",""1"",""2239""
","
","
","""event"",""trial"",""time""
""fullscreenenter"",""1"",""2239""
","
","","","122","","","14","11476","5322","&#9789;","elianto","#f73b6a7A"," "," ","1","-10","[975.5,1947.7999999970198,2654.7999999970198]","3","0","4","","","","","","","",""
"pit-trial","90","813429","0.0-2.0-17.1-4.1","battery-v0.2","","""event"",""trial"",""time""
""fullscreenenter"",""1"",""2239""
","
","
","""event"",""trial"",""time""
""fullscreenenter"",""1"",""2239""
","
","","","358.20000000298023","","","14","11476","5322","&#9789;","elianto","#f73b6a7A"," "," ","1","0","[1210.7000000029802]","1","0","4","","","","","","","",""
"pit-trial","91","817194","0.0-2.0-17.2-0.2","battery-v0.2","","""event"",""trial"",""time""
""fullscreenenter"",""1"",""2239""
","
","
","""event"",""trial"",""time""
""fullscreenenter"",""1"",""2239""
","
","","","902.7000000029802","","","14","11476","5322","&#9789;","elianto","#f73b6a7A"," "," ","1","0","[1753.7000000029802]","1","0","4","","","","","","","",""
"pit-trial","92","820468","0.0-2.0-17.2-1.2","battery-v0.2","","""event"",""trial"",""time""
""fullscreenenter"",""1"",""2239""
","
","
","""event"",""trial"",""time""
""fullscreenenter"",""1"",""2239""
","
","","","413.79999999701977","","","14","11476","5322","&#9789;","elianto","#f73b6a7A"," "," ","1","0","[1267.2999999970198]","1","0","4","","","","","","","",""
"pit-trial","93","823842","0.0-2.0-17.2-2.2","battery-v0.2","","""event"",""trial"",""time""
""fullscreenenter"",""1"",""2239""
","
","
","""event"",""trial"",""time""
""fullscreenenter"",""1"",""2239""
","
","","","513.4000000059605","","","14","11476","5322","&#9789;","elianto","#f73b6a7A"," "," ","1","0","[1365]","1","0","4","","","","","","","",""
"pit-trial","94","826858","0.0-2.0-17.2-3.2","battery-v0.2","","""event"",""trial"",""time""
""fullscreenenter"",""1"",""2239""
","
","
","""event"",""trial"",""time""
""fullscreenenter"",""1"",""2239""
","
","","","155.89999999850988","","","14","11476","5322","&#9789;","elianto","#f73b6a7A"," "," ","1","-10","[1008.8999999985099]","1","0","4","","","","","","","",""
"pit-trial","95","829796","0.0-2.0-17.2-4.2","battery-v0.2","","""event"",""trial"",""time""
""fullscreenenter"",""1"",""2239""
","
","
","""event"",""trial"",""time""
""fullscreenenter"",""1"",""2239""
","
","","","75.39999999850988","","","14","11476","5322","&#9789;","elianto","#f73b6a7A"," "," ","1","0","[929.1000000014901]","1","0","4","","","","","","","",""
"pit-trial","96","833023","0.0-2.0-17.3-0.3","battery-v0.2","","""event"",""trial"",""time""
""fullscreenenter"",""1"",""2239""
","
","
","""event"",""trial"",""time""
""fullscreenenter"",""1"",""2239""
","
","","","365.6000000014901","","","14","11476","5322","&#9789;","elianto","#f73b6a7A"," "," ","1","0","[1216.7999999970198]","1","0","4","","","","","","","",""
"pit-trial","97","836176","0.0-2.0-17.3-1.3","battery-v0.2","","""event"",""trial"",""time""
""fullscreenenter"",""1"",""2239""
","
","
","""event"",""trial"",""time""
""fullscreenenter"",""1"",""2239""
","
","","","291.5","","","14","11476","5322","&#9789;","elianto","#f73b6a7A"," "," ","1","0","[1143.8000000044703]","1","0","4","","","","","","","",""
"pit-trial","98","839315","0.0-2.0-17.3-2.3","battery-v0.2","","""event"",""trial"",""time""
""fullscreenenter"",""1"",""2239""
","
","
","""event"",""trial"",""time""
""fullscreenenter"",""1"",""2239""
","
","","","279.1000000014901","","","14","11476","5322","&#9789;","elianto","#f73b6a7A"," "," ","1","0","[1131.8999999985099]","1","0","4","","","","","","","",""
"pit-trial","99","844181","0.0-2.0-17.3-3.3","battery-v0.2","","""event"",""trial"",""time""
""fullscreenenter"",""1"",""2239""
","
","
","""event"",""trial"",""time""
""fullscreenenter"",""1"",""2239""
","
","","","-1","","","14","11476","5322","&#9789;","elianto","#f73b6a7A"," ","-1","0","0","[]","0","0","4","","","","","","","",""
"pit-trial","100","847326","0.0-2.0-17.3-4.3","battery-v0.2","","""event"",""trial"",""time""
""fullscreenenter"",""1"",""2239""
","
","
","""event"",""trial"",""time""
""fullscreenenter"",""1"",""2239""
","
","","","287.30000000447035","","","14","11476","5322","&#9789;","elianto","#f73b6a7A"," "," ","1","0","[1137.2000000029802]","1","0","4","","","","","","","",""
"call-function","101","847331","0.0-2.0-18.0","battery-v0.2","","""event"",""trial"",""time""
""fullscreenenter"",""1"",""2239""
","
","
","""event"",""trial"",""time""
""fullscreenenter"",""1"",""2239""
","
","","","","","","","","","","","","","","","","","","","","","","","","","","",""
"pit-instructions","102","947379","0.0-2.0-19.0","battery-v0.2","","""event"",""trial"",""time""
""fullscreenenter"",""1"",""2239""
","
","
","""event"",""trial"",""time""
""fullscreenenter"",""1"",""2239""
","
","","[{""page_index"":0,""viewing_time"":7714.29999999702},{""page_index"":1,""viewing_time"":7516.60000000149},{""page_index"":2,""viewing_time"":16273.20000000298},{""page_index"":3,""viewing_time"":8629.89999999851},{""page_index"":4,""viewing_time"":9304.10000000149},{""page_index"":5,""viewing_time"":8050.60000000149},{""page_index"":6,""viewing_time"":9824.79999999702},{""page_index"":7,""viewing_time"":21584.39999999851},{""page_index"":8,""viewing_time"":11148.5}]","100047.29999999702","","","","","","","","","","","","","","","","","","","","","","","",""
"pit-comprehension","103","955845","0.0-2.0-20.0-0.0","battery-v0.2","","""event"",""trial"",""time""
""fullscreenenter"",""1"",""2239""
","
","
","""event"",""trial"",""time""
""fullscreenenter"",""1"",""2239""
","
","","","8461.5","[""SPACE""]","0","14","11476","5322","","","","","","","","","","","","","","","","","","",""
"pit-instructions","104","959179","0.0-2.0-20.0-1.0","battery-v0.2","","""event"",""trial"",""time""
""fullscreenenter"",""1"",""2239""
","
","
","""event"",""trial"",""time""
""fullscreenenter"",""1"",""2239""
","
","","[{""page_index"":0,""viewing_time"":3312.2000000029802}]","3313.2000000029802","","","","","","","","","","","","","","","","","","","","","","","",""
"pit-comprehension","105","966377","0.0-2.0-21.0-0.0","battery-v0.2","","""event"",""trial"",""time""
""fullscreenenter"",""1"",""2239""
","
","
","""event"",""trial"",""time""
""fullscreenenter"",""1"",""2239""
","
","","","7193.10000000149","[""10""]","0","14","11476","5322","","","","","","","","","","","","","","","","","","",""
"pit-instructions","106","968409","0.0-2.0-21.0-1.0","battery-v0.2","","""event"",""trial"",""time""
""fullscreenenter"",""1"",""2239""
","
","
","""event"",""trial"",""time""
""fullscreenenter"",""1"",""2239""
","
","","[{""page_index"":0,""viewing_time"":2007.8000000044703}]","2008.7000000029802","","","","","","","","","","","","","","","","","","","","","","","",""
"pit-comprehension","107","974918","0.0-2.0-22.0-0.0","battery-v0.2","","""event"",""trial"",""time""
""fullscreenenter"",""1"",""2239""
","
","
","""event"",""trial"",""time""
""fullscreenenter"",""1"",""2239""
","
","","","6502.69999999553","[""-10""]","1","14","11476","5322","","","","","","","","","","","","","","","","","","",""
"pit-instructions","108","985186","0.0-2.0-22.0-1.0","battery-v0.2","","""event"",""trial"",""time""
""fullscreenenter"",""1"",""2239""
","
","
","""event"",""trial"",""time""
""fullscreenenter"",""1"",""2239""
","
","","[{""page_index"":0,""viewing_time"":10242.10000000149}]","10243","","","","","","","","","","","","","","","","","","","","","","","",""
"pit-instructions","109","986414","0.0-2.0-22.0-2.0-0.0","battery-v0.2","","""event"",""trial"",""time""
""fullscreenenter"",""1"",""2239""
","
","
","""event"",""trial"",""time""
""fullscreenenter"",""1"",""2239""
","
","","[{""page_index"":0,""viewing_time"":1223.1000000014901}]","1224","","","","","","","","","","","","","","","","","","","","","","","",""
"pit-comprehension","110","994704","0.0-2.0-22.1-0.1","battery-v0.2","","""event"",""trial"",""time""
""fullscreenenter"",""1"",""2239""
","
","
","""event"",""trial"",""time""
""fullscreenenter"",""1"",""2239""
","
","","","8282.60000000149","[""0""]","0","14","11476","5322","","","","","","","","","","","","","","","","","","",""
"pit-instructions","111","996413","0.0-2.0-22.1-1.1","battery-v0.2","","""event"",""trial"",""time""
""fullscreenenter"",""1"",""2239""
","
","
","""event"",""trial"",""time""
""fullscreenenter"",""1"",""2239""
","
","","[{""page_index"":0,""viewing_time"":1682.7999999970198}]","1683.1000000014901","","","","","","","","","","","","","","","","","","","","","","","",""
"pit-comprehension","112","1009829","0.0-2.0-23.0-0.0","battery-v0.2","","""event"",""trial"",""time""
""fullscreenenter"",""1"",""2239""
","
","
","""event"",""trial"",""time""
""fullscreenenter"",""1"",""2239""
","
","","","13412.69999999553","[""True""]","0","14","11476","5322","","","","","","","","","","","","","","","","","","",""
"pit-instructions","113","1022149","0.0-2.0-23.0-1.0","battery-v0.2","","""event"",""trial"",""time""
""fullscreenenter"",""1"",""2239""
","
","
","""event"",""trial"",""time""
""fullscreenenter"",""1"",""2239""
","
","","[{""page_index"":0,""viewing_time"":12289.5}]","12290.5","","","","","","","","","","","","","","","","","","","","","","","",""
"pit-comprehension","114","1034356","0.0-2.0-24.0-0.0","battery-v0.2","","""event"",""trial"",""time""
""fullscreenenter"",""1"",""2239""
","
","
","""event"",""trial"",""time""
""fullscreenenter"",""1"",""2239""
","
","","","12200.89999999851","[""True""]","0","14","11476","5322","","","","","","","","","","","","","","","","","","",""
"pit-instructions","115","1040843","0.0-2.0-24.0-1.0","battery-v0.2","","""event"",""trial"",""time""
""fullscreenenter"",""1"",""2239""
","
","
","""event"",""trial"",""time""
""fullscreenenter"",""1"",""2239""
","
","","[{""page_index"":0,""viewing_time"":6459}]","6460","","","","","","","","","","","","","","","","","","","","","","","",""
"pit-comprehension","116","1049839","0.0-2.0-25.0-0.0","battery-v0.2","","""event"",""trial"",""time""
""fullscreenenter"",""1"",""2239""
","
","
","""event"",""trial"",""time""
""fullscreenenter"",""1"",""2239""
","
","","","8990.80000000447","[""True""]","0","14","11476","5322","","","","","","","","","","","","","","","","","","",""
"pit-instructions","117","1051807","0.0-2.0-25.0-1.0","battery-v0.2","","""event"",""trial"",""time""
""fullscreenenter"",""1"",""2239""
","
","
","""event"",""trial"",""time""
""fullscreenenter"",""1"",""2239""
","
","","[{""page_index"":0,""viewing_time"":1953.5}]","1954.6000000014901","","","","","","","","","","","","","","","","","","","","","","","",""
"pit-comprehension","118","1063844","0.0-2.0-26.0-0.0","battery-v0.2","","""event"",""trial"",""time""
""fullscreenenter"",""1"",""2239""
","
","
","""event"",""trial"",""time""
""fullscreenenter"",""1"",""2239""
","
","","","12031.30000000447","[""False""]","0","14","11476","5322","","","","","","","","","","","","","","","","","","",""
"pit-instructions","119","1066672","0.0-2.0-26.0-1.0","battery-v0.2","","""event"",""trial"",""time""
""fullscreenenter"",""1"",""2239""
","
","
","""event"",""trial"",""time""
""fullscreenenter"",""1"",""2239""
","
","","[{""page_index"":0,""viewing_time"":2810}]","2810.7000000029802","","","","","","","","","","","","","","","","","","","","","","","",""
"pit-instructions","120","1082734","0.0-3.0","battery-v0.2","","""event"",""trial"",""time""
""fullscreenenter"",""1"",""2239""
","
","
","""event"",""trial"",""time""
""fullscreenenter"",""1"",""2239""
","
","","[{""page_index"":0,""viewing_time"":3813.6999999955297},{""page_index"":1,""viewing_time"":5176.30000000447},{""page_index"":2,""viewing_time"":7064.79999999702}]","16055.60000000149","","","","","","","","","","","","","","","","","","","","","","","",""
"pit-trial","121","1086722","0.0-4.0","battery-v0.2","","""event"",""trial"",""time""
""fullscreenenter"",""1"",""2239""
","
","
","""event"",""trial"",""time""
""fullscreenenter"",""1"",""2239""
","
","","","1118.7999999970198","","","14","11476","5322","&#9728;","elianto","#f73b6a7A","-1"," ","0","-10","[1972.7999999970198]","1","1","","","11476","1","0","4","lose","no-go","0"
"pit-trial","122","1090342","0.0-5.0","battery-v0.2","","""event"",""trial"",""time""
""fullscreenenter"",""1"",""2239""
","
","
","""event"",""trial"",""time""
""fullscreenenter"",""1"",""2239""
","
","","","759.3000000044703","","","14","11476","5322","&#9752;","elianto","#f73b6a7A"," "," ","1","0","[1612.5]","1","1","","","11476","2","3","3","lose","go","0"
"pit-trial","123","1093870","0.0-6.0","battery-v0.2","","""event"",""trial"",""time""
""fullscreenenter"",""1"",""2239""
","
","
","""event"",""trial"",""time""
""fullscreenenter"",""1"",""2239""
","
","","","671.7000000029802","","","14","11476","5322","&#9733;","elianto","#3366ff99","-1"," ","0","0","[1523.7000000029802]","1","1","","","11476","3","2","2","win","no-go","0"
"pit-trial","124","1097417","0.0-7.0","battery-v0.2","","""event"",""trial"",""time""
""fullscreenenter"",""1"",""2239""
","
","
","""event"",""trial"",""time""
""fullscreenenter"",""1"",""2239""
","
","","","689","","","14","11476","5322","&#9730;","elianto","#3366ff99"," "," ","1","+10","[1540]","1","1","","","11476","4","1","1","win","go","0"
"pit-trial","125","1102277","0.0-8.0","battery-v0.2","","""event"",""trial"",""time""
""fullscreenenter"",""1"",""2239""
","
","
","""event"",""trial"",""time""
""fullscreenenter"",""1"",""2239""
","
","","","-1","","","14","11476","5322","&#9728;","elianto","#f73b6a7A","-1","-1","1","0","[]","0","1","","","11476","5","0","4","lose","no-go","0"
"pit-trial","126","1105769","0.0-9.0","battery-v0.2","","""event"",""trial"",""time""
""fullscreenenter"",""1"",""2239""
","
","
","""event"",""trial"",""time""
""fullscreenenter"",""1"",""2239""
","
","","","634","","","14","11476","5322","&#9733;","elianto","#3366ff99","-1"," ","0","0","[1486.5]","1","1","","","11476","6","2","2","win","no-go","0"
"pit-trial","127","1109298","0.0-10.0","battery-v0.2","","""event"",""trial"",""time""
""fullscreenenter"",""1"",""2239""
","
","
","""event"",""trial"",""time""
""fullscreenenter"",""1"",""2239""
","
","","","667.6000000014901","","","14","11476","5322","&#9730;","elianto","#3366ff99"," "," ","1","+10","[1519.1000000014901]","1","1","","","11476","7","1","1","win","go","0"
"pit-trial","128","1113180","0.0-11.0","battery-v0.2","","""event"",""trial"",""time""
""fullscreenenter"",""1"",""2239""
","
","
","""event"",""trial"",""time""
""fullscreenenter"",""1"",""2239""
","
","","","1024.3000000044703","","","14","11476","5322","&#9752;","elianto","#f73b6a7A"," "," ","1","0","[1875.7999999970198]","1","1","","","11476","8","3","3","lose","go","0"
"pit-trial","129","1116505","0.0-12.0","battery-v0.2","","""event"",""trial"",""time""
""fullscreenenter"",""1"",""2239""
","
","
","""event"",""trial"",""time""
""fullscreenenter"",""1"",""2239""
","
","","","465.70000000298023","","","14","11476","5322","&#9752;","elianto","#f73b6a7A"," "," ","1","0","[1315.8999999985099]","1","1","","","11476","9","3","3","lose","go","0"
"pit-trial","130","1121369","0.0-13.0","battery-v0.2","","""event"",""trial"",""time""
""fullscreenenter"",""1"",""2239""
","
","
","""event"",""trial"",""time""
""fullscreenenter"",""1"",""2239""
","
","","","-1","","","14","11476","5322","&#9733;","elianto","#3366ff99","-1","-1","1","+10","[3683.2000000029802]","1","1","","","11476","10","2","2","win","no-go","0"
"pit-trial","131","1125228","0.0-14.0","battery-v0.2","","""event"",""trial"",""time""
""fullscreenenter"",""1"",""2239""
","
","
","""event"",""trial"",""time""
""fullscreenenter"",""1"",""2239""
","
","","","1000.3999999985099","","","14","11476","5322","&#9728;","elianto","#f73b6a7A","-1"," ","0","-10","[1851.6999999955297]","1","1","","","11476","11","0","4","lose","no-go","0"
"pit-trial","132","1130088","0.0-15.0","battery-v0.2","","""event"",""trial"",""time""
""fullscreenenter"",""1"",""2239""
","
","
","""event"",""trial"",""time""
""fullscreenenter"",""1"",""2239""
","
","","","-1","","","14","11476","5322","&#9730;","elianto","#3366ff99"," ","-1","0","0","[4299]","1","1","","","11476","12","1","1","win","go","0"
"pit-trial","133","1133760","0.0-16.0","battery-v0.2","","""event"",""trial"",""time""
""fullscreenenter"",""1"",""2239""
","
","
","""event"",""trial"",""time""
""fullscreenenter"",""1"",""2239""
","
","","","808.8000000044703","","","14","11476","5322","&#9752;","elianto","#f73b6a7A"," "," ","1","0","[1661.3999999985099]","1","1","","","11476","13","3","3","lose","go","0"
"pit-trial","134","1138620","0.0-17.0","battery-v0.2","","""event"",""trial"",""time""
""fullscreenenter"",""1"",""2239""
","
","
","""event"",""trial"",""time""
""fullscreenenter"",""1"",""2239""
","
","","","-1","","","14","11476","5322","&#9728;","elianto","#f73b6a7A","-1","-1","1","0","[]","0","1","","","11476","14","0","4","lose","no-go","0"
"pit-trial","135","1142106","0.0-18.0","battery-v0.2","","""event"",""trial"",""time""
""fullscreenenter"",""1"",""2239""
","
","
","""event"",""trial"",""time""
""fullscreenenter"",""1"",""2239""
","
","","","625.6999999955297","","","14","11476","5322","&#9730;","elianto","#3366ff99"," "," ","1","+10","[1478.1999999955297]","1","1","","","11476","15","1","1","win","go","0"
"pit-trial","136","1146973","0.0-19.0","battery-v0.2","","""event"",""trial"",""time""
""fullscreenenter"",""1"",""2239""
","
","
","""event"",""trial"",""time""
""fullscreenenter"",""1"",""2239""
","
","","","-1","","","14","11476","5322","&#9733;","elianto","#3366ff99","-1","-1","1","+10","[]","0","1","","","11476","16","2","2","win","no-go","0"
"pit-trial","137","1151388","0.0-20.0","battery-v0.2","","""event"",""trial"",""time""
""fullscreenenter"",""1"",""2239""
","
","
","""event"",""trial"",""time""
""fullscreenenter"",""1"",""2239""
","
","","","1549.7000000029802","","","14","11476","5322","&#9752;","elianto","#f73b6a7A"," "," ","1","0","[2403.39999999851]","1","1","","","11476","17","3","3","lose","go","0"
"pit-trial","138","1155270","0.0-21.0","battery-v0.2","","""event"",""trial"",""time""
""fullscreenenter"",""1"",""2239""
","
","
","""event"",""trial"",""time""
""fullscreenenter"",""1"",""2239""
","
","","","1020.4000000059605","","","14","11476","5322","&#9730;","elianto","#3366ff99"," "," ","1","+10","[1872.4000000059605]","1","1","","","11476","18","1","1","win","go","0"
"pit-trial","139","1158928","0.0-22.0","battery-v0.2","","""event"",""trial"",""time""
""fullscreenenter"",""1"",""2239""
","
","
","""event"",""trial"",""time""
""fullscreenenter"",""1"",""2239""
","
","","","796.6000000014901","","","14","11476","5322","&#9733;","elianto","#3366ff99","-1"," ","0","0","[1648.1000000014901]","1","1","","","11476","19","2","2","win","no-go","0"
"pit-trial","140","1163789","0.0-23.0","battery-v0.2","","""event"",""trial"",""time""
""fullscreenenter"",""1"",""2239""
","
","
","""event"",""trial"",""time""
""fullscreenenter"",""1"",""2239""
","
","","","-1","","","14","11476","5322","&#9728;","elianto","#f73b6a7A","-1","-1","1","0","[]","0","1","","","11476","20","0","4","lose","no-go","0"
"pit-instructions","141","1181282","0.0-24.0","battery-v0.2","","""event"",""trial"",""time""
""fullscreenenter"",""1"",""2239""
","
","
","""event"",""trial"",""time""
""fullscreenenter"",""1"",""2239""
","
","","[{""page_index"":0,""viewing_time"":10312.29999999702},{""page_index"":1,""viewing_time"":7176.5}]","17489.79999999702","","","","","","","","","","","","","","","","","","","","","","","",""
"pit-trial","142","1185366","0.0-25.0","battery-v0.2","","""event"",""trial"",""time""
""fullscreenenter"",""1"",""2239""
","
","
","""event"",""trial"",""time""
""fullscreenenter"",""1"",""2239""
","
","","","1222.5","","","14","11476","5322","f","elianto","#3366ff99"," "," ","1","+10","[2074]","1","2","","","11476","21","1","1","win","go","0"
"pit-trial","143","1190228","0.0-26.0","battery-v0.2","","""event"",""trial"",""time""
""fullscreenenter"",""1"",""2239""
","
","
","""event"",""trial"",""time""
""fullscreenenter"",""1"",""2239""
","
","","","-1","","","14","11476","5322","b","elianto","#f73b6a7A"," ","-1","0","-10","[]","0","2","","","11476","22","3","3","lose","go","0"
"pit-trial","144","1193645","0.0-27.0","battery-v0.2","","""event"",""trial"",""time""
""fullscreenenter"",""1"",""2239""
","
","
","""event"",""trial"",""time""
""fullscreenenter"",""1"",""2239""
","
","","","556.2000000029802","","","14","11476","5322","n","elianto","#f73b6a7A","-1"," ","0","-10","[1406.8999999985099]","1","2","","","11476","23","0","4","lose","no-go","0"
"pit-trial","145","1197421","0.0-28.0","battery-v0.2","","""event"",""trial"",""time""
""fullscreenenter"",""1"",""2239""
","
","
","""event"",""trial"",""time""
""fullscreenenter"",""1"",""2239""
","
","","","915.3999999985099","","","14","11476","5322","t","elianto","#f73b6a7A","-1"," ","0","-10","[1767.1000000014901]","1","2","","","11476","24","2","4","lose","no-go","0"
"pit-trial","146","1201322","0.0-29.0","battery-v0.2","","""event"",""trial"",""time""
""fullscreenenter"",""1"",""2239""
","
","
","""event"",""trial"",""time""
""fullscreenenter"",""1"",""2239""
","
","","","1041.6999999955297","","","14","11476","5322","n","elianto","#f73b6a7A","-1"," ","0","-10","[1893.8999999985099]","1","2","","","11476","25","0","4","lose","no-go","0"
"pit-trial","147","1206186","0.0-30.0","battery-v0.2","","""event"",""trial"",""time""
""fullscreenenter"",""1"",""2239""
","
","
","""event"",""trial"",""time""
""fullscreenenter"",""1"",""2239""
","
","","","-1","","","14","11476","5322","b","elianto","#f73b6a7A"," ","-1","0","-10","[]","0","2","","","11476","26","3","3","lose","go","0"
"pit-trial","148","1209839","0.0-31.0","battery-v0.2","","""event"",""trial"",""time""
""fullscreenenter"",""1"",""2239""
","
","
","""event"",""trial"",""time""
""fullscreenenter"",""1"",""2239""
","
","","","792.0999999940395","","","14","11476","5322","t","elianto","#f73b6a7A","-1"," ","0","-10","[1642.6999999955297]","1","2","","","11476","27","2","4","lose","no-go","0"
"pit-trial","149","1213538","0.0-32.0","battery-v0.2","","""event"",""trial"",""time""
""fullscreenenter"",""1"",""2239""
","
","
","""event"",""trial"",""time""
""fullscreenenter"",""1"",""2239""
","
","","","838.5","","","14","11476","5322","f","elianto","#3366ff99"," "," ","1","+10","[1691.3000000044703]","1","2","","","11476","28","1","1","win","go","0"
"pit-trial","150","1218403","0.0-33.0","battery-v0.2","","""event"",""trial"",""time""
""fullscreenenter"",""1"",""2239""
","
","
","""event"",""trial"",""time""
""fullscreenenter"",""1"",""2239""
","
","","","-1","","","14","11476","5322","n","elianto","#f73b6a7A","-1","-1","1","-10","[]","0","2","","","11476","29","0","4","lose","no-go","1"
"pit-trial","151","1222293","0.0-34.0","battery-v0.2","","""event"",""trial"",""time""
""fullscreenenter"",""1"",""2239""
","
","
","""event"",""trial"",""time""
""fullscreenenter"",""1"",""2239""
","
","","","1027.7999999970198","","","14","11476","5322","b","elianto","#f73b6a7A"," "," ","1","-10","[1879.8000000044703]","1","2","","","11476","30","3","3","lose","go","1"
"pit-trial","152","1226181","0.0-35.0","battery-v0.2","","""event"",""trial"",""time""
""fullscreenenter"",""1"",""2239""
","
","
","""event"",""trial"",""time""
""fullscreenenter"",""1"",""2239""
","
","","","1028.2999999970198","","","14","11476","5322","t","elianto","#f73b6a7A","-1"," ","0","-10","[1879.6999999955297]","1","2","","","11476","31","2","4","lose","no-go","0"
"pit-trial","153","1230897","0.0-36.0","battery-v0.2","","""event"",""trial"",""time""
""fullscreenenter"",""1"",""2239""
","
","
","""event"",""trial"",""time""
""fullscreenenter"",""1"",""2239""
","
","","","1855.6000000014901","","","14","11476","5322","f","elianto","#3366ff99"," "," ","1","0","[2705.7999999970198]","1","2","","","11476","32","1","1","win","go","1"
"pit-trial","154","1234449","0.0-37.0","battery-v0.2","","""event"",""trial"",""time""
""fullscreenenter"",""1"",""2239""
","
","
","""event"",""trial"",""time""
""fullscreenenter"",""1"",""2239""
","
","","","696","","","14","11476","5322","f","elianto","#3366ff99"," "," ","1","+10","[1546.3000000044703]","1","2","","","11476","33","1","1","win","go","0"
"pit-trial","155","1239309","0.0-38.0","battery-v0.2","","""event"",""trial"",""time""
""fullscreenenter"",""1"",""2239""
","
","
","""event"",""trial"",""time""
""fullscreenenter"",""1"",""2239""
","
","","","-1","","","14","11476","5322","t","elianto","#f73b6a7A","-1","-1","1","0","[]","0","2","","","11476","34","2","4","lose","no-go","0"
"pit-trial","156","1243260","0.0-39.0","battery-v0.2","","""event"",""trial"",""time""
""fullscreenenter"",""1"",""2239""
","
","
","""event"",""trial"",""time""
""fullscreenenter"",""1"",""2239""
","
","","","1091.1000000014901","","","14","11476","5322","b","elianto","#f73b6a7A"," "," ","1","0","[1943.6000000014901]","1","2","","","11476","35","3","3","lose","go","0"
"pit-trial","157","1247112","0.0-40.0","battery-v0.2","","""event"",""trial"",""time""
""fullscreenenter"",""1"",""2239""
","
","
","""event"",""trial"",""time""
""fullscreenenter"",""1"",""2239""
","
","","","990.5","","","14","11476","5322","n","elianto","#f73b6a7A","-1"," ","0","0","[1841.7999999970198]","1","2","","","11476","36","0","4","lose","no-go","1"
"pit-trial","158","1251972","0.0-41.0","battery-v0.2","","""event"",""trial"",""time""
""fullscreenenter"",""1"",""2239""
","
","
","""event"",""trial"",""time""
""fullscreenenter"",""1"",""2239""
","
","","","-1","","","14","11476","5322","t","elianto","#f73b6a7A","-1","-1","1","0","[]","0","2","","","11476","37","2","4","lose","no-go","0"
"pit-trial","159","1255924","0.0-42.0","battery-v0.2","","""event"",""trial"",""time""
""fullscreenenter"",""1"",""2239""
","
","
","""event"",""trial"",""time""
""fullscreenenter"",""1"",""2239""
","
","","","1088","","","14","11476","5322","f","elianto","#3366ff99"," "," ","1","+10","[1941]","1","2","","","11476","38","1","1","win","go","0"
"pit-trial","160","1259682","0.0-43.0","battery-v0.2","","""event"",""trial"",""time""
""fullscreenenter"",""1"",""2239""
","
","
","""event"",""trial"",""time""
""fullscreenenter"",""1"",""2239""
","
","","","895.5","","","14","11476","5322","n","elianto","#f73b6a7A","-1"," ","0","-10","[1749.4000000059605]","1","2","","","11476","39","0","4","lose","no-go","0"
"pit-trial","161","1263407","0.0-44.0","battery-v0.2","","""event"",""trial"",""time""
""fullscreenenter"",""1"",""2239""
","
","
","""event"",""trial"",""time""
""fullscreenenter"",""1"",""2239""
","
","","","865.7000000029802","","","14","11476","5322","b","elianto","#f73b6a7A"," "," ","1","0","[1716]","1","2","","","11476","40","3","3","lose","go","0"
"pit-trial","162","1268273","0.0-45.0","battery-v0.2","","""event"",""trial"",""time""
""fullscreenenter"",""1"",""2239""
","
","
","""event"",""trial"",""time""
""fullscreenenter"",""1"",""2239""
","
","","","-1","","","14","11476","5322","t","elianto","#f73b6a7A","-1","-1","1","0","[]","0","2","","","11476","41","2","4","lose","no-go","0"
"pit-trial","163","1271830","0.0-46.0","battery-v0.2","","""event"",""trial"",""time""
""fullscreenenter"",""1"",""2239""
","
","
","""event"",""trial"",""time""
""fullscreenenter"",""1"",""2239""
","
","","","696.9000000059605","","","14","11476","5322","f","elianto","#3366ff99"," "," ","1","+10","[1549.1000000014901]","1","2","","","11476","42","1","1","win","go","0"
"pit-trial","164","1275434","0.0-47.0","battery-v0.2","","""event"",""trial"",""time""
""fullscreenenter"",""1"",""2239""
","
","
","""event"",""trial"",""time""
""fullscreenenter"",""1"",""2239""
","
","","","742.8999999985099","","","14","11476","5322","b","elianto","#f73b6a7A"," "," ","1","0","[1593.5]","1","2","","","11476","43","3","3","lose","go","0"
"pit-trial","165","1280295","0.0-48.0","battery-v0.2","","""event"",""trial"",""time""
""fullscreenenter"",""1"",""2239""
","
","
","""event"",""trial"",""time""
""fullscreenenter"",""1"",""2239""
","
","","","-1","","","14","11476","5322","n","elianto","#f73b6a7A","-1","-1","1","0","[]","0","2","","","11476","44","0","4","lose","no-go","0"
"pit-trial","166","1285153","0.0-49.0","battery-v0.2","","""event"",""trial"",""time""
""fullscreenenter"",""1"",""2239""
","
","
","""event"",""trial"",""time""
""fullscreenenter"",""1"",""2239""
","
","","","-1","","","14","11476","5322","t","elianto","#f73b6a7A","-1","-1","1","0","[]","0","2","","","11476","45","2","4","lose","no-go","0"
"pit-trial","167","1290011","0.0-50.0","battery-v0.2","","""event"",""trial"",""time""
""fullscreenenter"",""1"",""2239""
","
","
","""event"",""trial"",""time""
""fullscreenenter"",""1"",""2239""
","
","","","-1","","","14","11476","5322","n","elianto","#f73b6a7A","-1","-1","1","0","[]","0","2","","","11476","46","0","4","lose","no-go","0"
"pit-trial","168","1293496","0.0-51.0","battery-v0.2","","""event"",""trial"",""time""
""fullscreenenter"",""1"",""2239""
","
","
","""event"",""trial"",""time""
""fullscreenenter"",""1"",""2239""
","
","","","625.3999999985099","","","14","11476","5322","b","elianto","#f73b6a7A"," "," ","1","0","[1476]","1","2","","","11476","47","3","3","lose","go","0"
"pit-trial","169","1297705","0.0-52.0","battery-v0.2","","""event"",""trial"",""time""
""fullscreenenter"",""1"",""2239""
","
","
","""event"",""trial"",""time""
""fullscreenenter"",""1"",""2239""
","
","","","1348.5","","","14","11476","5322","c","elianto","#3366ff99","-1"," ","0","0","[2199.10000000149]","1","2","","","11476","48","4","2","win","no-go","0"
"pit-trial","170","1301203","0.0-53.0","battery-v0.2","","""event"",""trial"",""time""
""fullscreenenter"",""1"",""2239""
","
","
","""event"",""trial"",""time""
""fullscreenenter"",""1"",""2239""
","
","","","635.2000000029802","","","14","11476","5322","f","elianto","#3366ff99"," "," ","1","0","[1487.7999999970198]","1","2","","","11476","49","1","1","win","go","1"
"pit-trial","171","1306062","0.0-54.0","battery-v0.2","","""event"",""trial"",""time""
""fullscreenenter"",""1"",""2239""
","
","
","""event"",""trial"",""time""
""fullscreenenter"",""1"",""2239""
","
","","","-1","","","14","11476","5322","n","elianto","#f73b6a7A","-1","-1","1","0","[]","0","2","","","11476","50","0","4","lose","no-go","0"
"pit-trial","172","1310344","0.0-55.0","battery-v0.2","","""event"",""trial"",""time""
""fullscreenenter"",""1"",""2239""
","
","
","""event"",""trial"",""time""
""fullscreenenter"",""1"",""2239""
","
","","","1422.6000000014901","","","14","11476","5322","b","elianto","#f73b6a7A"," "," ","1","0","[2273.7999999970198]","1","2","","","11476","51","3","3","lose","go","0"
"pit-trial","173","1313847","0.0-56.0","battery-v0.2","","""event"",""trial"",""time""
""fullscreenenter"",""1"",""2239""
","
","
","""event"",""trial"",""time""
""fullscreenenter"",""1"",""2239""
","
","","","642.3999999985099","","","14","11476","5322","c","elianto","#3366ff99","-1"," ","0","0","[1493]","1","2","","","11476","52","4","2","win","no-go","0"
"pit-trial","174","1318714","0.0-57.0","battery-v0.2","","""event"",""trial"",""time""
""fullscreenenter"",""1"",""2239""
","
","
","""event"",""trial"",""time""
""fullscreenenter"",""1"",""2239""
","
","","","-1","","","14","11476","5322","n","elianto","#f73b6a7A","-1","-1","1","0","[]","0","2","","","11476","53","0","4","lose","no-go","0"
"pit-trial","175","1322497","0.0-58.0","battery-v0.2","","""event"",""trial"",""time""
""fullscreenenter"",""1"",""2239""
","
","
","""event"",""trial"",""time""
""fullscreenenter"",""1"",""2239""
","
","","","927.1999999955297","","","14","11476","5322","f","elianto","#3366ff99"," "," ","1","+10","[1778.3999999985099]","1","2","","","11476","54","1","1","win","go","0"
"pit-trial","176","1327358","0.0-59.0","battery-v0.2","","""event"",""trial"",""time""
""fullscreenenter"",""1"",""2239""
","
","
","""event"",""trial"",""time""
""fullscreenenter"",""1"",""2239""
","
","","","-1","","","14","11476","5322","t","elianto","#f73b6a7A","-1","-1","1","-10","[4419.29999999702]","1","2","","","11476","55","2","4","lose","no-go","1"
"pit-trial","177","1332224","0.0-60.0","battery-v0.2","","""event"",""trial"",""time""
""fullscreenenter"",""1"",""2239""
","
","
","""event"",""trial"",""time""
""fullscreenenter"",""1"",""2239""
","
","","","-1","","","14","11476","5322","c","elianto","#3366ff99","-1","-1","1","+10","[]","0","2","","","11476","56","4","2","win","no-go","0"
"pit-trial","178","1336009","0.0-61.0","battery-v0.2","","""event"",""trial"",""time""
""fullscreenenter"",""1"",""2239""
","
","
","""event"",""trial"",""time""
""fullscreenenter"",""1"",""2239""
","
","","","926.3999999985099","","","14","11476","5322","b","elianto","#f73b6a7A"," "," ","1","0","[1779.6000000014901]","1","2","","","11476","57","3","3","lose","go","0"
"pit-trial","179","1340873","0.0-62.0","battery-v0.2","","""event"",""trial"",""time""
""fullscreenenter"",""1"",""2239""
","
","
","""event"",""trial"",""time""
""fullscreenenter"",""1"",""2239""
","
","","","-1","","","14","11476","5322","c","elianto","#3366ff99","-1","-1","1","+10","[]","0","2","","","11476","58","4","2","win","no-go","0"
"pit-trial","180","1344674","0.0-63.0","battery-v0.2","","""event"",""trial"",""time""
""fullscreenenter"",""1"",""2239""
","
","
","""event"",""trial"",""time""
""fullscreenenter"",""1"",""2239""
","
","","","940.3999999985099","","","14","11476","5322","f","elianto","#3366ff99"," "," ","1","+10","[1791.8999999985099]","1","2","","","11476","59","1","1","win","go","0"
"pit-trial","181","1349533","0.0-64.0","battery-v0.2","","""event"",""trial"",""time""
""fullscreenenter"",""1"",""2239""
","
","
","""event"",""trial"",""time""
""fullscreenenter"",""1"",""2239""
","
","","","-1","","","14","11476","5322","n","elianto","#f73b6a7A","-1","-1","1","0","[]","0","2","","","11476","60","0","4","lose","no-go","0"
"pit-trial","182","1354399","0.0-65.0","battery-v0.2","","""event"",""trial"",""time""
""fullscreenenter"",""1"",""2239""
","
","
","""event"",""trial"",""time""
""fullscreenenter"",""1"",""2239""
","
","","","-1","","","14","11476","5322","t","elianto","#f73b6a7A","-1","-1","1","0","[]","0","2","","","11476","61","2","4","lose","no-go","0"
"pit-trial","183","1358022","0.0-66.0","battery-v0.2","","""event"",""trial"",""time""
""fullscreenenter"",""1"",""2239""
","
","
","""event"",""trial"",""time""
""fullscreenenter"",""1"",""2239""
","
","","","762.3000000044703","","","14","11476","5322","f","elianto","#3366ff99"," "," ","1","+10","[1613.6000000014901]","1","2","","","11476","62","1","1","win","go","0"
"pit-trial","184","1362882","0.0-67.0","battery-v0.2","","""event"",""trial"",""time""
""fullscreenenter"",""1"",""2239""
","
","
","""event"",""trial"",""time""
""fullscreenenter"",""1"",""2239""
","
","","","-1","","","14","11476","5322","c","elianto","#3366ff99","-1","-1","1","+10","[]","0","2","","","11476","63","4","2","win","no-go","0"
"pit-trial","185","1367377","0.0-68.0","battery-v0.2","","""event"",""trial"",""time""
""fullscreenenter"",""1"",""2239""
","
","
","""event"",""trial"",""time""
""fullscreenenter"",""1"",""2239""
","
","","","1634.3000000044703","","","14","11476","5322","b","elianto","#f73b6a7A"," "," ","1","-10","[2485.9000000059605]","1","2","","","11476","64","3","3","lose","go","1"
"pit-trial","186","1372242","0.0-69.0","battery-v0.2","","""event"",""trial"",""time""
""fullscreenenter"",""1"",""2239""
","
","
","""event"",""trial"",""time""
""fullscreenenter"",""1"",""2239""
","
","","","-1","","","14","11476","5322","c","elianto","#3366ff99","-1","-1","1","+10","[]","0","2","","","11476","65","4","2","win","no-go","0"
"pit-trial","187","1375869","0.0-70.0","battery-v0.2","","""event"",""trial"",""time""
""fullscreenenter"",""1"",""2239""
","
","
","""event"",""trial"",""time""
""fullscreenenter"",""1"",""2239""
","
","","","764.2000000029802","","","14","11476","5322","f","elianto","#3366ff99"," "," ","1","+10","[1616.5]","1","2","","","11476","66","1","1","win","go","0"
"pit-trial","188","1380725","0.0-71.0","battery-v0.2","","""event"",""trial"",""time""
""fullscreenenter"",""1"",""2239""
","
","
","""event"",""trial"",""time""
""fullscreenenter"",""1"",""2239""
","
","","","-1","","","14","11476","5322","b","elianto","#f73b6a7A"," ","-1","0","-10","[]","0","2","","","11476","67","3","3","lose","go","0"
"pit-trial","189","1385590","0.0-72.0","battery-v0.2","","""event"",""trial"",""time""
""fullscreenenter"",""1"",""2239""
","
","
","""event"",""trial"",""time""
""fullscreenenter"",""1"",""2239""
","
","","","-1","","","14","11476","5322","t","elianto","#f73b6a7A","-1","-1","1","0","[]","0","2","","","11476","68","2","4","lose","no-go","0"
"pit-trial","190","1389047","0.0-73.0","battery-v0.2","","""event"",""trial"",""time""
""fullscreenenter"",""1"",""2239""
","
","
","""event"",""trial"",""time""
""fullscreenenter"",""1"",""2239""
","
","","","595.3999999985099","","","14","11476","5322","c","elianto","#3366ff99","-1"," ","0","0","[1447.2999999970198]","1","2","","","11476","69","4","2","win","no-go","0"
"pit-trial","191","1393479","0.0-74.0","battery-v0.2","","""event"",""trial"",""time""
""fullscreenenter"",""1"",""2239""
","
","
","""event"",""trial"",""time""
""fullscreenenter"",""1"",""2239""
","
","","","1575.7000000029802","","","14","11476","5322","b","elianto","#f73b6a7A"," "," ","1","0","[2426.7999999970198]","1","2","","","11476","70","3","3","lose","go","0"
"pit-trial","192","1397246","0.0-75.0","battery-v0.2","","""event"",""trial"",""time""
""fullscreenenter"",""1"",""2239""
","
","
","""event"",""trial"",""time""
""fullscreenenter"",""1"",""2239""
","
","","","908.8999999985099","","","14","11476","5322","f","elianto","#3366ff99"," "," ","1","+10","[1759.6999999955297]","1","2","","","11476","71","1","1","win","go","0"
"pit-trial","193","1400744","0.0-76.0","battery-v0.2","","""event"",""trial"",""time""
""fullscreenenter"",""1"",""2239""
","
","
","""event"",""trial"",""time""
""fullscreenenter"",""1"",""2239""
","
","","","636.7000000029802","","","14","11476","5322","z","elianto","#3366ff99"," "," ","1","+10","[1487.6000000014901]","1","2","","","11476","72","5","1","win","go","0"
"pit-trial","194","1405608","0.0-77.0","battery-v0.2","","""event"",""trial"",""time""
""fullscreenenter"",""1"",""2239""
","
","
","""event"",""trial"",""time""
""fullscreenenter"",""1"",""2239""
","
","","","-1","","","14","11476","5322","c","elianto","#3366ff99","-1","-1","1","+10","[]","0","2","","","11476","73","4","2","win","no-go","0"
"pit-trial","195","1409351","0.0-78.0","battery-v0.2","","""event"",""trial"",""time""
""fullscreenenter"",""1"",""2239""
","
","
","""event"",""trial"",""time""
""fullscreenenter"",""1"",""2239""
","
","","","880.6000000014901","","","14","11476","5322","z","elianto","#3366ff99"," "," ","1","+10","[1732.7000000029802]","1","2","","","11476","74","5","1","win","go","0"
"pit-trial","196","1413376","0.0-79.0","battery-v0.2","","""event"",""trial"",""time""
""fullscreenenter"",""1"",""2239""
","
","
","""event"",""trial"",""time""
""fullscreenenter"",""1"",""2239""
","
","","","1169.3999999985099","","","14","11476","5322","b","elianto","#f73b6a7A"," "," ","1","0","[2020.6999999955297]","1","2","","","11476","75","3","3","lose","go","0"
"pit-trial","197","1417225","0.0-80.0","battery-v0.2","","""event"",""trial"",""time""
""fullscreenenter"",""1"",""2239""
","
","
","""event"",""trial"",""time""
""fullscreenenter"",""1"",""2239""
","
","","","986.1000000014901","","","14","11476","5322","f","elianto","#3366ff99"," "," ","1","+10","[1837.6999999955297]","1","2","","","11476","76","1","1","win","go","0"
"pit-trial","198","1421443","0.0-81.0","battery-v0.2","","""event"",""trial"",""time""
""fullscreenenter"",""1"",""2239""
","
","
","""event"",""trial"",""time""
""fullscreenenter"",""1"",""2239""
","
","","","1359","","","14","11476","5322","b","elianto","#f73b6a7A"," "," ","1","0","[2211.2999999970198]","1","2","","","11476","77","3","3","lose","go","0"
"pit-trial","199","1426309","0.0-82.0","battery-v0.2","","""event"",""trial"",""time""
""fullscreenenter"",""1"",""2239""
","
","
","""event"",""trial"",""time""
""fullscreenenter"",""1"",""2239""
","
","","","-1","","","14","11476","5322","h","elianto","#f73b6a7A","-1","-1","1","0","[]","0","2","","","11476","78","6","4","lose","no-go","0"
"pit-trial","200","1430076","0.0-83.0","battery-v0.2","","""event"",""trial"",""time""
""fullscreenenter"",""1"",""2239""
","
","
","""event"",""trial"",""time""
""fullscreenenter"",""1"",""2239""
","
","","","904.5","","","14","11476","5322","c","elianto","#3366ff99","-1"," ","0","0","[1756.6000000014901]","1","2","","","11476","79","4","2","win","no-go","0"
"pit-trial","201","1433917","0.0-84.0","battery-v0.2","","""event"",""trial"",""time""
""fullscreenenter"",""1"",""2239""
","
","
","""event"",""trial"",""time""
""fullscreenenter"",""1"",""2239""
","
","","","979.6000000014901","","","14","11476","5322","z","elianto","#3366ff99"," "," ","1","+10","[1831]","1","2","","","11476","80","5","1","win","go","0"
"pit-trial","202","1438635","0.0-85.0","battery-v0.2","","""event"",""trial"",""time""
""fullscreenenter"",""1"",""2239""
","
","
","""event"",""trial"",""time""
""fullscreenenter"",""1"",""2239""
","
","","","1857.3000000044703","","","14","11476","5322","y","elianto","#f73b6a7A"," "," ","1","0","[2709.3000000044703]","1","2","","","11476","81","7","3","lose","go","0"
"pit-trial","203","1442178","0.0-86.0","battery-v0.2","","""event"",""trial"",""time""
""fullscreenenter"",""1"",""2239""
","
","
","""event"",""trial"",""time""
""fullscreenenter"",""1"",""2239""
","
","","","685.2000000029802","","","14","11476","5322","z","elianto","#3366ff99"," "," ","1","+10","[1536.7000000029802]","1","2","","","11476","82","5","1","win","go","0"
"pit-trial","204","1447044","0.0-87.0","battery-v0.2","","""event"",""trial"",""time""
""fullscreenenter"",""1"",""2239""
","
","
","""event"",""trial"",""time""
""fullscreenenter"",""1"",""2239""
","
","","","-1","","","14","11476","5322","h","elianto","#f73b6a7A","-1","-1","1","0","[]","0","2","","","11476","83","6","4","lose","no-go","0"
"pit-trial","205","1451907","0.0-88.0","battery-v0.2","","""event"",""trial"",""time""
""fullscreenenter"",""1"",""2239""
","
","
","""event"",""trial"",""time""
""fullscreenenter"",""1"",""2239""
","
","","","-1","","","14","11476","5322","c","elianto","#3366ff99","-1","-1","1","+10","[]","0","2","","","11476","84","4","2","win","no-go","0"
"pit-trial","206","1456770","0.0-89.0","battery-v0.2","","""event"",""trial"",""time""
""fullscreenenter"",""1"",""2239""
","
","
","""event"",""trial"",""time""
""fullscreenenter"",""1"",""2239""
","
","","","-1","","","14","11476","5322","h","elianto","#f73b6a7A","-1","-1","1","0","[]","0","2","","","11476","85","6","4","lose","no-go","0"
"pit-trial","207","1461630","0.0-90.0","battery-v0.2","","""event"",""trial"",""time""
""fullscreenenter"",""1"",""2239""
","
","
","""event"",""trial"",""time""
""fullscreenenter"",""1"",""2239""
","
","","","-1","","","14","11476","5322","c","elianto","#3366ff99","-1","-1","1","+10","[]","0","2","","","11476","86","4","2","win","no-go","0"
"pit-trial","208","1466494","0.0-91.0","battery-v0.2","","""event"",""trial"",""time""
""fullscreenenter"",""1"",""2239""
","
","
","""event"",""trial"",""time""
""fullscreenenter"",""1"",""2239""
","
","","","-1","","","14","11476","5322","z","elianto","#3366ff99"," ","-1","0","0","[2924.10000000149]","1","2","","","11476","87","5","1","win","go","0"
"pit-trial","209","1471359","0.0-92.0","battery-v0.2","","""event"",""trial"",""time""
""fullscreenenter"",""1"",""2239""
","
","
","""event"",""trial"",""time""
""fullscreenenter"",""1"",""2239""
","
","","","-1","","","14","11476","5322","y","elianto","#f73b6a7A"," ","-1","0","-10","[]","0","2","","","11476","88","7","3","lose","go","0"
"pit-trial","210","1475208","0.0-93.0","battery-v0.2","","""event"",""trial"",""time""
""fullscreenenter"",""1"",""2239""
","
","
","""event"",""trial"",""time""
""fullscreenenter"",""1"",""2239""
","
","","","991.5","","","14","11476","5322","c","elianto","#3366ff99","-1"," ","0","0","[1842.1999999955297]","1","2","","","11476","89","4","2","win","no-go","0"
"pit-trial","211","1478881","0.0-94.0","battery-v0.2","","""event"",""trial"",""time""
""fullscreenenter"",""1"",""2239""
","
","
","""event"",""trial"",""time""
""fullscreenenter"",""1"",""2239""
","
","","","811","","","14","11476","5322","z","elianto","#3366ff99"," "," ","1","+10","[1663.8999999985099]","1","2","","","11476","90","5","1","win","go","0"
"pit-trial","212","1483745","0.0-95.0","battery-v0.2","","""event"",""trial"",""time""
""fullscreenenter"",""1"",""2239""
","
","
","""event"",""trial"",""time""
""fullscreenenter"",""1"",""2239""
","
","","","-1","","","14","11476","5322","h","elianto","#f73b6a7A","-1","-1","1","0","[]","0","2","","","11476","91","6","4","lose","no-go","0"
"pit-trial","213","1488610","0.0-96.0","battery-v0.2","","""event"",""trial"",""time""
""fullscreenenter"",""1"",""2239""
","
","
","""event"",""trial"",""time""
""fullscreenenter"",""1"",""2239""
","
","","","-1","","","14","11476","5322","y","elianto","#f73b6a7A"," ","-1","0","-10","[]","0","2","","","11476","92","7","3","lose","go","0"
"pit-trial","214","1493300","0.0-97.0","battery-v0.2","","""event"",""trial"",""time""
""fullscreenenter"",""1"",""2239""
","
","
","""event"",""trial"",""time""
""fullscreenenter"",""1"",""2239""
","
","","","1830","","","14","11476","5322","y","elianto","#f73b6a7A"," "," ","1","0","[2680.7000000029802]","1","2","","","11476","93","7","3","lose","go","0"
"pit-trial","215","1498166","0.0-98.0","battery-v0.2","","""event"",""trial"",""time""
""fullscreenenter"",""1"",""2239""
","
","
","""event"",""trial"",""time""
""fullscreenenter"",""1"",""2239""
","
","","","-1","","","14","11476","5322","h","elianto","#f73b6a7A","-1","-1","1","0","[]","0","2","","","11476","94","6","4","lose","no-go","0"
"pit-trial","216","1501752","0.0-99.0","battery-v0.2","","""event"",""trial"",""time""
""fullscreenenter"",""1"",""2239""
","
","
","""event"",""trial"",""time""
""fullscreenenter"",""1"",""2239""
","
","","","728.3000000044703","","","14","11476","5322","z","elianto","#3366ff99"," "," ","1","+10","[1580.0999999940395]","1","2","","","11476","95","5","1","win","go","0"
"pit-trial","217","1505672","0.0-100.0","battery-v0.2","","""event"",""trial"",""time""
""fullscreenenter"",""1"",""2239""
","
","
","""event"",""trial"",""time""
""fullscreenenter"",""1"",""2239""
","
","","","1056.8999999985099","","","14","11476","5322","r","elianto","#3366ff99","-1"," ","0","0","[1910.0999999940395]","1","2","","","11476","96","8","2","win","no-go","0"
"pit-trial","218","1509193","0.0-101.0","battery-v0.2","","""event"",""trial"",""time""
""fullscreenenter"",""1"",""2239""
","
","
","""event"",""trial"",""time""
""fullscreenenter"",""1"",""2239""
","
","","","657.6000000014901","","","14","11476","5322","z","elianto","#3366ff99"," "," ","1","+10","[1511.2999999970198]","1","2","","","11476","97","5","1","win","go","0"
"pit-trial","219","1514059","0.0-102.0","battery-v0.2","","""event"",""trial"",""time""
""fullscreenenter"",""1"",""2239""
","
","
","""event"",""trial"",""time""
""fullscreenenter"",""1"",""2239""
","
","","","-1","","","14","11476","5322","r","elianto","#3366ff99","-1","-1","1","0","[]","0","2","","","11476","98","8","2","win","no-go","1"
"pit-trial","220","1518923","0.0-103.0","battery-v0.2","","""event"",""trial"",""time""
""fullscreenenter"",""1"",""2239""
","
","
","""event"",""trial"",""time""
""fullscreenenter"",""1"",""2239""
","
","","","-1","","","14","11476","5322","h","elianto","#f73b6a7A","-1","-1","1","-10","[]","0","2","","","11476","99","6","4","lose","no-go","1"
"pit-trial","221","1522692","0.0-104.0","battery-v0.2","","""event"",""trial"",""time""
""fullscreenenter"",""1"",""2239""
","
","
","""event"",""trial"",""time""
""fullscreenenter"",""1"",""2239""
","
","","","908","","","14","11476","5322","y","elianto","#f73b6a7A"," "," ","1","0","[1761]","1","2","","","11476","100","7","3","lose","go","0"
"pit-trial","222","1527156","0.0-105.0","battery-v0.2","","""event"",""trial"",""time""
""fullscreenenter"",""1"",""2239""
","
","
","""event"",""trial"",""time""
""fullscreenenter"",""1"",""2239""
","
","","","1604.1999999955297","","","14","11476","5322","z","elianto","#3366ff99"," "," ","1","0","[2454.89999999851]","1","2","","","11476","101","5","1","win","go","1"
"pit-trial","223","1530627","0.0-106.0","battery-v0.2","","""event"",""trial"",""time""
""fullscreenenter"",""1"",""2239""
","
","
","""event"",""trial"",""time""
""fullscreenenter"",""1"",""2239""
","
","","","609.3999999985099","","","14","11476","5322","m","elianto","#3366ff99","-1"," ","0","+10","[1460.7999999970198]","1","2","","","11476","102","9","2","win","no-go","1"
"pit-trial","224","1534163","0.0-107.0","battery-v0.2","","""event"",""trial"",""time""
""fullscreenenter"",""1"",""2239""
","
","
","""event"",""trial"",""time""
""fullscreenenter"",""1"",""2239""
","
","","","675.2000000029802","","","14","11476","5322","r","elianto","#3366ff99","-1"," ","0","0","[1525.2999999970198]","1","2","","","11476","103","8","2","win","no-go","0"
"pit-trial","225","1539025","0.0-108.0","battery-v0.2","","""event"",""trial"",""time""
""fullscreenenter"",""1"",""2239""
","
","
","""event"",""trial"",""time""
""fullscreenenter"",""1"",""2239""
","
","","","-1","","","14","11476","5322","h","elianto","#f73b6a7A","-1","-1","1","0","[]","0","2","","","11476","104","6","4","lose","no-go","0"
"pit-trial","226","1542584","0.0-109.0","battery-v0.2","","""event"",""trial"",""time""
""fullscreenenter"",""1"",""2239""
","
","
","""event"",""trial"",""time""
""fullscreenenter"",""1"",""2239""
","
","","","697.3999999985099","","","14","11476","5322","r","elianto","#3366ff99","-1"," ","0","0","[1549.8999999985099]","1","2","","","11476","105","8","2","win","no-go","0"
"pit-trial","227","1546132","0.0-110.0","battery-v0.2","","""event"",""trial"",""time""
""fullscreenenter"",""1"",""2239""
","
","
","""event"",""trial"",""time""
""fullscreenenter"",""1"",""2239""
","
","","","686.6999999955297","","","14","11476","5322","m","elianto","#3366ff99","-1"," ","0","0","[1538.3000000044703]","1","2","","","11476","106","9","2","win","no-go","0"
"pit-trial","228","1550992","0.0-111.0","battery-v0.2","","""event"",""trial"",""time""
""fullscreenenter"",""1"",""2239""
","
","
","""event"",""trial"",""time""
""fullscreenenter"",""1"",""2239""
","
","","","-1","","","14","11476","5322","h","elianto","#f73b6a7A","-1","-1","1","0","[]","0","2","","","11476","107","6","4","lose","no-go","0"
"pit-trial","229","1555456","0.0-112.0","battery-v0.2","","""event"",""trial"",""time""
""fullscreenenter"",""1"",""2239""
","
","
","""event"",""trial"",""time""
""fullscreenenter"",""1"",""2239""
","
","","","1605.7999999970198","","","14","11476","5322","z","elianto","#3366ff99"," "," ","1","+10","[2456.3000000044703]","1","2","","","11476","108","5","1","win","go","0"
"pit-trial","230","1560323","0.0-113.0","battery-v0.2","","""event"",""trial"",""time""
""fullscreenenter"",""1"",""2239""
","
","
","""event"",""trial"",""time""
""fullscreenenter"",""1"",""2239""
","
","","","-1","","","14","11476","5322","m","elianto","#3366ff99","-1","-1","1","0","[]","0","2","","","11476","109","9","2","win","no-go","1"
"pit-trial","231","1563793","0.0-114.0","battery-v0.2","","""event"",""trial"",""time""
""fullscreenenter"",""1"",""2239""
","
","
","""event"",""trial"",""time""
""fullscreenenter"",""1"",""2239""
","
","","","609.1999999955297","","","14","11476","5322","r","elianto","#3366ff99","-1"," ","0","+10","[1460.6000000014901]","1","2","","","11476","110","8","2","win","no-go","1"
"pit-trial","232","1568658","0.0-115.0","battery-v0.2","","""event"",""trial"",""time""
""fullscreenenter"",""1"",""2239""
","
","
","""event"",""trial"",""time""
""fullscreenenter"",""1"",""2239""
","
","","","-1","","","14","11476","5322","h","elianto","#f73b6a7A","-1","-1","1","-10","[]","0","2","","","11476","111","6","4","lose","no-go","1"
"pit-trial","233","1572109","0.0-116.0","battery-v0.2","","""event"",""trial"",""time""
""fullscreenenter"",""1"",""2239""
","
","
","""event"",""trial"",""time""
""fullscreenenter"",""1"",""2239""
","
","","","587.7000000029802","","","14","11476","5322","z","elianto","#3366ff99"," "," ","1","+10","[1439.6000000014901]","1","2","","","11476","112","5","1","win","go","0"
"pit-trial","234","1576971","0.0-117.0","battery-v0.2","","""event"",""trial"",""time""
""fullscreenenter"",""1"",""2239""
","
","
","""event"",""trial"",""time""
""fullscreenenter"",""1"",""2239""
","
","","","-1","","","14","11476","5322","m","elianto","#3366ff99","-1","-1","1","0","[]","0","2","","","11476","113","9","2","win","no-go","1"
"pit-trial","235","1581836","0.0-118.0","battery-v0.2","","""event"",""trial"",""time""
""fullscreenenter"",""1"",""2239""
","
","
","""event"",""trial"",""time""
""fullscreenenter"",""1"",""2239""
","
","","","-1","","","14","11476","5322","r","elianto","#3366ff99","-1","-1","1","0","[]","0","2","","","11476","114","8","2","win","no-go","1"
"pit-trial","236","1586698","0.0-119.0","battery-v0.2","","""event"",""trial"",""time""
""fullscreenenter"",""1"",""2239""
","
","
","""event"",""trial"",""time""
""fullscreenenter"",""1"",""2239""
","
","","","-1","","","14","11476","5322","y","elianto","#f73b6a7A"," ","-1","0","0","[]","0","2","","","11476","115","7","3","lose","go","1"
"pit-trial","237","1590165","0.0-120.0","battery-v0.2","","""event"",""trial"",""time""
""fullscreenenter"",""1"",""2239""
","
","
","""event"",""trial"",""time""
""fullscreenenter"",""1"",""2239""
","
","","","609.2999999970198","","","14","11476","5322","z","elianto","#3366ff99"," "," ","1","+10","[1460.7000000029802]","1","2","","","11476","116","5","1","win","go","0"
"pit-trial","238","1593712","0.0-121.0","battery-v0.2","","""event"",""trial"",""time""
""fullscreenenter"",""1"",""2239""
","
","
","""event"",""trial"",""time""
""fullscreenenter"",""1"",""2239""
","
","","","689.1000000014901","","","14","11476","5322","m","elianto","#3366ff99","-1"," ","0","0","[1541.0999999940395]","1","2","","","11476","117","9","2","win","no-go","0"
"pit-trial","239","1597280","0.0-122.0","battery-v0.2","","""event"",""trial"",""time""
""fullscreenenter"",""1"",""2239""
","
","
","""event"",""trial"",""time""
""fullscreenenter"",""1"",""2239""
","
","","","711.5","","","14","11476","5322","z","elianto","#3366ff99"," "," ","1","+10","[1561.7000000029802]","1","2","","","11476","118","5","1","win","go","0"
"pit-trial","240","1601458","0.0-123.0","battery-v0.2","","""event"",""trial"",""time""
""fullscreenenter"",""1"",""2239""
","
","
","""event"",""trial"",""time""
""fullscreenenter"",""1"",""2239""
","
","","","1317.8000000044703","","","14","11476","5322","r","elianto","#3366ff99","-1"," ","0","0","[2169.2000000029802]","1","2","","","11476","119","8","2","win","no-go","0"
"pit-trial","241","1606325","0.0-124.0","battery-v0.2","","""event"",""trial"",""time""
""fullscreenenter"",""1"",""2239""
","
","
","""event"",""trial"",""time""
""fullscreenenter"",""1"",""2239""
","
","","","-1","","","14","11476","5322","h","elianto","#f73b6a7A","-1","-1","1","-10","[]","0","2","","","11476","120","6","4","lose","no-go","1"
"pit-trial","242","1610067","0.0-125.0","battery-v0.2","","""event"",""trial"",""time""
""fullscreenenter"",""1"",""2239""
","
","
","""event"",""trial"",""time""
""fullscreenenter"",""1"",""2239""
","
","","","880.6999999955297","","","14","11476","5322","y","elianto","#f73b6a7A"," "," ","1","0","[1732.8999999985099]","1","2","","","11476","121","7","3","lose","go","0"
"pit-trial","243","1613701","0.0-126.0","battery-v0.2","","""event"",""trial"",""time""
""fullscreenenter"",""1"",""2239""
","
","
","""event"",""trial"",""time""
""fullscreenenter"",""1"",""2239""
","
","","","773.2999999970198","","","14","11476","5322","m","elianto","#3366ff99","-1"," ","0","0","[1624.3999999985099]","1","2","","","11476","122","9","2","win","no-go","0"
"pit-trial","244","1618564","0.0-127.0","battery-v0.2","","""event"",""trial"",""time""
""fullscreenenter"",""1"",""2239""
","
","
","""event"",""trial"",""time""
""fullscreenenter"",""1"",""2239""
","
","","","-1","","","14","11476","5322","r","elianto","#3366ff99","-1","-1","1","+10","[]","0","2","","","11476","123","8","2","win","no-go","0"
"pit-trial","245","1622293","0.0-128.0","battery-v0.2","","""event"",""trial"",""time""
""fullscreenenter"",""1"",""2239""
","
","
","""event"",""trial"",""time""
""fullscreenenter"",""1"",""2239""
","
","","","867.3999999985099","","","14","11476","5322","z","elianto","#3366ff99"," "," ","1","0","[1719.1999999955297]","1","2","","","11476","124","5","1","win","go","1"
"pit-trial","246","1626753","0.0-129.0","battery-v0.2","","""event"",""trial"",""time""
""fullscreenenter"",""1"",""2239""
","
","
","""event"",""trial"",""time""
""fullscreenenter"",""1"",""2239""
","
","","","1598.6999999955297","","","14","11476","5322","m","elianto","#3366ff99","-1"," ","0","0","[2449.3000000044703]","1","2","","","11476","125","9","2","win","no-go","0"
"pit-trial","247","1631618","0.0-130.0","battery-v0.2","","""event"",""trial"",""time""
""fullscreenenter"",""1"",""2239""
","
","
","""event"",""trial"",""time""
""fullscreenenter"",""1"",""2239""
","
","","","-1","","","14","11476","5322","y","elianto","#f73b6a7A"," ","-1","0","-10","[]","0","2","","","11476","126","7","3","lose","go","0"
"pit-trial","248","1636146","0.0-131.0","battery-v0.2","","""event"",""trial"",""time""
""fullscreenenter"",""1"",""2239""
","
","
","""event"",""trial"",""time""
""fullscreenenter"",""1"",""2239""
","
","","","1670.1000000014901","","","14","11476","5322","h","elianto","#f73b6a7A","-1"," ","0","0","[2522.1999999955297]","1","2","","","11476","127","6","4","lose","no-go","1"
"pit-trial","249","1639766","0.0-132.0","battery-v0.2","","""event"",""trial"",""time""
""fullscreenenter"",""1"",""2239""
","
","
","""event"",""trial"",""time""
""fullscreenenter"",""1"",""2239""
","
","","","758.5","","","14","11476","5322","r","elianto","#3366ff99","-1"," ","0","0","[1609.5]","1","2","","","11476","128","8","2","win","no-go","0"
"pit-trial","250","1643695","0.0-133.0","battery-v0.2","","""event"",""trial"",""time""
""fullscreenenter"",""1"",""2239""
","
","
","""event"",""trial"",""time""
""fullscreenenter"",""1"",""2239""
","
","","","1067.3999999985099","","","14","11476","5322","h","elianto","#f73b6a7A","-1"," ","0","-10","[1918.3999999985099]","1","2","","","11476","129","6","4","lose","no-go","0"
"pit-trial","251","1648557","0.0-134.0","battery-v0.2","","""event"",""trial"",""time""
""fullscreenenter"",""1"",""2239""
","
","
","""event"",""trial"",""time""
""fullscreenenter"",""1"",""2239""
","
","","","-1","","","14","11476","5322","y","elianto","#f73b6a7A"," ","-1","0","-10","[]","0","2","","","11476","130","7","3","lose","go","0"
"pit-trial","252","1653419","0.0-135.0","battery-v0.2","","""event"",""trial"",""time""
""fullscreenenter"",""1"",""2239""
","
","
","""event"",""trial"",""time""
""fullscreenenter"",""1"",""2239""
","
","","","-1","","","14","11476","5322","r","elianto","#3366ff99","-1","-1","1","+10","[]","0","2","","","11476","131","8","2","win","no-go","0"
"pit-trial","253","1658278","0.0-136.0","battery-v0.2","","""event"",""trial"",""time""
""fullscreenenter"",""1"",""2239""
","
","
","""event"",""trial"",""time""
""fullscreenenter"",""1"",""2239""
","
","","","-1","","","14","11476","5322","m","elianto","#3366ff99","-1","-1","1","+10","[]","0","2","","","11476","132","9","2","win","no-go","0"
"pit-trial","254","1662835","0.0-137.0","battery-v0.2","","""event"",""trial"",""time""
""fullscreenenter"",""1"",""2239""
","
","
","""event"",""trial"",""time""
""fullscreenenter"",""1"",""2239""
","
","","","1699.7000000029802","","","14","11476","5322","y","elianto","#f73b6a7A"," "," ","1","-10","[2550.60000000149]","1","2","","","11476","133","7","3","lose","go","1"
"pit-trial","255","1667699","0.0-138.0","battery-v0.2","","""event"",""trial"",""time""
""fullscreenenter"",""1"",""2239""
","
","
","""event"",""trial"",""time""
""fullscreenenter"",""1"",""2239""
","
","","","-1","","","14","11476","5322","m","elianto","#3366ff99","-1","-1","1","+10","[]","0","2","","","11476","134","9","2","win","no-go","0"
"pit-trial","256","1672560","0.0-139.0","battery-v0.2","","""event"",""trial"",""time""
""fullscreenenter"",""1"",""2239""
","
","
","""event"",""trial"",""time""
""fullscreenenter"",""1"",""2239""
","
","","","-1","","","14","11476","5322","h","elianto","#f73b6a7A","-1","-1","1","0","[]","0","2","","","11476","135","6","4","lose","no-go","0"
"pit-trial","257","1677423","0.0-140.0","battery-v0.2","","""event"",""trial"",""time""
""fullscreenenter"",""1"",""2239""
","
","
","""event"",""trial"",""time""
""fullscreenenter"",""1"",""2239""
","
","","","-1","","","14","11476","5322","r","elianto","#3366ff99","-1","-1","1","+10","[]","0","2","","","11476","136","8","2","win","no-go","0"
"pit-trial","258","1682288","0.0-141.0","battery-v0.2","","""event"",""trial"",""time""
""fullscreenenter"",""1"",""2239""
","
","
","""event"",""trial"",""time""
""fullscreenenter"",""1"",""2239""
","
","","","-1","","","14","11476","5322","y","elianto","#f73b6a7A"," ","-1","0","-10","[]","0","2","","","11476","137","7","3","lose","go","0"
"pit-trial","259","1687153","0.0-142.0","battery-v0.2","","""event"",""trial"",""time""
""fullscreenenter"",""1"",""2239""
","
","
","""event"",""trial"",""time""
""fullscreenenter"",""1"",""2239""
","
","","","-1","","","14","11476","5322","r","elianto","#3366ff99","-1","-1","1","+10","[]","0","2","","","11476","138","8","2","win","no-go","0"
"pit-trial","260","1692009","0.0-143.0","battery-v0.2","","""event"",""trial"",""time""
""fullscreenenter"",""1"",""2239""
","
","
","""event"",""trial"",""time""
""fullscreenenter"",""1"",""2239""
","
","","","-1","","","14","11476","5322","m","elianto","#3366ff99","-1","-1","1","0","[]","0","2","","","11476","139","9","2","win","no-go","1"
"pit-trial","261","1696872","0.0-144.0","battery-v0.2","","""event"",""trial"",""time""
""fullscreenenter"",""1"",""2239""
","
","
","""event"",""trial"",""time""
""fullscreenenter"",""1"",""2239""
","
","","","-1","","","14","11476","5322","h","elianto","#f73b6a7A","-1","-1","1","0","[]","0","2","","","11476","140","6","4","lose","no-go","0"
"pit-instructions","262","1747365","0.0-145.0","battery-v0.2","","""event"",""trial"",""time""
""fullscreenenter"",""1"",""2239""
","
","
","""event"",""trial"",""time""
""fullscreenenter"",""1"",""2239""
","
","","[{""page_index"":0,""viewing_time"":38178.5},{""page_index"":1,""viewing_time"":12310.10000000149}]","50489.5","","","","","","","","","","","","","","","","","","","","","","","",""
"pit-trial","263","1752233","0.0-146.0","battery-v0.2","","""event"",""trial"",""time""
""fullscreenenter"",""1"",""2239""
","
","
","""event"",""trial"",""time""
""fullscreenenter"",""1"",""2239""
","
","","","-1","","","14","11476","5322","j","elianto","#f73b6a7A"," ","-1","0","-10","[]","0","3","","","11476","141","0","3","lose","go","0"
"pit-trial","264","1756028","0.0-147.0","battery-v0.2","","""event"",""trial"",""time""
""fullscreenenter"",""1"",""2239""
","
","
","""event"",""trial"",""time""
""fullscreenenter"",""1"",""2239""
","
","","","934.5999999940395","","","14","11476","5322","e","elianto","#f73b6a7A"," "," ","1","0","[1785.8999999985099]","1","3","","","11476","142","2","3","lose","go","0"
"pit-trial","265","1759653","0.0-148.0","battery-v0.2","","""event"",""trial"",""time""
""fullscreenenter"",""1"",""2239""
","
","
","""event"",""trial"",""time""
""fullscreenenter"",""1"",""2239""
","
","","","767","","","14","11476","5322","d","elianto","#3366ff99","-1"," ","0","0","[1618]","1","3","","","11476","143","1","2","win","no-go","0"
