"trial_type","trial_index","time_elapsed","internal_node_id","task_version","subject_id","interactions","blur_events","focus_events","fullscreenenter_events","fullscreenexit_events","success","view_history","rt","responses","num_errors","age","subject","participantId","rune","rune_set","hex","correct","choice","accuracy","outcome","keys","total_keys","block","practice","value","sub","trial","stimulus","robot","valence","action","sham"
"pavlovia","0","7","0.0-0.0","battery-v0.2","","""event"",""trial"",""time""
""fullscreenenter"",""1"",""6141""
","
","
","""event"",""trial"",""time""
""fullscreenenter"",""1"",""6141""
","
","","","","","","","","","","","","","","","","","","","","","","","","","","",""
"fullscreen","1","7116","0.0-1.0","battery-v0.2","","""event"",""trial"",""time""
""fullscreenenter"",""1"",""6141""
","
","
","""event"",""trial"",""time""
""fullscreenenter"",""1"",""6141""
","
","true","","","","","","","","","","","","","","","","","","","","","","","","","",""
"pit-instructions","2","17828","0.0-2.0-0.0","battery-v0.2","","""event"",""trial"",""time""
""fullscreenenter"",""1"",""6141""
","
","
","""event"",""trial"",""time""
""fullscreenenter"",""1"",""6141""
","
","","[{""page_index"":0,""viewing_time"":10706.199999999255}]","10706.79999999702","","","","","","","","","","","","","","","","","","","","","","","",""
"pit-comprehension","3","24914","0.0-2.0-1.0-0.0","battery-v0.2","","""event"",""trial"",""time""
""fullscreenenter"",""1"",""6141""
","
","
","""event"",""trial"",""time""
""fullscreenenter"",""1"",""6141""
","
","","","7079.400000002235","[""shark""]","0","10","18111","237","","","","","","","","","","","","","","","","","","",""
"pit-instructions","4","28130","0.0-2.0-1.0-1.0","battery-v0.2","","""event"",""trial"",""time""
""fullscreenenter"",""1"",""6141""
","
","
","""event"",""trial"",""time""
""fullscreenenter"",""1"",""6141""
","
","","[{""page_index"":0,""viewing_time"":3207}]","3207.699999999255","","","","","","","","","","","","","","","","","","","","","","","",""
"pit-comprehension","5","33047","0.0-2.0-2.0-0.0","battery-v0.2","","""event"",""trial"",""time""
""fullscreenenter"",""1"",""6141""
","
","
","""event"",""trial"",""time""
""fullscreenenter"",""1"",""6141""
","
","","","4911.60000000149","[""tiger""]","0","10","18111","237","","","","","","","","","","","","","","","","","","",""
"pit-instructions","6","35552","0.0-2.0-2.0-1.0","battery-v0.2","","""event"",""trial"",""time""
""fullscreenenter"",""1"",""6141""
","
","
","""event"",""trial"",""time""
""fullscreenenter"",""1"",""6141""
","
","","[{""page_index"":0,""viewing_time"":2500.2999999970198}]","2500.699999999255","","","","","","","","","","","","","","","","","","","","","","","",""
"pit-instructions","7","157232","0.0-2.0-3.0","battery-v0.2","","""event"",""trial"",""time""
""fullscreenenter"",""1"",""6141""
","
","
","""event"",""trial"",""time""
""fullscreenenter"",""1"",""6141""
","
","","[{""page_index"":0,""viewing_time"":7983.599999997765},{""page_index"":1,""viewing_time"":9360},{""page_index"":2,""viewing_time"":7925.60000000149},{""page_index"":3,""viewing_time"":5156.10000000149},{""page_index"":4,""viewing_time"":5626.199999999255},{""page_index"":5,""viewing_time"":8990.800000000745},{""page_index"":6,""viewing_time"":7001.5},{""page_index"":7,""viewing_time"":6775.39999999851},{""page_index"":8,""viewing_time"":6605.39999999851},{""page_index"":9,""viewing_time"":27856.10000000149},{""page_index"":10,""viewing_time"":7174.5},{""page_index"":11,""viewing_time"":7623.699999999255},{""page_index"":12,""viewing_time"":6570.800000000745},{""page_index"":13,""viewing_time"":7026.300000000745}]","121676.80000000075","","","","","","","","","","","","","","","","","","","","","","","",""
"pit-trial","8","161071","0.0-2.0-4.0-0.0","battery-v0.2","","""event"",""trial"",""time""
""fullscreenenter"",""1"",""6141""
","
","
","""event"",""trial"",""time""
""fullscreenenter"",""1"",""6141""
","
","","","981.7000000029802","","","10","18111","237","&#9784;","elianto","#FFFFF080"," "," ","1","&#10004","[1833.199999999255]","1","0","0","","","","","","","",""
"pit-trial","9","165646","0.0-2.0-4.1-0.1","battery-v0.2","","""event"",""trial"",""time""
""fullscreenenter"",""1"",""6141""
","
","
","""event"",""trial"",""time""
""fullscreenenter"",""1"",""6141""
","
","","","1717.8999999985099","","","10","18111","237","&#9784;","elianto","#FFFFF080"," "," ","1","&#10004","[2568.60000000149]","1","0","0","","","","","","","",""
"pit-trial","10","169767","0.0-2.0-4.2-0.2","battery-v0.2","","""event"",""trial"",""time""
""fullscreenenter"",""1"",""6141""
","
","
","""event"",""trial"",""time""
""fullscreenenter"",""1"",""6141""
","
","","","1262.9000000022352","","","10","18111","237","&#9784;","elianto","#FFFFF080"," "," ","1","&#10004","[2114.900000002235]","1","0","0","","","","","","","",""
"pit-trial","11","173719","0.0-2.0-4.3-0.3","battery-v0.2","","""event"",""trial"",""time""
""fullscreenenter"",""1"",""6141""
","
","
","""event"",""trial"",""time""
""fullscreenenter"",""1"",""6141""
","
","","","1096.1000000014901","","","10","18111","237","&#9784;","elianto","#FFFFF080"," "," ","1","&#10004","[1947.199999999255]","1","0","0","","","","","","","",""
"pit-trial","12","177630","0.0-2.0-4.4-0.4","battery-v0.2","","""event"",""trial"",""time""
""fullscreenenter"",""1"",""6141""
","
","
","""event"",""trial"",""time""
""fullscreenenter"",""1"",""6141""
","
","","","1053.6000000014901","","","10","18111","237","&#9784;","elianto","#FFFFF080"," "," ","1","&#10004","[1905.199999999255]","1","0","0","","","","","","","",""
"pit-instructions","13","199745","0.0-2.0-5.0","battery-v0.2","","""event"",""trial"",""time""
""fullscreenenter"",""1"",""6141""
","
","
","""event"",""trial"",""time""
""fullscreenenter"",""1"",""6141""
","
","","[{""page_index"":0,""viewing_time"":5436.800000000745},{""page_index"":1,""viewing_time"":6000.400000002235},{""page_index"":2,""viewing_time"":4438.5},{""page_index"":3,""viewing_time"":6234.5}]","22110.900000002235","","","","","","","","","","","","","","","","","","","","","","","",""
"pit-trial","14","204603","0.0-2.0-6.0-0.0","battery-v0.2","","""event"",""trial"",""time""
""fullscreenenter"",""1"",""6141""
","
","
","""event"",""trial"",""time""
""fullscreenenter"",""1"",""6141""
","
","","","-1","","","10","18111","237","&#9854;","elianto","#FFFFF080","-1","-1","1","&#10004","[]","0","0","1","","","","","","","",""
"pit-trial","15","209460","0.0-2.0-6.1-0.1","battery-v0.2","","""event"",""trial"",""time""
""fullscreenenter"",""1"",""6141""
","
","
","""event"",""trial"",""time""
""fullscreenenter"",""1"",""6141""
","
","","","-1","","","10","18111","237","&#9854;","elianto","#FFFFF080","-1","-1","1","&#10004","[]","0","0","1","","","","","","","",""
"pit-trial","16","214317","0.0-2.0-6.2-0.2","battery-v0.2","","""event"",""trial"",""time""
""fullscreenenter"",""1"",""6141""
","
","
","""event"",""trial"",""time""
""fullscreenenter"",""1"",""6141""
","
","","","-1","","","10","18111","237","&#9854;","elianto","#FFFFF080","-1","-1","1","&#10004","[]","0","0","1","","","","","","","",""
"pit-trial","17","219174","0.0-2.0-6.3-0.3","battery-v0.2","","""event"",""trial"",""time""
""fullscreenenter"",""1"",""6141""
","
","
","""event"",""trial"",""time""
""fullscreenenter"",""1"",""6141""
","
","","","-1","","","10","18111","237","&#9854;","elianto","#FFFFF080","-1","-1","1","&#10004","[]","0","0","1","","","","","","","",""
"pit-trial","18","224031","0.0-2.0-6.4-0.4","battery-v0.2","","""event"",""trial"",""time""
""fullscreenenter"",""1"",""6141""
","
","
","""event"",""trial"",""time""
""fullscreenenter"",""1"",""6141""
","
","","","-1","","","10","18111","237","&#9854;","elianto","#FFFFF080","-1","-1","1","&#10004","[]","0","0","1","","","","","","","",""
"pit-instructions","19","342064","0.0-2.0-7.0","battery-v0.2","","""event"",""trial"",""time""
""fullscreenenter"",""1"",""6141""
","
","
","""event"",""trial"",""time""
""fullscreenenter"",""1"",""6141""
","
","","[{""page_index"":0,""viewing_time"":5790.400000002235},{""page_index"":1,""viewing_time"":7124},{""page_index"":2,""viewing_time"":7430.699999999255},{""page_index"":3,""viewing_time"":8303.599999997765},{""page_index"":4,""viewing_time"":5408.400000002235},{""page_index"":5,""viewing_time"":6070.300000000745},{""page_index"":6,""viewing_time"":4164.89999999851},{""page_index"":7,""viewing_time"":7810.300000000745},{""page_index"":8,""viewing_time"":7898.800000000745},{""page_index"":9,""viewing_time"":7025.89999999851},{""page_index"":10,""viewing_time"":6597.60000000149},{""page_index"":11,""viewing_time"":5101.29999999702},{""page_index"":12,""viewing_time"":6031.5},{""page_index"":13,""viewing_time"":6693.5},{""page_index"":14,""viewing_time"":6783.20000000298},{""page_index"":15,""viewing_time"":6033.099999997765},{""page_index"":16,""viewing_time"":6072},{""page_index"":17,""viewing_time"":7689.300000000745}]","118029.40000000224","","","","","","","","","","","","","","","","","","","","","","","",""
"pit-trial","20","346005","0.0-2.0-8.0-0.0","battery-v0.2","","""event"",""trial"",""time""
""fullscreenenter"",""1"",""6141""
","
","
","""event"",""trial"",""time""
""fullscreenenter"",""1"",""6141""
","
","","","1084","","","10","18111","237","&#9776;","elianto","#3366ff99"," "," ","1","+10","[1935.5999999977648]","1","0","1","","","","","","","",""
"pit-trial","21","350099","0.0-2.0-8.0-1.0","battery-v0.2","","""event"",""trial"",""time""
""fullscreenenter"",""1"",""6141""
","
","
","""event"",""trial"",""time""
""fullscreenenter"",""1"",""6141""
","
","","","1238.699999999255","","","10","18111","237","&#9776;","elianto","#3366ff99"," "," ","1","+10","[2088.800000000745]","1","0","1","","","","","","","",""
"pit-trial","22","354956","0.0-2.0-8.0-2.0","battery-v0.2","","""event"",""trial"",""time""
""fullscreenenter"",""1"",""6141""
","
","
","""event"",""trial"",""time""
""fullscreenenter"",""1"",""6141""
","
","","","-1","","","10","18111","237","&#9776;","elianto","#3366ff99"," ","-1","0","0","[]","0","0","1","","","","","","","",""
"pit-trial","23","358403","0.0-2.0-8.0-3.0","battery-v0.2","","""event"",""trial"",""time""
""fullscreenenter"",""1"",""6141""
","
","
","""event"",""trial"",""time""
""fullscreenenter"",""1"",""6141""
","
","","","591.1999999992549","","","10","18111","237","&#9776;","elianto","#3366ff99"," "," ","1","0","[1441.800000000745]","1","0","1","","","","","","","",""
"pit-trial","24","361746","0.0-2.0-8.0-4.0","battery-v0.2","","""event"",""trial"",""time""
""fullscreenenter"",""1"",""6141""
","
","
","""event"",""trial"",""time""
""fullscreenenter"",""1"",""6141""
","
","","","487","","","10","18111","237","&#9776;","elianto","#3366ff99"," "," ","1","+10","[1338]","1","0","1","","","","","","","",""
"pit-trial","25","365148","0.0-2.0-8.1-0.1","battery-v0.2","","""event"",""trial"",""time""
""fullscreenenter"",""1"",""6141""
","
","
","""event"",""trial"",""time""
""fullscreenenter"",""1"",""6141""
","
","","","544.8999999985099","","","10","18111","237","&#9776;","elianto","#3366ff99"," "," ","1","+10","[1396.800000000745]","1","0","1","","","","","","","",""
"pit-trial","26","370003","0.0-2.0-8.1-1.1","battery-v0.2","","""event"",""trial"",""time""
""fullscreenenter"",""1"",""6141""
","
","
","""event"",""trial"",""time""
""fullscreenenter"",""1"",""6141""
","
","","","-1","","","10","18111","237","&#9776;","elianto","#3366ff99"," ","-1","0","0","[]","0","0","1","","","","","","","",""
"pit-trial","27","373591","0.0-2.0-8.1-2.1","battery-v0.2","","""event"",""trial"",""time""
""fullscreenenter"",""1"",""6141""
","
","
","""event"",""trial"",""time""
""fullscreenenter"",""1"",""6141""
","
","","","732.3000000007451","","","10","18111","237","&#9776;","elianto","#3366ff99"," "," ","1","+10","[1582.7000000029802]","1","0","1","","","","","","","",""
"pit-trial","28","377763","0.0-2.0-8.1-3.1","battery-v0.2","","""event"",""trial"",""time""
""fullscreenenter"",""1"",""6141""
","
","
","""event"",""trial"",""time""
""fullscreenenter"",""1"",""6141""
","
","","","1316.199999999255","","","10","18111","237","&#9776;","elianto","#3366ff99"," "," ","1","0","[2167]","1","0","1","","","","","","","",""
"pit-trial","29","382429","0.0-2.0-8.1-4.1","battery-v0.2","","""event"",""trial"",""time""
""fullscreenenter"",""1"",""6141""
","
","
","""event"",""trial"",""time""
""fullscreenenter"",""1"",""6141""
","
","","","1810.300000000745","","","10","18111","237","&#9776;","elianto","#3366ff99"," "," ","1","+10","[2662.099999997765]","1","0","1","","","","","","","",""
"pit-trial","30","387287","0.0-2.0-8.2-0.2","battery-v0.2","","""event"",""trial"",""time""
""fullscreenenter"",""1"",""6141""
","
","
","""event"",""trial"",""time""
""fullscreenenter"",""1"",""6141""
","
","","","-1","","","10","18111","237","&#9776;","elianto","#3366ff99"," ","-1","0","0","[]","0","0","1","","","","","","","",""
"pit-trial","31","391380","0.0-2.0-8.2-1.2","battery-v0.2","","""event"",""trial"",""time""
""fullscreenenter"",""1"",""6141""
","
","
","""event"",""trial"",""time""
""fullscreenenter"",""1"",""6141""
","
","","","1236.8999999985099","","","10","18111","237","&#9776;","elianto","#3366ff99"," "," ","1","+10","[2088.300000000745]","1","0","1","","","","","","","",""
"pit-trial","32","395374","0.0-2.0-8.2-2.2","battery-v0.2","","""event"",""trial"",""time""
""fullscreenenter"",""1"",""6141""
","
","
","""event"",""trial"",""time""
""fullscreenenter"",""1"",""6141""
","
","","","1138.699999999255","","","10","18111","237","&#9776;","elianto","#3366ff99"," "," ","1","+10","[1990.1000000014901]","1","0","1","","","","","","","",""
"pit-trial","33","400230","0.0-2.0-8.2-3.2","battery-v0.2","","""event"",""trial"",""time""
""fullscreenenter"",""1"",""6141""
","
","
","""event"",""trial"",""time""
""fullscreenenter"",""1"",""6141""
","
","","","-1","","","10","18111","237","&#9776;","elianto","#3366ff99"," ","-1","0","+10","[]","0","0","1","","","","","","","",""
"pit-trial","34","403572","0.0-2.0-8.2-4.2","battery-v0.2","","""event"",""trial"",""time""
""fullscreenenter"",""1"",""6141""
","
","
","""event"",""trial"",""time""
""fullscreenenter"",""1"",""6141""
","
","","","486.5999999977648","","","10","18111","237","&#9776;","elianto","#3366ff99"," "," ","1","+10","[1337.8999999985099]","1","0","1","","","","","","","",""
"call-function","35","403576","0.0-2.0-9.0","battery-v0.2","","""event"",""trial"",""time""
""fullscreenenter"",""1"",""6141""
","
","
","""event"",""trial"",""time""
""fullscreenenter"",""1"",""6141""
","
","","","","","","","","","","","","","","","","","","","","","","","","","","",""
"pit-instructions","36","444184","0.0-2.0-10.0","battery-v0.2","","""event"",""trial"",""time""
""fullscreenenter"",""1"",""6141""
","
","
","""event"",""trial"",""time""
""fullscreenenter"",""1"",""6141""
","
","","[{""page_index"":0,""viewing_time"":5754},{""page_index"":1,""viewing_time"":6958.29999999702},{""page_index"":2,""viewing_time"":10083.400000002235},{""page_index"":3,""viewing_time"":9014.39999999851},{""page_index"":4,""viewing_time"":8796.60000000149}]","40607.39999999851","","","","","","","","","","","","","","","","","","","","","","","",""
"pit-trial","37","449039","0.0-2.0-11.0-0.0","battery-v0.2","","""event"",""trial"",""time""
""fullscreenenter"",""1"",""6141""
","
","
","""event"",""trial"",""time""
""fullscreenenter"",""1"",""6141""
","
","","","-1","","","10","18111","237","&#9761;","elianto","#3366ff99","-1","-1","1","+10","[]","0","0","2","","","","","","","",""
"pit-trial","38","453896","0.0-2.0-11.0-1.0","battery-v0.2","","""event"",""trial"",""time""
""fullscreenenter"",""1"",""6141""
","
","
","""event"",""trial"",""time""
""fullscreenenter"",""1"",""6141""
","
","","","-1","","","10","18111","237","&#9761;","elianto","#3366ff99","-1","-1","1","+10","[]","0","0","2","","","","","","","",""
"pit-trial","39","458753","0.0-2.0-11.0-2.0","battery-v0.2","","""event"",""trial"",""time""
""fullscreenenter"",""1"",""6141""
","
","
","""event"",""trial"",""time""
""fullscreenenter"",""1"",""6141""
","
","","","-1","","","10","18111","237","&#9761;","elianto","#3366ff99","-1","-1","1","+10","[]","0","0","2","","","","","","","",""
"pit-trial","40","463609","0.0-2.0-11.0-3.0","battery-v0.2","","""event"",""trial"",""time""
""fullscreenenter"",""1"",""6141""
","
","
","""event"",""trial"",""time""
""fullscreenenter"",""1"",""6141""
","
","","","-1","","","10","18111","237","&#9761;","elianto","#3366ff99","-1","-1","1","0","[]","0","0","2","","","","","","","",""
"pit-trial","41","468465","0.0-2.0-11.0-4.0","battery-v0.2","","""event"",""trial"",""time""
""fullscreenenter"",""1"",""6141""
","
","
","""event"",""trial"",""time""
""fullscreenenter"",""1"",""6141""
","
","","","-1","","","10","18111","237","&#9761;","elianto","#3366ff99","-1","-1","1","+10","[3132.300000000745]","1","0","2","","","","","","","",""
"pit-trial","42","472255","0.0-2.0-11.1-0.1","battery-v0.2","","""event"",""trial"",""time""
""fullscreenenter"",""1"",""6141""
","
","
","""event"",""trial"",""time""
""fullscreenenter"",""1"",""6141""
","
","","","932.5","","","10","18111","237","&#9761;","elianto","#3366ff99","-1"," ","0","0","[1784.2999999970198]","1","0","2","","","","","","","",""
"pit-trial","43","476845","0.0-2.0-11.1-1.1","battery-v0.2","","""event"",""trial"",""time""
""fullscreenenter"",""1"",""6141""
","
","
","""event"",""trial"",""time""
""fullscreenenter"",""1"",""6141""
","
","","","1733.7999999970198","","","10","18111","237","&#9761;","elianto","#3366ff99","-1"," ","0","0","[2584]","1","0","2","","","","","","","",""
"pit-trial","44","480958","0.0-2.0-11.1-2.1","battery-v0.2","","""event"",""trial"",""time""
""fullscreenenter"",""1"",""6141""
","
","
","""event"",""trial"",""time""
""fullscreenenter"",""1"",""6141""
","
","","","1256.8999999985099","","","10","18111","237","&#9761;","elianto","#3366ff99","-1"," ","0","0","[2108.400000002235]","1","0","2","","","","","","","",""
"pit-trial","45","485061","0.0-2.0-11.1-3.1","battery-v0.2","","""event"",""trial"",""time""
""fullscreenenter"",""1"",""6141""
","
","
","""event"",""trial"",""time""
""fullscreenenter"",""1"",""6141""
","
","","","1247.699999999255","","","10","18111","237","&#9761;","elianto","#3366ff99","-1"," ","0","+10","[2098.5]","1","0","2","","","","","","","",""
"pit-trial","46","489917","0.0-2.0-11.1-4.1","battery-v0.2","","""event"",""trial"",""time""
""fullscreenenter"",""1"",""6141""
","
","
","""event"",""trial"",""time""
""fullscreenenter"",""1"",""6141""
","
","","","-1","","","10","18111","237","&#9761;","elianto","#3366ff99","-1","-1","1","+10","[3748.10000000149]","1","0","2","","","","","","","",""
"pit-trial","47","493539","0.0-2.0-11.2-0.2","battery-v0.2","","""event"",""trial"",""time""
""fullscreenenter"",""1"",""6141""
","
","
","""event"",""trial"",""time""
""fullscreenenter"",""1"",""6141""
","
","","","765","","","10","18111","237","&#9761;","elianto","#3366ff99","-1"," ","0","0","[1616.199999999255]","1","0","2","","","","","","","",""
"pit-trial","48","496770","0.0-2.0-11.2-1.2","battery-v0.2","","""event"",""trial"",""time""
""fullscreenenter"",""1"",""6141""
","
","
","""event"",""trial"",""time""
""fullscreenenter"",""1"",""6141""
","
","","","376.20000000298023","","","10","18111","237","&#9761;","elianto","#3366ff99","-1"," ","0","0","[1226.3999999985099]","1","0","2","","","","","","","",""
"pit-trial","49","500639","0.0-2.0-11.2-2.2","battery-v0.2","","""event"",""trial"",""time""
""fullscreenenter"",""1"",""6141""
","
","
","""event"",""trial"",""time""
""fullscreenenter"",""1"",""6141""
","
","","","1013.3999999985099","","","10","18111","237","&#9761;","elianto","#3366ff99","-1"," ","0","0","[1864.5999999977648]","1","0","2","","","","","","","",""
"pit-trial","50","504397","0.0-2.0-11.2-3.2","battery-v0.2","","""event"",""trial"",""time""
""fullscreenenter"",""1"",""6141""
","
","
","""event"",""trial"",""time""
""fullscreenenter"",""1"",""6141""
","
","","","901.8999999985099","","","10","18111","237","&#9761;","elianto","#3366ff99","-1"," ","0","+10","[1753.0999999977648]","1","0","2","","","","","","","",""
"pit-trial","51","509253","0.0-2.0-11.2-4.2","battery-v0.2","","""event"",""trial"",""time""
""fullscreenenter"",""1"",""6141""
","
","
","""event"",""trial"",""time""
""fullscreenenter"",""1"",""6141""
","
","","","-1","","","10","18111","237","&#9761;","elianto","#3366ff99","-1","-1","1","+10","[]","0","0","2","","","","","","","",""
"pit-trial","52","512254","0.0-2.0-11.3-0.3","battery-v0.2","","""event"",""trial"",""time""
""fullscreenenter"",""1"",""6141""
","
","
","""event"",""trial"",""time""
""fullscreenenter"",""1"",""6141""
","
","","","144.40000000223517","","","10","18111","237","&#9761;","elianto","#3366ff99","-1"," ","0","0","[995.1000000014901]","1","0","2","","","","","","","",""
"pit-trial","53","516184","0.0-2.0-11.3-1.3","battery-v0.2","","""event"",""trial"",""time""
""fullscreenenter"",""1"",""6141""
","
","
","""event"",""trial"",""time""
""fullscreenenter"",""1"",""6141""
","
","","","1076","","","10","18111","237","&#9761;","elianto","#3366ff99","-1"," ","0","0","[1926.6000000014901]","1","0","2","","","","","","","",""
"pit-trial","54","520118","0.0-2.0-11.3-2.3","battery-v0.2","","""event"",""trial"",""time""
""fullscreenenter"",""1"",""6141""
","
","
","""event"",""trial"",""time""
""fullscreenenter"",""1"",""6141""
","
","","","1077.7000000029802","","","10","18111","237","&#9761;","elianto","#3366ff99","-1"," ","0","0","[1928.8999999985099]","1","0","2","","","","","","","",""
"pit-trial","55","524266","0.0-2.0-11.3-3.3","battery-v0.2","","""event"",""trial"",""time""
""fullscreenenter"",""1"",""6141""
","
","
","""event"",""trial"",""time""
""fullscreenenter"",""1"",""6141""
","
","","","1293.1000000014901","","","10","18111","237","&#9761;","elianto","#3366ff99","-1"," ","0","+10","[2143.699999999255]","1","0","2","","","","","","","",""
"pit-trial","56","529122","0.0-2.0-11.3-4.3","battery-v0.2","","""event"",""trial"",""time""
""fullscreenenter"",""1"",""6141""
","
","
","""event"",""trial"",""time""
""fullscreenenter"",""1"",""6141""
","
","","","-1","","","10","18111","237","&#9761;","elianto","#3366ff99","-1","-1","1","+10","[3196.5]","1","0","2","","","","","","","",""
"call-function","57","529125","0.0-2.0-12.0","battery-v0.2","","""event"",""trial"",""time""
""fullscreenenter"",""1"",""6141""
","
","
","""event"",""trial"",""time""
""fullscreenenter"",""1"",""6141""
","
","","","","","","","","","","","","","","","","","","","","","","","","","","",""
"pit-instructions","58","579023","0.0-2.0-13.0","battery-v0.2","","""event"",""trial"",""time""
""fullscreenenter"",""1"",""6141""
","
","
","""event"",""trial"",""time""
""fullscreenenter"",""1"",""6141""
","
","","[{""page_index"":0,""viewing_time"":5159.39999999851},{""page_index"":1,""viewing_time"":15078},{""page_index"":2,""viewing_time"":5646},{""page_index"":3,""viewing_time"":17771.60000000149},{""page_index"":4,""viewing_time"":6241.10000000149}]","49896.699999999255","","","","","","","","","","","","","","","","","","","","","","","",""
"pit-trial","59","582637","0.0-2.0-14.0-0.0","battery-v0.2","","""event"",""trial"",""time""
""fullscreenenter"",""1"",""6141""
","
","
","""event"",""trial"",""time""
""fullscreenenter"",""1"",""6141""
","
","","","757.8000000007451","","","10","18111","237","&#9826;","elianto","#f73b6a7A","-1"," ","0","-10","[1608.5999999977648]","1","0","3","","","","","","","",""
"pit-trial","60","586526","0.0-2.0-14.0-1.0","battery-v0.2","","""event"",""trial"",""time""
""fullscreenenter"",""1"",""6141""
","
","
","""event"",""trial"",""time""
""fullscreenenter"",""1"",""6141""
","
","","","1034","","","10","18111","237","&#9826;","elianto","#f73b6a7A","-1"," ","0","-10","[1884]","1","0","3","","","","","","","",""
"pit-trial","61","589919","0.0-2.0-14.0-2.0","battery-v0.2","","""event"",""trial"",""time""
""fullscreenenter"",""1"",""6141""
","
","
","""event"",""trial"",""time""
""fullscreenenter"",""1"",""6141""
","
","","","536.3000000007451","","","10","18111","237","&#9826;","elianto","#f73b6a7A","-1"," ","0","-10","[1388.0999999977648]","1","0","3","","","","","","","",""
"pit-trial","62","593579","0.0-2.0-14.0-3.0","battery-v0.2","","""event"",""trial"",""time""
""fullscreenenter"",""1"",""6141""
","
","
","""event"",""trial"",""time""
""fullscreenenter"",""1"",""6141""
","
","","","804.2000000029802","","","10","18111","237","&#9826;","elianto","#f73b6a7A","-1"," ","0","0","[1655.300000000745]","1","0","3","","","","","","","",""
"pit-trial","63","597251","0.0-2.0-14.0-4.0","battery-v0.2","","""event"",""trial"",""time""
""fullscreenenter"",""1"",""6141""
","
","
","""event"",""trial"",""time""
""fullscreenenter"",""1"",""6141""
","
","","","816.0999999977648","","","10","18111","237","&#9826;","elianto","#f73b6a7A","-1"," ","0","-10","[1668]","1","0","3","","","","","","","",""
"pit-trial","64","601036","0.0-2.0-14.1-0.1","battery-v0.2","","""event"",""trial"",""time""
""fullscreenenter"",""1"",""6141""
","
","
","""event"",""trial"",""time""
""fullscreenenter"",""1"",""6141""
","
","","","928.1000000014901","","","10","18111","237","&#9826;","elianto","#f73b6a7A","-1"," ","0","-10","[1779.1000000014901]","1","0","3","","","","","","","",""
"pit-trial","65","605122","0.0-2.0-14.1-1.1","battery-v0.2","","""event"",""trial"",""time""
""fullscreenenter"",""1"",""6141""
","
","
","""event"",""trial"",""time""
""fullscreenenter"",""1"",""6141""
","
","","","1230.5","","","10","18111","237","&#9826;","elianto","#f73b6a7A","-1"," ","0","-10","[2081.2999999970198]","1","0","3","","","","","","","",""
"pit-trial","66","608347","0.0-2.0-14.1-2.1","battery-v0.2","","""event"",""trial"",""time""
""fullscreenenter"",""1"",""6141""
","
","
","""event"",""trial"",""time""
""fullscreenenter"",""1"",""6141""
","
","","","369.30000000074506","","","10","18111","237","&#9826;","elianto","#f73b6a7A","-1"," ","0","-10","[1220.5]","1","0","3","","","","","","","",""
"pit-trial","67","612224","0.0-2.0-14.1-3.1","battery-v0.2","","""event"",""trial"",""time""
""fullscreenenter"",""1"",""6141""
","
","
","""event"",""trial"",""time""
""fullscreenenter"",""1"",""6141""
","
","","","1020.6999999992549","","","10","18111","237","&#9826;","elianto","#f73b6a7A","-1"," ","0","0","[1871.7000000029802]","1","0","3","","","","","","","",""
"pit-trial","68","617079","0.0-2.0-14.1-4.1","battery-v0.2","","""event"",""trial"",""time""
""fullscreenenter"",""1"",""6141""
","
","
","""event"",""trial"",""time""
""fullscreenenter"",""1"",""6141""
","
","","","-1","","","10","18111","237","&#9826;","elianto","#f73b6a7A","-1","-1","1","0","[]","0","0","3","","","","","","","",""
"pit-trial","69","620538","0.0-2.0-14.2-0.2","battery-v0.2","","""event"",""trial"",""time""
""fullscreenenter"",""1"",""6141""
","
","
","""event"",""trial"",""time""
""fullscreenenter"",""1"",""6141""
","
","","","601.5","","","10","18111","237","&#9826;","elianto","#f73b6a7A","-1"," ","0","-10","[1452.699999999255]","1","0","3","","","","","","","",""
"pit-trial","70","624105","0.0-2.0-14.2-1.2","battery-v0.2","","""event"",""trial"",""time""
""fullscreenenter"",""1"",""6141""
","
","
","""event"",""trial"",""time""
""fullscreenenter"",""1"",""6141""
","
","","","712.1000000014901","","","10","18111","237","&#9826;","elianto","#f73b6a7A","-1"," ","0","-10","[1562.9000000022352]","1","0","3","","","","","","","",""
"pit-trial","71","627689","0.0-2.0-14.2-2.2","battery-v0.2","","""event"",""trial"",""time""
""fullscreenenter"",""1"",""6141""
","
","
","""event"",""trial"",""time""
""fullscreenenter"",""1"",""6141""
","
","","","727.8000000007451","","","10","18111","237","&#9826;","elianto","#f73b6a7A","-1"," ","0","-10","[1578.5999999977648]","1","0","3","","","","","","","",""
"pit-trial","72","631332","0.0-2.0-14.2-3.2","battery-v0.2","","""event"",""trial"",""time""
""fullscreenenter"",""1"",""6141""
","
","
","""event"",""trial"",""time""
""fullscreenenter"",""1"",""6141""
","
","","","787.9000000022352","","","10","18111","237","&#9826;","elianto","#f73b6a7A","-1"," ","0","0","[711.9000000022352,1638.4000000022352]","2","0","3","","","","","","","",""
"pit-trial","73","635080","0.0-2.0-14.2-4.2","battery-v0.2","","""event"",""trial"",""time""
""fullscreenenter"",""1"",""6141""
","
","
","""event"",""trial"",""time""
""fullscreenenter"",""1"",""6141""
","
","","","891.5","","","10","18111","237","&#9826;","elianto","#f73b6a7A","-1"," ","0","-10","[1742.7000000029802]","1","0","3","","","","","","","",""
"pit-trial","74","638549","0.0-2.0-14.3-0.3","battery-v0.2","","""event"",""trial"",""time""
""fullscreenenter"",""1"",""6141""
","
","
","""event"",""trial"",""time""
""fullscreenenter"",""1"",""6141""
","
","","","612.6999999992549","","","10","18111","237","&#9826;","elianto","#f73b6a7A","-1"," ","0","-10","[1463.7000000029802]","1","0","3","","","","","","","",""
"pit-trial","75","642172","0.0-2.0-14.3-1.3","battery-v0.2","","""event"",""trial"",""time""
""fullscreenenter"",""1"",""6141""
","
","
","""event"",""trial"",""time""
""fullscreenenter"",""1"",""6141""
","
","","","766.6999999992549","","","10","18111","237","&#9826;","elianto","#f73b6a7A","-1"," ","0","-10","[1618]","1","0","3","","","","","","","",""
"pit-trial","76","645756","0.0-2.0-14.3-2.3","battery-v0.2","","""event"",""trial"",""time""
""fullscreenenter"",""1"",""6141""
","
","
","""event"",""trial"",""time""
""fullscreenenter"",""1"",""6141""
","
","","","728.9000000022352","","","10","18111","237","&#9826;","elianto","#f73b6a7A","-1"," ","0","-10","[1579.4000000022352]","1","0","3","","","","","","","",""
"pit-trial","77","649280","0.0-2.0-14.3-3.3","battery-v0.2","","""event"",""trial"",""time""
""fullscreenenter"",""1"",""6141""
","
","
","""event"",""trial"",""time""
""fullscreenenter"",""1"",""6141""
","
","","","667.7999999970198","","","10","18111","237","&#9826;","elianto","#f73b6a7A","-1"," ","0","0","[1518.5999999977648]","1","0","3","","","","","","","",""
"pit-trial","78","652866","0.0-2.0-14.3-4.3","battery-v0.2","","""event"",""trial"",""time""
""fullscreenenter"",""1"",""6141""
","
","
","""event"",""trial"",""time""
""fullscreenenter"",""1"",""6141""
","
","","","730.0999999977648","","","10","18111","237","&#9826;","elianto","#f73b6a7A","-1"," ","0","-10","[1581.1000000014901]","1","0","3","","","","","","","",""
"call-function","79","652868","0.0-2.0-15.0","battery-v0.2","","""event"",""trial"",""time""
""fullscreenenter"",""1"",""6141""
","
","
","""event"",""trial"",""time""
""fullscreenenter"",""1"",""6141""
","
","","","","","","","","","","","","","","","","","","","","","","","","","","",""
"pit-instructions","80","693576","0.0-2.0-16.0","battery-v0.2","","""event"",""trial"",""time""
""fullscreenenter"",""1"",""6141""
","
","
","""event"",""trial"",""time""
""fullscreenenter"",""1"",""6141""
","
","","[{""page_index"":0,""viewing_time"":10104.300000000745},{""page_index"":1,""viewing_time"":14899.300000000745},{""page_index"":2,""viewing_time"":4486.29999999702},{""page_index"":3,""viewing_time"":11221}]","40711.5","","","","","","","","","","","","","","","","","","","","","","","",""
"pit-trial","81","697655","0.0-2.0-17.0-0.0","battery-v0.2","","""event"",""trial"",""time""
""fullscreenenter"",""1"",""6141""
","
","
","""event"",""trial"",""time""
""fullscreenenter"",""1"",""6141""
","
","","","1222.1000000014901","","","10","18111","237","&#9789;","elianto","#f73b6a7A"," "," ","1","0","[2073.7000000029802]","1","0","4","","","","","","","",""
"pit-trial","82","701303","0.0-2.0-17.0-1.0","battery-v0.2","","""event"",""trial"",""time""
""fullscreenenter"",""1"",""6141""
","
","
","""event"",""trial"",""time""
""fullscreenenter"",""1"",""6141""
","
","","","791.9000000022352","","","10","18111","237","&#9789;","elianto","#f73b6a7A"," "," ","1","0","[1643.1000000014901]","1","0","4","","","","","","","",""
"pit-trial","83","704508","0.0-2.0-17.0-2.0","battery-v0.2","","""event"",""trial"",""time""
""fullscreenenter"",""1"",""6141""
","
","
","""event"",""trial"",""time""
""fullscreenenter"",""1"",""6141""
","
","","","350.30000000074506","","","10","18111","237","&#9789;","elianto","#f73b6a7A"," "," ","1","0","[1201]","1","0","4","","","","","","","",""
"pit-trial","84","708029","0.0-2.0-17.0-3.0","battery-v0.2","","""event"",""trial"",""time""
""fullscreenenter"",""1"",""6141""
","
","
","""event"",""trial"",""time""
""fullscreenenter"",""1"",""6141""
","
","","","664.6000000014901","","","10","18111","237","&#9789;","elianto","#f73b6a7A"," "," ","1","-10","[1515.8999999985099]","1","0","4","","","","","","","",""
"pit-trial","85","711765","0.0-2.0-17.0-4.0","battery-v0.2","","""event"",""trial"",""time""
""fullscreenenter"",""1"",""6141""
","
","
","""event"",""trial"",""time""
""fullscreenenter"",""1"",""6141""
","
","","","882.3999999985099","","","10","18111","237","&#9789;","elianto","#f73b6a7A"," "," ","1","0","[1732.5]","1","0","4","","","","","","","",""
"pit-trial","86","716108","0.0-2.0-17.1-0.1","battery-v0.2","","""event"",""trial"",""time""
""fullscreenenter"",""1"",""6141""
","
","
","""event"",""trial"",""time""
""fullscreenenter"",""1"",""6141""
","
","","","1487.4000000022352","","","10","18111","237","&#9789;","elianto","#f73b6a7A"," "," ","1","0","[2337.800000000745]","1","0","4","","","","","","","",""
"pit-trial","87","719345","0.0-2.0-17.1-1.1","battery-v0.2","","""event"",""trial"",""time""
""fullscreenenter"",""1"",""6141""
","
","
","""event"",""trial"",""time""
""fullscreenenter"",""1"",""6141""
","
","","","381.1000000014901","","","10","18111","237","&#9789;","elianto","#f73b6a7A"," "," ","1","0","[1232.5]","1","0","4","","","","","","","",""
"pit-trial","88","722438","0.0-2.0-17.1-2.1","battery-v0.2","","""event"",""trial"",""time""
""fullscreenenter"",""1"",""6141""
","
","
","""event"",""trial"",""time""
""fullscreenenter"",""1"",""6141""
","
","","","237.69999999925494","","","10","18111","237","&#9789;","elianto","#f73b6a7A"," "," ","1","0","[1089]","1","0","4","","","","","","","",""
"pit-trial","89","725896","0.0-2.0-17.1-3.1","battery-v0.2","","""event"",""trial"",""time""
""fullscreenenter"",""1"",""6141""
","
","
","""event"",""trial"",""time""
""fullscreenenter"",""1"",""6141""
","
","","","601.5","","","10","18111","237","&#9789;","elianto","#f73b6a7A"," "," ","1","-10","[1452.6000000014901]","1","0","4","","","","","","","",""
"pit-trial","90","729647","0.0-2.0-17.1-4.1","battery-v0.2","","""event"",""trial"",""time""
""fullscreenenter"",""1"",""6141""
","
","
","""event"",""trial"",""time""
""fullscreenenter"",""1"",""6141""
","
","","","895.7000000029802","","","10","18111","237","&#9789;","elianto","#f73b6a7A"," "," ","1","0","[1746.300000000745]","1","0","4","","","","","","","",""
"pit-trial","91","733214","0.0-2.0-17.2-0.2","battery-v0.2","","""event"",""trial"",""time""
""fullscreenenter"",""1"",""6141""
","
","
","""event"",""trial"",""time""
""fullscreenenter"",""1"",""6141""
","
","","","710.7999999970198","","","10","18111","237","&#9789;","elianto","#f73b6a7A"," "," ","1","0","[1561.199999999255]","1","0","4","","","","","","","",""
"pit-trial","92","736653","0.0-2.0-17.2-1.2","battery-v0.2","","""event"",""trial"",""time""
""fullscreenenter"",""1"",""6141""
","
","
","""event"",""trial"",""time""
""fullscreenenter"",""1"",""6141""
","
","","","582.6000000014901","","","10","18111","237","&#9789;","elianto","#f73b6a7A"," "," ","1","0","[1433.800000000745]","1","0","4","","","","","","","",""
"pit-trial","93","740277","0.0-2.0-17.2-2.2","battery-v0.2","","""event"",""trial"",""time""
""fullscreenenter"",""1"",""6141""
","
","
","""event"",""trial"",""time""
""fullscreenenter"",""1"",""6141""
","
","","","767.5999999977648","","","10","18111","237","&#9789;","elianto","#f73b6a7A"," "," ","1","0","[1619.2999999970198]","1","0","4","","","","","","","",""
"pit-trial","94","744688","0.0-2.0-17.2-3.2","battery-v0.2","","""event"",""trial"",""time""
""fullscreenenter"",""1"",""6141""
","
","
","""event"",""trial"",""time""
""fullscreenenter"",""1"",""6141""
","
","","","1554.699999999255","","","10","18111","237","&#9789;","elianto","#f73b6a7A"," "," ","1","-10","[2406]","1","0","4","","","","","","","",""
"pit-trial","95","749543","0.0-2.0-17.2-4.2","battery-v0.2","","""event"",""trial"",""time""
""fullscreenenter"",""1"",""6141""
","
","
","""event"",""trial"",""time""
""fullscreenenter"",""1"",""6141""
","
","","","-1","","","10","18111","237","&#9789;","elianto","#f73b6a7A"," ","-1","0","-10","[]","0","0","4","","","","","","","",""
"pit-trial","96","753005","0.0-2.0-17.3-0.3","battery-v0.2","","""event"",""trial"",""time""
""fullscreenenter"",""1"",""6141""
","
","
","""event"",""trial"",""time""
""fullscreenenter"",""1"",""6141""
","
","","","605.1999999992549","","","10","18111","237","&#9789;","elianto","#f73b6a7A"," "," ","1","0","[1455.2999999970198]","1","0","4","","","","","","","",""
"pit-trial","97","757861","0.0-2.0-17.3-1.3","battery-v0.2","","""event"",""trial"",""time""
""fullscreenenter"",""1"",""6141""
","
","
","""event"",""trial"",""time""
""fullscreenenter"",""1"",""6141""
","
","","","-1","","","10","18111","237","&#9789;","elianto","#f73b6a7A"," ","-1","0","-10","[2902.2999999970198]","1","0","4","","","","","","","",""
"pit-trial","98","762718","0.0-2.0-17.3-2.3","battery-v0.2","","""event"",""trial"",""time""
""fullscreenenter"",""1"",""6141""
","
","
","""event"",""trial"",""time""
""fullscreenenter"",""1"",""6141""
","
","","","-1","","","10","18111","237","&#9789;","elianto","#f73b6a7A"," ","-1","0","-10","[]","0","0","4","","","","","","","",""
"pit-trial","99","766116","0.0-2.0-17.3-3.3","battery-v0.2","","""event"",""trial"",""time""
""fullscreenenter"",""1"",""6141""
","
","
","""event"",""trial"",""time""
""fullscreenenter"",""1"",""6141""
","
","","","541.6999999992549","","","10","18111","237","&#9789;","elianto","#f73b6a7A"," "," ","1","-10","[1393.0999999977648]","1","0","4","","","","","","","",""
"pit-trial","100","769731","0.0-2.0-17.3-4.3","battery-v0.2","","""event"",""trial"",""time""
""fullscreenenter"",""1"",""6141""
","
","
","""event"",""trial"",""time""
""fullscreenenter"",""1"",""6141""
","
","","","759.1000000014901","","","10","18111","237","&#9789;","elianto","#f73b6a7A"," "," ","1","0","[1610]","1","0","4","","","","","","","",""
"call-function","101","769733","0.0-2.0-18.0","battery-v0.2","","""event"",""trial"",""time""
""fullscreenenter"",""1"",""6141""
","
","
","""event"",""trial"",""time""
""fullscreenenter"",""1"",""6141""
","
","","","","","","","","","","","","","","","","","","","","","","","","","","",""
"pit-instructions","102","923343","0.0-2.0-19.0","battery-v0.2","","""event"",""trial"",""time""
""fullscreenenter"",""1"",""6141""
","
","
","""event"",""trial"",""time""
""fullscreenenter"",""1"",""6141""
","
","","[{""page_index"":0,""viewing_time"":14126.300000000745},{""page_index"":1,""viewing_time"":5886.099999997765},{""page_index"":2,""viewing_time"":83312.60000000149},{""page_index"":3,""viewing_time"":9541.39999999851},{""page_index"":4,""viewing_time"":9547.60000000149},{""page_index"":5,""viewing_time"":8092.10000000149},{""page_index"":6,""viewing_time"":10875},{""page_index"":7,""viewing_time"":8810.099999997765},{""page_index"":8,""viewing_time"":3418.300000000745}]","153610.19999999925","","","","","","","","","","","","","","","","","","","","","","","",""
"pit-comprehension","103","932754","0.0-2.0-20.0-0.0","battery-v0.2","","""event"",""trial"",""time""
""fullscreenenter"",""1"",""6141""
","
","
","""event"",""trial"",""time""
""fullscreenenter"",""1"",""6141""
","
","","","9405","[""SPACE""]","0","10","18111","237","","","","","","","","","","","","","","","","","","",""
"pit-instructions","104","938684","0.0-2.0-20.0-1.0","battery-v0.2","","""event"",""trial"",""time""
""fullscreenenter"",""1"",""6141""
","
","
","""event"",""trial"",""time""
""fullscreenenter"",""1"",""6141""
","
","","[{""page_index"":0,""viewing_time"":5903.70000000298}]","5904","","","","","","","","","","","","","","","","","","","","","","","",""
"pit-comprehension","105","950011","0.0-2.0-21.0-0.0","battery-v0.2","","""event"",""trial"",""time""
""fullscreenenter"",""1"",""6141""
","
","
","""event"",""trial"",""time""
""fullscreenenter"",""1"",""6141""
","
","","","11322.89999999851","[""10""]","0","10","18111","237","","","","","","","","","","","","","","","","","","",""
"pit-instructions","106","952224","0.0-2.0-21.0-1.0","battery-v0.2","","""event"",""trial"",""time""
""fullscreenenter"",""1"",""6141""
","
","
","""event"",""trial"",""time""
""fullscreenenter"",""1"",""6141""
","
","","[{""page_index"":0,""viewing_time"":2186.5}]","2187","","","","","","","","","","","","","","","","","","","","","","","",""
"pit-comprehension","107","962078","0.0-2.0-22.0-0.0","battery-v0.2","","""event"",""trial"",""time""
""fullscreenenter"",""1"",""6141""
","
","
","""event"",""trial"",""time""
""fullscreenenter"",""1"",""6141""
","
","","","9848.599999997765","[""0""]","0","10","18111","237","","","","","","","","","","","","","","","","","","",""
"pit-instructions","108","967007","0.0-2.0-22.0-1.0","battery-v0.2","","""event"",""trial"",""time""
""fullscreenenter"",""1"",""6141""
","
","
","""event"",""trial"",""time""
""fullscreenenter"",""1"",""6141""
","
","","[{""page_index"":0,""viewing_time"":4903.400000002235}]","4903.900000002235","","","","","","","","","","","","","","","","","","","","","","","",""
"pit-comprehension","109","1012712","0.0-2.0-23.0-0.0","battery-v0.2","","""event"",""trial"",""time""
""fullscreenenter"",""1"",""6141""
","
","
","""event"",""trial"",""time""
""fullscreenenter"",""1"",""6141""
","
","","","45700.10000000149","[""False""]","1","10","18111","237","","","","","","","","","","","","","","","","","","",""
"pit-instructions","110","1016481","0.0-2.0-23.0-1.0","battery-v0.2","","""event"",""trial"",""time""
""fullscreenenter"",""1"",""6141""
","
","
","""event"",""trial"",""time""
""fullscreenenter"",""1"",""6141""
","
","","[{""page_index"":0,""viewing_time"":3745}]","3745.2999999970198","","","","","","","","","","","","","","","","","","","","","","","",""
"pit-instructions","111","1018295","0.0-2.0-23.0-2.0-0.0","battery-v0.2","","""event"",""trial"",""time""
""fullscreenenter"",""1"",""6141""
","
","
","""event"",""trial"",""time""
""fullscreenenter"",""1"",""6141""
","
","","[{""page_index"":0,""viewing_time"":1813}]","1813.199999999255","","","","","","","","","","","","","","","","","","","","","","","",""
"pit-comprehension","112","1026964","0.0-2.0-23.1-0.1","battery-v0.2","","""event"",""trial"",""time""
""fullscreenenter"",""1"",""6141""
","
","
","""event"",""trial"",""time""
""fullscreenenter"",""1"",""6141""
","
","","","8666.300000000745","[""True""]","0","10","18111","237","","","","","","","","","","","","","","","","","","",""
"pit-instructions","113","1028863","0.0-2.0-23.1-1.1","battery-v0.2","","""event"",""trial"",""time""
""fullscreenenter"",""1"",""6141""
","
","
","""event"",""trial"",""time""
""fullscreenenter"",""1"",""6141""
","
","","[{""page_index"":0,""viewing_time"":1870.5}]","1871.1000000014901","","","","","","","","","","","","","","","","","","","","","","","",""
"pit-comprehension","114","1038791","0.0-2.0-24.0-0.0","battery-v0.2","","""event"",""trial"",""time""
""fullscreenenter"",""1"",""6141""
","
","
","""event"",""trial"",""time""
""fullscreenenter"",""1"",""6141""
","
","","","9922.800000000745","[""True""]","0","10","18111","237","","","","","","","","","","","","","","","","","","",""
"pit-instructions","115","1040552","0.0-2.0-24.0-1.0","battery-v0.2","","""event"",""trial"",""time""
""fullscreenenter"",""1"",""6141""
","
","
","""event"",""trial"",""time""
""fullscreenenter"",""1"",""6141""
","
","","[{""page_index"":0,""viewing_time"":1735}]","1735.5999999977648","","","","","","","","","","","","","","","","","","","","","","","",""
"pit-comprehension","116","1048952","0.0-2.0-25.0-0.0","battery-v0.2","","""event"",""trial"",""time""
""fullscreenenter"",""1"",""6141""
","
","
","""event"",""trial"",""time""
""fullscreenenter"",""1"",""6141""
","
","","","8394.60000000149","[""True""]","0","10","18111","237","","","","","","","","","","","","","","","","","","",""
"pit-instructions","117","1050713","0.0-2.0-25.0-1.0","battery-v0.2","","""event"",""trial"",""time""
""fullscreenenter"",""1"",""6141""
","
","
","""event"",""trial"",""time""
""fullscreenenter"",""1"",""6141""
","
","","[{""page_index"":0,""viewing_time"":1734.300000000745}]","1734.800000000745","","","","","","","","","","","","","","","","","","","","","","","",""
"pit-comprehension","118","1062428","0.0-2.0-26.0-0.0","battery-v0.2","","""event"",""trial"",""time""
""fullscreenenter"",""1"",""6141""
","
","
","""event"",""trial"",""time""
""fullscreenenter"",""1"",""6141""
","
","","","11709.5","[""False""]","0","10","18111","237","","","","","","","","","","","","","","","","","","",""
"pit-instructions","119","1065297","0.0-2.0-26.0-1.0","battery-v0.2","","""event"",""trial"",""time""
""fullscreenenter"",""1"",""6141""
","
","
","""event"",""trial"",""time""
""fullscreenenter"",""1"",""6141""
","
","","[{""page_index"":0,""viewing_time"":2840.699999999255}]","2841.39999999851","","","","","","","","","","","","","","","","","","","","","","","",""
"pit-instructions","120","1085643","0.0-3.0","battery-v0.2","","""event"",""trial"",""time""
""fullscreenenter"",""1"",""6141""
","
","
","""event"",""trial"",""time""
""fullscreenenter"",""1"",""6141""
","
","","[{""page_index"":0,""viewing_time"":3585.300000000745},{""page_index"":1,""viewing_time"":9886.300000000745},{""page_index"":2,""viewing_time"":6871}]","20343.10000000149","","","","","","","","","","","","","","","","","","","","","","","",""
"pit-trial","121","1090503","0.0-4.0","battery-v0.2","","""event"",""trial"",""time""
""fullscreenenter"",""1"",""6141""
","
","
","""event"",""trial"",""time""
""fullscreenenter"",""1"",""6141""
","
","","","-1","","","10","18111","237","&#9730;","elianto","#3366ff99"," ","-1","0","0","[]","0","1","","","18111","1","1","1","win","go","0"
"pit-trial","122","1094012","0.0-5.0","battery-v0.2","","""event"",""trial"",""time""
""fullscreenenter"",""1"",""6141""
","
","
","""event"",""trial"",""time""
""fullscreenenter"",""1"",""6141""
","
","","","653.0999999977648","","","10","18111","237","&#9752;","elianto","#f73b6a7A"," "," ","1","0","[1504.300000000745]","1","1","","","18111","2","3","3","lose","go","0"
"pit-trial","123","1098078","0.0-6.0","battery-v0.2","","""event"",""trial"",""time""
""fullscreenenter"",""1"",""6141""
","
","
","""event"",""trial"",""time""
""fullscreenenter"",""1"",""6141""
","
","","","1210.1000000014901","","","10","18111","237","&#9728;","elianto","#f73b6a7A","-1"," ","0","-10","[2060.699999999255]","1","1","","","18111","3","0","4","lose","no-go","0"
"pit-trial","124","1102934","0.0-7.0","battery-v0.2","","""event"",""trial"",""time""
""fullscreenenter"",""1"",""6141""
","
","
","""event"",""trial"",""time""
""fullscreenenter"",""1"",""6141""
","
","","","-1","","","10","18111","237","&#9733;","elianto","#3366ff99","-1","-1","1","0","[]","0","1","","","18111","4","2","2","win","no-go","1"
"pit-trial","125","1107361","0.0-8.0","battery-v0.2","","""event"",""trial"",""time""
""fullscreenenter"",""1"",""6141""
","
","
","""event"",""trial"",""time""
""fullscreenenter"",""1"",""6141""
","
","","","1572","","","10","18111","237","&#9752;","elianto","#f73b6a7A"," "," ","1","0","[2423.2999999970198]","1","1","","","18111","5","3","3","lose","go","0"
"pit-trial","126","1112215","0.0-9.0","battery-v0.2","","""event"",""trial"",""time""
""fullscreenenter"",""1"",""6141""
","
","
","""event"",""trial"",""time""
""fullscreenenter"",""1"",""6141""
","
","","","-1","","","10","18111","237","&#9730;","elianto","#3366ff99"," ","-1","0","0","[]","0","1","","","18111","6","1","1","win","go","0"
"pit-trial","127","1116701","0.0-10.0","battery-v0.2","","""event"",""trial"",""time""
""fullscreenenter"",""1"",""6141""
","
","
","""event"",""trial"",""time""
""fullscreenenter"",""1"",""6141""
","
","","","1630.199999999255","","","10","18111","237","&#9733;","elianto","#3366ff99","-1"," ","0","0","[2480.400000002235]","1","1","","","18111","7","2","2","win","no-go","0"
"pit-trial","128","1121304","0.0-11.0","battery-v0.2","","""event"",""trial"",""time""
""fullscreenenter"",""1"",""6141""
","
","
","""event"",""trial"",""time""
""fullscreenenter"",""1"",""6141""
","
","","","1747.9000000022352","","","10","18111","237","&#9728;","elianto","#f73b6a7A","-1"," ","0","-10","[2598.699999999255]","1","1","","","18111","8","0","4","lose","no-go","0"
"pit-trial","129","1125931","0.0-12.0","battery-v0.2","","""event"",""trial"",""time""
""fullscreenenter"",""1"",""6141""
","
","
","""event"",""trial"",""time""
""fullscreenenter"",""1"",""6141""
","
","","","1771.0999999977648","","","10","18111","237","&#9733;","elianto","#3366ff99","-1"," ","0","0","[2622.199999999255]","1","1","","","18111","9","2","2","win","no-go","0"
"pit-trial","130","1130788","0.0-13.0","battery-v0.2","","""event"",""trial"",""time""
""fullscreenenter"",""1"",""6141""
","
","
","""event"",""trial"",""time""
""fullscreenenter"",""1"",""6141""
","
","","","-1","","","10","18111","237","&#9730;","elianto","#3366ff99"," ","-1","0","0","[]","0","1","","","18111","10","1","1","win","go","0"
"pit-trial","131","1135645","0.0-14.0","battery-v0.2","","""event"",""trial"",""time""
""fullscreenenter"",""1"",""6141""
","
","
","""event"",""trial"",""time""
""fullscreenenter"",""1"",""6141""
","
","","","-1","","","10","18111","237","&#9752;","elianto","#f73b6a7A"," ","-1","0","-10","[]","0","1","","","18111","11","3","3","lose","go","0"
"pit-trial","132","1140362","0.0-15.0","battery-v0.2","","""event"",""trial"",""time""
""fullscreenenter"",""1"",""6141""
","
","
","""event"",""trial"",""time""
""fullscreenenter"",""1"",""6141""
","
","","","1861.5999999977648","","","10","18111","237","&#9728;","elianto","#f73b6a7A","-1"," ","0","-10","[2712.699999999255]","1","1","","","18111","12","0","4","lose","no-go","0"
"pit-trial","133","1144343","0.0-16.0","battery-v0.2","","""event"",""trial"",""time""
""fullscreenenter"",""1"",""6141""
","
","
","""event"",""trial"",""time""
""fullscreenenter"",""1"",""6141""
","
","","","1125.199999999255","","","10","18111","237","&#9733;","elianto","#3366ff99","-1"," ","0","0","[1976]","1","1","","","18111","13","2","2","win","no-go","0"
"pit-trial","134","1147446","0.0-17.0","battery-v0.2","","""event"",""trial"",""time""
""fullscreenenter"",""1"",""6141""
","
","
","""event"",""trial"",""time""
""fullscreenenter"",""1"",""6141""
","
","","","246.60000000149012","","","10","18111","237","&#9752;","elianto","#f73b6a7A"," "," ","1","0","[1096.800000000745]","1","1","","","18111","14","3","3","lose","go","0"
"pit-trial","135","1152302","0.0-18.0","battery-v0.2","","""event"",""trial"",""time""
""fullscreenenter"",""1"",""6141""
","
","
","""event"",""trial"",""time""
""fullscreenenter"",""1"",""6141""
","
","","","-1","","","10","18111","237","&#9728;","elianto","#f73b6a7A","-1","-1","1","0","[]","0","1","","","18111","15","0","4","lose","no-go","0"
"pit-trial","136","1157158","0.0-19.0","battery-v0.2","","""event"",""trial"",""time""
""fullscreenenter"",""1"",""6141""
","
","
","""event"",""trial"",""time""
""fullscreenenter"",""1"",""6141""
","
","","","-1","","","10","18111","237","&#9730;","elianto","#3366ff99"," ","-1","0","0","[]","0","1","","","18111","16","1","1","win","go","0"
"pit-trial","137","1162013","0.0-20.0","battery-v0.2","","""event"",""trial"",""time""
""fullscreenenter"",""1"",""6141""
","
","
","""event"",""trial"",""time""
""fullscreenenter"",""1"",""6141""
","
","","","-1","","","10","18111","237","&#9733;","elianto","#3366ff99","-1","-1","1","+10","[]","0","1","","","18111","17","2","2","win","no-go","0"
"pit-trial","138","1166636","0.0-21.0","battery-v0.2","","""event"",""trial"",""time""
""fullscreenenter"",""1"",""6141""
","
","
","""event"",""trial"",""time""
""fullscreenenter"",""1"",""6141""
","
","","","1769.4000000022352","","","10","18111","237","&#9752;","elianto","#f73b6a7A"," "," ","1","0","[2620.300000000745]","1","1","","","18111","18","3","3","lose","go","0"
"pit-trial","139","1171493","0.0-22.0","battery-v0.2","","""event"",""trial"",""time""
""fullscreenenter"",""1"",""6141""
","
","
","""event"",""trial"",""time""
""fullscreenenter"",""1"",""6141""
","
","","","-1","","","10","18111","237","&#9728;","elianto","#f73b6a7A","-1","-1","1","-10","[]","0","1","","","18111","19","0","4","lose","no-go","1"
"pit-trial","140","1176347","0.0-23.0","battery-v0.2","","""event"",""trial"",""time""
""fullscreenenter"",""1"",""6141""
","
","
","""event"",""trial"",""time""
""fullscreenenter"",""1"",""6141""
","
","","","-1","","","10","18111","237","&#9730;","elianto","#3366ff99"," ","-1","0","0","[]","0","1","","","18111","20","1","1","win","go","0"
"pit-instructions","141","1188414","0.0-24.0","battery-v0.2","","""event"",""trial"",""time""
""fullscreenenter"",""1"",""6141""
","
","
","""event"",""trial"",""time""
""fullscreenenter"",""1"",""6141""
","
","","[{""page_index"":0,""viewing_time"":5871.099999997765},{""page_index"":1,""viewing_time"":6193.10000000149}]","12064.699999999255","","","","","","","","","","","","","","","","","","","","","","","",""
"pit-trial","142","1192868","0.0-25.0","battery-v0.2","","""event"",""trial"",""time""
""fullscreenenter"",""1"",""6141""
","
","
","""event"",""trial"",""time""
""fullscreenenter"",""1"",""6141""
","
","","","1596.699999999255","","","10","18111","237","h","elianto","#f73b6a7A","-1"," ","0","0","[2447.699999999255]","1","2","","","18111","21","3","4","lose","no-go","1"
"pit-trial","143","1197726","0.0-26.0","battery-v0.2","","""event"",""trial"",""time""
""fullscreenenter"",""1"",""6141""
","
","
","""event"",""trial"",""time""
""fullscreenenter"",""1"",""6141""
","
","","","-1","","","10","18111","237","r","elianto","#3366ff99","-1","-1","1","+10","[]","0","2","","","18111","22","1","2","win","no-go","0"
"pit-trial","144","1202194","0.0-27.0","battery-v0.2","","""event"",""trial"",""time""
""fullscreenenter"",""1"",""6141""
","
","
","""event"",""trial"",""time""
""fullscreenenter"",""1"",""6141""
","
","","","1613.2999999970198","","","10","18111","237","y","elianto","#f73b6a7A"," "," ","1","0","[2463.39999999851]","1","2","","","18111","23","2","3","lose","go","0"
"pit-trial","145","1207052","0.0-28.0","battery-v0.2","","""event"",""trial"",""time""
""fullscreenenter"",""1"",""6141""
","
","
","""event"",""trial"",""time""
""fullscreenenter"",""1"",""6141""
","
","","","-1","","","10","18111","237","m","elianto","#f73b6a7A"," ","-1","0","-10","[]","0","2","","","18111","24","0","3","lose","go","0"
"pit-trial","146","1211908","0.0-29.0","battery-v0.2","","""event"",""trial"",""time""
""fullscreenenter"",""1"",""6141""
","
","
","""event"",""trial"",""time""
""fullscreenenter"",""1"",""6141""
","
","","","-1","","","10","18111","237","m","elianto","#f73b6a7A"," ","-1","0","-10","[]","0","2","","","18111","25","0","3","lose","go","0"
"pit-trial","147","1216326","0.0-30.0","battery-v0.2","","""event"",""trial"",""time""
""fullscreenenter"",""1"",""6141""
","
","
","""event"",""trial"",""time""
""fullscreenenter"",""1"",""6141""
","
","","","1562","","","10","18111","237","y","elianto","#f73b6a7A"," "," ","1","0","[2413.300000000745]","1","2","","","18111","26","2","3","lose","go","0"
"pit-trial","148","1221182","0.0-31.0","battery-v0.2","","""event"",""trial"",""time""
""fullscreenenter"",""1"",""6141""
","
","
","""event"",""trial"",""time""
""fullscreenenter"",""1"",""6141""
","
","","","-1","","","10","18111","237","h","elianto","#f73b6a7A","-1","-1","1","0","[]","0","2","","","18111","27","3","4","lose","no-go","0"
"pit-trial","149","1225225","0.0-32.0","battery-v0.2","","""event"",""trial"",""time""
""fullscreenenter"",""1"",""6141""
","
","
","""event"",""trial"",""time""
""fullscreenenter"",""1"",""6141""
","
","","","1185.9000000022352","","","10","18111","237","r","elianto","#3366ff99","-1"," ","0","0","[2037.5]","1","2","","","18111","28","1","2","win","no-go","0"
"pit-trial","150","1230081","0.0-33.0","battery-v0.2","","""event"",""trial"",""time""
""fullscreenenter"",""1"",""6141""
","
","
","""event"",""trial"",""time""
""fullscreenenter"",""1"",""6141""
","
","","","-1","","","10","18111","237","r","elianto","#3366ff99","-1","-1","1","+10","[]","0","2","","","18111","29","1","2","win","no-go","0"
"pit-trial","151","1234936","0.0-34.0","battery-v0.2","","""event"",""trial"",""time""
""fullscreenenter"",""1"",""6141""
","
","
","""event"",""trial"",""time""
""fullscreenenter"",""1"",""6141""
","
","","","-1","","","10","18111","237","m","elianto","#f73b6a7A"," ","-1","0","-10","[]","0","2","","","18111","30","0","3","lose","go","0"
"pit-trial","152","1239791","0.0-35.0","battery-v0.2","","""event"",""trial"",""time""
""fullscreenenter"",""1"",""6141""
","
","
","""event"",""trial"",""time""
""fullscreenenter"",""1"",""6141""
","
","","","-1","","","10","18111","237","h","elianto","#f73b6a7A","-1","-1","1","0","[]","0","2","","","18111","31","3","4","lose","no-go","0"
"pit-trial","153","1243927","0.0-36.0","battery-v0.2","","""event"",""trial"",""time""
""fullscreenenter"",""1"",""6141""
","
","
","""event"",""trial"",""time""
""fullscreenenter"",""1"",""6141""
","
","","","1280.199999999255","","","10","18111","237","y","elianto","#f73b6a7A"," "," ","1","0","[2130.5]","1","2","","","18111","32","2","3","lose","go","0"
"pit-trial","154","1248326","0.0-37.0","battery-v0.2","","""event"",""trial"",""time""
""fullscreenenter"",""1"",""6141""
","
","
","""event"",""trial"",""time""
""fullscreenenter"",""1"",""6141""
","
","","","1542.300000000745","","","10","18111","237","r","elianto","#3366ff99","-1"," ","0","0","[2393.599999997765]","1","2","","","18111","33","1","2","win","no-go","0"
"pit-trial","155","1252835","0.0-38.0","battery-v0.2","","""event"",""trial"",""time""
""fullscreenenter"",""1"",""6141""
","
","
","""event"",""trial"",""time""
""fullscreenenter"",""1"",""6141""
","
","","","1652","","","10","18111","237","h","elianto","#f73b6a7A","-1"," ","0","-10","[2502.800000000745]","1","2","","","18111","34","3","4","lose","no-go","0"
"pit-trial","156","1256482","0.0-39.0","battery-v0.2","","""event"",""trial"",""time""
""fullscreenenter"",""1"",""6141""
","
","
","""event"",""trial"",""time""
""fullscreenenter"",""1"",""6141""
","
","","","790.1000000014901","","","10","18111","237","m","elianto","#f73b6a7A"," "," ","1","0","[1642.0999999977648]","1","2","","","18111","35","0","3","lose","go","0"
"pit-trial","157","1260082","0.0-40.0","battery-v0.2","","""event"",""trial"",""time""
""fullscreenenter"",""1"",""6141""
","
","
","""event"",""trial"",""time""
""fullscreenenter"",""1"",""6141""
","
","","","744.7999999970198","","","10","18111","237","y","elianto","#f73b6a7A"," "," ","1","-10","[1595.5]","1","2","","","18111","36","2","3","lose","go","1"
"pit-trial","158","1263910","0.0-41.0","battery-v0.2","","""event"",""trial"",""time""
""fullscreenenter"",""1"",""6141""
","
","
","""event"",""trial"",""time""
""fullscreenenter"",""1"",""6141""
","
","","","971.4000000022352","","","10","18111","237","h","elianto","#f73b6a7A","-1"," ","0","-10","[1823.199999999255]","1","2","","","18111","37","3","4","lose","no-go","0"
"pit-trial","159","1268768","0.0-42.0","battery-v0.2","","""event"",""trial"",""time""
""fullscreenenter"",""1"",""6141""
","
","
","""event"",""trial"",""time""
""fullscreenenter"",""1"",""6141""
","
","","","-1","","","10","18111","237","r","elianto","#3366ff99","-1","-1","1","+10","[]","0","2","","","18111","38","1","2","win","no-go","0"
"pit-trial","160","1272850","0.0-43.0","battery-v0.2","","""event"",""trial"",""time""
""fullscreenenter"",""1"",""6141""
","
","
","""event"",""trial"",""time""
""fullscreenenter"",""1"",""6141""
","
","","","1225.800000000745","","","10","18111","237","y","elianto","#f73b6a7A"," "," ","1","-10","[2077.099999997765]","1","2","","","18111","39","2","3","lose","go","1"
"pit-trial","161","1277346","0.0-44.0","battery-v0.2","","""event"",""trial"",""time""
""fullscreenenter"",""1"",""6141""
","
","
","""event"",""trial"",""time""
""fullscreenenter"",""1"",""6141""
","
","","","1639.3999999985099","","","10","18111","237","m","elianto","#f73b6a7A"," "," ","1","0","[2490.89999999851]","1","2","","","18111","40","0","3","lose","go","0"
"pit-trial","162","1281899","0.0-45.0","battery-v0.2","","""event"",""trial"",""time""
""fullscreenenter"",""1"",""6141""
","
","
","""event"",""trial"",""time""
""fullscreenenter"",""1"",""6141""
","
","","","1696.800000000745","","","10","18111","237","m","elianto","#f73b6a7A"," "," ","1","-10","[2547.5]","1","2","","","18111","41","0","3","lose","go","1"
"pit-trial","163","1286755","0.0-46.0","battery-v0.2","","""event"",""trial"",""time""
""fullscreenenter"",""1"",""6141""
","
","
","""event"",""trial"",""time""
""fullscreenenter"",""1"",""6141""
","
","","","-1","","","10","18111","237","r","elianto","#3366ff99","-1","-1","1","0","[]","0","2","","","18111","42","1","2","win","no-go","1"
"pit-trial","164","1291611","0.0-47.0","battery-v0.2","","""event"",""trial"",""time""
""fullscreenenter"",""1"",""6141""
","
","
","""event"",""trial"",""time""
""fullscreenenter"",""1"",""6141""
","
","","","-1","","","10","18111","237","h","elianto","#f73b6a7A","-1","-1","1","0","[]","0","2","","","18111","43","3","4","lose","no-go","0"
"pit-trial","165","1295713","0.0-48.0","battery-v0.2","","""event"",""trial"",""time""
""fullscreenenter"",""1"",""6141""
","
","
","""event"",""trial"",""time""
""fullscreenenter"",""1"",""6141""
","
","","","1247","","","10","18111","237","y","elianto","#f73b6a7A"," "," ","1","-10","[2097.699999999255]","1","2","","","18111","44","2","3","lose","go","1"
"pit-trial","166","1299657","0.0-49.0","battery-v0.2","","""event"",""trial"",""time""
""fullscreenenter"",""1"",""6141""
","
","
","""event"",""trial"",""time""
""fullscreenenter"",""1"",""6141""
","
","","","1087.5","","","10","18111","237","y","elianto","#f73b6a7A"," "," ","1","0","[1938.9000000022352]","1","2","","","18111","45","2","3","lose","go","0"
"pit-trial","167","1304513","0.0-50.0","battery-v0.2","","""event"",""trial"",""time""
""fullscreenenter"",""1"",""6141""
","
","
","""event"",""trial"",""time""
""fullscreenenter"",""1"",""6141""
","
","","","-1","","","10","18111","237","m","elianto","#f73b6a7A"," ","-1","0","-10","[]","0","2","","","18111","46","0","3","lose","go","0"
"pit-trial","168","1309368","0.0-51.0","battery-v0.2","","""event"",""trial"",""time""
""fullscreenenter"",""1"",""6141""
","
","
","""event"",""trial"",""time""
""fullscreenenter"",""1"",""6141""
","
","","","-1","","","10","18111","237","r","elianto","#3366ff99","-1","-1","1","+10","[]","0","2","","","18111","47","1","2","win","no-go","0"
"pit-trial","169","1313521","0.0-52.0","battery-v0.2","","""event"",""trial"",""time""
""fullscreenenter"",""1"",""6141""
","
","
","""event"",""trial"",""time""
""fullscreenenter"",""1"",""6141""
","
","","","1296.699999999255","","","10","18111","237","h","elianto","#f73b6a7A","-1"," ","0","0","[2148.099999997765]","1","2","","","18111","48","3","4","lose","no-go","1"
"pit-trial","170","1318076","0.0-53.0","battery-v0.2","","""event"",""trial"",""time""
""fullscreenenter"",""1"",""6141""
","
","
","""event"",""trial"",""time""
""fullscreenenter"",""1"",""6141""
","
","","","1698.6000000014901","","","10","18111","237","m","elianto","#f73b6a7A"," "," ","1","0","[2550.300000000745]","1","2","","","18111","49","0","3","lose","go","0"
"pit-trial","171","1322101","0.0-54.0","battery-v0.2","","""event"",""trial"",""time""
""fullscreenenter"",""1"",""6141""
","
","
","""event"",""trial"",""time""
""fullscreenenter"",""1"",""6141""
","
","","","1167.5","","","10","18111","237","y","elianto","#f73b6a7A"," "," ","1","0","[2018.7000000029802]","1","2","","","18111","50","2","3","lose","go","0"
"pit-trial","172","1325951","0.0-55.0","battery-v0.2","","""event"",""trial"",""time""
""fullscreenenter"",""1"",""6141""
","
","
","""event"",""trial"",""time""
""fullscreenenter"",""1"",""6141""
","
","","","994.1999999992549","","","10","18111","237","h","elianto","#f73b6a7A","-1"," ","0","-10","[1846]","1","2","","","18111","51","3","4","lose","no-go","0"
"pit-trial","173","1330808","0.0-56.0","battery-v0.2","","""event"",""trial"",""time""
""fullscreenenter"",""1"",""6141""
","
","
","""event"",""trial"",""time""
""fullscreenenter"",""1"",""6141""
","
","","","-1","","","10","18111","237","r","elianto","#3366ff99","-1","-1","1","+10","[]","0","2","","","18111","52","1","2","win","no-go","0"
"pit-trial","174","1334512","0.0-57.0","battery-v0.2","","""event"",""trial"",""time""
""fullscreenenter"",""1"",""6141""
","
","
","""event"",""trial"",""time""
""fullscreenenter"",""1"",""6141""
","
","","","850.5","","","10","18111","237","y","elianto","#f73b6a7A"," "," ","1","0","[1700.3999999985099]","1","2","","","18111","53","2","3","lose","go","0"
"pit-trial","175","1338097","0.0-58.0","battery-v0.2","","""event"",""trial"",""time""
""fullscreenenter"",""1"",""6141""
","
","
","""event"",""trial"",""time""
""fullscreenenter"",""1"",""6141""
","
","","","728.6999999992549","","","10","18111","237","h","elianto","#f73b6a7A","-1"," ","0","-10","[1579.199999999255]","1","2","","","18111","54","3","4","lose","no-go","0"
"pit-trial","176","1342954","0.0-59.0","battery-v0.2","","""event"",""trial"",""time""
""fullscreenenter"",""1"",""6141""
","
","
","""event"",""trial"",""time""
""fullscreenenter"",""1"",""6141""
","
","","","-1","","","10","18111","237","r","elianto","#3366ff99","-1","-1","1","+10","[]","0","2","","","18111","55","1","2","win","no-go","0"
"pit-trial","177","1347810","0.0-60.0","battery-v0.2","","""event"",""trial"",""time""
""fullscreenenter"",""1"",""6141""
","
","
","""event"",""trial"",""time""
""fullscreenenter"",""1"",""6141""
","
","","","-1","","","10","18111","237","m","elianto","#f73b6a7A"," ","-1","0","-10","[]","0","2","","","18111","56","0","3","lose","go","0"
"pit-trial","178","1351487","0.0-61.0","battery-v0.2","","""event"",""trial"",""time""
""fullscreenenter"",""1"",""6141""
","
","
","""event"",""trial"",""time""
""fullscreenenter"",""1"",""6141""
","
","","","821.6999999992549","","","10","18111","237","h","elianto","#f73b6a7A","-1"," ","0","-10","[1672.300000000745]","1","2","","","18111","57","3","4","lose","no-go","0"
"pit-trial","179","1355034","0.0-62.0","battery-v0.2","","""event"",""trial"",""time""
""fullscreenenter"",""1"",""6141""
","
","
","""event"",""trial"",""time""
""fullscreenenter"",""1"",""6141""
","
","","","691.8000000007451","","","10","18111","237","y","elianto","#f73b6a7A"," "," ","1","-10","[1543.699999999255]","1","2","","","18111","58","2","3","lose","go","1"
"pit-trial","180","1359889","0.0-63.0","battery-v0.2","","""event"",""trial"",""time""
""fullscreenenter"",""1"",""6141""
","
","
","""event"",""trial"",""time""
""fullscreenenter"",""1"",""6141""
","
","","","-1","","","10","18111","237","z","elianto","#3366ff99"," ","-1","0","+10","[]","0","2","","","18111","59","4","1","win","go","1"
"pit-trial","181","1363897","0.0-64.0","battery-v0.2","","""event"",""trial"",""time""
""fullscreenenter"",""1"",""6141""
","
","
","""event"",""trial"",""time""
""fullscreenenter"",""1"",""6141""
","
","","","1153.5","","","10","18111","237","m","elianto","#f73b6a7A"," "," ","1","-10","[2003.6000000014901]","1","2","","","18111","60","0","3","lose","go","1"
"pit-trial","182","1368753","0.0-65.0","battery-v0.2","","""event"",""trial"",""time""
""fullscreenenter"",""1"",""6141""
","
","
","""event"",""trial"",""time""
""fullscreenenter"",""1"",""6141""
","
","","","-1","","","10","18111","237","y","elianto","#f73b6a7A"," ","-1","0","-10","[]","0","2","","","18111","61","2","3","lose","go","0"
"pit-trial","183","1373609","0.0-66.0","battery-v0.2","","""event"",""trial"",""time""
""fullscreenenter"",""1"",""6141""
","
","
","""event"",""trial"",""time""
""fullscreenenter"",""1"",""6141""
","
","","","-1","","","10","18111","237","r","elianto","#3366ff99","-1","-1","1","0","[]","0","2","","","18111","62","1","2","win","no-go","1"
"pit-trial","184","1378394","0.0-67.0","battery-v0.2","","""event"",""trial"",""time""
""fullscreenenter"",""1"",""6141""
","
","
","""event"",""trial"",""time""
""fullscreenenter"",""1"",""6141""
","
","","","1930.1000000014901","","","10","18111","237","z","elianto","#3366ff99"," "," ","1","+10","[2780.2999999970198]","1","2","","","18111","63","4","1","win","go","0"
"pit-trial","185","1382933","0.0-68.0","battery-v0.2","","""event"",""trial"",""time""
""fullscreenenter"",""1"",""6141""
","
","
","""event"",""trial"",""time""
""fullscreenenter"",""1"",""6141""
","
","","","1683.5","","","10","18111","237","h","elianto","#f73b6a7A","-1"," ","0","-10","[2534.7000000029802]","1","2","","","18111","64","3","4","lose","no-go","0"
"pit-trial","186","1387789","0.0-69.0","battery-v0.2","","""event"",""trial"",""time""
""fullscreenenter"",""1"",""6141""
","
","
","""event"",""trial"",""time""
""fullscreenenter"",""1"",""6141""
","
","","","-1","","","10","18111","237","h","elianto","#f73b6a7A","-1","-1","1","0","[]","0","2","","","18111","65","3","4","lose","no-go","0"
"pit-trial","187","1392645","0.0-70.0","battery-v0.2","","""event"",""trial"",""time""
""fullscreenenter"",""1"",""6141""
","
","
","""event"",""trial"",""time""
""fullscreenenter"",""1"",""6141""
","
","","","-1","","","10","18111","237","z","elianto","#3366ff99"," ","-1","0","0","[3048.39999999851]","1","2","","","18111","66","4","1","win","go","0"
"pit-trial","188","1397502","0.0-71.0","battery-v0.2","","""event"",""trial"",""time""
""fullscreenenter"",""1"",""6141""
","
","
","""event"",""trial"",""time""
""fullscreenenter"",""1"",""6141""
","
","","","-1","","","10","18111","237","r","elianto","#3366ff99","-1","-1","1","+10","[]","0","2","","","18111","67","1","2","win","no-go","0"
"pit-trial","189","1402305","0.0-72.0","battery-v0.2","","""event"",""trial"",""time""
""fullscreenenter"",""1"",""6141""
","
","
","""event"",""trial"",""time""
""fullscreenenter"",""1"",""6141""
","
","","","1946.699999999255","","","10","18111","237","c","elianto","#3366ff99","-1"," ","0","0","[2797.400000002235]","1","2","","","18111","68","5","2","win","no-go","0"
"pit-trial","190","1407161","0.0-73.0","battery-v0.2","","""event"",""trial"",""time""
""fullscreenenter"",""1"",""6141""
","
","
","""event"",""trial"",""time""
""fullscreenenter"",""1"",""6141""
","
","","","-1","","","10","18111","237","y","elianto","#f73b6a7A"," ","-1","0","-10","[]","0","2","","","18111","69","2","3","lose","go","0"
"pit-trial","191","1412018","0.0-74.0","battery-v0.2","","""event"",""trial"",""time""
""fullscreenenter"",""1"",""6141""
","
","
","""event"",""trial"",""time""
""fullscreenenter"",""1"",""6141""
","
","","","-1","","","10","18111","237","r","elianto","#3366ff99","-1","-1","1","0","[]","0","2","","","18111","70","1","2","win","no-go","1"
"pit-trial","192","1415968","0.0-75.0","battery-v0.2","","""event"",""trial"",""time""
""fullscreenenter"",""1"",""6141""
","
","
","""event"",""trial"",""time""
""fullscreenenter"",""1"",""6141""
","
","","","1093","","","10","18111","237","z","elianto","#3366ff99"," "," ","1","+10","[1944.699999999255]","1","2","","","18111","71","4","1","win","go","0"
"pit-trial","193","1419894","0.0-76.0","battery-v0.2","","""event"",""trial"",""time""
""fullscreenenter"",""1"",""6141""
","
","
","""event"",""trial"",""time""
""fullscreenenter"",""1"",""6141""
","
","","","1069.800000000745","","","10","18111","237","c","elianto","#3366ff99","-1"," ","0","+10","[1921.300000000745]","1","2","","","18111","72","5","2","win","no-go","1"
"pit-trial","194","1424750","0.0-77.0","battery-v0.2","","""event"",""trial"",""time""
""fullscreenenter"",""1"",""6141""
","
","
","""event"",""trial"",""time""
""fullscreenenter"",""1"",""6141""
","
","","","-1","","","10","18111","237","z","elianto","#3366ff99"," ","-1","0","0","[]","0","2","","","18111","73","4","1","win","go","0"
"pit-trial","195","1428528","0.0-78.0","battery-v0.2","","""event"",""trial"",""time""
""fullscreenenter"",""1"",""6141""
","
","
","""event"",""trial"",""time""
""fullscreenenter"",""1"",""6141""
","
","","","921.8000000007451","","","10","18111","237","c","elianto","#3366ff99","-1"," ","0","0","[1773.5]","1","2","","","18111","74","5","2","win","no-go","0"
"pit-trial","196","1433384","0.0-79.0","battery-v0.2","","""event"",""trial"",""time""
""fullscreenenter"",""1"",""6141""
","
","
","""event"",""trial"",""time""
""fullscreenenter"",""1"",""6141""
","
","","","-1","","","10","18111","237","h","elianto","#f73b6a7A","-1","-1","1","0","[]","0","2","","","18111","75","3","4","lose","no-go","0"
"pit-trial","197","1437360","0.0-80.0","battery-v0.2","","""event"",""trial"",""time""
""fullscreenenter"",""1"",""6141""
","
","
","""event"",""trial"",""time""
""fullscreenenter"",""1"",""6141""
","
","","","1118.8999999985099","","","10","18111","237","r","elianto","#3366ff99","-1"," ","0","0","[1970.199999999255]","1","2","","","18111","76","1","2","win","no-go","0"
"pit-trial","198","1441003","0.0-81.0","battery-v0.2","","""event"",""trial"",""time""
""fullscreenenter"",""1"",""6141""
","
","
","""event"",""trial"",""time""
""fullscreenenter"",""1"",""6141""
","
","","","787.6999999992549","","","10","18111","237","z","elianto","#3366ff99"," "," ","1","+10","[1638.1000000014901,2593.60000000149]","2","2","","","18111","77","4","1","win","go","0"
"pit-trial","199","1445430","0.0-82.0","battery-v0.2","","""event"",""trial"",""time""
""fullscreenenter"",""1"",""6141""
","
","
","""event"",""trial"",""time""
""fullscreenenter"",""1"",""6141""
","
","","","1571.3999999985099","","","10","18111","237","h","elianto","#f73b6a7A","-1"," ","0","-10","[2423.199999999255]","1","2","","","18111","78","3","4","lose","no-go","0"
"pit-trial","200","1450287","0.0-83.0","battery-v0.2","","""event"",""trial"",""time""
""fullscreenenter"",""1"",""6141""
","
","
","""event"",""trial"",""time""
""fullscreenenter"",""1"",""6141""
","
","","","-1","","","10","18111","237","z","elianto","#3366ff99"," ","-1","0","+10","[]","0","2","","","18111","79","4","1","win","go","1"
"pit-trial","201","1453993","0.0-84.0","battery-v0.2","","""event"",""trial"",""time""
""fullscreenenter"",""1"",""6141""
","
","
","""event"",""trial"",""time""
""fullscreenenter"",""1"",""6141""
","
","","","849.8999999985099","","","10","18111","237","c","elianto","#3366ff99","-1"," ","0","0","[1700.800000000745]","1","2","","","18111","80","5","2","win","no-go","0"
"pit-trial","202","1457938","0.0-85.0","battery-v0.2","","""event"",""trial"",""time""
""fullscreenenter"",""1"",""6141""
","
","
","""event"",""trial"",""time""
""fullscreenenter"",""1"",""6141""
","
","","","1089","","","10","18111","237","z","elianto","#3366ff99"," "," ","1","0","[1940]","1","2","","","18111","81","4","1","win","go","1"
"pit-trial","203","1462795","0.0-86.0","battery-v0.2","","""event"",""trial"",""time""
""fullscreenenter"",""1"",""6141""
","
","
","""event"",""trial"",""time""
""fullscreenenter"",""1"",""6141""
","
","","","-1","","","10","18111","237","h","elianto","#f73b6a7A","-1","-1","1","0","[]","0","2","","","18111","82","3","4","lose","no-go","0"
"pit-trial","204","1467630","0.0-87.0","battery-v0.2","","""event"",""trial"",""time""
""fullscreenenter"",""1"",""6141""
","
","
","""event"",""trial"",""time""
""fullscreenenter"",""1"",""6141""
","
","","","1980.4000000022352","","","10","18111","237","c","elianto","#3366ff99","-1"," ","0","0","[2830.800000000745]","1","2","","","18111","83","5","2","win","no-go","0"
"pit-trial","205","1472307","0.0-88.0","battery-v0.2","","""event"",""trial"",""time""
""fullscreenenter"",""1"",""6141""
","
","
","""event"",""trial"",""time""
""fullscreenenter"",""1"",""6141""
","
","","","1819.800000000745","","","10","18111","237","t","elianto","#f73b6a7A","-1"," ","0","-10","[2670.89999999851]","1","2","","","18111","84","7","4","lose","no-go","0"
"pit-trial","206","1477163","0.0-89.0","battery-v0.2","","""event"",""trial"",""time""
""fullscreenenter"",""1"",""6141""
","
","
","""event"",""trial"",""time""
""fullscreenenter"",""1"",""6141""
","
","","","-1","","","10","18111","237","c","elianto","#3366ff99","-1","-1","1","+10","[]","0","2","","","18111","85","5","2","win","no-go","0"
"pit-trial","207","1481764","0.0-90.0","battery-v0.2","","""event"",""trial"",""time""
""fullscreenenter"",""1"",""6141""
","
","
","""event"",""trial"",""time""
""fullscreenenter"",""1"",""6141""
","
","","","1744.6000000014901","","","10","18111","237","b","elianto","#f73b6a7A"," "," ","1","0","[2596]","1","2","","","18111","86","6","3","lose","go","0"
"pit-trial","208","1486620","0.0-91.0","battery-v0.2","","""event"",""trial"",""time""
""fullscreenenter"",""1"",""6141""
","
","
","""event"",""trial"",""time""
""fullscreenenter"",""1"",""6141""
","
","","","-1","","","10","18111","237","z","elianto","#3366ff99"," ","-1","0","0","[]","0","2","","","18111","87","4","1","win","go","0"
"pit-trial","209","1491477","0.0-92.0","battery-v0.2","","""event"",""trial"",""time""
""fullscreenenter"",""1"",""6141""
","
","
","""event"",""trial"",""time""
""fullscreenenter"",""1"",""6141""
","
","","","-1","","","10","18111","237","t","elianto","#f73b6a7A","-1","-1","1","0","[]","0","2","","","18111","88","7","4","lose","no-go","0"
"pit-trial","210","1495536","0.0-93.0","battery-v0.2","","""event"",""trial"",""time""
""fullscreenenter"",""1"",""6141""
","
","
","""event"",""trial"",""time""
""fullscreenenter"",""1"",""6141""
","
","","","1203.0999999977648","","","10","18111","237","b","elianto","#f73b6a7A"," "," ","1","0","[2054.599999997765]","1","2","","","18111","89","6","3","lose","go","0"
"pit-trial","211","1500394","0.0-94.0","battery-v0.2","","""event"",""trial"",""time""
""fullscreenenter"",""1"",""6141""
","
","
","""event"",""trial"",""time""
""fullscreenenter"",""1"",""6141""
","
","","","-1","","","10","18111","237","t","elianto","#f73b6a7A","-1","-1","1","0","[]","0","2","","","18111","90","7","4","lose","no-go","0"
"pit-trial","212","1505250","0.0-95.0","battery-v0.2","","""event"",""trial"",""time""
""fullscreenenter"",""1"",""6141""
","
","
","""event"",""trial"",""time""
""fullscreenenter"",""1"",""6141""
","
","","","-1","","","10","18111","237","z","elianto","#3366ff99"," ","-1","0","0","[]","0","2","","","18111","91","4","1","win","go","0"
"pit-trial","213","1510106","0.0-96.0","battery-v0.2","","""event"",""trial"",""time""
""fullscreenenter"",""1"",""6141""
","
","
","""event"",""trial"",""time""
""fullscreenenter"",""1"",""6141""
","
","","","-1","","","10","18111","237","c","elianto","#3366ff99","-1","-1","1","+10","[]","0","2","","","18111","92","5","2","win","no-go","0"
"pit-trial","214","1514964","0.0-97.0","battery-v0.2","","""event"",""trial"",""time""
""fullscreenenter"",""1"",""6141""
","
","
","""event"",""trial"",""time""
""fullscreenenter"",""1"",""6141""
","
","","","-1","","","10","18111","237","b","elianto","#f73b6a7A"," ","-1","0","-10","[]","0","2","","","18111","93","6","3","lose","go","0"
"pit-trial","215","1519821","0.0-98.0","battery-v0.2","","""event"",""trial"",""time""
""fullscreenenter"",""1"",""6141""
","
","
","""event"",""trial"",""time""
""fullscreenenter"",""1"",""6141""
","
","","","-1","","","10","18111","237","t","elianto","#f73b6a7A","-1","-1","1","-10","[]","0","2","","","18111","94","7","4","lose","no-go","1"
"pit-trial","216","1524316","0.0-99.0","battery-v0.2","","""event"",""trial"",""time""
""fullscreenenter"",""1"",""6141""
","
","
","""event"",""trial"",""time""
""fullscreenenter"",""1"",""6141""
","
","","","1639.3999999985099","","","10","18111","237","c","elianto","#3366ff99","-1"," ","0","+10","[2489.800000000745]","1","2","","","18111","95","5","2","win","no-go","1"
"pit-trial","217","1528819","0.0-100.0","battery-v0.2","","""event"",""trial"",""time""
""fullscreenenter"",""1"",""6141""
","
","
","""event"",""trial"",""time""
""fullscreenenter"",""1"",""6141""
","
","","","1646.6000000014901","","","10","18111","237","f","elianto","#3366ff99"," "," ","1","+10","[2498.2999999970198]","1","2","","","18111","96","8","1","win","go","0"
"pit-trial","218","1532456","0.0-101.0","battery-v0.2","","""event"",""trial"",""time""
""fullscreenenter"",""1"",""6141""
","
","
","""event"",""trial"",""time""
""fullscreenenter"",""1"",""6141""
","
","","","781","","","10","18111","237","f","elianto","#3366ff99"," "," ","1","0","[1632.2999999970198]","1","2","","","18111","97","8","1","win","go","1"
"pit-trial","219","1536123","0.0-102.0","battery-v0.2","","""event"",""trial"",""time""
""fullscreenenter"",""1"",""6141""
","
","
","""event"",""trial"",""time""
""fullscreenenter"",""1"",""6141""
","
","","","811.3000000007451","","","10","18111","237","c","elianto","#3366ff99","-1"," ","0","0","[1662.800000000745]","1","2","","","18111","98","5","2","win","no-go","0"
"pit-trial","220","1540980","0.0-103.0","battery-v0.2","","""event"",""trial"",""time""
""fullscreenenter"",""1"",""6141""
","
","
","""event"",""trial"",""time""
""fullscreenenter"",""1"",""6141""
","
","","","-1","","","10","18111","237","b","elianto","#f73b6a7A"," ","-1","0","-10","[]","0","2","","","18111","99","6","3","lose","go","0"
"pit-trial","221","1545836","0.0-104.0","battery-v0.2","","""event"",""trial"",""time""
""fullscreenenter"",""1"",""6141""
","
","
","""event"",""trial"",""time""
""fullscreenenter"",""1"",""6141""
","
","","","-1","","","10","18111","237","t","elianto","#f73b6a7A","-1","-1","1","0","[]","0","2","","","18111","100","7","4","lose","no-go","0"
"pit-trial","222","1550692","0.0-105.0","battery-v0.2","","""event"",""trial"",""time""
""fullscreenenter"",""1"",""6141""
","
","
","""event"",""trial"",""time""
""fullscreenenter"",""1"",""6141""
","
","","","-1","","","10","18111","237","f","elianto","#3366ff99"," ","-1","0","0","[]","0","2","","","18111","101","8","1","win","go","0"
"pit-trial","223","1555549","0.0-106.0","battery-v0.2","","""event"",""trial"",""time""
""fullscreenenter"",""1"",""6141""
","
","
","""event"",""trial"",""time""
""fullscreenenter"",""1"",""6141""
","
","","","-1","","","10","18111","237","c","elianto","#3366ff99","-1","-1","1","+10","[]","0","2","","","18111","102","5","2","win","no-go","0"
"pit-trial","224","1559536","0.0-107.0","battery-v0.2","","""event"",""trial"",""time""
""fullscreenenter"",""1"",""6141""
","
","
","""event"",""trial"",""time""
""fullscreenenter"",""1"",""6141""
","
","","","1130.800000000745","","","10","18111","237","t","elianto","#f73b6a7A","-1"," ","0","0","[1982.1000000014901]","1","2","","","18111","103","7","4","lose","no-go","1"
"pit-trial","225","1564020","0.0-108.0","battery-v0.2","","""event"",""trial"",""time""
""fullscreenenter"",""1"",""6141""
","
","
","""event"",""trial"",""time""
""fullscreenenter"",""1"",""6141""
","
","","","1627.699999999255","","","10","18111","237","n","elianto","#3366ff99"," "," ","1","0","[2478.800000000745]","1","2","","","18111","104","9","1","win","go","1"
"pit-trial","226","1567923","0.0-109.0","battery-v0.2","","""event"",""trial"",""time""
""fullscreenenter"",""1"",""6141""
","
","
","""event"",""trial"",""time""
""fullscreenenter"",""1"",""6141""
","
","","","1047.6000000014901","","","10","18111","237","z","elianto","#3366ff99"," "," ","1","+10","[1898.2000000029802]","1","2","","","18111","105","4","1","win","go","0"
"pit-trial","227","1572779","0.0-110.0","battery-v0.2","","""event"",""trial"",""time""
""fullscreenenter"",""1"",""6141""
","
","
","""event"",""trial"",""time""
""fullscreenenter"",""1"",""6141""
","
","","","-1","","","10","18111","237","b","elianto","#f73b6a7A"," ","-1","0","-10","[]","0","2","","","18111","106","6","3","lose","go","0"
"pit-trial","228","1576619","0.0-111.0","battery-v0.2","","""event"",""trial"",""time""
""fullscreenenter"",""1"",""6141""
","
","
","""event"",""trial"",""time""
""fullscreenenter"",""1"",""6141""
","
","","","982.1999999992549","","","10","18111","237","n","elianto","#3366ff99"," "," ","1","+10","[1833.5999999977648]","1","2","","","18111","107","9","1","win","go","0"
"pit-trial","229","1581474","0.0-112.0","battery-v0.2","","""event"",""trial"",""time""
""fullscreenenter"",""1"",""6141""
","
","
","""event"",""trial"",""time""
""fullscreenenter"",""1"",""6141""
","
","","","-1","","","10","18111","237","f","elianto","#3366ff99"," ","-1","0","0","[]","0","2","","","18111","108","8","1","win","go","0"
"pit-trial","230","1585581","0.0-113.0","battery-v0.2","","""event"",""trial"",""time""
""fullscreenenter"",""1"",""6141""
","
","
","""event"",""trial"",""time""
""fullscreenenter"",""1"",""6141""
","
","","","1252","","","10","18111","237","c","elianto","#3366ff99","-1"," ","0","+10","[2102.39999999851,2520]","2","2","","","18111","109","5","2","win","no-go","1"
"pit-trial","231","1590438","0.0-114.0","battery-v0.2","","""event"",""trial"",""time""
""fullscreenenter"",""1"",""6141""
","
","
","""event"",""trial"",""time""
""fullscreenenter"",""1"",""6141""
","
","","","-1","","","10","18111","237","b","elianto","#f73b6a7A"," ","-1","0","-10","[]","0","2","","","18111","110","6","3","lose","go","0"
"pit-trial","232","1594728","0.0-115.0","battery-v0.2","","""event"",""trial"",""time""
""fullscreenenter"",""1"",""6141""
","
","
","""event"",""trial"",""time""
""fullscreenenter"",""1"",""6141""
","
","","","1435.4000000022352","","","10","18111","237","n","elianto","#3366ff99"," "," ","1","+10","[2287]","1","2","","","18111","111","9","1","win","go","0"
"pit-trial","233","1599583","0.0-116.0","battery-v0.2","","""event"",""trial"",""time""
""fullscreenenter"",""1"",""6141""
","
","
","""event"",""trial"",""time""
""fullscreenenter"",""1"",""6141""
","
","","","-1","","","10","18111","237","f","elianto","#3366ff99"," ","-1","0","0","[]","0","2","","","18111","112","8","1","win","go","0"
"pit-trial","234","1604440","0.0-117.0","battery-v0.2","","""event"",""trial"",""time""
""fullscreenenter"",""1"",""6141""
","
","
","""event"",""trial"",""time""
""fullscreenenter"",""1"",""6141""
","
","","","-1","","","10","18111","237","b","elianto","#f73b6a7A"," ","-1","0","-10","[]","0","2","","","18111","113","6","3","lose","go","0"
"pit-trial","235","1607875","0.0-118.0","battery-v0.2","","""event"",""trial"",""time""
""fullscreenenter"",""1"",""6141""
","
","
","""event"",""trial"",""time""
""fullscreenenter"",""1"",""6141""
","
","","","579","","","10","18111","237","f","elianto","#3366ff99"," "," ","1","0","[1429.3999999985099]","1","2","","","18111","114","8","1","win","go","1"
"pit-trial","236","1612730","0.0-119.0","battery-v0.2","","""event"",""trial"",""time""
""fullscreenenter"",""1"",""6141""
","
","
","""event"",""trial"",""time""
""fullscreenenter"",""1"",""6141""
","
","","","-1","","","10","18111","237","n","elianto","#3366ff99"," ","-1","0","0","[]","0","2","","","18111","115","9","1","win","go","0"
"pit-trial","237","1616988","0.0-120.0","battery-v0.2","","""event"",""trial"",""time""
""fullscreenenter"",""1"",""6141""
","
","
","""event"",""trial"",""time""
""fullscreenenter"",""1"",""6141""
","
","","","1403.0999999977648","","","10","18111","237","c","elianto","#3366ff99","-1"," ","0","+10","[2253.699999999255]","1","2","","","18111","116","5","2","win","no-go","1"
"pit-trial","238","1620868","0.0-121.0","battery-v0.2","","""event"",""trial"",""time""
""fullscreenenter"",""1"",""6141""
","
","
","""event"",""trial"",""time""
""fullscreenenter"",""1"",""6141""
","
","","","1024.199999999255","","","10","18111","237","f","elianto","#3366ff99"," "," ","1","+10","[1875.300000000745]","1","2","","","18111","117","8","1","win","go","0"
"pit-trial","239","1625724","0.0-122.0","battery-v0.2","","""event"",""trial"",""time""
""fullscreenenter"",""1"",""6141""
","
","
","""event"",""trial"",""time""
""fullscreenenter"",""1"",""6141""
","
","","","-1","","","10","18111","237","b","elianto","#f73b6a7A"," ","-1","0","-10","[]","0","2","","","18111","118","6","3","lose","go","0"
"pit-trial","240","1630581","0.0-123.0","battery-v0.2","","""event"",""trial"",""time""
""fullscreenenter"",""1"",""6141""
","
","
","""event"",""trial"",""time""
""fullscreenenter"",""1"",""6141""
","
","","","-1","","","10","18111","237","n","elianto","#3366ff99"," ","-1","0","+10","[]","0","2","","","18111","119","9","1","win","go","1"
"pit-trial","241","1635383","0.0-124.0","battery-v0.2","","""event"",""trial"",""time""
""fullscreenenter"",""1"",""6141""
","
","
","""event"",""trial"",""time""
""fullscreenenter"",""1"",""6141""
","
","","","1945.300000000745","","","10","18111","237","c","elianto","#3366ff99","-1"," ","0","0","[2796.699999999255]","1","2","","","18111","120","5","2","win","no-go","0"
"pit-trial","242","1640239","0.0-125.0","battery-v0.2","","""event"",""trial"",""time""
""fullscreenenter"",""1"",""6141""
","
","
","""event"",""trial"",""time""
""fullscreenenter"",""1"",""6141""
","
","","","-1","","","10","18111","237","n","elianto","#3366ff99"," ","-1","0","+10","[]","0","2","","","18111","121","9","1","win","go","1"
"pit-trial","243","1645094","0.0-126.0","battery-v0.2","","""event"",""trial"",""time""
""fullscreenenter"",""1"",""6141""
","
","
","""event"",""trial"",""time""
""fullscreenenter"",""1"",""6141""
","
","","","-1","","","10","18111","237","t","elianto","#f73b6a7A","-1","-1","1","-10","[]","0","2","","","18111","122","7","4","lose","no-go","1"
"pit-trial","244","1648728","0.0-127.0","battery-v0.2","","""event"",""trial"",""time""
""fullscreenenter"",""1"",""6141""
","
","
","""event"",""trial"",""time""
""fullscreenenter"",""1"",""6141""
","
","","","779.5","","","10","18111","237","f","elianto","#3366ff99"," "," ","1","+10","[1630.5]","1","2","","","18111","123","8","1","win","go","0"
"pit-trial","245","1652340","0.0-128.0","battery-v0.2","","""event"",""trial"",""time""
""fullscreenenter"",""1"",""6141""
","
","
","""event"",""trial"",""time""
""fullscreenenter"",""1"",""6141""
","
","","","755.3000000007451","","","10","18111","237","b","elianto","#f73b6a7A"," "," ","1","-10","[1606.800000000745]","1","2","","","18111","124","6","3","lose","go","1"
"pit-trial","246","1656306","0.0-129.0","battery-v0.2","","""event"",""trial"",""time""
""fullscreenenter"",""1"",""6141""
","
","
","""event"",""trial"",""time""
""fullscreenenter"",""1"",""6141""
","
","","","1110","","","10","18111","237","f","elianto","#3366ff99"," "," ","1","+10","[1960.199999999255]","1","2","","","18111","125","8","1","win","go","0"
"pit-trial","247","1659983","0.0-130.0","battery-v0.2","","""event"",""trial"",""time""
""fullscreenenter"",""1"",""6141""
","
","
","""event"",""trial"",""time""
""fullscreenenter"",""1"",""6141""
","
","","","821.6000000014901","","","10","18111","237","t","elianto","#f73b6a7A","-1"," ","0","-10","[1672.699999999255]","1","2","","","18111","126","7","4","lose","no-go","0"
"pit-trial","248","1664065","0.0-131.0","battery-v0.2","","""event"",""trial"",""time""
""fullscreenenter"",""1"",""6141""
","
","
","""event"",""trial"",""time""
""fullscreenenter"",""1"",""6141""
","
","","","1225.199999999255","","","10","18111","237","b","elianto","#f73b6a7A"," "," ","1","0","[2076.400000002235]","1","2","","","18111","127","6","3","lose","go","0"
"pit-trial","249","1668922","0.0-132.0","battery-v0.2","","""event"",""trial"",""time""
""fullscreenenter"",""1"",""6141""
","
","
","""event"",""trial"",""time""
""fullscreenenter"",""1"",""6141""
","
","","","-1","","","10","18111","237","n","elianto","#3366ff99"," ","-1","0","+10","[]","0","2","","","18111","128","9","1","win","go","1"
"pit-trial","250","1672532","0.0-133.0","battery-v0.2","","""event"",""trial"",""time""
""fullscreenenter"",""1"",""6141""
","
","
","""event"",""trial"",""time""
""fullscreenenter"",""1"",""6141""
","
","","","755.1999999992549","","","10","18111","237","f","elianto","#3366ff99"," "," ","1","+10","[1605.9000000022352]","1","2","","","18111","129","8","1","win","go","0"
"pit-trial","251","1676403","0.0-134.0","battery-v0.2","","""event"",""trial"",""time""
""fullscreenenter"",""1"",""6141""
","
","
","""event"",""trial"",""time""
""fullscreenenter"",""1"",""6141""
","
","","","1013.8999999985099","","","10","18111","237","t","elianto","#f73b6a7A","-1"," ","0","-10","[1865.300000000745]","1","2","","","18111","130","7","4","lose","no-go","0"
"pit-trial","252","1681257","0.0-135.0","battery-v0.2","","""event"",""trial"",""time""
""fullscreenenter"",""1"",""6141""
","
","
","""event"",""trial"",""time""
""fullscreenenter"",""1"",""6141""
","
","","","-1","","","10","18111","237","b","elianto","#f73b6a7A"," ","-1","0","-10","[2977.199999999255]","1","2","","","18111","131","6","3","lose","go","0"
"pit-trial","253","1686113","0.0-136.0","battery-v0.2","","""event"",""trial"",""time""
""fullscreenenter"",""1"",""6141""
","
","
","""event"",""trial"",""time""
""fullscreenenter"",""1"",""6141""
","
","","","-1","","","10","18111","237","n","elianto","#3366ff99"," ","-1","0","0","[]","0","2","","","18111","132","9","1","win","go","0"
"pit-trial","254","1689891","0.0-137.0","battery-v0.2","","""event"",""trial"",""time""
""fullscreenenter"",""1"",""6141""
","
","
","""event"",""trial"",""time""
""fullscreenenter"",""1"",""6141""
","
","","","920.8000000007451","","","10","18111","237","t","elianto","#f73b6a7A","-1"," ","0","-10","[1772.699999999255]","1","2","","","18111","133","7","4","lose","no-go","0"
"pit-trial","255","1694748","0.0-138.0","battery-v0.2","","""event"",""trial"",""time""
""fullscreenenter"",""1"",""6141""
","
","
","""event"",""trial"",""time""
""fullscreenenter"",""1"",""6141""
","
","","","-1","","","10","18111","237","n","elianto","#3366ff99"," ","-1","0","0","[]","0","2","","","18111","134","9","1","win","go","0"
"pit-trial","256","1698537","0.0-139.0","battery-v0.2","","""event"",""trial"",""time""
""fullscreenenter"",""1"",""6141""
","
","
","""event"",""trial"",""time""
""fullscreenenter"",""1"",""6141""
","
","","","932.6000000014901","","","10","18111","237","b","elianto","#f73b6a7A"," "," ","1","0","[1784.199999999255]","1","2","","","18111","135","6","3","lose","go","0"
"pit-trial","257","1702678","0.0-140.0","battery-v0.2","","""event"",""trial"",""time""
""fullscreenenter"",""1"",""6141""
","
","
","""event"",""trial"",""time""
""fullscreenenter"",""1"",""6141""
","
","","","1284.3999999985099","","","10","18111","237","f","elianto","#3366ff99"," "," ","1","+10","[2135.7000000029802]","1","2","","","18111","136","8","1","win","go","0"
"pit-trial","258","1707534","0.0-141.0","battery-v0.2","","""event"",""trial"",""time""
""fullscreenenter"",""1"",""6141""
","
","
","""event"",""trial"",""time""
""fullscreenenter"",""1"",""6141""
","
","","","-1","","","10","18111","237","b","elianto","#f73b6a7A"," ","-1","0","-10","[2999.39999999851]","1","2","","","18111","137","6","3","lose","go","0"
"pit-trial","259","1712227","0.0-142.0","battery-v0.2","","""event"",""trial"",""time""
""fullscreenenter"",""1"",""6141""
","
","
","""event"",""trial"",""time""
""fullscreenenter"",""1"",""6141""
","
","","","1837.6000000014901","","","10","18111","237","f","elianto","#3366ff99"," "," ","1","+10","[2688.699999999255]","1","2","","","18111","138","8","1","win","go","0"
"pit-trial","260","1716140","0.0-143.0","battery-v0.2","","""event"",""trial"",""time""
""fullscreenenter"",""1"",""6141""
","
","
","""event"",""trial"",""time""
""fullscreenenter"",""1"",""6141""
","
","","","1056.300000000745","","","10","18111","237","t","elianto","#f73b6a7A","-1"," ","0","-10","[1908.1000000014901]","1","2","","","18111","139","7","4","lose","no-go","0"
"pit-trial","261","1720997","0.0-144.0","battery-v0.2","","""event"",""trial"",""time""
""fullscreenenter"",""1"",""6141""
","
","
","""event"",""trial"",""time""
""fullscreenenter"",""1"",""6141""
","
","","","-1","","","10","18111","237","n","elianto","#3366ff99"," ","-1","0","0","[]","0","2","","","18111","140","9","1","win","go","0"
"pit-instructions","262","1856621","0.0-145.0","battery-v0.2","","""event"",""trial"",""time""
""fullscreenenter"",""1"",""6141""
","
","
","""event"",""trial"",""time""
""fullscreenenter"",""1"",""6141""
","
","","[{""page_index"":0,""viewing_time"":124218.39999999851},{""page_index"":1,""viewing_time"":11402.60000000149}]","135621.6000000015","","","","","","","","","","","","","","","","","","","","","","","",""
"pit-trial","263","1861480","0.0-146.0","battery-v0.2","","""event"",""trial"",""time""
""fullscreenenter"",""1"",""6141""
","
","
","""event"",""trial"",""time""
""fullscreenenter"",""1"",""6141""
","
","","","-1","","","10","18111","237","e","elianto","#f73b6a7A","-1","-1","1","0","[2860.699999999255]","1","3","","","18111","141","2","4","lose","no-go","0"
"pit-trial","264","1866337","0.0-147.0","battery-v0.2","","""event"",""trial"",""time""
""fullscreenenter"",""1"",""6141""
","
","
","""event"",""trial"",""time""
""fullscreenenter"",""1"",""6141""
","
","","","-1","","","10","18111","237","w","elianto","#f73b6a7A"," ","-1","0","-10","[]","0","3","","","18111","142","3","3","lose","go","0"
"pit-trial","265","1871195","0.0-148.0","battery-v0.2","","""event"",""trial"",""time""
""fullscreenenter"",""1"",""6141""
","
","
","""event"",""trial"",""time""
""fullscreenenter"",""1"",""6141""
","
","","","-1","","","10","18111","237","d","elianto","#3366ff99"," ","-1","0","0","[]","0","3","","","18111","143","1","1","win","go","0"
"pit-trial","266","1875759","0.0-149.0","battery-v0.2","","""event"",""trial"",""time""
""fullscreenenter"",""1"",""6141""
","
