"trial_type","trial_index","time_elapsed","internal_node_id","task_version","subject_id","interactions","blur_events","focus_events","fullscreenenter_events","fullscreenexit_events","success","view_history","rt","responses","num_errors","age","subject","participantId","rune","rune_set","hex","correct","choice","accuracy","outcome","keys","total_keys","block","practice","value","sub","trial","stimulus","robot","valence","action","sham"
"pavlovia","0","19","0.0-0.0","battery-v0.2","","""event"",""trial"",""time""
""fullscreenenter"",""1"",""1555""
","
","
","""event"",""trial"",""time""
""fullscreenenter"",""1"",""1555""
","
","","","","","","","","","","","","","","","","","","","","","","","","","","",""
"fullscreen","1","2551","0.0-1.0","battery-v0.2","","""event"",""trial"",""time""
""fullscreenenter"",""1"",""1555""
","
","
","""event"",""trial"",""time""
""fullscreenenter"",""1"",""1555""
","
","true","","","","","","","","","","","","","","","","","","","","","","","","","",""
"pit-instructions","2","6946","0.0-2.0-0.0","battery-v0.2","","""event"",""trial"",""time""
""fullscreenenter"",""1"",""1555""
","
","
","""event"",""trial"",""time""
""fullscreenenter"",""1"",""1555""
","
","","[{""page_index"":0,""viewing_time"":4388.69999999553}]","4390","","","","","","","","","","","","","","","","","","","","","","","",""
"pit-comprehension","3","10246","0.0-2.0-1.0-0.0","battery-v0.2","","""event"",""trial"",""time""
""fullscreenenter"",""1"",""1555""
","
","
","""event"",""trial"",""time""
""fullscreenenter"",""1"",""1555""
","
","","","3294.8000000044703","[""shark""]","0","15","4099","957","","","","","","","","","","","","","","","","","","",""
"pit-instructions","4","13744","0.0-2.0-1.0-1.0","battery-v0.2","","""event"",""trial"",""time""
""fullscreenenter"",""1"",""1555""
","
","
","""event"",""trial"",""time""
""fullscreenenter"",""1"",""1555""
","
","","[{""page_index"":0,""viewing_time"":3490.10000000149}]","3490.5","","","","","","","","","","","","","","","","","","","","","","","",""
"pit-comprehension","5","18279","0.0-2.0-2.0-0.0","battery-v0.2","","""event"",""trial"",""time""
""fullscreenenter"",""1"",""1555""
","
","
","""event"",""trial"",""time""
""fullscreenenter"",""1"",""1555""
","
","","","4528.70000000298","[""tiger""]","0","15","4099","957","","","","","","","","","","","","","","","","","","",""
"pit-instructions","6","20095","0.0-2.0-2.0-1.0","battery-v0.2","","""event"",""trial"",""time""
""fullscreenenter"",""1"",""1555""
","
","
","""event"",""trial"",""time""
""fullscreenenter"",""1"",""1555""
","
","","[{""page_index"":0,""viewing_time"":1810.6999999955297}]","1811.3999999985099","","","","","","","","","","","","","","","","","","","","","","","",""
"pit-instructions","7","113778","0.0-2.0-3.0","battery-v0.2","","""event"",""trial"",""time""
""fullscreenenter"",""1"",""1555""
","
","
","""event"",""trial"",""time""
""fullscreenenter"",""1"",""1555""
","
","","[{""page_index"":0,""viewing_time"":9579.20000000298},{""page_index"":1,""viewing_time"":5633.20000000298},{""page_index"":2,""viewing_time"":6616.69999999553},{""page_index"":3,""viewing_time"":7016.60000000149},{""page_index"":4,""viewing_time"":6550.60000000149},{""page_index"":5,""viewing_time"":5383.69999999553},{""page_index"":6,""viewing_time"":6367},{""page_index"":7,""viewing_time"":6217},{""page_index"":8,""viewing_time"":6382.80000000447},{""page_index"":9,""viewing_time"":7517.39999999851},{""page_index"":10,""viewing_time"":7817.60000000149},{""page_index"":11,""viewing_time"":7099.60000000149},{""page_index"":12,""viewing_time"":6633.69999999553},{""page_index"":13,""viewing_time"":4866.89999999851}]","93682.70000000298","","","","","","","","","","","","","","","","","","","","","","","",""
"pit-trial","8","117354","0.0-2.0-4.0-0.0","battery-v0.2","","""event"",""trial"",""time""
""fullscreenenter"",""1"",""1555""
","
","
","""event"",""trial"",""time""
""fullscreenenter"",""1"",""1555""
","
","","","715.2999999970198","","","15","4099","957","&#9784;","elianto","#FFFFF080"," "," ","1","&#10004","[1566.4000000059605]","1","0","0","","","","","","","",""
"pit-trial","9","120811","0.0-2.0-4.1-0.1","battery-v0.2","","""event"",""trial"",""time""
""fullscreenenter"",""1"",""1555""
","
","
","""event"",""trial"",""time""
""fullscreenenter"",""1"",""1555""
","
","","","598.1000000014901","","","15","4099","957","&#9784;","elianto","#FFFFF080"," "," ","1","&#10004","[1448.5999999940395]","1","0","0","","","","","","","",""
"pit-trial","10","124630","0.0-2.0-4.2-0.2","battery-v0.2","","""event"",""trial"",""time""
""fullscreenenter"",""1"",""1555""
","
","
","""event"",""trial"",""time""
""fullscreenenter"",""1"",""1555""
","
","","","959.8999999985099","","","15","4099","957","&#9784;","elianto","#FFFFF080"," "," ","1","&#10004","[1811.5]","1","0","0","","","","","","","",""
"pit-trial","11","128283","0.0-2.0-4.3-0.3","battery-v0.2","","""event"",""trial"",""time""
""fullscreenenter"",""1"",""1555""
","
","
","""event"",""trial"",""time""
""fullscreenenter"",""1"",""1555""
","
","","","793.0999999940395","","","15","4099","957","&#9784;","elianto","#FFFFF080"," "," ","1","&#10004","[1643.3000000044703]","1","0","0","","","","","","","",""
"pit-trial","12","131791","0.0-2.0-4.4-0.4","battery-v0.2","","""event"",""trial"",""time""
""fullscreenenter"",""1"",""1555""
","
","
","""event"",""trial"",""time""
""fullscreenenter"",""1"",""1555""
","
","","","648.6000000014901","","","15","4099","957","&#9784;","elianto","#FFFFF080"," "," ","1","&#10004","[1500.6000000014901]","1","0","0","","","","","","","",""
"pit-instructions","13","157962","0.0-2.0-5.0","battery-v0.2","","""event"",""trial"",""time""
""fullscreenenter"",""1"",""1555""
","
","
","""event"",""trial"",""time""
""fullscreenenter"",""1"",""1555""
","
","","[{""page_index"":0,""viewing_time"":4682.70000000298},{""page_index"":1,""viewing_time"":6383.69999999553},{""page_index"":2,""viewing_time"":7083.70000000298},{""page_index"":3,""viewing_time"":8016.89999999851}]","26168","","","","","","","","","","","","","","","","","","","","","","","",""
"pit-trial","14","162822","0.0-2.0-6.0-0.0","battery-v0.2","","""event"",""trial"",""time""
""fullscreenenter"",""1"",""1555""
","
","
","""event"",""trial"",""time""
""fullscreenenter"",""1"",""1555""
","
","","","-1","","","15","4099","957","&#9854;","elianto","#FFFFF080","-1","-1","1","&#10004","[]","0","0","1","","","","","","","",""
"pit-trial","15","167683","0.0-2.0-6.1-0.1","battery-v0.2","","""event"",""trial"",""time""
""fullscreenenter"",""1"",""1555""
","
","
","""event"",""trial"",""time""
""fullscreenenter"",""1"",""1555""
","
","","","-1","","","15","4099","957","&#9854;","elianto","#FFFFF080","-1","-1","1","&#10004","[]","0","0","1","","","","","","","",""
"pit-trial","16","172547","0.0-2.0-6.2-0.2","battery-v0.2","","""event"",""trial"",""time""
""fullscreenenter"",""1"",""1555""
","
","
","""event"",""trial"",""time""
""fullscreenenter"",""1"",""1555""
","
","","","-1","","","15","4099","957","&#9854;","elianto","#FFFFF080","-1","-1","1","&#10004","[]","0","0","1","","","","","","","",""
"pit-trial","17","177408","0.0-2.0-6.3-0.3","battery-v0.2","","""event"",""trial"",""time""
""fullscreenenter"",""1"",""1555""
","
","
","""event"",""trial"",""time""
""fullscreenenter"",""1"",""1555""
","
","","","-1","","","15","4099","957","&#9854;","elianto","#FFFFF080","-1","-1","1","&#10004","[]","0","0","1","","","","","","","",""
"pit-trial","18","182269","0.0-2.0-6.4-0.4","battery-v0.2","","""event"",""trial"",""time""
""fullscreenenter"",""1"",""1555""
","
","
","""event"",""trial"",""time""
""fullscreenenter"",""1"",""1555""
","
","","","-1","","","15","4099","957","&#9854;","elianto","#FFFFF080","-1","-1","1","&#10004","[]","0","0","1","","","","","","","",""
"pit-instructions","19","304545","0.0-2.0-7.0","battery-v0.2","","""event"",""trial"",""time""
""fullscreenenter"",""1"",""1555""
","
","
","""event"",""trial"",""time""
""fullscreenenter"",""1"",""1555""
","
","","[{""page_index"":0,""viewing_time"":5653.80000000447},{""page_index"":1,""viewing_time"":6534},{""page_index"":2,""viewing_time"":6750.10000000149},{""page_index"":3,""viewing_time"":6066.79999999702},{""page_index"":4,""viewing_time"":9000.20000000298},{""page_index"":5,""viewing_time"":5445.29999999702},{""page_index"":6,""viewing_time"":5238.5},{""page_index"":7,""viewing_time"":9017.20000000298},{""page_index"":8,""viewing_time"":7233.69999999553},{""page_index"":9,""viewing_time"":7666.60000000149},{""page_index"":10,""viewing_time"":6833.60000000149},{""page_index"":11,""viewing_time"":4967.60000000149},{""page_index"":12,""viewing_time"":7133.19999999553},{""page_index"":13,""viewing_time"":7084.70000000298},{""page_index"":14,""viewing_time"":6599.79999999702},{""page_index"":15,""viewing_time"":6566.70000000298},{""page_index"":16,""viewing_time"":7349.39999999851},{""page_index"":17,""viewing_time"":7134.10000000149}]","122276.5","","","","","","","","","","","","","","","","","","","","","","","",""
"pit-trial","20","308348","0.0-2.0-8.0-0.0","battery-v0.2","","""event"",""trial"",""time""
""fullscreenenter"",""1"",""1555""
","
","
","""event"",""trial"",""time""
""fullscreenenter"",""1"",""1555""
","
","","","944.6999999955297","","","15","4099","957","&#9776;","elianto","#3366ff99"," "," ","1","+10","[1796.2999999970198]","1","0","1","","","","","","","",""
"pit-trial","21","312063","0.0-2.0-8.0-1.0","battery-v0.2","","""event"",""trial"",""time""
""fullscreenenter"",""1"",""1555""
","
","
","""event"",""trial"",""time""
""fullscreenenter"",""1"",""1555""
","
","","","852.2000000029802","","","15","4099","957","&#9776;","elianto","#3366ff99"," "," ","1","+10","[1704.7999999970198]","1","0","1","","","","","","","",""
"pit-trial","22","315671","0.0-2.0-8.0-2.0","battery-v0.2","","""event"",""trial"",""time""
""fullscreenenter"",""1"",""1555""
","
","
","""event"",""trial"",""time""
""fullscreenenter"",""1"",""1555""
","
","","","748.2000000029802","","","15","4099","957","&#9776;","elianto","#3366ff99"," "," ","1","+10","[1598.2999999970198]","1","0","1","","","","","","","",""
"pit-trial","23","319462","0.0-2.0-8.0-3.0","battery-v0.2","","""event"",""trial"",""time""
""fullscreenenter"",""1"",""1555""
","
","
","""event"",""trial"",""time""
""fullscreenenter"",""1"",""1555""
","
","","","932","","","15","4099","957","&#9776;","elianto","#3366ff99"," "," ","1","0","[1782.2000000029802]","1","0","1","","","","","","","",""
"pit-trial","24","323489","0.0-2.0-8.0-4.0","battery-v0.2","","""event"",""trial"",""time""
""fullscreenenter"",""1"",""1555""
","
","
","""event"",""trial"",""time""
""fullscreenenter"",""1"",""1555""
","
","","","1169.5","","","15","4099","957","&#9776;","elianto","#3366ff99"," "," ","1","+10","[2021.3999999985099]","1","0","1","","","","","","","",""
"pit-trial","25","326913","0.0-2.0-8.1-0.1","battery-v0.2","","""event"",""trial"",""time""
""fullscreenenter"",""1"",""1555""
","
","
","""event"",""trial"",""time""
""fullscreenenter"",""1"",""1555""
","
","","","563.5","","","15","4099","957","&#9776;","elianto","#3366ff99"," "," ","1","+10","[1414.7999999970198]","1","0","1","","","","","","","",""
"pit-trial","26","331277","0.0-2.0-8.1-1.1","battery-v0.2","","""event"",""trial"",""time""
""fullscreenenter"",""1"",""1555""
","
","
","""event"",""trial"",""time""
""fullscreenenter"",""1"",""1555""
","
","","","1506.2999999970198","","","15","4099","957","&#9776;","elianto","#3366ff99"," "," ","1","+10","[2358.60000000149]","1","0","1","","","","","","","",""
"pit-trial","27","335615","0.0-2.0-8.1-2.1","battery-v0.2","","""event"",""trial"",""time""
""fullscreenenter"",""1"",""1555""
","
","
","""event"",""trial"",""time""
""fullscreenenter"",""1"",""1555""
","
","","","1479.4000000059605","","","15","4099","957","&#9776;","elianto","#3366ff99"," "," ","1","+10","[2330.3000000044703]","1","0","1","","","","","","","",""
"pit-trial","28","339168","0.0-2.0-8.1-3.1","battery-v0.2","","""event"",""trial"",""time""
""fullscreenenter"",""1"",""1555""
","
","
","""event"",""trial"",""time""
""fullscreenenter"",""1"",""1555""
","
","","","690.8999999985099","","","15","4099","957","&#9776;","elianto","#3366ff99"," "," ","1","0","[1543.3999999985099]","1","0","1","","","","","","","",""
"pit-trial","29","342800","0.0-2.0-8.1-4.1","battery-v0.2","","""event"",""trial"",""time""
""fullscreenenter"",""1"",""1555""
","
","
","""event"",""trial"",""time""
""fullscreenenter"",""1"",""1555""
","
","","","776.8000000044703","","","15","4099","957","&#9776;","elianto","#3366ff99"," "," ","1","+10","[1627.2999999970198]","1","0","1","","","","","","","",""
"pit-trial","30","346127","0.0-2.0-8.2-0.2","battery-v0.2","","""event"",""trial"",""time""
""fullscreenenter"",""1"",""1555""
","
","
","""event"",""trial"",""time""
""fullscreenenter"",""1"",""1555""
","
","","","468.8999999985099","","","15","4099","957","&#9776;","elianto","#3366ff99"," "," ","1","+10","[1320]","1","0","1","","","","","","","",""
"pit-trial","31","349596","0.0-2.0-8.2-1.2","battery-v0.2","","""event"",""trial"",""time""
""fullscreenenter"",""1"",""1555""
","
","
","""event"",""trial"",""time""
""fullscreenenter"",""1"",""1555""
","
","","","610.9000000059605","","","15","4099","957","&#9776;","elianto","#3366ff99"," "," ","1","+10","[1461.3000000044703]","1","0","1","","","","","","","",""
"pit-trial","32","353114","0.0-2.0-8.2-2.2","battery-v0.2","","""event"",""trial"",""time""
""fullscreenenter"",""1"",""1555""
","
","
","""event"",""trial"",""time""
""fullscreenenter"",""1"",""1555""
","
","","","658","","","15","4099","957","&#9776;","elianto","#3366ff99"," "," ","1","+10","[1509.7999999970198,2764.2999999970198]","2","0","1","","","","","","","",""
"pit-trial","33","356666","0.0-2.0-8.2-3.2","battery-v0.2","","""event"",""trial"",""time""
""fullscreenenter"",""1"",""1555""
","
","
","""event"",""trial"",""time""
""fullscreenenter"",""1"",""1555""
","
","","","694.1999999955297","","","15","4099","957","&#9776;","elianto","#3366ff99"," "," ","1","0","[1547.1999999955297]","1","0","1","","","","","","","",""
"pit-trial","34","360474","0.0-2.0-8.2-4.2","battery-v0.2","","""event"",""trial"",""time""
""fullscreenenter"",""1"",""1555""
","
","
","""event"",""trial"",""time""
""fullscreenenter"",""1"",""1555""
","
","","","949.1000000014901","","","15","4099","957","&#9776;","elianto","#3366ff99"," "," ","1","+10","[1801.3000000044703]","1","0","1","","","","","","","",""
"call-function","35","360477","0.0-2.0-9.0","battery-v0.2","","""event"",""trial"",""time""
""fullscreenenter"",""1"",""1555""
","
","
","""event"",""trial"",""time""
""fullscreenenter"",""1"",""1555""
","
","","","","","","","","","","","","","","","","","","","","","","","","","","",""
"pit-instructions","36","405528","0.0-2.0-10.0","battery-v0.2","","""event"",""trial"",""time""
""fullscreenenter"",""1"",""1555""
","
","
","""event"",""trial"",""time""
""fullscreenenter"",""1"",""1555""
","
","","[{""page_index"":0,""viewing_time"":6665.80000000447},{""page_index"":1,""viewing_time"":7450.29999999702},{""page_index"":2,""viewing_time"":9533.70000000298},{""page_index"":3,""viewing_time"":13150.79999999702},{""page_index"":4,""viewing_time"":8249.89999999851}]","45051.80000000447","","","","","","","","","","","","","","","","","","","","","","","",""
"pit-trial","37","410046","0.0-2.0-11.0-0.0","battery-v0.2","","""event"",""trial"",""time""
""fullscreenenter"",""1"",""1555""
","
","
","""event"",""trial"",""time""
""fullscreenenter"",""1"",""1555""
","
","","","1662.5","","","15","4099","957","&#9761;","elianto","#3366ff99","-1"," ","0","0","[2512.7000000029802]","1","0","2","","","","","","","",""
"pit-trial","38","414498","0.0-2.0-11.0-1.0","battery-v0.2","","""event"",""trial"",""time""
""fullscreenenter"",""1"",""1555""
","
","
","""event"",""trial"",""time""
""fullscreenenter"",""1"",""1555""
","
","","","1590.7000000029802","","","15","4099","957","&#9761;","elianto","#3366ff99","-1"," ","0","0","[2442.89999999851]","1","0","2","","","","","","","",""
"pit-trial","39","419362","0.0-2.0-11.0-2.0","battery-v0.2","","""event"",""trial"",""time""
""fullscreenenter"",""1"",""1555""
","
","
","""event"",""trial"",""time""
""fullscreenenter"",""1"",""1555""
","
","","","-1","","","15","4099","957","&#9761;","elianto","#3366ff99","-1","-1","1","+10","[]","0","0","2","","","","","","","",""
"pit-trial","40","424227","0.0-2.0-11.0-3.0","battery-v0.2","","""event"",""trial"",""time""
""fullscreenenter"",""1"",""1555""
","
","
","""event"",""trial"",""time""
""fullscreenenter"",""1"",""1555""
","
","","","-1","","","15","4099","957","&#9761;","elianto","#3366ff99","-1","-1","1","0","[]","0","0","2","","","","","","","",""
"pit-trial","41","429092","0.0-2.0-11.0-4.0","battery-v0.2","","""event"",""trial"",""time""
""fullscreenenter"",""1"",""1555""
","
","
","""event"",""trial"",""time""
""fullscreenenter"",""1"",""1555""
","
","","","-1","","","15","4099","957","&#9761;","elianto","#3366ff99","-1","-1","1","+10","[]","0","0","2","","","","","","","",""
"pit-trial","42","433956","0.0-2.0-11.1-0.1","battery-v0.2","","""event"",""trial"",""time""
""fullscreenenter"",""1"",""1555""
","
","
","""event"",""trial"",""time""
""fullscreenenter"",""1"",""1555""
","
","","","-1","","","15","4099","957","&#9761;","elianto","#3366ff99","-1","-1","1","+10","[]","0","0","2","","","","","","","",""
"pit-trial","43","438820","0.0-2.0-11.1-1.1","battery-v0.2","","""event"",""trial"",""time""
""fullscreenenter"",""1"",""1555""
","
","
","""event"",""trial"",""time""
""fullscreenenter"",""1"",""1555""
","
","","","-1","","","15","4099","957","&#9761;","elianto","#3366ff99","-1","-1","1","+10","[]","0","0","2","","","","","","","",""
"pit-trial","44","443684","0.0-2.0-11.1-2.1","battery-v0.2","","""event"",""trial"",""time""
""fullscreenenter"",""1"",""1555""
","
","
","""event"",""trial"",""time""
""fullscreenenter"",""1"",""1555""
","
","","","-1","","","15","4099","957","&#9761;","elianto","#3366ff99","-1","-1","1","+10","[]","0","0","2","","","","","","","",""
"pit-trial","45","448548","0.0-2.0-11.1-3.1","battery-v0.2","","""event"",""trial"",""time""
""fullscreenenter"",""1"",""1555""
","
","
","""event"",""trial"",""time""
""fullscreenenter"",""1"",""1555""
","
","","","-1","","","15","4099","957","&#9761;","elianto","#3366ff99","-1","-1","1","0","[]","0","0","2","","","","","","","",""
"pit-trial","46","453411","0.0-2.0-11.1-4.1","battery-v0.2","","""event"",""trial"",""time""
""fullscreenenter"",""1"",""1555""
","
","
","""event"",""trial"",""time""
""fullscreenenter"",""1"",""1555""
","
","","","-1","","","15","4099","957","&#9761;","elianto","#3366ff99","-1","-1","1","+10","[]","0","0","2","","","","","","","",""
"pit-trial","47","458275","0.0-2.0-11.2-0.2","battery-v0.2","","""event"",""trial"",""time""
""fullscreenenter"",""1"",""1555""
","
","
","""event"",""trial"",""time""
""fullscreenenter"",""1"",""1555""
","
","","","-1","","","15","4099","957","&#9761;","elianto","#3366ff99","-1","-1","1","+10","[]","0","0","2","","","","","","","",""
"pit-trial","48","463139","0.0-2.0-11.2-1.2","battery-v0.2","","""event"",""trial"",""time""
""fullscreenenter"",""1"",""1555""
","
","
","""event"",""trial"",""time""
""fullscreenenter"",""1"",""1555""
","
","","","-1","","","15","4099","957","&#9761;","elianto","#3366ff99","-1","-1","1","+10","[]","0","0","2","","","","","","","",""
"pit-trial","49","467997","0.0-2.0-11.2-2.2","battery-v0.2","","""event"",""trial"",""time""
""fullscreenenter"",""1"",""1555""
","
","
","""event"",""trial"",""time""
""fullscreenenter"",""1"",""1555""
","
","","","-1","","","15","4099","957","&#9761;","elianto","#3366ff99","-1","-1","1","+10","[]","0","0","2","","","","","","","",""
"pit-trial","50","472856","0.0-2.0-11.2-3.2","battery-v0.2","","""event"",""trial"",""time""
""fullscreenenter"",""1"",""1555""
","
","
","""event"",""trial"",""time""
""fullscreenenter"",""1"",""1555""
","
","","","-1","","","15","4099","957","&#9761;","elianto","#3366ff99","-1","-1","1","0","[]","0","0","2","","","","","","","",""
"pit-trial","51","477719","0.0-2.0-11.2-4.2","battery-v0.2","","""event"",""trial"",""time""
""fullscreenenter"",""1"",""1555""
","
","
","""event"",""trial"",""time""
""fullscreenenter"",""1"",""1555""
","
","","","-1","","","15","4099","957","&#9761;","elianto","#3366ff99","-1","-1","1","+10","[]","0","0","2","","","","","","","",""
"pit-trial","52","482583","0.0-2.0-11.3-0.3","battery-v0.2","","""event"",""trial"",""time""
""fullscreenenter"",""1"",""1555""
","
","
","""event"",""trial"",""time""
""fullscreenenter"",""1"",""1555""
","
","","","-1","","","15","4099","957","&#9761;","elianto","#3366ff99","-1","-1","1","+10","[]","0","0","2","","","","","","","",""
"pit-trial","53","487447","0.0-2.0-11.3-1.3","battery-v0.2","","""event"",""trial"",""time""
""fullscreenenter"",""1"",""1555""
","
","
","""event"",""trial"",""time""
""fullscreenenter"",""1"",""1555""
","
","","","-1","","","15","4099","957","&#9761;","elianto","#3366ff99","-1","-1","1","+10","[]","0","0","2","","","","","","","",""
"pit-trial","54","492311","0.0-2.0-11.3-2.3","battery-v0.2","","""event"",""trial"",""time""
""fullscreenenter"",""1"",""1555""
","
","
","""event"",""trial"",""time""
""fullscreenenter"",""1"",""1555""
","
","","","-1","","","15","4099","957","&#9761;","elianto","#3366ff99","-1","-1","1","+10","[]","0","0","2","","","","","","","",""
"pit-trial","55","497175","0.0-2.0-11.3-3.3","battery-v0.2","","""event"",""trial"",""time""
""fullscreenenter"",""1"",""1555""
","
","
","""event"",""trial"",""time""
""fullscreenenter"",""1"",""1555""
","
","","","-1","","","15","4099","957","&#9761;","elianto","#3366ff99","-1","-1","1","0","[]","0","0","2","","","","","","","",""
"pit-trial","56","502039","0.0-2.0-11.3-4.3","battery-v0.2","","""event"",""trial"",""time""
""fullscreenenter"",""1"",""1555""
","
","
","""event"",""trial"",""time""
""fullscreenenter"",""1"",""1555""
","
","","","-1","","","15","4099","957","&#9761;","elianto","#3366ff99","-1","-1","1","+10","[]","0","0","2","","","","","","","",""
"call-function","57","502041","0.0-2.0-12.0","battery-v0.2","","""event"",""trial"",""time""
""fullscreenenter"",""1"",""1555""
","
","
","""event"",""trial"",""time""
""fullscreenenter"",""1"",""1555""
","
","","","","","","","","","","","","","","","","","","","","","","","","","","",""
"pit-instructions","58","537781","0.0-2.0-13.0","battery-v0.2","","""event"",""trial"",""time""
""fullscreenenter"",""1"",""1555""
","
","
","""event"",""trial"",""time""
""fullscreenenter"",""1"",""1555""
","
","","[{""page_index"":0,""viewing_time"":7034.5999999940395},{""page_index"":1,""viewing_time"":7616.60000000149},{""page_index"":2,""viewing_time"":4583.70000000298},{""page_index"":3,""viewing_time"":10050.79999999702},{""page_index"":4,""viewing_time"":6454.30000000447}]","35740.59999999404","","","","","","","","","","","","","","","","","","","","","","","",""
"pit-trial","59","542645","0.0-2.0-14.0-0.0","battery-v0.2","","""event"",""trial"",""time""
""fullscreenenter"",""1"",""1555""
","
","
","""event"",""trial"",""time""
""fullscreenenter"",""1"",""1555""
","
","","","-1","","","15","4099","957","&#9826;","elianto","#f73b6a7A","-1","-1","1","0","[]","0","0","3","","","","","","","",""
"pit-trial","60","546458","0.0-2.0-14.0-1.0","battery-v0.2","","""event"",""trial"",""time""
""fullscreenenter"",""1"",""1555""
","
","
","""event"",""trial"",""time""
""fullscreenenter"",""1"",""1555""
","
","","","953.1999999955297","","","15","4099","957","&#9826;","elianto","#f73b6a7A","-1"," ","0","-10","[1805.1999999955297]","1","0","3","","","","","","","",""
"pit-trial","61","551314","0.0-2.0-14.0-2.0","battery-v0.2","","""event"",""trial"",""time""
""fullscreenenter"",""1"",""1555""
","
","
","""event"",""trial"",""time""
""fullscreenenter"",""1"",""1555""
","
","","","-1","","","15","4099","957","&#9826;","elianto","#f73b6a7A","-1","-1","1","0","[]","0","0","3","","","","","","","",""
"pit-trial","62","556179","0.0-2.0-14.0-3.0","battery-v0.2","","""event"",""trial"",""time""
""fullscreenenter"",""1"",""1555""
","
","
","""event"",""trial"",""time""
""fullscreenenter"",""1"",""1555""
","
","","","-1","","","15","4099","957","&#9826;","elianto","#f73b6a7A","-1","-1","1","-10","[]","0","0","3","","","","","","","",""
"pit-trial","63","561041","0.0-2.0-14.0-4.0","battery-v0.2","","""event"",""trial"",""time""
""fullscreenenter"",""1"",""1555""
","
","
","""event"",""trial"",""time""
""fullscreenenter"",""1"",""1555""
","
","","","-1","","","15","4099","957","&#9826;","elianto","#f73b6a7A","-1","-1","1","0","[]","0","0","3","","","","","","","",""
"pit-trial","64","565903","0.0-2.0-14.1-0.1","battery-v0.2","","""event"",""trial"",""time""
""fullscreenenter"",""1"",""1555""
","
","
","""event"",""trial"",""time""
""fullscreenenter"",""1"",""1555""
","
","","","-1","","","15","4099","957","&#9826;","elianto","#f73b6a7A","-1","-1","1","0","[]","0","0","3","","","","","","","",""
"pit-trial","65","570764","0.0-2.0-14.1-1.1","battery-v0.2","","""event"",""trial"",""time""
""fullscreenenter"",""1"",""1555""
","
","
","""event"",""trial"",""time""
""fullscreenenter"",""1"",""1555""
","
","","","-1","","","15","4099","957","&#9826;","elianto","#f73b6a7A","-1","-1","1","0","[]","0","0","3","","","","","","","",""
"pit-trial","66","575628","0.0-2.0-14.1-2.1","battery-v0.2","","""event"",""trial"",""time""
""fullscreenenter"",""1"",""1555""
","
","
","""event"",""trial"",""time""
""fullscreenenter"",""1"",""1555""
","
","","","-1","","","15","4099","957","&#9826;","elianto","#f73b6a7A","-1","-1","1","0","[]","0","0","3","","","","","","","",""
"pit-trial","67","580491","0.0-2.0-14.1-3.1","battery-v0.2","","""event"",""trial"",""time""
""fullscreenenter"",""1"",""1555""
","
","
","""event"",""trial"",""time""
""fullscreenenter"",""1"",""1555""
","
","","","-1","","","15","4099","957","&#9826;","elianto","#f73b6a7A","-1","-1","1","-10","[]","0","0","3","","","","","","","",""
"pit-trial","68","585355","0.0-2.0-14.1-4.1","battery-v0.2","","""event"",""trial"",""time""
""fullscreenenter"",""1"",""1555""
","
","
","""event"",""trial"",""time""
""fullscreenenter"",""1"",""1555""
","
","","","-1","","","15","4099","957","&#9826;","elianto","#f73b6a7A","-1","-1","1","0","[]","0","0","3","","","","","","","",""
"pit-trial","69","590219","0.0-2.0-14.2-0.2","battery-v0.2","","""event"",""trial"",""time""
""fullscreenenter"",""1"",""1555""
","
","
","""event"",""trial"",""time""
""fullscreenenter"",""1"",""1555""
","
","","","-1","","","15","4099","957","&#9826;","elianto","#f73b6a7A","-1","-1","1","0","[]","0","0","3","","","","","","","",""
"pit-trial","70","595082","0.0-2.0-14.2-1.2","battery-v0.2","","""event"",""trial"",""time""
""fullscreenenter"",""1"",""1555""
","
","
","""event"",""trial"",""time""
""fullscreenenter"",""1"",""1555""
","
","","","-1","","","15","4099","957","&#9826;","elianto","#f73b6a7A","-1","-1","1","0","[]","0","0","3","","","","","","","",""
"pit-trial","71","599946","0.0-2.0-14.2-2.2","battery-v0.2","","""event"",""trial"",""time""
""fullscreenenter"",""1"",""1555""
","
","
","""event"",""trial"",""time""
""fullscreenenter"",""1"",""1555""
","
","","","-1","","","15","4099","957","&#9826;","elianto","#f73b6a7A","-1","-1","1","0","[]","0","0","3","","","","","","","",""
"pit-trial","72","604804","0.0-2.0-14.2-3.2","battery-v0.2","","""event"",""trial"",""time""
""fullscreenenter"",""1"",""1555""
","
","
","""event"",""trial"",""time""
""fullscreenenter"",""1"",""1555""
","
","","","-1","","","15","4099","957","&#9826;","elianto","#f73b6a7A","-1","-1","1","-10","[]","0","0","3","","","","","","","",""
"pit-trial","73","609663","0.0-2.0-14.2-4.2","battery-v0.2","","""event"",""trial"",""time""
""fullscreenenter"",""1"",""1555""
","
","
","""event"",""trial"",""time""
""fullscreenenter"",""1"",""1555""
","
","","","-1","","","15","4099","957","&#9826;","elianto","#f73b6a7A","-1","-1","1","0","[]","0","0","3","","","","","","","",""
"pit-trial","74","614527","0.0-2.0-14.3-0.3","battery-v0.2","","""event"",""trial"",""time""
""fullscreenenter"",""1"",""1555""
","
","
","""event"",""trial"",""time""
""fullscreenenter"",""1"",""1555""
","
","","","-1","","","15","4099","957","&#9826;","elianto","#f73b6a7A","-1","-1","1","0","[]","0","0","3","","","","","","","",""
"pit-trial","75","619394","0.0-2.0-14.3-1.3","battery-v0.2","","""event"",""trial"",""time""
""fullscreenenter"",""1"",""1555""
","
","
","""event"",""trial"",""time""
""fullscreenenter"",""1"",""1555""
","
","","","-1","","","15","4099","957","&#9826;","elianto","#f73b6a7A","-1","-1","1","0","[]","0","0","3","","","","","","","",""
"pit-trial","76","624262","0.0-2.0-14.3-2.3","battery-v0.2","","""event"",""trial"",""time""
""fullscreenenter"",""1"",""1555""
","
","
","""event"",""trial"",""time""
""fullscreenenter"",""1"",""1555""
","
","","","-1","","","15","4099","957","&#9826;","elianto","#f73b6a7A","-1","-1","1","0","[]","0","0","3","","","","","","","",""
"pit-trial","77","629133","0.0-2.0-14.3-3.3","battery-v0.2","","""event"",""trial"",""time""
""fullscreenenter"",""1"",""1555""
","
","
","""event"",""trial"",""time""
""fullscreenenter"",""1"",""1555""
","
","","","-1","","","15","4099","957","&#9826;","elianto","#f73b6a7A","-1","-1","1","-10","[]","0","0","3","","","","","","","",""
"pit-trial","78","634001","0.0-2.0-14.3-4.3","battery-v0.2","","""event"",""trial"",""time""
""fullscreenenter"",""1"",""1555""
","
","
","""event"",""trial"",""time""
""fullscreenenter"",""1"",""1555""
","
","","","-1","","","15","4099","957","&#9826;","elianto","#f73b6a7A","-1","-1","1","0","[]","0","0","3","","","","","","","",""
"call-function","79","634004","0.0-2.0-15.0","battery-v0.2","","""event"",""trial"",""time""
""fullscreenenter"",""1"",""1555""
","
","
","""event"",""trial"",""time""
""fullscreenenter"",""1"",""1555""
","
","","","","","","","","","","","","","","","","","","","","","","","","","","",""
"pit-instructions","80","663380","0.0-2.0-16.0","battery-v0.2","","""event"",""trial"",""time""
""fullscreenenter"",""1"",""1555""
","
","
","""event"",""trial"",""time""
""fullscreenenter"",""1"",""1555""
","
","","[{""page_index"":0,""viewing_time"":7229.89999999851},{""page_index"":1,""viewing_time"":9400},{""page_index"":2,""viewing_time"":6199.39999999851},{""page_index"":3,""viewing_time"":6534}]","29364.19999999553","","","","","","","","","","","","","","","","","","","","","","","",""
"pit-trial","81","668244","0.0-2.0-17.0-0.0","battery-v0.2","","""event"",""trial"",""time""
""fullscreenenter"",""1"",""1555""
","
","
","""event"",""trial"",""time""
""fullscreenenter"",""1"",""1555""
","
","","","-1","","","15","4099","957","&#9789;","elianto","#f73b6a7A"," ","-1","0","-10","[]","0","0","4","","","","","","","",""
"pit-trial","82","671698","0.0-2.0-17.0-1.0","battery-v0.2","","""event"",""trial"",""time""
""fullscreenenter"",""1"",""1555""
","
","
","""event"",""trial"",""time""
""fullscreenenter"",""1"",""1555""
","
","","","595.2000000029802","","","15","4099","957","&#9789;","elianto","#f73b6a7A"," "," ","1","0","[1446.5]","1","0","4","","","","","","","",""
"pit-trial","83","675128","0.0-2.0-17.0-2.0","battery-v0.2","","""event"",""trial"",""time""
""fullscreenenter"",""1"",""1555""
","
","
","""event"",""trial"",""time""
""fullscreenenter"",""1"",""1555""
","
","","","571.1000000014901","","","15","4099","957","&#9789;","elianto","#f73b6a7A"," "," ","1","0","[1423.1000000014901]","1","0","4","","","","","","","",""
"pit-trial","84","678486","0.0-2.0-17.0-3.0","battery-v0.2","","""event"",""trial"",""time""
""fullscreenenter"",""1"",""1555""
","
","
","""event"",""trial"",""time""
""fullscreenenter"",""1"",""1555""
","
","","","498.5","","","15","4099","957","&#9789;","elianto","#f73b6a7A"," "," ","1","-10","[1349.1000000014901]","1","0","4","","","","","","","",""
"pit-trial","85","683346","0.0-2.0-17.0-4.0","battery-v0.2","","""event"",""trial"",""time""
""fullscreenenter"",""1"",""1555""
","
","
","""event"",""trial"",""time""
""fullscreenenter"",""1"",""1555""
","
","","","-1","","","15","4099","957","&#9789;","elianto","#f73b6a7A"," ","-1","0","-10","[]","0","0","4","","","","","","","",""
"pit-trial","86","687053","0.0-2.0-17.1-0.1","battery-v0.2","","""event"",""trial"",""time""
""fullscreenenter"",""1"",""1555""
","
","
","""event"",""trial"",""time""
""fullscreenenter"",""1"",""1555""
","
","","","850.1999999955297","","","15","4099","957","&#9789;","elianto","#f73b6a7A"," "," ","1","0","[1701.1999999955297]","1","0","4","","","","","","","",""
"pit-trial","87","690466","0.0-2.0-17.1-1.1","battery-v0.2","","""event"",""trial"",""time""
""fullscreenenter"",""1"",""1555""
","
","
","""event"",""trial"",""time""
""fullscreenenter"",""1"",""1555""
","
","","","553.2999999970198","","","15","4099","957","&#9789;","elianto","#f73b6a7A"," "," ","1","0","[1405.7999999970198]","1","0","4","","","","","","","",""
"pit-trial","88","693807","0.0-2.0-17.1-2.1","battery-v0.2","","""event"",""trial"",""time""
""fullscreenenter"",""1"",""1555""
","
","
","""event"",""trial"",""time""
""fullscreenenter"",""1"",""1555""
","
","","","483.8999999985099","","","15","4099","957","&#9789;","elianto","#f73b6a7A"," "," ","1","0","[1336.0999999940395]","1","0","4","","","","","","","",""
"pit-trial","89","697114","0.0-2.0-17.1-3.1","battery-v0.2","","""event"",""trial"",""time""
""fullscreenenter"",""1"",""1555""
","
","
","""event"",""trial"",""time""
""fullscreenenter"",""1"",""1555""
","
","","","449.5","","","15","4099","957","&#9789;","elianto","#f73b6a7A"," "," ","1","-10","[1300.2000000029802]","1","0","4","","","","","","","",""
"pit-trial","90","700154","0.0-2.0-17.1-4.1","battery-v0.2","","""event"",""trial"",""time""
""fullscreenenter"",""1"",""1555""
","
","
","""event"",""trial"",""time""
""fullscreenenter"",""1"",""1555""
","
","","","180.10000000149012","","","15","4099","957","&#9789;","elianto","#f73b6a7A"," "," ","1","0","[1031.6000000014901]","1","0","4","","","","","","","",""
"pit-trial","91","703496","0.0-2.0-17.2-0.2","battery-v0.2","","""event"",""trial"",""time""
""fullscreenenter"",""1"",""1555""
","
","
","""event"",""trial"",""time""
""fullscreenenter"",""1"",""1555""
","
","","","480.70000000298023","","","15","4099","957","&#9789;","elianto","#f73b6a7A"," "," ","1","0","[1332.3000000044703]","1","0","4","","","","","","","",""
"pit-trial","92","706932","0.0-2.0-17.2-1.2","battery-v0.2","","""event"",""trial"",""time""
""fullscreenenter"",""1"",""1555""
","
","
","""event"",""trial"",""time""
""fullscreenenter"",""1"",""1555""
","
","","","579.6999999955297","","","15","4099","957","&#9789;","elianto","#f73b6a7A"," "," ","1","0","[1430.8999999985099]","1","0","4","","","","","","","",""
"pit-trial","93","710425","0.0-2.0-17.2-2.2","battery-v0.2","","""event"",""trial"",""time""
""fullscreenenter"",""1"",""1555""
","
","
","""event"",""trial"",""time""
""fullscreenenter"",""1"",""1555""
","
","","","634.7000000029802","","","15","4099","957","&#9789;","elianto","#f73b6a7A"," "," ","1","0","[1486.7000000029802]","1","0","4","","","","","","","",""
"pit-trial","94","713694","0.0-2.0-17.2-3.2","battery-v0.2","","""event"",""trial"",""time""
""fullscreenenter"",""1"",""1555""
","
","
","""event"",""trial"",""time""
""fullscreenenter"",""1"",""1555""
","
","","","411.29999999701977","","","15","4099","957","&#9789;","elianto","#f73b6a7A"," "," ","1","-10","[1261.4000000059605]","1","0","4","","","","","","","",""
"pit-trial","95","717619","0.0-2.0-17.2-4.2","battery-v0.2","","""event"",""trial"",""time""
""fullscreenenter"",""1"",""1555""
","
","
","""event"",""trial"",""time""
""fullscreenenter"",""1"",""1555""
","
","","","1070.2999999970198","","","15","4099","957","&#9789;","elianto","#f73b6a7A"," "," ","1","0","[1920.6000000014901]","1","0","4","","","","","","","",""
"pit-trial","96","721763","0.0-2.0-17.3-0.3","battery-v0.2","","""event"",""trial"",""time""
""fullscreenenter"",""1"",""1555""
","
","
","""event"",""trial"",""time""
""fullscreenenter"",""1"",""1555""
","
","","","1289.7999999970198","","","15","4099","957","&#9789;","elianto","#f73b6a7A"," "," ","1","0","[2139.7999999970198]","1","0","4","","","","","","","",""
"pit-trial","97","725469","0.0-2.0-17.3-1.3","battery-v0.2","","""event"",""trial"",""time""
""fullscreenenter"",""1"",""1555""
","
","
","""event"",""trial"",""time""
""fullscreenenter"",""1"",""1555""
","
","","","847.8999999985099","","","15","4099","957","&#9789;","elianto","#f73b6a7A"," "," ","1","0","[1697.8999999985099]","1","0","4","","","","","","","",""
"pit-trial","98","728840","0.0-2.0-17.3-2.3","battery-v0.2","","""event"",""trial"",""time""
""fullscreenenter"",""1"",""1555""
","
","
","""event"",""trial"",""time""
""fullscreenenter"",""1"",""1555""
","
","","","509.59999999403954","","","15","4099","957","&#9789;","elianto","#f73b6a7A"," "," ","1","0","[1362.6999999955297]","1","0","4","","","","","","","",""
"pit-trial","99","733043","0.0-2.0-17.3-3.3","battery-v0.2","","""event"",""trial"",""time""
""fullscreenenter"",""1"",""1555""
","
","
","""event"",""trial"",""time""
""fullscreenenter"",""1"",""1555""
","
","","","1344.3000000044703","","","15","4099","957","&#9789;","elianto","#f73b6a7A"," "," ","1","-10","[2194.3000000044703]","1","0","4","","","","","","","",""
"pit-trial","100","737677","0.0-2.0-17.3-4.3","battery-v0.2","","""event"",""trial"",""time""
""fullscreenenter"",""1"",""1555""
","
","
","""event"",""trial"",""time""
""fullscreenenter"",""1"",""1555""
","
","","","1778.8999999985099","","","15","4099","957","&#9789;","elianto","#f73b6a7A"," "," ","1","0","[2629.2999999970198]","1","0","4","","","","","","","",""
"call-function","101","737680","0.0-2.0-18.0","battery-v0.2","","""event"",""trial"",""time""
""fullscreenenter"",""1"",""1555""
","
","
","""event"",""trial"",""time""
""fullscreenenter"",""1"",""1555""
","
","","","","","","","","","","","","","","","","","","","","","","","","","","",""
"pit-instructions","102","821867","0.0-2.0-19.0","battery-v0.2","","""event"",""trial"",""time""
""fullscreenenter"",""1"",""1555""
","
","
","""event"",""trial"",""time""
""fullscreenenter"",""1"",""1555""
","
","","[{""page_index"":0,""viewing_time"":9334.5},{""page_index"":1,""viewing_time"":9183.80000000447},{""page_index"":2,""viewing_time"":13383.79999999702},{""page_index"":3,""viewing_time"":9900.39999999851},{""page_index"":4,""viewing_time"":10883.80000000447},{""page_index"":5,""viewing_time"":10617.69999999553},{""page_index"":6,""viewing_time"":8940.60000000149},{""page_index"":7,""viewing_time"":6059.29999999702},{""page_index"":8,""viewing_time"":5883.60000000149}]","84188.80000000447","","","","","","","","","","","","","","","","","","","","","","","",""
"pit-comprehension","103","830917","0.0-2.0-20.0-0.0","battery-v0.2","","""event"",""trial"",""time""
""fullscreenenter"",""1"",""1555""
","
","
","""event"",""trial"",""time""
""fullscreenenter"",""1"",""1555""
","
","","","9045.30000000447","[""SPACE""]","0","15","4099","957","","","","","","","","","","","","","","","","","","",""
"pit-instructions","104","836200","0.0-2.0-20.0-1.0","battery-v0.2","","""event"",""trial"",""time""
""fullscreenenter"",""1"",""1555""
","
","
","""event"",""trial"",""time""
""fullscreenenter"",""1"",""1555""
","
","","[{""page_index"":0,""viewing_time"":5255.5999999940395}]","5256.5999999940395","","","","","","","","","","","","","","","","","","","","","","","",""
"pit-comprehension","105","842051","0.0-2.0-21.0-0.0","battery-v0.2","","""event"",""trial"",""time""
""fullscreenenter"",""1"",""1555""
","
","
","""event"",""trial"",""time""
""fullscreenenter"",""1"",""1555""
","
","","","5844.9000000059605","[""10""]","0","15","4099","957","","","","","","","","","","","","","","","","","","",""
"pit-instructions","106","847317","0.0-2.0-21.0-1.0","battery-v0.2","","""event"",""trial"",""time""
""fullscreenenter"",""1"",""1555""
","
","
","""event"",""trial"",""time""
""fullscreenenter"",""1"",""1555""
","
","","[{""page_index"":0,""viewing_time"":5237.20000000298}]","5238.20000000298","","","","","","","","","","","","","","","","","","","","","","","",""
"pit-comprehension","107","855568","0.0-2.0-22.0-0.0","battery-v0.2","","""event"",""trial"",""time""
""fullscreenenter"",""1"",""1555""
","
","
","""event"",""trial"",""time""
""fullscreenenter"",""1"",""1555""
","
","","","8245.60000000149","[""0""]","0","15","4099","957","","","","","","","","","","","","","","","","","","",""
"pit-instructions","108","861484","0.0-2.0-22.0-1.0","battery-v0.2","","""event"",""trial"",""time""
""fullscreenenter"",""1"",""1555""
","
","
","""event"",""trial"",""time""
""fullscreenenter"",""1"",""1555""
","
","","[{""page_index"":0,""viewing_time"":5891}]","5891.70000000298","","","","","","","","","","","","","","","","","","","","","","","",""
"pit-comprehension","109","870818","0.0-2.0-23.0-0.0","battery-v0.2","","""event"",""trial"",""time""
""fullscreenenter"",""1"",""1555""
","
","
","""event"",""trial"",""time""
""fullscreenenter"",""1"",""1555""
","
","","","9330.10000000149","[""False""]","1","15","4099","957","","","","","","","","","","","","","","","","","","",""
"pit-instructions","110","875483","0.0-2.0-23.0-1.0","battery-v0.2","","""event"",""trial"",""time""
""fullscreenenter"",""1"",""1555""
","
","
","""event"",""trial"",""time""
""fullscreenenter"",""1"",""1555""
","
","","[{""page_index"":0,""viewing_time"":4638}]","4638.60000000149","","","","","","","","","","","","","","","","","","","","","","","",""
"pit-instructions","111","876683","0.0-2.0-23.0-2.0-0.0","battery-v0.2","","""event"",""trial"",""time""
""fullscreenenter"",""1"",""1555""
","
","
","""event"",""trial"",""time""
""fullscreenenter"",""1"",""1555""
","
","","[{""page_index"":0,""viewing_time"":1196.7999999970198}]","1197.6000000014901","","","","","","","","","","","","","","","","","","","","","","","",""
"pit-comprehension","112","885184","0.0-2.0-23.1-0.1","battery-v0.2","","""event"",""trial"",""time""
""fullscreenenter"",""1"",""1555""
","
","
","""event"",""trial"",""time""
""fullscreenenter"",""1"",""1555""
","
","","","8496.80000000447","[""True""]","0","15","4099","957","","","","","","","","","","","","","","","","","","",""
"pit-instructions","113","887834","0.0-2.0-23.1-1.1","battery-v0.2","","""event"",""trial"",""time""
""fullscreenenter"",""1"",""1555""
","
","
","""event"",""trial"",""time""
""fullscreenenter"",""1"",""1555""
","
","","[{""page_index"":0,""viewing_time"":2623.1999999955297}]","2624","","","","","","","","","","","","","","","","","","","","","","","",""
"pit-comprehension","114","895352","0.0-2.0-24.0-0.0","battery-v0.2","","""event"",""trial"",""time""
""fullscreenenter"",""1"",""1555""
","
","
","""event"",""trial"",""time""
""fullscreenenter"",""1"",""1555""
","
","","","7513.5","[""True""]","0","15","4099","957","","","","","","","","","","","","","","","","","","",""
"pit-instructions","115","901250","0.0-2.0-24.0-1.0","battery-v0.2","","""event"",""trial"",""time""
""fullscreenenter"",""1"",""1555""
","
","
","""event"",""trial"",""time""
""fullscreenenter"",""1"",""1555""
","
","","[{""page_index"":0,""viewing_time"":5870.80000000447}]","5871.5","","","","","","","","","","","","","","","","","","","","","","","",""
"pit-comprehension","116","910118","0.0-2.0-25.0-0.0","battery-v0.2","","""event"",""trial"",""time""
""fullscreenenter"",""1"",""1555""
","
","
","""event"",""trial"",""time""
""fullscreenenter"",""1"",""1555""
","
","","","8863.30000000447","[""True""]","0","15","4099","957","","","","","","","","","","","","","","","","","","",""
"pit-instructions","117","914817","0.0-2.0-25.0-1.0","battery-v0.2","","""event"",""trial"",""time""
""fullscreenenter"",""1"",""1555""
","
","
","""event"",""trial"",""time""
""fullscreenenter"",""1"",""1555""
","
","","[{""page_index"":0,""viewing_time"":4670.19999999553}]","4670.89999999851","","","","","","","","","","","","","","","","","","","","","","","",""
"pit-comprehension","118","924185","0.0-2.0-26.0-0.0","battery-v0.2","","""event"",""trial"",""time""
""fullscreenenter"",""1"",""1555""
","
","
","""event"",""trial"",""time""
""fullscreenenter"",""1"",""1555""
","
","","","9362.80000000447","[""True""]","1","15","4099","957","","","","","","","","","","","","","","","","","","",""
"pit-instructions","119","927201","0.0-2.0-26.0-1.0","battery-v0.2","","""event"",""trial"",""time""
""fullscreenenter"",""1"",""1555""
","
","
","""event"",""trial"",""time""
""fullscreenenter"",""1"",""1555""
","
","","[{""page_index"":0,""viewing_time"":2986}]","2986.8000000044703","","","","","","","","","","","","","","","","","","","","","","","",""
"pit-instructions","120","928051","0.0-2.0-26.0-2.0-0.0","battery-v0.2","","""event"",""trial"",""time""
""fullscreenenter"",""1"",""1555""
","
","
","""event"",""trial"",""time""
""fullscreenenter"",""1"",""1555""
","
","","[{""page_index"":0,""viewing_time"":847}]","847.7999999970198","","","","","","","","","","","","","","","","","","","","","","","",""
"pit-comprehension","121","933618","0.0-2.0-26.1-0.1","battery-v0.2","","""event"",""trial"",""time""
""fullscreenenter"",""1"",""1555""
","
","
","""event"",""trial"",""time""
""fullscreenenter"",""1"",""1555""
","
","","","5562.89999999851","[""False""]","0","15","4099","957","","","","","","","","","","","","","","","","","","",""
"pit-instructions","122","938150","0.0-2.0-26.1-1.1","battery-v0.2","","""event"",""trial"",""time""
""fullscreenenter"",""1"",""1555""
","
","
","""event"",""trial"",""time""
""fullscreenenter"",""1"",""1555""
","
","","[{""page_index"":0,""viewing_time"":4502.5}]","4503.20000000298","","","","","","","","","","","","","","","","","","","","","","","",""
"pit-instructions","123","955617","0.0-3.0","battery-v0.2","","""event"",""trial"",""time""
""fullscreenenter"",""1"",""1555""
","
","
","""event"",""trial"",""time""
""fullscreenenter"",""1"",""1555""
","
","","[{""page_index"":0,""viewing_time"":4262.89999999851},{""page_index"":1,""viewing_time"":6700.60000000149},{""page_index"":2,""viewing_time"":6499.29999999702}]","17463.5","","","","","","","","","","","","","","","","","","","","","","","",""
"pit-trial","124","960478","0.0-4.0","battery-v0.2","","""event"",""trial"",""time""
""fullscreenenter"",""1"",""1555""
","
","
","""event"",""trial"",""time""
""fullscreenenter"",""1"",""1555""
","
","","","-1","","","15","4099","957","&#9733;","elianto","#3366ff99","-1","-1","1","+10","[2879.60000000149]","1","1","","","4099","1","2","2","win","no-go","0"
"pit-trial","125","964479","0.0-5.0","battery-v0.2","","""event"",""trial"",""time""
""fullscreenenter"",""1"",""1555""
","
","
","""event"",""trial"",""time""
""fullscreenenter"",""1"",""1555""
","
","","","1141.8999999985099","","","15","4099","957","&#9730;","elianto","#3366ff99"," "," ","1","0","[1992.2000000029802]","1","1","","","4099","2","1","1","win","go","1"
"pit-trial","126","968274","0.0-6.0","battery-v0.2","","""event"",""trial"",""time""
""fullscreenenter"",""1"",""1555""
","
","
","""event"",""trial"",""time""
""fullscreenenter"",""1"",""1555""
","
","","","935.3999999985099","","","15","4099","957","&#9752;","elianto","#f73b6a7A"," "," ","1","0","[1786]","1","1","","","4099","3","3","3","lose","go","0"
"pit-trial","127","972288","0.0-7.0","battery-v0.2","","""event"",""trial"",""time""
""fullscreenenter"",""1"",""1555""
","
","
","""event"",""trial"",""time""
""fullscreenenter"",""1"",""1555""
","
","","","1155.6000000014901","","","15","4099","957","&#9728;","elianto","#f73b6a7A","-1"," ","0","0","[2005.8000000044703]","1","1","","","4099","4","0","4","lose","no-go","1"
"pit-trial","128","975891","0.0-8.0","battery-v0.2","","""event"",""trial"",""time""
""fullscreenenter"",""1"",""1555""
","
","
","""event"",""trial"",""time""
""fullscreenenter"",""1"",""1555""
","
","","","742.2000000029802","","","15","4099","957","&#9733;","elianto","#3366ff99","-1"," ","0","+10","[1594.7000000029802]","1","1","","","4099","5","2","2","win","no-go","1"
"pit-trial","129","980681","0.0-9.0","battery-v0.2","","""event"",""trial"",""time""
""fullscreenenter"",""1"",""1555""
","
","
","""event"",""trial"",""time""
""fullscreenenter"",""1"",""1555""
","
","","","1930.6000000014901","","","15","4099","957","&#9730;","elianto","#3366ff99"," "," ","1","+10","[2781.10000000149]","1","1","","","4099","6","1","1","win","go","0"
"pit-trial","130","984691","0.0-10.0","battery-v0.2","","""event"",""trial"",""time""
""fullscreenenter"",""1"",""1555""
","
","
","""event"",""trial"",""time""
""fullscreenenter"",""1"",""1555""
","
","","","1153.1000000014901","","","15","4099","957","&#9728;","elianto","#f73b6a7A","-1"," ","0","-10","[2004.1999999955297]","1","1","","","4099","7","0","4","lose","no-go","0"
"pit-trial","131","989252","0.0-11.0","battery-v0.2","","""event"",""trial"",""time""
""fullscreenenter"",""1"",""1555""
","
","
","""event"",""trial"",""time""
""fullscreenenter"",""1"",""1555""
","
","","","1706.3999999985099","","","15","4099","957","&#9752;","elianto","#f73b6a7A"," "," ","1","0","[2556.6999999955297]","1","1","","","4099","8","3","3","lose","go","0"
"pit-trial","132","993023","0.0-12.0","battery-v0.2","","""event"",""trial"",""time""
""fullscreenenter"",""1"",""1555""
","
","
","""event"",""trial"",""time""
""fullscreenenter"",""1"",""1555""
","
","","","912.2000000029802","","","15","4099","957","&#9752;","elianto","#f73b6a7A"," "," ","1","0","[1764.5]","1","1","","","4099","9","3","3","lose","go","0"
"pit-trial","133","996623","0.0-13.0","battery-v0.2","","""event"",""trial"",""time""
""fullscreenenter"",""1"",""1555""
","
","
","""event"",""trial"",""time""
""fullscreenenter"",""1"",""1555""
","
","","","739.8999999985099","","","15","4099","957","&#9733;","elianto","#3366ff99","-1"," ","0","0","[1591.6000000014901]","1","1","","","4099","10","2","2","win","no-go","0"
"pit-trial","134","1001486","0.0-14.0","battery-v0.2","","""event"",""trial"",""time""
""fullscreenenter"",""1"",""1555""
","
","
","""event"",""trial"",""time""
""fullscreenenter"",""1"",""1555""
","
","","","-1","","","15","4099","957","&#9728;","elianto","#f73b6a7A","-1","-1","1","-10","[]","0","1","","","4099","11","0","4","lose","no-go","1"
"pit-trial","135","1005406","0.0-15.0","battery-v0.2","","""event"",""trial"",""time""
""fullscreenenter"",""1"",""1555""
","
","
","""event"",""trial"",""time""
""fullscreenenter"",""1"",""1555""
","
","","","1061.1000000014901","","","15","4099","957","&#9730;","elianto","#3366ff99"," "," ","1","+10","[1913.6999999955297]","1","1","","","4099","12","1","1","win","go","0"
"pit-trial","136","1009858","0.0-16.0","battery-v0.2","","""event"",""trial"",""time""
""fullscreenenter"",""1"",""1555""
","
","
","""event"",""trial"",""time""
""fullscreenenter"",""1"",""1555""
","
","","","1593.8999999985099","","","15","4099","957","&#9752;","elianto","#f73b6a7A"," "," ","1","0","[2445.1999999955297]","1","1","","","4099","13","3","3","lose","go","0"
"pit-trial","137","1013614","0.0-17.0","battery-v0.2","","""event"",""trial"",""time""
""fullscreenenter"",""1"",""1555""
","
","
","""event"",""trial"",""time""
""fullscreenenter"",""1"",""1555""
","
","","","899.0999999940395","","","15","4099","957","&#9733;","elianto","#3366ff99","-1"," ","0","0","[1749.3999999985099]","1","1","","","4099","14","2","2","win","no-go","0"
"pit-trial","138","1017482","0.0-18.0","battery-v0.2","","""event"",""trial"",""time""
""fullscreenenter"",""1"",""1555""
","
","
","""event"",""trial"",""time""
""fullscreenenter"",""1"",""1555""
","
","","","1010.8999999985099","","","15","4099","957","&#9730;","elianto","#3366ff99"," "," ","1","0","[1861.6999999955297]","1","1","","","4099","15","1","1","win","go","1"
"pit-trial","139","1022345","0.0-19.0","battery-v0.2","","""event"",""trial"",""time""
""fullscreenenter"",""1"",""1555""
","
","
","""event"",""trial"",""time""
""fullscreenenter"",""1"",""1555""
","
","","","-1","","","15","4099","957","&#9728;","elianto","#f73b6a7A","-1","-1","1","-10","[]","0","1","","","4099","16","0","4","lose","no-go","1"
"pit-trial","140","1026313","0.0-20.0","battery-v0.2","","""event"",""trial"",""time""
""fullscreenenter"",""1"",""1555""
","
","
","""event"",""trial"",""time""
""fullscreenenter"",""1"",""1555""
","
","","","1110.3000000044703","","","15","4099","957","&#9752;","elianto","#f73b6a7A"," "," ","1","0","[1960.7000000029802]","1","1","","","4099","17","3","3","lose","go","0"
"pit-trial","141","1031176","0.0-21.0","battery-v0.2","","""event"",""trial"",""time""
""fullscreenenter"",""1"",""1555""
","
","
","""event"",""trial"",""time""
""fullscreenenter"",""1"",""1555""
","
","","","-1","","","15","4099","957","&#9728;","elianto","#f73b6a7A","-1","-1","1","0","[]","0","1","","","4099","18","0","4","lose","no-go","0"
"pit-trial","142","1034712","0.0-22.0","battery-v0.2","","""event"",""trial"",""time""
""fullscreenenter"",""1"",""1555""
","
","
","""event"",""trial"",""time""
""fullscreenenter"",""1"",""1555""
","
","","","677","","","15","4099","957","&#9733;","elianto","#3366ff99","-1"," ","0","+10","[1527]","1","1","","","4099","19","2","2","win","no-go","1"
"pit-trial","143","1038252","0.0-23.0","battery-v0.2","","""event"",""trial"",""time""
""fullscreenenter"",""1"",""1555""
","
","
","""event"",""trial"",""time""
""fullscreenenter"",""1"",""1555""
","
","","","684.2000000029802","","","15","4099","957","&#9730;","elianto","#3366ff99"," "," ","1","+10","[1534.7000000029802]","1","1","","","4099","20","1","1","win","go","0"
"pit-instructions","144","1051418","0.0-24.0","battery-v0.2","","""event"",""trial"",""time""
""fullscreenenter"",""1"",""1555""
","
","
","""event"",""trial"",""time""
""fullscreenenter"",""1"",""1555""
","
","","[{""page_index"":0,""viewing_time"":7011.60000000149},{""page_index"":1,""viewing_time"":6150.29999999702}]","13162.5","","","","","","","","","","","","","","","","","","","","","","","",""
"pit-trial","145","1055571","0.0-25.0","battery-v0.2","","""event"",""trial"",""time""
""fullscreenenter"",""1"",""1555""
","
","
","""event"",""trial"",""time""
""fullscreenenter"",""1"",""1555""
","
","","","1291.6000000014901","","","15","4099","957","d","elianto","#3366ff99","-1"," ","0","0","[2143.5]","1","2","","","4099","21","1","2","win","no-go","0"
"pit-trial","146","1059377","0.0-26.0","battery-v0.2","","""event"",""trial"",""time""
""fullscreenenter"",""1"",""1555""
","
","
","""event"",""trial"",""time""
""fullscreenenter"",""1"",""1555""
","
","","","947.3000000044703","","","15","4099","957","e","elianto","#f73b6a7A"," "," ","1","0","[1799.8999999985099]","1","2","","","4099","22","2","3","lose","go","0"
"pit-trial","147","1063499","0.0-27.0","battery-v0.2","","""event"",""trial"",""time""
""fullscreenenter"",""1"",""1555""
","
","
","""event"",""trial"",""time""
""fullscreenenter"",""1"",""1555""
","
","","","1263.3999999985099","","","15","4099","957","w","elianto","#f73b6a7A","-1"," ","0","-10","[2113.5]","1","2","","","4099","23","3","4","lose","no-go","0"
"pit-trial","148","1067621","0.0-28.0","battery-v0.2","","""event"",""trial"",""time""
""fullscreenenter"",""1"",""1555""
","
","
","""event"",""trial"",""time""
""fullscreenenter"",""1"",""1555""
","
","","","1263","","","15","4099","957","j","elianto","#f73b6a7A"," "," ","1","0","[2113.60000000149]","1","2","","","4099","24","0","3","lose","go","0"
"pit-trial","149","1072162","0.0-29.0","battery-v0.2","","""event"",""trial"",""time""
""fullscreenenter"",""1"",""1555""
","
","
","""event"",""trial"",""time""
""fullscreenenter"",""1"",""1555""
","
","","","1678.5","","","15","4099","957","e","elianto","#f73b6a7A"," "," ","1","0","[2531.5999999940395]","1","2","","","4099","25","2","3","lose","go","0"
"pit-trial","150","1077024","0.0-30.0","battery-v0.2","","""event"",""trial"",""time""
""fullscreenenter"",""1"",""1555""
","
","
","""event"",""trial"",""time""
""fullscreenenter"",""1"",""1555""
","
","","","-1","","","15","4099","957","j","elianto","#f73b6a7A"," ","-1","0","0","[2990.39999999851]","1","2","","","4099","26","0","3","lose","go","1"
"pit-trial","151","1081887","0.0-31.0","battery-v0.2","","""event"",""trial"",""time""
""fullscreenenter"",""1"",""1555""
","
","
","""event"",""trial"",""time""
""fullscreenenter"",""1"",""1555""
","
","","","-1","","","15","4099","957","w","elianto","#f73b6a7A","-1","-1","1","-10","[]","0","2","","","4099","27","3","4","lose","no-go","1"
"pit-trial","152","1085800","0.0-32.0","battery-v0.2","","""event"",""trial"",""time""
""fullscreenenter"",""1"",""1555""
","
","
","""event"",""trial"",""time""
""fullscreenenter"",""1"",""1555""
","
","","","1054.5","","","15","4099","957","d","elianto","#3366ff99","-1"," ","0","0","[1906.6000000014901]","1","2","","","4099","28","1","2","win","no-go","0"
"pit-trial","153","1090664","0.0-33.0","battery-v0.2","","""event"",""trial"",""time""
""fullscreenenter"",""1"",""1555""
","
","
","""event"",""trial"",""time""
""fullscreenenter"",""1"",""1555""
","
","","","-1","","","15","4099","957","w","elianto","#f73b6a7A","-1","-1","1","0","[]","0","2","","","4099","29","3","4","lose","no-go","0"
"pit-trial","154","1094765","0.0-34.0","battery-v0.2","","""event"",""trial"",""time""
""fullscreenenter"",""1"",""1555""
","
","
","""event"",""trial"",""time""
""fullscreenenter"",""1"",""1555""
","
","","","1243.8000000044703","","","15","4099","957","d","elianto","#3366ff99","-1"," ","0","+10","[2094.7000000029802]","1","2","","","4099","30","1","2","win","no-go","1"
"pit-trial","155","1098717","0.0-35.0","battery-v0.2","","""event"",""trial"",""time""
""fullscreenenter"",""1"",""1555""
","
","
","""event"",""trial"",""time""
""fullscreenenter"",""1"",""1555""
","
","","","1094.2000000029802","","","15","4099","957","e","elianto","#f73b6a7A"," "," ","1","0","[1944.8999999985099]","1","2","","","4099","31","2","3","lose","go","0"
"pit-trial","156","1102279","0.0-36.0","battery-v0.2","","""event"",""trial"",""time""
""fullscreenenter"",""1"",""1555""
","
","
","""event"",""trial"",""time""
""fullscreenenter"",""1"",""1555""
","
","","","705.7000000029802","","","15","4099","957","j","elianto","#f73b6a7A"," "," ","1","0","[1556.8000000044703]","1","2","","","4099","32","0","3","lose","go","0"
"pit-trial","157","1105975","0.0-37.0","battery-v0.2","","""event"",""trial"",""time""
""fullscreenenter"",""1"",""1555""
","
","
","""event"",""trial"",""time""
""fullscreenenter"",""1"",""1555""
","
","","","837.8999999985099","","","15","4099","957","j","elianto","#f73b6a7A"," "," ","1","0","[1688.4000000059605]","1","2","","","4099","33","0","3","lose","go","0"
"pit-trial","158","1109612","0.0-38.0","battery-v0.2","","""event"",""trial"",""time""
""fullscreenenter"",""1"",""1555""
","
","
","""event"",""trial"",""time""
""fullscreenenter"",""1"",""1555""
","
","","","776.1000000014901","","","15","4099","957","d","elianto","#3366ff99","-1"," ","0","+10","[1627]","1","2","","","4099","34","1","2","win","no-go","1"
"pit-trial","159","1113292","0.0-39.0","battery-v0.2","","""event"",""trial"",""time""
""fullscreenenter"",""1"",""1555""
","
","
","""event"",""trial"",""time""
""fullscreenenter"",""1"",""1555""
","
","","","822.5","","","15","4099","957","e","elianto","#f73b6a7A"," "," ","1","0","[1672.9000000059605]","1","2","","","4099","35","2","3","lose","go","0"
"pit-trial","160","1118156","0.0-40.0","battery-v0.2","","""event"",""trial"",""time""
""fullscreenenter"",""1"",""1555""
","
","
","""event"",""trial"",""time""
""fullscreenenter"",""1"",""1555""
","
","","","-1","","","15","4099","957","w","elianto","#f73b6a7A","-1","-1","1","0","[]","0","2","","","4099","36","3","4","lose","no-go","0"
"pit-trial","161","1121836","0.0-41.0","battery-v0.2","","""event"",""trial"",""time""
""fullscreenenter"",""1"",""1555""
","
","
","""event"",""trial"",""time""
""fullscreenenter"",""1"",""1555""
","
","","","821.1999999955297","","","15","4099","957","j","elianto","#f73b6a7A"," "," ","1","0","[1673.1999999955297]","1","2","","","4099","37","0","3","lose","go","0"
"pit-trial","162","1125495","0.0-42.0","battery-v0.2","","""event"",""trial"",""time""
""fullscreenenter"",""1"",""1555""
","
","
","""event"",""trial"",""time""
""fullscreenenter"",""1"",""1555""
","
","","","800.3999999985099","","","15","4099","957","d","elianto","#3366ff99","-1"," ","0","0","[1652.2999999970198]","1","2","","","4099","38","1","2","win","no-go","0"
"pit-trial","163","1129152","0.0-43.0","battery-v0.2","","""event"",""trial"",""time""
""fullscreenenter"",""1"",""1555""
","
","
","""event"",""trial"",""time""
""fullscreenenter"",""1"",""1555""
","
","","","800.3999999985099","","","15","4099","957","e","elianto","#f73b6a7A"," "," ","1","0","[1650.6000000014901]","1","2","","","4099","39","2","3","lose","go","0"
"pit-trial","164","1134016","0.0-44.0","battery-v0.2","","""event"",""trial"",""time""
""fullscreenenter"",""1"",""1555""
","
","
","""event"",""trial"",""time""
""fullscreenenter"",""1"",""1555""
","
","","","-1","","","15","4099","957","w","elianto","#f73b6a7A","-1","-1","1","0","[]","0","2","","","4099","40","3","4","lose","no-go","0"
"pit-trial","165","1138880","0.0-45.0","battery-v0.2","","""event"",""trial"",""time""
""fullscreenenter"",""1"",""1555""
","
","
","""event"",""trial"",""time""
""fullscreenenter"",""1"",""1555""
","
","","","-1","","","15","4099","957","w","elianto","#f73b6a7A","-1","-1","1","0","[]","0","2","","","4099","41","3","4","lose","no-go","0"
"pit-trial","166","1142971","0.0-46.0","battery-v0.2","","""event"",""trial"",""time""
""fullscreenenter"",""1"",""1555""
","
","
","""event"",""trial"",""time""
""fullscreenenter"",""1"",""1555""
","
","","","1234.2000000029802","","","15","4099","957","e","elianto","#f73b6a7A"," "," ","1","0","[2084.89999999851]","1","2","","","4099","42","2","3","lose","go","0"
"pit-trial","167","1146485","0.0-47.0","battery-v0.2","","""event"",""trial"",""time""
""fullscreenenter"",""1"",""1555""
","
","
","""event"",""trial"",""time""
""fullscreenenter"",""1"",""1555""
","
","","","656","","","15","4099","957","j","elianto","#f73b6a7A"," "," ","1","0","[1507.5]","1","2","","","4099","43","0","3","lose","go","0"
"pit-trial","168","1150133","0.0-48.0","battery-v0.2","","""event"",""trial"",""time""
""fullscreenenter"",""1"",""1555""
","
","
","""event"",""trial"",""time""
""fullscreenenter"",""1"",""1555""
","
","","","789","","","15","4099","957","d","elianto","#3366ff99","-1"," ","0","0","[1641.2000000029802]","1","2","","","4099","44","1","2","win","no-go","0"
"pit-trial","169","1153808","0.0-49.0","battery-v0.2","","""event"",""trial"",""time""
""fullscreenenter"",""1"",""1555""
","
","
","""event"",""trial"",""time""
""fullscreenenter"",""1"",""1555""
","
","","","816.3999999985099","","","15","4099","957","d","elianto","#3366ff99","-1"," ","0","+10","[1667.8999999985099]","1","2","","","4099","45","1","2","win","no-go","1"
"pit-trial","170","1157456","0.0-50.0","battery-v0.2","","""event"",""trial"",""time""
""fullscreenenter"",""1"",""1555""
","
","
","""event"",""trial"",""time""
""fullscreenenter"",""1"",""1555""
","
","","","789.2999999970198","","","15","4099","957","j","elianto","#f73b6a7A"," "," ","1","-10","[1640.1000000014901]","1","2","","","4099","46","0","3","lose","go","1"
"pit-trial","171","1160890","0.0-51.0","battery-v0.2","","""event"",""trial"",""time""
""fullscreenenter"",""1"",""1555""
","
","
","""event"",""trial"",""time""
""fullscreenenter"",""1"",""1555""
","
","","","572.8999999985099","","","15","4099","957","e","elianto","#f73b6a7A"," "," ","1","0","[1426]","1","2","","","4099","47","2","3","lose","go","0"
"pit-trial","172","1165754","0.0-52.0","battery-v0.2","","""event"",""trial"",""time""
""fullscreenenter"",""1"",""1555""
","
","
","""event"",""trial"",""time""
""fullscreenenter"",""1"",""1555""
","
","","","-1","","","15","4099","957","w","elianto","#f73b6a7A","-1","-1","1","0","[]","0","2","","","4099","48","3","4","lose","no-go","0"
"pit-trial","173","1169589","0.0-53.0","battery-v0.2","","""event"",""trial"",""time""
""fullscreenenter"",""1"",""1555""
","
","
","""event"",""trial"",""time""
""fullscreenenter"",""1"",""1555""
","
","","","975.7000000029802","","","15","4099","957","e","elianto","#f73b6a7A"," "," ","1","0","[1828.3000000044703]","1","2","","","4099","49","2","3","lose","go","0"
"pit-trial","174","1173946","0.0-54.0","battery-v0.2","","""event"",""trial"",""time""
""fullscreenenter"",""1"",""1555""
","
","
","""event"",""trial"",""time""
""fullscreenenter"",""1"",""1555""
","
","","","1494.6000000014901","","","15","4099","957","d","elianto","#3366ff99","-1"," ","0","0","[2347.39999999851]","1","2","","","4099","50","1","2","win","no-go","0"
"pit-trial","175","1178383","0.0-55.0","battery-v0.2","","""event"",""trial"",""time""
""fullscreenenter"",""1"",""1555""
","
","
","""event"",""trial"",""time""
""fullscreenenter"",""1"",""1555""
","
","","","1581.3000000044703","","","15","4099","957","j","elianto","#f73b6a7A"," "," ","1","0","[2431.7000000029802]","1","2","","","4099","51","0","3","lose","go","0"
"pit-trial","176","1183247","0.0-56.0","battery-v0.2","","""event"",""trial"",""time""
""fullscreenenter"",""1"",""1555""
","
","
","""event"",""trial"",""time""
""fullscreenenter"",""1"",""1555""
","
","","","-1","","","15","4099","957","w","elianto","#f73b6a7A","-1","-1","1","-10","[]","0","2","","","4099","52","3","4","lose","no-go","1"
"pit-trial","177","1188111","0.0-57.0","battery-v0.2","","""event"",""trial"",""time""
""fullscreenenter"",""1"",""1555""
","
","
","""event"",""trial"",""time""
""fullscreenenter"",""1"",""1555""
","
","","","-1","","","15","4099","957","w","elianto","#f73b6a7A","-1","-1","1","0","[]","0","2","","","4099","53","3","4","lose","no-go","0"
"pit-trial","178","1191956","0.0-58.0","battery-v0.2","","""event"",""trial"",""time""
""fullscreenenter"",""1"",""1555""
","
","
","""event"",""trial"",""time""
""fullscreenenter"",""1"",""1555""
","
","","","988.6999999955297","","","15","4099","957","d","elianto","#3366ff99","-1"," ","0","0","[1838.5999999940395]","1","2","","","4099","54","1","2","win","no-go","0"
"pit-trial","179","1195962","0.0-59.0","battery-v0.2","","""event"",""trial"",""time""
""fullscreenenter"",""1"",""1555""
","
","
","""event"",""trial"",""time""
""fullscreenenter"",""1"",""1555""
","
","","","1145.5","","","15","4099","957","j","elianto","#f73b6a7A"," "," ","1","-10","[1998]","1","2","","","4099","55","0","3","lose","go","1"
"pit-trial","180","1199615","0.0-60.0","battery-v0.2","","""event"",""trial"",""time""
""fullscreenenter"",""1"",""1555""
","
","
","""event"",""trial"",""time""
""fullscreenenter"",""1"",""1555""
","
","","","796.7000000029802","","","15","4099","957","e","elianto","#f73b6a7A"," "," ","1","0","[1646.7999999970198]","1","2","","","4099","56","2","3","lose","go","0"
"pit-trial","181","1203076","0.0-61.0","battery-v0.2","","""event"",""trial"",""time""
""fullscreenenter"",""1"",""1555""
","
","
","""event"",""trial"",""time""
""fullscreenenter"",""1"",""1555""
","
","","","600.6000000014901","","","15","4099","957","j","elianto","#f73b6a7A"," "," ","1","-10","[1451.6000000014901]","1","2","","","4099","57","0","3","lose","go","1"
"pit-trial","182","1207225","0.0-62.0","battery-v0.2","","""event"",""trial"",""time""
""fullscreenenter"",""1"",""1555""
","
","
","""event"",""trial"",""time""
""fullscreenenter"",""1"",""1555""
","
","","","1290.3999999985099","","","15","4099","957","s","elianto","#3366ff99"," "," ","1","+10","[2141.3000000044703]","1","2","","","4099","58","4","1","win","go","0"
"pit-trial","183","1210820","0.0-63.0","battery-v0.2","","""event"",""trial"",""time""
""fullscreenenter"",""1"",""1555""
","
","
","""event"",""trial"",""time""
""fullscreenenter"",""1"",""1555""
","
","","","736.5999999940395","","","15","4099","957","e","elianto","#f73b6a7A"," "," ","1","0","[1588.3999999985099]","1","2","","","4099","59","2","3","lose","go","0"
"pit-trial","184","1215684","0.0-64.0","battery-v0.2","","""event"",""trial"",""time""
""fullscreenenter"",""1"",""1555""
","
","
","""event"",""trial"",""time""
""fullscreenenter"",""1"",""1555""
","
","","","-1","","","15","4099","957","w","elianto","#f73b6a7A","-1","-1","1","-10","[]","0","2","","","4099","60","3","4","lose","no-go","1"
"pit-trial","185","1220547","0.0-65.0","battery-v0.2","","""event"",""trial"",""time""
""fullscreenenter"",""1"",""1555""
","
","
","""event"",""trial"",""time""
""fullscreenenter"",""1"",""1555""
","
","","","-1","","","15","4099","957","w","elianto","#f73b6a7A","-1","-1","1","0","[]","0","2","","","4099","61","3","4","lose","no-go","0"
"pit-trial","186","1224562","0.0-66.0","battery-v0.2","","""event"",""trial"",""time""
""fullscreenenter"",""1"",""1555""
","
","
","""event"",""trial"",""time""
""fullscreenenter"",""1"",""1555""
","
","","","1155.7999999970198","","","15","4099","957","e","elianto","#f73b6a7A"," "," ","1","0","[2006.5]","1","2","","","4099","62","2","3","lose","go","0"
"pit-trial","187","1228498","0.0-67.0","battery-v0.2","","""event"",""trial"",""time""
""fullscreenenter"",""1"",""1555""
","
","
","""event"",""trial"",""time""
""fullscreenenter"",""1"",""1555""
","
","","","1078.7000000029802","","","15","4099","957","d","elianto","#3366ff99","-1"," ","0","+10","[1929]","1","2","","","4099","63","1","2","win","no-go","1"
"pit-trial","188","1232249","0.0-68.0","battery-v0.2","","""event"",""trial"",""time""
""fullscreenenter"",""1"",""1555""
","
","
","""event"",""trial"",""time""
""fullscreenenter"",""1"",""1555""
","
","","","894.8999999985099","","","15","4099","957","s","elianto","#3366ff99"," "," ","1","0","[1745.6000000014901]","1","2","","","4099","64","4","1","win","go","1"
"pit-trial","189","1236149","0.0-69.0","battery-v0.2","","""event"",""trial"",""time""
""fullscreenenter"",""1"",""1555""
","
","
","""event"",""trial"",""time""
""fullscreenenter"",""1"",""1555""
","
","","","1042.1999999955297","","","15","4099","957","s","elianto","#3366ff99"," "," ","1","+10","[1893.2999999970198]","1","2","","","4099","65","4","1","win","go","0"
"pit-trial","190","1241010","0.0-70.0","battery-v0.2","","""event"",""trial"",""time""
""fullscreenenter"",""1"",""1555""
","
","
","""event"",""trial"",""time""
""fullscreenenter"",""1"",""1555""
","
","","","-1","","","15","4099","957","w","elianto","#f73b6a7A","-1","-1","1","0","[]","0","2","","","4099","66","3","4","lose","no-go","0"
"pit-trial","191","1244983","0.0-71.0","battery-v0.2","","""event"",""trial"",""time""
""fullscreenenter"",""1"",""1555""
","
","
","""event"",""trial"",""time""
""fullscreenenter"",""1"",""1555""
","
","","","1117.3999999985099","","","15","4099","957","p","elianto","#3366ff99","-1"," ","0","0","[1967.5]","1","2","","","4099","67","5","2","win","no-go","0"
"pit-trial","192","1248861","0.0-72.0","battery-v0.2","","""event"",""trial"",""time""
""fullscreenenter"",""1"",""1555""
","
","
","""event"",""trial"",""time""
""fullscreenenter"",""1"",""1555""
","
","","","1020.5","","","15","4099","957","d","elianto","#3366ff99","-1"," ","0","0","[1871]","1","2","","","4099","68","1","2","win","no-go","0"
"pit-trial","193","1252380","0.0-73.0","battery-v0.2","","""event"",""trial"",""time""
""fullscreenenter"",""1"",""1555""
","
","
","""event"",""trial"",""time""
""fullscreenenter"",""1"",""1555""
","
","","","664.7999999970198","","","15","4099","957","p","elianto","#3366ff99","-1"," ","0","0","[1515.3999999985099]","1","2","","","4099","69","5","2","win","no-go","0"
"pit-trial","194","1257244","0.0-74.0","battery-v0.2","","""event"",""trial"",""time""
""fullscreenenter"",""1"",""1555""
","
","
","""event"",""trial"",""time""
""fullscreenenter"",""1"",""1555""
","
","","","-1","","","15","4099","957","s","elianto","#3366ff99"," ","-1","0","0","[2944]","1","2","","","4099","70","4","1","win","go","0"
"pit-trial","195","1260620","0.0-75.0","battery-v0.2","","""event"",""trial"",""time""
""fullscreenenter"",""1"",""1555""
","
","
","""event"",""trial"",""time""
""fullscreenenter"",""1"",""1555""
","
","","","517.7000000029802","","","15","4099","957","e","elianto","#f73b6a7A"," "," ","1","0","[1369.1999999955297]","1","2","","","4099","71","2","3","lose","go","0"
"pit-trial","196","1264305","0.0-76.0","battery-v0.2","","""event"",""trial"",""time""
""fullscreenenter"",""1"",""1555""
","
","
","""event"",""trial"",""time""
""fullscreenenter"",""1"",""1555""
","
","","","824.6000000014901","","","15","4099","957","d","elianto","#3366ff99","-1"," ","0","0","[1676.3999999985099]","1","2","","","4099","72","1","2","win","no-go","0"
"pit-trial","197","1269169","0.0-77.0","battery-v0.2","","""event"",""trial"",""time""
""fullscreenenter"",""1"",""1555""
","
","
","""event"",""trial"",""time""
""fullscreenenter"",""1"",""1555""
","
","","","-1","","","15","4099","957","w","elianto","#f73b6a7A","-1","-1","1","0","[]","0","2","","","4099","73","3","4","lose","no-go","0"
"pit-trial","198","1274033","0.0-78.0","battery-v0.2","","""event"",""trial"",""time""
""fullscreenenter"",""1"",""1555""
","
","
","""event"",""trial"",""time""
""fullscreenenter"",""1"",""1555""
","
","","","-1","","","15","4099","957","d","elianto","#3366ff99","-1","-1","1","+10","[]","0","2","","","4099","74","1","2","win","no-go","0"
"pit-trial","199","1277660","0.0-79.0","battery-v0.2","","""event"",""trial"",""time""
""fullscreenenter"",""1"",""1555""
","
","
","""event"",""trial"",""time""
""fullscreenenter"",""1"",""1555""
","
","","","766.2000000029802","","","15","4099","957","p","elianto","#3366ff99","-1"," ","0","+10","[1616.6000000014901]","1","2","","","4099","75","5","2","win","no-go","1"
"pit-trial","200","1281654","0.0-80.0","battery-v0.2","","""event"",""trial"",""time""
""fullscreenenter"",""1"",""1555""
","
","
","""event"",""trial"",""time""
""fullscreenenter"",""1"",""1555""
","
","","","1136.3999999985099","","","15","4099","957","s","elianto","#3366ff99"," "," ","1","+10","[1986.8000000044703]","1","2","","","4099","76","4","1","win","go","0"
"pit-trial","201","1285365","0.0-81.0","battery-v0.2","","""event"",""trial"",""time""
""fullscreenenter"",""1"",""1555""
","
","
","""event"",""trial"",""time""
""fullscreenenter"",""1"",""1555""
","
","","","848.7000000029802","","","15","4099","957","s","elianto","#3366ff99"," "," ","1","+10","[1701.2999999970198]","1","2","","","4099","77","4","1","win","go","0"
"pit-trial","202","1289158","0.0-82.0","battery-v0.2","","""event"",""trial"",""time""
""fullscreenenter"",""1"",""1555""
","
","
","""event"",""trial"",""time""
""fullscreenenter"",""1"",""1555""
","
","","","933.6000000014901","","","15","4099","957","p","elianto","#3366ff99","-1"," ","0","0","[1783.8999999985099]","1","2","","","4099","78","5","2","win","no-go","0"
"pit-trial","203","1294022","0.0-83.0","battery-v0.2","","""event"",""trial"",""time""
""fullscreenenter"",""1"",""1555""
","
","
","""event"",""trial"",""time""
""fullscreenenter"",""1"",""1555""
","
","","","-1","","","15","4099","957","w","elianto","#f73b6a7A","-1","-1","1","-10","[]","0","2","","","4099","79","3","4","lose","no-go","1"
"pit-trial","204","1298299","0.0-84.0","battery-v0.2","","""event"",""trial"",""time""
""fullscreenenter"",""1"",""1555""
","
","
","""event"",""trial"",""time""
""fullscreenenter"",""1"",""1555""
","
","","","1417.6000000014901","","","15","4099","957","s","elianto","#3366ff99"," "," ","1","0","[2270.2999999970198]","1","2","","","4099","80","4","1","win","go","1"
"pit-trial","205","1303163","0.0-85.0","battery-v0.2","","""event"",""trial"",""time""
""fullscreenenter"",""1"",""1555""
","
","
","""event"",""trial"",""time""
""fullscreenenter"",""1"",""1555""
","
","","","-1","","","15","4099","957","w","elianto","#f73b6a7A","-1","-1","1","-10","[]","0","2","","","4099","81","3","4","lose","no-go","1"
"pit-trial","206","1307238","0.0-86.0","battery-v0.2","","""event"",""trial"",""time""
""fullscreenenter"",""1"",""1555""
","
","
","""event"",""trial"",""time""
""fullscreenenter"",""1"",""1555""
","
","","","1215.5","","","15","4099","957","s","elianto","#3366ff99"," "," ","1","0","[2065.5999999940395]","1","2","","","4099","82","4","1","win","go","1"
"pit-trial","207","1311003","0.0-87.0","battery-v0.2","","""event"",""trial"",""time""
""fullscreenenter"",""1"",""1555""
","
","
","""event"",""trial"",""time""
""fullscreenenter"",""1"",""1555""
","
","","","905.1000000014901","","","15","4099","957","a","elianto","#f73b6a7A","-1"," ","0","-10","[1757.6999999955297]","1","2","","","4099","83","7","4","lose","no-go","0"
"pit-trial","208","1314810","0.0-88.0","battery-v0.2","","""event"",""trial"",""time""
""fullscreenenter"",""1"",""1555""
","
","
","""event"",""trial"",""time""
""fullscreenenter"",""1"",""1555""
","
","","","948.5","","","15","4099","957","p","elianto","#3366ff99","-1"," ","0","+10","[1800.3999999985099]","1","2","","","4099","84","5","2","win","no-go","1"
"pit-trial","209","1319674","0.0-89.0","battery-v0.2","","""event"",""trial"",""time""
""fullscreenenter"",""1"",""1555""
","
","
","""event"",""trial"",""time""
""fullscreenenter"",""1"",""1555""
","
","","","-1","","","15","4099","957","s","elianto","#3366ff99"," ","-1","0","0","[]","0","2","","","4099","85","4","1","win","go","0"
"pit-trial","210","1323732","0.0-90.0","battery-v0.2","","""event"",""trial"",""time""
""fullscreenenter"",""1"",""1555""
","
","
","""event"",""trial"",""time""
""fullscreenenter"",""1"",""1555""
","
","","","1199","","","15","4099","957","g","elianto","#f73b6a7A"," "," ","1","0","[2050.6999999955297]","1","2","","","4099","86","6","3","lose","go","0"
"pit-trial","211","1328591","0.0-91.0","battery-v0.2","","""event"",""trial"",""time""
""fullscreenenter"",""1"",""1555""
","
","
","""event"",""trial"",""time""
""fullscreenenter"",""1"",""1555""
","
","","","-1","","","15","4099","957","a","elianto","#f73b6a7A","-1","-1","1","-10","[]","0","2","","","4099","87","7","4","lose","no-go","1"
"pit-trial","212","1332527","0.0-92.0","battery-v0.2","","""event"",""trial"",""time""
""fullscreenenter"",""1"",""1555""
","
","
","""event"",""trial"",""time""
""fullscreenenter"",""1"",""1555""
","
","","","1075.6999999955297","","","15","4099","957","p","elianto","#3366ff99","-1"," ","0","0","[1927.5]","1","2","","","4099","88","5","2","win","no-go","0"
"pit-trial","213","1336809","0.0-93.0","battery-v0.2","","""event"",""trial"",""time""
""fullscreenenter"",""1"",""1555""
","
","
","""event"",""trial"",""time""
""fullscreenenter"",""1"",""1555""
","
","","","1425.3999999985099","","","15","4099","957","p","elianto","#3366ff99","-1"," ","0","0","[2276.2000000029802]","1","2","","","4099","89","5","2","win","no-go","0"
"pit-trial","214","1340623","0.0-94.0","battery-v0.2","","""event"",""trial"",""time""
""fullscreenenter"",""1"",""1555""
","
","
","""event"",""trial"",""time""
""fullscreenenter"",""1"",""1555""
","
","","","957","","","15","4099","957","g","elianto","#f73b6a7A"," "," ","1","0","[1807.3999999985099]","1","2","","","4099","90","6","3","lose","go","0"
"pit-trial","215","1344191","0.0-95.0","battery-v0.2","","""event"",""trial"",""time""
""fullscreenenter"",""1"",""1555""
","
","
","""event"",""trial"",""time""
""fullscreenenter"",""1"",""1555""
","
","","","706.6999999955297","","","15","4099","957","s","elianto","#3366ff99"," "," ","1","+10","[1559.7000000029802]","1","2","","","4099","91","4","1","win","go","0"
"pit-trial","216","1349054","0.0-96.0","battery-v0.2","","""event"",""trial"",""time""
""fullscreenenter"",""1"",""1555""
","
","
","""event"",""trial"",""time""
""fullscreenenter"",""1"",""1555""
","
","","","-1","","","15","4099","957","a","elianto","#f73b6a7A","-1","-1","1","0","[]","0","2","","","4099","92","7","4","lose","no-go","0"
"pit-trial","217","1352921","0.0-97.0","battery-v0.2","","""event"",""trial"",""time""
""fullscreenenter"",""1"",""1555""
","
","
","""event"",""trial"",""time""
""fullscreenenter"",""1"",""1555""
","
","","","1006","","","15","4099","957","l","elianto","#3366ff99"," "," ","1","+10","[1858.2000000029802]","1","2","","","4099","93","8","1","win","go","0"
"pit-trial","218","1357785","0.0-98.0","battery-v0.2","","""event"",""trial"",""time""
""fullscreenenter"",""1"",""1555""
","
","
","""event"",""trial"",""time""
""fullscreenenter"",""1"",""1555""
","
","","","-1","","","15","4099","957","a","elianto","#f73b6a7A","-1","-1","1","0","[]","0","2","","","4099","94","7","4","lose","no-go","0"
"pit-trial","219","1361417","0.0-99.0","battery-v0.2","","""event"",""trial"",""time""
""fullscreenenter"",""1"",""1555""
","
","
","""event"",""trial"",""time""
""fullscreenenter"",""1"",""1555""
","
","","","771.6000000014901","","","15","4099","957","g","elianto","#f73b6a7A"," "," ","1","0","[1623.2999999970198]","1","2","","","4099","95","6","3","lose","go","0"
"pit-trial","220","1366280","0.0-100.0","battery-v0.2","","""event"",""trial"",""time""
""fullscreenenter"",""1"",""1555""
","
","
","""event"",""trial"",""time""
""fullscreenenter"",""1"",""1555""
","
","","","-1","","","15","4099","957","p","elianto","#3366ff99","-1","-1","1","0","[]","0","2","","","4099","96","5","2","win","no-go","1"
"pit-trial","221","1370102","0.0-101.0","battery-v0.2","","""event"",""trial"",""time""
""fullscreenenter"",""1"",""1555""
","
","
","""event"",""trial"",""time""
""fullscreenenter"",""1"",""1555""
","
","","","961.9000000059605","","","15","4099","957","l","elianto","#3366ff99"," "," ","1","+10","[1812.2000000029802]","1","2","","","4099","97","8","1","win","go","0"
"pit-trial","222","1374963","0.0-102.0","battery-v0.2","","""event"",""trial"",""time""
""fullscreenenter"",""1"",""1555""
","
","
","""event"",""trial"",""time""
""fullscreenenter"",""1"",""1555""
","
","","","-1","","","15","4099","957","p","elianto","#3366ff99","-1","-1","1","0","[]","0","2","","","4099","98","5","2","win","no-go","1"
"pit-trial","223","1378573","0.0-103.0","battery-v0.2","","""event"",""trial"",""time""
""fullscreenenter"",""1"",""1555""
","
","
","""event"",""trial"",""time""
""fullscreenenter"",""1"",""1555""
","
","","","754.5999999940395","","","15","4099","957","g","elianto","#f73b6a7A"," "," ","1","-10","[1604.8999999985099]","1","2","","","4099","99","6","3","lose","go","1"
"pit-trial","224","1383438","0.0-104.0","battery-v0.2","","""event"",""trial"",""time""
""fullscreenenter"",""1"",""1555""
","
","
","""event"",""trial"",""time""
""fullscreenenter"",""1"",""1555""
","
","","","-1","","","15","4099","957","a","elianto","#f73b6a7A","-1","-1","1","0","[]","0","2","","","4099","100","7","4","lose","no-go","0"
"pit-trial","225","1387182","0.0-105.0","battery-v0.2","","""event"",""trial"",""time""
""fullscreenenter"",""1"",""1555""
","
","
","""event"",""trial"",""time""
""fullscreenenter"",""1"",""1555""
","
","","","882.5","","","15","4099","957","u","elianto","#3366ff99"," "," ","1","+10","[1734.6000000014901]","1","2","","","4099","101","9","1","win","go","0"
"pit-trial","226","1391087","0.0-106.0","battery-v0.2","","""event"",""trial"",""time""
""fullscreenenter"",""1"",""1555""
","
","
","""event"",""trial"",""time""
""fullscreenenter"",""1"",""1555""
","
","","","1046.7999999970198","","","15","4099","957","l","elianto","#3366ff99"," "," ","1","+10","[1897.4000000059605]","1","2","","","4099","102","8","1","win","go","0"
"pit-trial","227","1395949","0.0-107.0","battery-v0.2","","""event"",""trial"",""time""
""fullscreenenter"",""1"",""1555""
","
","
","""event"",""trial"",""time""
""fullscreenenter"",""1"",""1555""
","
","","","-1","","","15","4099","957","a","elianto","#f73b6a7A","-1","-1","1","0","[]","0","2","","","4099","103","7","4","lose","no-go","0"
"pit-trial","228","1400813","0.0-108.0","battery-v0.2","","""event"",""trial"",""time""
""fullscreenenter"",""1"",""1555""
","
","
","""event"",""trial"",""time""
""fullscreenenter"",""1"",""1555""
","
","","","-1","","","15","4099","957","p","elianto","#3366ff99","-1","-1","1","+10","[]","0","2","","","4099","104","5","2","win","no-go","0"
"pit-trial","229","1405037","0.0-109.0","battery-v0.2","","""event"",""trial"",""time""
""fullscreenenter"",""1"",""1555""
","
","
","""event"",""trial"",""time""
""fullscreenenter"",""1"",""1555""
","
","","","1363.0999999940395","","","15","4099","957","g","elianto","#f73b6a7A"," "," ","1","0","[2213.3000000044703]","1","2","","","4099","105","6","3","lose","go","0"
"pit-trial","230","1408812","0.0-110.0","battery-v0.2","","""event"",""trial"",""time""
""fullscreenenter"",""1"",""1555""
","
","
","""event"",""trial"",""time""
""fullscreenenter"",""1"",""1555""
","
","","","918.3000000044703","","","15","4099","957","u","elianto","#3366ff99"," "," ","1","+10","[1770.6000000014901]","1","2","","","4099","106","9","1","win","go","0"
"pit-trial","231","1412608","0.0-111.0","battery-v0.2","","""event"",""trial"",""time""
""fullscreenenter"",""1"",""1555""
","
","
","""event"",""trial"",""time""
""fullscreenenter"",""1"",""1555""
","
","","","936.8000000044703","","","15","4099","957","l","elianto","#3366ff99"," "," ","1","+10","[1787.2000000029802]","1","2","","","4099","107","8","1","win","go","0"
"pit-trial","232","1416646","0.0-112.0","battery-v0.2","","""event"",""trial"",""time""
""fullscreenenter"",""1"",""1555""
","
","
","""event"",""trial"",""time""
""fullscreenenter"",""1"",""1555""
","
","","","1182.3000000044703","","","15","4099","957","s","elianto","#3366ff99"," "," ","1","+10","[2034.1000000014901]","1","2","","","4099","108","4","1","win","go","0"
"pit-trial","233","1420353","0.0-113.0","battery-v0.2","","""event"",""trial"",""time""
""fullscreenenter"",""1"",""1555""
","
","
","""event"",""trial"",""time""
""fullscreenenter"",""1"",""1555""
","
","","","847.8999999985099","","","15","4099","957","u","elianto","#3366ff99"," "," ","1","0","[1698.2999999970198]","1","2","","","4099","109","9","1","win","go","1"
"pit-trial","234","1425217","0.0-114.0","battery-v0.2","","""event"",""trial"",""time""
""fullscreenenter"",""1"",""1555""
","
","
","""event"",""trial"",""time""
""fullscreenenter"",""1"",""1555""
","
","","","-1","","","15","4099","957","p","elianto","#3366ff99","-1","-1","1","+10","[]","0","2","","","4099","110","5","2","win","no-go","0"
"pit-trial","235","1428838","0.0-115.0","battery-v0.2","","""event"",""trial"",""time""
""fullscreenenter"",""1"",""1555""
","
","
","""event"",""trial"",""time""
""fullscreenenter"",""1"",""1555""
","
","","","764.9000000059605","","","15","4099","957","g","elianto","#f73b6a7A"," "," ","1","0","[1615.7000000029802]","1","2","","","4099","111","6","3","lose","go","0"
"pit-trial","236","1432641","0.0-116.0","battery-v0.2","","""event"",""trial"",""time""
""fullscreenenter"",""1"",""1555""
","
","
","""event"",""trial"",""time""
""fullscreenenter"",""1"",""1555""
","
","","","941.7999999970198","","","15","4099","957","l","elianto","#3366ff99"," "," ","1","+10","[1794.1000000014901]","1","2","","","4099","112","8","1","win","go","0"
"pit-trial","237","1436379","0.0-117.0","battery-v0.2","","""event"",""trial"",""time""
""fullscreenenter"",""1"",""1555""
","
","
","""event"",""trial"",""time""
""fullscreenenter"",""1"",""1555""
","
","","","878.5","","","15","4099","957","l","elianto","#3366ff99"," "," ","1","+10","[1731]","1","2","","","4099","113","8","1","win","go","0"
"pit-trial","238","1440399","0.0-118.0","battery-v0.2","","""event"",""trial"",""time""
""fullscreenenter"",""1"",""1555""
","
","
","""event"",""trial"",""time""
""fullscreenenter"",""1"",""1555""
","
","","","1165.1000000014901","","","15","4099","957","u","elianto","#3366ff99"," "," ","1","+10","[2015.2999999970198]","1","2","","","4099","114","9","1","win","go","0"
"pit-trial","239","1445259","0.0-119.0","battery-v0.2","","""event"",""trial"",""time""
""fullscreenenter"",""1"",""1555""
","
","
","""event"",""trial"",""time""
""fullscreenenter"",""1"",""1555""
","
","","","-1","","","15","4099","957","p","elianto","#3366ff99","-1","-1","1","+10","[]","0","2","","","4099","115","5","2","win","no-go","0"
"pit-trial","240","1448880","0.0-120.0","battery-v0.2","","""event"",""trial"",""time""
""fullscreenenter"",""1"",""1555""
","
","
","""event"",""trial"",""time""
""fullscreenenter"",""1"",""1555""
","
","","","763","","","15","4099","957","g","elianto","#f73b6a7A"," "," ","1","0","[1614.3999999985099]","1","2","","","4099","116","6","3","lose","go","0"
"pit-trial","241","1452779","0.0-121.0","battery-v0.2","","""event"",""trial"",""time""
""fullscreenenter"",""1"",""1555""
","
","
","""event"",""trial"",""time""
""fullscreenenter"",""1"",""1555""
","
","","","1043","","","15","4099","957","l","elianto","#3366ff99"," "," ","1","+10","[1893.2999999970198]","1","2","","","4099","117","8","1","win","go","0"
"pit-trial","242","1456539","0.0-122.0","battery-v0.2","","""event"",""trial"",""time""
""fullscreenenter"",""1"",""1555""
","
","
","""event"",""trial"",""time""
""fullscreenenter"",""1"",""1555""
","
","","","903.5","","","15","4099","957","u","elianto","#3366ff99"," "," ","1","0","[1754]","1","2","","","4099","118","9","1","win","go","1"
"pit-trial","243","1460101","0.0-123.0","battery-v0.2","","""event"",""trial"",""time""
""fullscreenenter"",""1"",""1555""
","
","
","""event"",""trial"",""time""
""fullscreenenter"",""1"",""1555""
","
","","","704.6999999955297","","","15","4099","957","g","elianto","#f73b6a7A"," "," ","1","0","[1557.6000000014901]","1","2","","","4099","119","6","3","lose","go","0"
"pit-trial","244","1464965","0.0-124.0","battery-v0.2","","""event"",""trial"",""time""
""fullscreenenter"",""1"",""1555""
","
","
","""event"",""trial"",""time""
""fullscreenenter"",""1"",""1555""
","
","","","-1","","","15","4099","957","p","elianto","#3366ff99","-1","-1","1","+10","[]","0","2","","","4099","120","5","2","win","no-go","0"
"pit-trial","245","1468576","0.0-125.0","battery-v0.2","","""event"",""trial"",""time""
""fullscreenenter"",""1"",""1555""
","
","
","""event"",""trial"",""time""
""fullscreenenter"",""1"",""1555""
","
","","","750.7000000029802","","","15","4099","957","u","elianto","#3366ff99"," "," ","1","+10","[1601.8000000044703]","1","2","","","4099","121","9","1","win","go","0"
"pit-trial","246","1473434","0.0-126.0","battery-v0.2","","""event"",""trial"",""time""
""fullscreenenter"",""1"",""1555""
","
","
","""event"",""trial"",""time""
""fullscreenenter"",""1"",""1555""
","
","","","-1","","","15","4099","957","a","elianto","#f73b6a7A","-1","-1","1","-10","[]","0","2","","","4099","122","7","4","lose","no-go","1"
"pit-trial","247","1477356","0.0-127.0","battery-v0.2","","""event"",""trial"",""time""
""fullscreenenter"",""1"",""1555""
","
","
","""event"",""trial"",""time""
""fullscreenenter"",""1"",""1555""
","
","","","1061","","","15","4099","957","g","elianto","#f73b6a7A"," "," ","1","0","[1911.6000000014901]","1","2","","","4099","123","6","3","lose","go","0"
"pit-trial","248","1481135","0.0-128.0","battery-v0.2","","""event"",""trial"",""time""
""fullscreenenter"",""1"",""1555""
","
","
","""event"",""trial"",""time""
""fullscreenenter"",""1"",""1555""
","
","","","918.2000000029802","","","15","4099","957","l","elianto","#3366ff99"," "," ","1","+10","[1770.8000000044703]","1","2","","","4099","124","8","1","win","go","0"
"pit-trial","249","1486000","0.0-129.0","battery-v0.2","","""event"",""trial"",""time""
""fullscreenenter"",""1"",""1555""
","
","
","""event"",""trial"",""time""
""fullscreenenter"",""1"",""1555""
","
","","","-1","","","15","4099","957","g","elianto","#f73b6a7A"," ","-1","0","0","[3377.39999999851]","1","2","","","4099","125","6","3","lose","go","1"
"pit-trial","250","1490223","0.0-130.0","battery-v0.2","","""event"",""trial"",""time""
""fullscreenenter"",""1"",""1555""
","
","
","""event"",""trial"",""time""
""fullscreenenter"",""1"",""1555""
","
","","","1363.1000000014901","","","15","4099","957","u","elianto","#3366ff99"," "," ","1","+10","[2214.10000000149]","1","2","","","4099","126","9","1","win","go","0"
"pit-trial","251","1494565","0.0-131.0","battery-v0.2","","""event"",""trial"",""time""
""fullscreenenter"",""1"",""1555""
","
","
","""event"",""trial"",""time""
""fullscreenenter"",""1"",""1555""
","
","","","1479.2000000029802","","","15","4099","957","l","elianto","#3366ff99"," "," ","1","+10","[2332.2999999970198]","1","2","","","4099","127","8","1","win","go","0"
"pit-trial","252","1499429","0.0-132.0","battery-v0.2","","""event"",""trial"",""time""
""fullscreenenter"",""1"",""1555""
","
","
","""event"",""trial"",""time""
""fullscreenenter"",""1"",""1555""
","
","","","-1","","","15","4099","957","a","elianto","#f73b6a7A","-1","-1","1","-10","[]","0","2","","","4099","128","7","4","lose","no-go","1"
"pit-trial","253","1503241","0.0-133.0","battery-v0.2","","""event"",""trial"",""time""
""fullscreenenter"",""1"",""1555""
","
","
","""event"",""trial"",""time""
""fullscreenenter"",""1"",""1555""
","
","","","956.3999999985099","","","15","4099","957","u","elianto","#3366ff99"," "," ","1","+10","[1806.9000000059605]","1","2","","","4099","129","9","1","win","go","0"
"pit-trial","254","1507129","0.0-134.0","battery-v0.2","","""event"",""trial"",""time""
""fullscreenenter"",""1"",""1555""
","
","
","""event"",""trial"",""time""
""fullscreenenter"",""1"",""1555""
","
","","","1028.6000000014901","","","15","4099","957","l","elianto","#3366ff99"," "," ","1","+10","[1881.6000000014901]","1","2","","","4099","130","8","1","win","go","0"
"pit-trial","255","1511993","0.0-135.0","battery-v0.2","","""event"",""trial"",""time""
""fullscreenenter"",""1"",""1555""
","
","
","""event"",""trial"",""time""
""fullscreenenter"",""1"",""1555""
","
","","","-1","","","15","4099","957","a","elianto","#f73b6a7A","-1","-1","1","0","[]","0","2","","","4099","131","7","4","lose","no-go","0"
"pit-trial","256","1515672","0.0-136.0","battery-v0.2","","""event"",""trial"",""time""
""fullscreenenter"",""1"",""1555""
","
","
","""event"",""trial"",""time""
""fullscreenenter"",""1"",""1555""
","
","","","823.0999999940395","","","15","4099","957","g","elianto","#f73b6a7A"," "," ","1","0","[1674.5]","1","2","","","4099","132","6","3","lose","go","0"
"pit-trial","257","1519518","0.0-137.0","battery-v0.2","","""event"",""trial"",""time""
""fullscreenenter"",""1"",""1555""
","
","
","""event"",""trial"",""time""
""fullscreenenter"",""1"",""1555""
","
","","","985","","","15","4099","957","l","elianto","#3366ff99"," "," ","1","+10","[1836.5]","1","2","","","4099","133","8","1","win","go","0"
"pit-trial","258","1523089","0.0-138.0","battery-v0.2","","""event"",""trial"",""time""
""fullscreenenter"",""1"",""1555""
","
","
","""event"",""trial"",""time""
""fullscreenenter"",""1"",""1555""
","
","","","713.1999999955297","","","15","4099","957","u","elianto","#3366ff99"," "," ","1","+10","[1564.0999999940395]","1","2","","","4099","134","9","1","win","go","0"
"pit-trial","259","1526520","0.0-139.0","battery-v0.2","","""event"",""trial"",""time""
""fullscreenenter"",""1"",""1555""
","
","
","""event"",""trial"",""time""
""fullscreenenter"",""1"",""1555""
","
","","","574.1000000014901","","","15","4099","957","g","elianto","#f73b6a7A"," "," ","1","-10","[1425.2999999970198]","1","2","","","4099","135","6","3","lose","go","1"
"pit-trial","260","1531384","0.0-140.0","battery-v0.2","","""event"",""trial"",""time""
""fullscreenenter"",""1"",""1555""
","
","
","""event"",""trial"",""time""
""fullscreenenter"",""1"",""1555""
","
","","","-1","","","15","4099","957","a","elianto","#f73b6a7A","-1","-1","1","0","[]","0","2","","","4099","136","7","4","lose","no-go","0"
"pit-trial","261","1536248","0.0-141.0","battery-v0.2","","""event"",""trial"",""time""
""fullscreenenter"",""1"",""1555""
","
","
","""event"",""trial"",""time""
""fullscreenenter"",""1"",""1555""
","
","","","-1","","","15","4099","957","u","elianto","#3366ff99"," ","-1","0","0","[2933.60000000149]","1","2","","","4099","137","9","1","win","go","0"
"pit-trial","262","1539735","0.0-142.0","battery-v0.2","","""event"",""trial"",""time""
""fullscreenenter"",""1"",""1555""
","
","
","""event"",""trial"",""time""
""fullscreenenter"",""1"",""1555""
","
","","","628.8999999985099","","","15","4099","957","g","elianto","#f73b6a7A"," "," ","1","-10","[1479]","1","2","","","4099","138","6","3","lose","go","1"
"pit-trial","263","1544600","0.0-143.0","battery-v0.2","","""event"",""trial"",""time""
""fullscreenenter"",""1"",""1555""
","
","
","""event"",""trial"",""time""
""fullscreenenter"",""1"",""1555""
","
","","","-1","","","15","4099","957","a","elianto","#f73b6a7A","-1","-1","1","0","[]","0","2","","","4099","139","7","4","lose","no-go","0"
"pit-trial","264","1548690","0.0-144.0","battery-v0.2","","""event"",""trial"",""time""
""fullscreenenter"",""1"",""1555""
","
","
","""event"",""trial"",""time""
""fullscreenenter"",""1"",""1555""
","
","","","1234.6000000014901","","","15","4099","957","l","elianto","#3366ff99"," "," ","1","+10","[2084.89999999851]","1","2","","","4099","140","8","1","win","go","0"
"pit-instructions","265","1563222","0.0-145.0","battery-v0.2","","""event"",""trial"",""time""
""fullscreenenter"",""1"",""1555""
","
","
","""event"",""trial"",""time""
""fullscreenenter"",""1"",""1555""
","
","","[{""page_index"":0,""viewing_time"":5693.79999999702},{""page_index"":1,""viewing_time"":8834.10000000149}]","14529.10000000149","","","","","","","","","","","","","","","","","","","","","","","",""
"pit-trial","266","1566957","0.0-146.0","battery-v0.2","","""event"",""trial"",""time""
""fullscreenenter"",""1"",""1555""
","
","
","""event"",""trial"",""time""
""fullscreenenter"",""1"",""1555""
","
","","","872.2999999970198","","","15","4099","957","r","elianto","#3366ff99"," "," ","1","+10","[261.40000000596046,1723.5]","2","3","","","4099","141","1","1","win","go","0"
