"trial_type","trial_index","time_elapsed","internal_node_id","task_version","subject_id","interactions","blur_events","focus_events","fullscreenenter_events","fullscreenexit_events","success","view_history","rt","responses","num_errors","age","subject","participantId","rune","rune_set","hex","correct","choice","accuracy","outcome","keys","total_keys","block","practice","value","sub","trial","stimulus","robot","valence","action","sham"
"pavlovia","0","14","0.0-0.0","battery-v0.2","","""event"",""trial"",""time""
""fullscreenenter"",""1"",""3608""
","
","
","""event"",""trial"",""time""
""fullscreenenter"",""1"",""3608""
","
","","","","","","","","","","","","","","","","","","","","","","","","","","",""
"fullscreen","1","4594","0.0-1.0","battery-v0.2","","""event"",""trial"",""time""
""fullscreenenter"",""1"",""3608""
","
","
","""event"",""trial"",""time""
""fullscreenenter"",""1"",""3608""
","
","true","","","","","","","","","","","","","","","","","","","","","","","","","",""
"pit-instructions","2","11063","0.0-2.0-0.0","battery-v0.2","","""event"",""trial"",""time""
""fullscreenenter"",""1"",""3608""
","
","
","""event"",""trial"",""time""
""fullscreenenter"",""1"",""3608""
","
","","[{""page_index"":0,""viewing_time"":6461}]","6462.19999999553","","","","","","","","","","","","","","","","","","","","","","","",""
"pit-comprehension","3","17313","0.0-2.0-1.0-0.0","battery-v0.2","","""event"",""trial"",""time""
""fullscreenenter"",""1"",""3608""
","
","
","""event"",""trial"",""time""
""fullscreenenter"",""1"",""3608""
","
","","","6244.10000000149","[""shark""]","0","10","11236","5231","","","","","","","","","","","","","","","","","","",""
"pit-instructions","4","20460","0.0-2.0-1.0-1.0","battery-v0.2","","""event"",""trial"",""time""
""fullscreenenter"",""1"",""3608""
","
","
","""event"",""trial"",""time""
""fullscreenenter"",""1"",""3608""
","
","","[{""page_index"":0,""viewing_time"":3125.6999999955297}]","3126.1999999955297","","","","","","","","","","","","","","","","","","","","","","","",""
"pit-comprehension","5","24640","0.0-2.0-2.0-0.0","battery-v0.2","","""event"",""trial"",""time""
""fullscreenenter"",""1"",""3608""
","
","
","""event"",""trial"",""time""
""fullscreenenter"",""1"",""3608""
","
","","","4172.79999999702","[""tiger""]","0","10","11236","5231","","","","","","","","","","","","","","","","","","",""
"pit-instructions","6","26948","0.0-2.0-2.0-1.0","battery-v0.2","","""event"",""trial"",""time""
""fullscreenenter"",""1"",""3608""
","
","
","""event"",""trial"",""time""
""fullscreenenter"",""1"",""3608""
","
","","[{""page_index"":0,""viewing_time"":2301.39999999851}]","2301.89999999851","","","","","","","","","","","","","","","","","","","","","","","",""
"pit-instructions","7","129925","0.0-2.0-3.0","battery-v0.2","","""event"",""trial"",""time""
""fullscreenenter"",""1"",""3608""
","
","
","""event"",""trial"",""time""
""fullscreenenter"",""1"",""3608""
","
","","[{""page_index"":0,""viewing_time"":8857.39999999851},{""page_index"":1,""viewing_time"":6034.60000000149},{""page_index"":2,""viewing_time"":7657.79999999702},{""page_index"":3,""viewing_time"":5249.80000000447},{""page_index"":4,""viewing_time"":7621.89999999851},{""page_index"":5,""viewing_time"":5937.39999999851},{""page_index"":6,""viewing_time"":7881},{""page_index"":7,""viewing_time"":6860.39999999851},{""page_index"":8,""viewing_time"":8589.20000000298},{""page_index"":9,""viewing_time"":10306.79999999702},{""page_index"":10,""viewing_time"":8306.90000000596},{""page_index"":11,""viewing_time"":8412.69999999553},{""page_index"":12,""viewing_time"":6021.60000000149},{""page_index"":13,""viewing_time"":5232}]","102970.20000000298","","","","","","","","","","","","","","","","","","","","","","","",""
"pit-trial","8","132937","0.0-2.0-4.0-0.0","battery-v0.2","","""event"",""trial"",""time""
""fullscreenenter"",""1"",""3608""
","
","
","""event"",""trial"",""time""
""fullscreenenter"",""1"",""3608""
","
","","","153.39999999850988","","","10","11236","5231","&#9784;","elianto","#FFFFF080"," "," ","1","&#10004","[1005.1999999955297]","1","0","0","","","","","","","",""
"pit-trial","9","136273","0.0-2.0-4.1-0.1","battery-v0.2","","""event"",""trial"",""time""
""fullscreenenter"",""1"",""3608""
","
","
","""event"",""trial"",""time""
""fullscreenenter"",""1"",""3608""
","
","","","477.59999999403954","","","10","11236","5231","&#9784;","elianto","#FFFFF080"," "," ","1","&#10004","[1327.6000000014901]","1","0","0","","","","","","","",""
"pit-trial","10","139729","0.0-2.0-4.2-0.2","battery-v0.2","","""event"",""trial"",""time""
""fullscreenenter"",""1"",""3608""
","
","
","""event"",""trial"",""time""
""fullscreenenter"",""1"",""3608""
","
","","","596.1000000014901","","","10","11236","5231","&#9784;","elianto","#FFFFF080"," "," ","1","&#10004","[1448.1000000014901]","1","0","0","","","","","","","",""
"pit-trial","11","143379","0.0-2.0-4.3-0.3","battery-v0.2","","""event"",""trial"",""time""
""fullscreenenter"",""1"",""3608""
","
","
","""event"",""trial"",""time""
""fullscreenenter"",""1"",""3608""
","
","","","791.8999999985099","","","10","11236","5231","&#9784;","elianto","#FFFFF080"," "," ","1","&#10004","[1642.0999999940395]","1","0","0","","","","","","","",""
"pit-trial","12","147016","0.0-2.0-4.4-0.4","battery-v0.2","","""event"",""trial"",""time""
""fullscreenenter"",""1"",""3608""
","
","
","""event"",""trial"",""time""
""fullscreenenter"",""1"",""3608""
","
","","","780.8000000044703","","","10","11236","5231","&#9784;","elianto","#FFFFF080"," "," ","1","&#10004","[1631.2000000029802]","1","0","0","","","","","","","",""
"pit-instructions","13","169438","0.0-2.0-5.0","battery-v0.2","","""event"",""trial"",""time""
""fullscreenenter"",""1"",""3608""
","
","
","""event"",""trial"",""time""
""fullscreenenter"",""1"",""3608""
","
","","[{""page_index"":0,""viewing_time"":5488.60000000149},{""page_index"":1,""viewing_time"":6184.5},{""page_index"":2,""viewing_time"":5340.39999999851},{""page_index"":3,""viewing_time"":5401.30000000447}]","22415.39999999851","","","","","","","","","","","","","","","","","","","","","","","",""
"pit-trial","14","174298","0.0-2.0-6.0-0.0","battery-v0.2","","""event"",""trial"",""time""
""fullscreenenter"",""1"",""3608""
","
","
","""event"",""trial"",""time""
""fullscreenenter"",""1"",""3608""
","
","","","-1","","","10","11236","5231","&#9854;","elianto","#FFFFF080","-1","-1","1","&#10004","[]","0","0","1","","","","","","","",""
"pit-trial","15","179157","0.0-2.0-6.1-0.1","battery-v0.2","","""event"",""trial"",""time""
""fullscreenenter"",""1"",""3608""
","
","
","""event"",""trial"",""time""
""fullscreenenter"",""1"",""3608""
","
","","","-1","","","10","11236","5231","&#9854;","elianto","#FFFFF080","-1","-1","1","&#10004","[]","0","0","1","","","","","","","",""
"pit-trial","16","184016","0.0-2.0-6.2-0.2","battery-v0.2","","""event"",""trial"",""time""
""fullscreenenter"",""1"",""3608""
","
","
","""event"",""trial"",""time""
""fullscreenenter"",""1"",""3608""
","
","","","-1","","","10","11236","5231","&#9854;","elianto","#FFFFF080","-1","-1","1","&#10004","[]","0","0","1","","","","","","","",""
"pit-trial","17","188874","0.0-2.0-6.3-0.3","battery-v0.2","","""event"",""trial"",""time""
""fullscreenenter"",""1"",""3608""
","
","
","""event"",""trial"",""time""
""fullscreenenter"",""1"",""3608""
","
","","","-1","","","10","11236","5231","&#9854;","elianto","#FFFFF080","-1","-1","1","&#10004","[]","0","0","1","","","","","","","",""
"pit-trial","18","193734","0.0-2.0-6.4-0.4","battery-v0.2","","""event"",""trial"",""time""
""fullscreenenter"",""1"",""3608""
","
","
","""event"",""trial"",""time""
""fullscreenenter"",""1"",""3608""
","
","","","-1","","","10","11236","5231","&#9854;","elianto","#FFFFF080","-1","-1","1","&#10004","[]","0","0","1","","","","","","","",""
"pit-instructions","19","330930","0.0-2.0-7.0","battery-v0.2","","""event"",""trial"",""time""
""fullscreenenter"",""1"",""3608""
","
","
","""event"",""trial"",""time""
""fullscreenenter"",""1"",""3608""
","
","","[{""page_index"":0,""viewing_time"":5842.89999999851},{""page_index"":1,""viewing_time"":7751.5},{""page_index"":2,""viewing_time"":6230.20000000298},{""page_index"":3,""viewing_time"":6270.60000000149},{""page_index"":4,""viewing_time"":5234},{""page_index"":5,""viewing_time"":6617.5999999940395},{""page_index"":6,""viewing_time"":5298.20000000298},{""page_index"":7,""viewing_time"":27235.39999999851},{""page_index"":8,""viewing_time"":7368.39999999851},{""page_index"":9,""viewing_time"":6105.9000000059605},{""page_index"":10,""viewing_time"":7688.39999999851},{""page_index"":11,""viewing_time"":4549.60000000149},{""page_index"":12,""viewing_time"":6898.5999999940395},{""page_index"":13,""viewing_time"":6697},{""page_index"":14,""viewing_time"":7428.30000000447},{""page_index"":15,""viewing_time"":6977.69999999553},{""page_index"":16,""viewing_time"":6070.10000000149},{""page_index"":17,""viewing_time"":6924.5}]","137189.5","","","","","","","","","","","","","","","","","","","","","","","",""
"pit-trial","20","334820","0.0-2.0-8.0-0.0","battery-v0.2","","""event"",""trial"",""time""
""fullscreenenter"",""1"",""3608""
","
","
","""event"",""trial"",""time""
""fullscreenenter"",""1"",""3608""
","
","","","1032.3999999985099","","","10","11236","5231","&#9776;","elianto","#3366ff99"," "," ","1","+10","[1882.8000000044703]","1","0","1","","","","","","","",""
"pit-trial","21","338300","0.0-2.0-8.0-1.0","battery-v0.2","","""event"",""trial"",""time""
""fullscreenenter"",""1"",""3608""
","
","
","""event"",""trial"",""time""
""fullscreenenter"",""1"",""3608""
","
","","","622.1000000014901","","","10","11236","5231","&#9776;","elianto","#3366ff99"," "," ","1","+10","[1472.5]","1","0","1","","","","","","","",""
"pit-trial","22","341792","0.0-2.0-8.0-2.0","battery-v0.2","","""event"",""trial"",""time""
""fullscreenenter"",""1"",""3608""
","
","
","""event"",""trial"",""time""
""fullscreenenter"",""1"",""3608""
","
","","","638.8999999985099","","","10","11236","5231","&#9776;","elianto","#3366ff99"," "," ","1","+10","[1489.6000000014901]","1","0","1","","","","","","","",""
"pit-trial","23","345281","0.0-2.0-8.0-3.0","battery-v0.2","","""event"",""trial"",""time""
""fullscreenenter"",""1"",""3608""
","
","
","""event"",""trial"",""time""
""fullscreenenter"",""1"",""3608""
","
","","","634.7999999970198","","","10","11236","5231","&#9776;","elianto","#3366ff99"," "," ","1","0","[1485.1000000014901]","1","0","1","","","","","","","",""
"pit-trial","24","348805","0.0-2.0-8.0-4.0","battery-v0.2","","""event"",""trial"",""time""
""fullscreenenter"",""1"",""3608""
","
","
","""event"",""trial"",""time""
""fullscreenenter"",""1"",""3608""
","
","","","665.1000000014901","","","10","11236","5231","&#9776;","elianto","#3366ff99"," "," ","1","+10","[1516.7000000029802]","1","0","1","","","","","","","",""
"pit-trial","25","352235","0.0-2.0-8.1-0.1","battery-v0.2","","""event"",""trial"",""time""
""fullscreenenter"",""1"",""3608""
","
","
","""event"",""trial"",""time""
""fullscreenenter"",""1"",""3608""
","
","","","572.9000000059605","","","10","11236","5231","&#9776;","elianto","#3366ff99"," "," ","1","+10","[1424.2000000029802]","1","0","1","","","","","","","",""
"pit-trial","26","356253","0.0-2.0-8.1-1.1","battery-v0.2","","""event"",""trial"",""time""
""fullscreenenter"",""1"",""3608""
","
","
","""event"",""trial"",""time""
""fullscreenenter"",""1"",""3608""
","
","","","1160.3000000044703","","","10","11236","5231","&#9776;","elianto","#3366ff99"," "," ","1","+10","[2010.5]","1","0","1","","","","","","","",""
"pit-trial","27","360619","0.0-2.0-8.1-2.1","battery-v0.2","","""event"",""trial"",""time""
""fullscreenenter"",""1"",""3608""
","
","
","""event"",""trial"",""time""
""fullscreenenter"",""1"",""3608""
","
","","","1510.7000000029802","","","10","11236","5231","&#9776;","elianto","#3366ff99"," "," ","1","+10","[2361.6999999955297]","1","0","1","","","","","","","",""
"pit-trial","28","364154","0.0-2.0-8.1-3.1","battery-v0.2","","""event"",""trial"",""time""
""fullscreenenter"",""1"",""3608""
","
","
","""event"",""trial"",""time""
""fullscreenenter"",""1"",""3608""
","
","","","680.7000000029802","","","10","11236","5231","&#9776;","elianto","#3366ff99"," "," ","1","0","[1531.2000000029802]","1","0","1","","","","","","","",""
"pit-trial","29","367707","0.0-2.0-8.1-4.1","battery-v0.2","","""event"",""trial"",""time""
""fullscreenenter"",""1"",""3608""
","
","
","""event"",""trial"",""time""
""fullscreenenter"",""1"",""3608""
","
","","","694.2000000029802","","","10","11236","5231","&#9776;","elianto","#3366ff99"," "," ","1","+10","[1547]","1","0","1","","","","","","","",""
"pit-trial","30","371149","0.0-2.0-8.2-0.2","battery-v0.2","","""event"",""trial"",""time""
""fullscreenenter"",""1"",""3608""
","
","
","""event"",""trial"",""time""
""fullscreenenter"",""1"",""3608""
","
","","","581.2000000029802","","","10","11236","5231","&#9776;","elianto","#3366ff99"," "," ","1","+10","[1433.6000000014901]","1","0","1","","","","","","","",""
"pit-trial","31","374621","0.0-2.0-8.2-1.2","battery-v0.2","","""event"",""trial"",""time""
""fullscreenenter"",""1"",""3608""
","
","
","""event"",""trial"",""time""
""fullscreenenter"",""1"",""3608""
","
","","","613.2000000029802","","","10","11236","5231","&#9776;","elianto","#3366ff99"," "," ","1","+10","[1463.3999999985099]","1","0","1","","","","","","","",""
"pit-trial","32","378058","0.0-2.0-8.2-2.2","battery-v0.2","","""event"",""trial"",""time""
""fullscreenenter"",""1"",""3608""
","
","
","""event"",""trial"",""time""
""fullscreenenter"",""1"",""3608""
","
","","","580.8000000044703","","","10","11236","5231","&#9776;","elianto","#3366ff99"," "," ","1","+10","[1432.8999999985099]","1","0","1","","","","","","","",""
"pit-trial","33","381419","0.0-2.0-8.2-3.2","battery-v0.2","","""event"",""trial"",""time""
""fullscreenenter"",""1"",""3608""
","
","
","""event"",""trial"",""time""
""fullscreenenter"",""1"",""3608""
","
","","","505.79999999701977","","","10","11236","5231","&#9776;","elianto","#3366ff99"," "," ","1","0","[1356.5]","1","0","1","","","","","","","",""
"pit-trial","34","384780","0.0-2.0-8.2-4.2","battery-v0.2","","""event"",""trial"",""time""
""fullscreenenter"",""1"",""3608""
","
","
","""event"",""trial"",""time""
""fullscreenenter"",""1"",""3608""
","
","","","504.5","","","10","11236","5231","&#9776;","elianto","#3366ff99"," "," ","1","+10","[1355.2000000029802]","1","0","1","","","","","","","",""
"call-function","35","384783","0.0-2.0-9.0","battery-v0.2","","""event"",""trial"",""time""
""fullscreenenter"",""1"",""3608""
","
","
","""event"",""trial"",""time""
""fullscreenenter"",""1"",""3608""
","
","","","","","","","","","","","","","","","","","","","","","","","","","","",""
"pit-instructions","36","433616","0.0-2.0-10.0","battery-v0.2","","""event"",""trial"",""time""
""fullscreenenter"",""1"",""3608""
","
","
","""event"",""trial"",""time""
""fullscreenenter"",""1"",""3608""
","
","","[{""page_index"":0,""viewing_time"":8628.89999999851},{""page_index"":1,""viewing_time"":8306.10000000149},{""page_index"":2,""viewing_time"":13457.5},{""page_index"":3,""viewing_time"":10576.69999999553},{""page_index"":4,""viewing_time"":7862}]","48831.89999999851","","","","","","","","","","","","","","","","","","","","","","","",""
"pit-trial","37","436988","0.0-2.0-11.0-0.0","battery-v0.2","","""event"",""trial"",""time""
""fullscreenenter"",""1"",""3608""
","
","
","""event"",""trial"",""time""
""fullscreenenter"",""1"",""3608""
","
","","","516.6999999955297","","","10","11236","5231","&#9761;","elianto","#3366ff99","-1"," ","0","0","[1366.8999999985099]","1","0","2","","","","","","","",""
"pit-trial","38","440268","0.0-2.0-11.0-1.0","battery-v0.2","","""event"",""trial"",""time""
""fullscreenenter"",""1"",""3608""
","
","
","""event"",""trial"",""time""
""fullscreenenter"",""1"",""3608""
","
","","","423.3999999985099","","","10","11236","5231","&#9761;","elianto","#3366ff99","-1"," ","0","0","[1274.6000000014901]","1","0","2","","","","","","","",""
"pit-trial","39","445127","0.0-2.0-11.0-2.0","battery-v0.2","","""event"",""trial"",""time""
""fullscreenenter"",""1"",""3608""
","
","
","""event"",""trial"",""time""
""fullscreenenter"",""1"",""3608""
","
","","","-1","","","10","11236","5231","&#9761;","elianto","#3366ff99","-1","-1","1","+10","[]","0","0","2","","","","","","","",""
"pit-trial","40","449986","0.0-2.0-11.0-3.0","battery-v0.2","","""event"",""trial"",""time""
""fullscreenenter"",""1"",""3608""
","
","
","""event"",""trial"",""time""
""fullscreenenter"",""1"",""3608""
","
","","","-1","","","10","11236","5231","&#9761;","elianto","#3366ff99","-1","-1","1","0","[]","0","0","2","","","","","","","",""
"pit-trial","41","454845","0.0-2.0-11.0-4.0","battery-v0.2","","""event"",""trial"",""time""
""fullscreenenter"",""1"",""3608""
","
","
","""event"",""trial"",""time""
""fullscreenenter"",""1"",""3608""
","
","","","-1","","","10","11236","5231","&#9761;","elianto","#3366ff99","-1","-1","1","+10","[]","0","0","2","","","","","","","",""
"pit-trial","42","458595","0.0-2.0-11.1-0.1","battery-v0.2","","""event"",""trial"",""time""
""fullscreenenter"",""1"",""3608""
","
","
","""event"",""trial"",""time""
""fullscreenenter"",""1"",""3608""
","
","","","894","","","10","11236","5231","&#9761;","elianto","#3366ff99","-1"," ","0","0","[1745.2000000029802]","1","0","2","","","","","","","",""
"pit-trial","43","463455","0.0-2.0-11.1-1.1","battery-v0.2","","""event"",""trial"",""time""
""fullscreenenter"",""1"",""3608""
","
","
","""event"",""trial"",""time""
""fullscreenenter"",""1"",""3608""
","
","","","-1","","","10","11236","5231","&#9761;","elianto","#3366ff99","-1","-1","1","+10","[]","0","0","2","","","","","","","",""
"pit-trial","44","468314","0.0-2.0-11.1-2.1","battery-v0.2","","""event"",""trial"",""time""
""fullscreenenter"",""1"",""3608""
","
","
","""event"",""trial"",""time""
""fullscreenenter"",""1"",""3608""
","
","","","-1","","","10","11236","5231","&#9761;","elianto","#3366ff99","-1","-1","1","+10","[]","0","0","2","","","","","","","",""
"pit-trial","45","473173","0.0-2.0-11.1-3.1","battery-v0.2","","""event"",""trial"",""time""
""fullscreenenter"",""1"",""3608""
","
","
","""event"",""trial"",""time""
""fullscreenenter"",""1"",""3608""
","
","","","-1","","","10","11236","5231","&#9761;","elianto","#3366ff99","-1","-1","1","0","[]","0","0","2","","","","","","","",""
"pit-trial","46","478031","0.0-2.0-11.1-4.1","battery-v0.2","","""event"",""trial"",""time""
""fullscreenenter"",""1"",""3608""
","
","
","""event"",""trial"",""time""
""fullscreenenter"",""1"",""3608""
","
","","","-1","","","10","11236","5231","&#9761;","elianto","#3366ff99","-1","-1","1","+10","[]","0","0","2","","","","","","","",""
"pit-trial","47","482890","0.0-2.0-11.2-0.2","battery-v0.2","","""event"",""trial"",""time""
""fullscreenenter"",""1"",""3608""
","
","
","""event"",""trial"",""time""
""fullscreenenter"",""1"",""3608""
","
","","","-1","","","10","11236","5231","&#9761;","elianto","#3366ff99","-1","-1","1","+10","[]","0","0","2","","","","","","","",""
"pit-trial","48","487749","0.0-2.0-11.2-1.2","battery-v0.2","","""event"",""trial"",""time""
""fullscreenenter"",""1"",""3608""
","
","
","""event"",""trial"",""time""
""fullscreenenter"",""1"",""3608""
","
","","","-1","","","10","11236","5231","&#9761;","elianto","#3366ff99","-1","-1","1","+10","[]","0","0","2","","","","","","","",""
"pit-trial","49","492608","0.0-2.0-11.2-2.2","battery-v0.2","","""event"",""trial"",""time""
""fullscreenenter"",""1"",""3608""
","
","
","""event"",""trial"",""time""
""fullscreenenter"",""1"",""3608""
","
","","","-1","","","10","11236","5231","&#9761;","elianto","#3366ff99","-1","-1","1","+10","[]","0","0","2","","","","","","","",""
"pit-trial","50","497467","0.0-2.0-11.2-3.2","battery-v0.2","","""event"",""trial"",""time""
""fullscreenenter"",""1"",""3608""
","
","
","""event"",""trial"",""time""
""fullscreenenter"",""1"",""3608""
","
","","","-1","","","10","11236","5231","&#9761;","elianto","#3366ff99","-1","-1","1","0","[]","0","0","2","","","","","","","",""
"pit-trial","51","502326","0.0-2.0-11.2-4.2","battery-v0.2","","""event"",""trial"",""time""
""fullscreenenter"",""1"",""3608""
","
","
","""event"",""trial"",""time""
""fullscreenenter"",""1"",""3608""
","
","","","-1","","","10","11236","5231","&#9761;","elianto","#3366ff99","-1","-1","1","+10","[]","0","0","2","","","","","","","",""
"pit-trial","52","507185","0.0-2.0-11.3-0.3","battery-v0.2","","""event"",""trial"",""time""
""fullscreenenter"",""1"",""3608""
","
","
","""event"",""trial"",""time""
""fullscreenenter"",""1"",""3608""
","
","","","-1","","","10","11236","5231","&#9761;","elianto","#3366ff99","-1","-1","1","+10","[]","0","0","2","","","","","","","",""
"pit-trial","53","512046","0.0-2.0-11.3-1.3","battery-v0.2","","""event"",""trial"",""time""
""fullscreenenter"",""1"",""3608""
","
","
","""event"",""trial"",""time""
""fullscreenenter"",""1"",""3608""
","
","","","-1","","","10","11236","5231","&#9761;","elianto","#3366ff99","-1","-1","1","+10","[]","0","0","2","","","","","","","",""
"pit-trial","54","516902","0.0-2.0-11.3-2.3","battery-v0.2","","""event"",""trial"",""time""
""fullscreenenter"",""1"",""3608""
","
","
","""event"",""trial"",""time""
""fullscreenenter"",""1"",""3608""
","
","","","-1","","","10","11236","5231","&#9761;","elianto","#3366ff99","-1","-1","1","+10","[]","0","0","2","","","","","","","",""
"pit-trial","55","521761","0.0-2.0-11.3-3.3","battery-v0.2","","""event"",""trial"",""time""
""fullscreenenter"",""1"",""3608""
","
","
","""event"",""trial"",""time""
""fullscreenenter"",""1"",""3608""
","
","","","-1","","","10","11236","5231","&#9761;","elianto","#3366ff99","-1","-1","1","0","[]","0","0","2","","","","","","","",""
"pit-trial","56","526620","0.0-2.0-11.3-4.3","battery-v0.2","","""event"",""trial"",""time""
""fullscreenenter"",""1"",""3608""
","
","
","""event"",""trial"",""time""
""fullscreenenter"",""1"",""3608""
","
","","","-1","","","10","11236","5231","&#9761;","elianto","#3366ff99","-1","-1","1","+10","[]","0","0","2","","","","","","","",""
"call-function","57","526623","0.0-2.0-12.0","battery-v0.2","","""event"",""trial"",""time""
""fullscreenenter"",""1"",""3608""
","
","
","""event"",""trial"",""time""
""fullscreenenter"",""1"",""3608""
","
","","","","","","","","","","","","","","","","","","","","","","","","","","",""
"pit-instructions","58","567164","0.0-2.0-13.0","battery-v0.2","","""event"",""trial"",""time""
""fullscreenenter"",""1"",""3608""
","
","
","""event"",""trial"",""time""
""fullscreenenter"",""1"",""3608""
","
","","[{""page_index"":0,""viewing_time"":5421},{""page_index"":1,""viewing_time"":16750.10000000149},{""page_index"":2,""viewing_time"":3450.5},{""page_index"":3,""viewing_time"":10088.09999999404},{""page_index"":4,""viewing_time"":4829.80000000447}]","40540.10000000149","","","","","","","","","","","","","","","","","","","","","","","",""
"pit-trial","59","572020","0.0-2.0-14.0-0.0","battery-v0.2","","""event"",""trial"",""time""
""fullscreenenter"",""1"",""3608""
","
","
","""event"",""trial"",""time""
""fullscreenenter"",""1"",""3608""
","
","","","-1","","","10","11236","5231","&#9826;","elianto","#f73b6a7A","-1","-1","1","0","[]","0","0","3","","","","","","","",""
"pit-trial","60","576879","0.0-2.0-14.0-1.0","battery-v0.2","","""event"",""trial"",""time""
""fullscreenenter"",""1"",""3608""
","
","
","""event"",""trial"",""time""
""fullscreenenter"",""1"",""3608""
","
","","","-1","","","10","11236","5231","&#9826;","elianto","#f73b6a7A","-1","-1","1","0","[]","0","0","3","","","","","","","",""
"pit-trial","61","581733","0.0-2.0-14.0-2.0","battery-v0.2","","""event"",""trial"",""time""
""fullscreenenter"",""1"",""3608""
","
","
","""event"",""trial"",""time""
""fullscreenenter"",""1"",""3608""
","
","","","-1","","","10","11236","5231","&#9826;","elianto","#f73b6a7A","-1","-1","1","0","[]","0","0","3","","","","","","","",""
"pit-trial","62","586588","0.0-2.0-14.0-3.0","battery-v0.2","","""event"",""trial"",""time""
""fullscreenenter"",""1"",""3608""
","
","
","""event"",""trial"",""time""
""fullscreenenter"",""1"",""3608""
","
","","","-1","","","10","11236","5231","&#9826;","elianto","#f73b6a7A","-1","-1","1","-10","[]","0","0","3","","","","","","","",""
"pit-trial","63","591446","0.0-2.0-14.0-4.0","battery-v0.2","","""event"",""trial"",""time""
""fullscreenenter"",""1"",""3608""
","
","
","""event"",""trial"",""time""
""fullscreenenter"",""1"",""3608""
","
","","","-1","","","10","11236","5231","&#9826;","elianto","#f73b6a7A","-1","-1","1","0","[]","0","0","3","","","","","","","",""
"pit-trial","64","596305","0.0-2.0-14.1-0.1","battery-v0.2","","""event"",""trial"",""time""
""fullscreenenter"",""1"",""3608""
","
","
","""event"",""trial"",""time""
""fullscreenenter"",""1"",""3608""
","
","","","-1","","","10","11236","5231","&#9826;","elianto","#f73b6a7A","-1","-1","1","0","[]","0","0","3","","","","","","","",""
"pit-trial","65","601164","0.0-2.0-14.1-1.1","battery-v0.2","","""event"",""trial"",""time""
""fullscreenenter"",""1"",""3608""
","
","
","""event"",""trial"",""time""
""fullscreenenter"",""1"",""3608""
","
","","","-1","","","10","11236","5231","&#9826;","elianto","#f73b6a7A","-1","-1","1","0","[]","0","0","3","","","","","","","",""
"pit-trial","66","606023","0.0-2.0-14.1-2.1","battery-v0.2","","""event"",""trial"",""time""
""fullscreenenter"",""1"",""3608""
","
","
","""event"",""trial"",""time""
""fullscreenenter"",""1"",""3608""
","
","","","-1","","","10","11236","5231","&#9826;","elianto","#f73b6a7A","-1","-1","1","0","[]","0","0","3","","","","","","","",""
"pit-trial","67","610882","0.0-2.0-14.1-3.1","battery-v0.2","","""event"",""trial"",""time""
""fullscreenenter"",""1"",""3608""
","
","
","""event"",""trial"",""time""
""fullscreenenter"",""1"",""3608""
","
","","","-1","","","10","11236","5231","&#9826;","elianto","#f73b6a7A","-1","-1","1","-10","[]","0","0","3","","","","","","","",""
"pit-trial","68","615741","0.0-2.0-14.1-4.1","battery-v0.2","","""event"",""trial"",""time""
""fullscreenenter"",""1"",""3608""
","
","
","""event"",""trial"",""time""
""fullscreenenter"",""1"",""3608""
","
","","","-1","","","10","11236","5231","&#9826;","elianto","#f73b6a7A","-1","-1","1","0","[]","0","0","3","","","","","","","",""
"pit-trial","69","620600","0.0-2.0-14.2-0.2","battery-v0.2","","""event"",""trial"",""time""
""fullscreenenter"",""1"",""3608""
","
","
","""event"",""trial"",""time""
""fullscreenenter"",""1"",""3608""
","
","","","-1","","","10","11236","5231","&#9826;","elianto","#f73b6a7A","-1","-1","1","0","[]","0","0","3","","","","","","","",""
"pit-trial","70","625458","0.0-2.0-14.2-1.2","battery-v0.2","","""event"",""trial"",""time""
""fullscreenenter"",""1"",""3608""
","
","
","""event"",""trial"",""time""
""fullscreenenter"",""1"",""3608""
","
","","","-1","","","10","11236","5231","&#9826;","elianto","#f73b6a7A","-1","-1","1","0","[]","0","0","3","","","","","","","",""
"pit-trial","71","630317","0.0-2.0-14.2-2.2","battery-v0.2","","""event"",""trial"",""time""
""fullscreenenter"",""1"",""3608""
","
","
","""event"",""trial"",""time""
""fullscreenenter"",""1"",""3608""
","
","","","-1","","","10","11236","5231","&#9826;","elianto","#f73b6a7A","-1","-1","1","0","[]","0","0","3","","","","","","","",""
"pit-trial","72","635176","0.0-2.0-14.2-3.2","battery-v0.2","","""event"",""trial"",""time""
""fullscreenenter"",""1"",""3608""
","
","
","""event"",""trial"",""time""
""fullscreenenter"",""1"",""3608""
","
","","","-1","","","10","11236","5231","&#9826;","elianto","#f73b6a7A","-1","-1","1","-10","[]","0","0","3","","","","","","","",""
"pit-trial","73","640035","0.0-2.0-14.2-4.2","battery-v0.2","","""event"",""trial"",""time""
""fullscreenenter"",""1"",""3608""
","
","
","""event"",""trial"",""time""
""fullscreenenter"",""1"",""3608""
","
","","","-1","","","10","11236","5231","&#9826;","elianto","#f73b6a7A","-1","-1","1","0","[]","0","0","3","","","","","","","",""
"pit-trial","74","644894","0.0-2.0-14.3-0.3","battery-v0.2","","""event"",""trial"",""time""
""fullscreenenter"",""1"",""3608""
","
","
","""event"",""trial"",""time""
""fullscreenenter"",""1"",""3608""
","
","","","-1","","","10","11236","5231","&#9826;","elianto","#f73b6a7A","-1","-1","1","0","[]","0","0","3","","","","","","","",""
"pit-trial","75","649753","0.0-2.0-14.3-1.3","battery-v0.2","","""event"",""trial"",""time""
""fullscreenenter"",""1"",""3608""
","
","
","""event"",""trial"",""time""
""fullscreenenter"",""1"",""3608""
","
","","","-1","","","10","11236","5231","&#9826;","elianto","#f73b6a7A","-1","-1","1","0","[]","0","0","3","","","","","","","",""
"pit-trial","76","654612","0.0-2.0-14.3-2.3","battery-v0.2","","""event"",""trial"",""time""
""fullscreenenter"",""1"",""3608""
","
","
","""event"",""trial"",""time""
""fullscreenenter"",""1"",""3608""
","
","","","-1","","","10","11236","5231","&#9826;","elianto","#f73b6a7A","-1","-1","1","0","[]","0","0","3","","","","","","","",""
"pit-trial","77","659470","0.0-2.0-14.3-3.3","battery-v0.2","","""event"",""trial"",""time""
""fullscreenenter"",""1"",""3608""
","
","
","""event"",""trial"",""time""
""fullscreenenter"",""1"",""3608""
","
","","","-1","","","10","11236","5231","&#9826;","elianto","#f73b6a7A","-1","-1","1","-10","[]","0","0","3","","","","","","","",""
"pit-trial","78","664329","0.0-2.0-14.3-4.3","battery-v0.2","","""event"",""trial"",""time""
""fullscreenenter"",""1"",""3608""
","
","
","""event"",""trial"",""time""
""fullscreenenter"",""1"",""3608""
","
","","","-1","","","10","11236","5231","&#9826;","elianto","#f73b6a7A","-1","-1","1","0","[]","0","0","3","","","","","","","",""
"call-function","79","664332","0.0-2.0-15.0","battery-v0.2","","""event"",""trial"",""time""
""fullscreenenter"",""1"",""3608""
","
","
","""event"",""trial"",""time""
""fullscreenenter"",""1"",""3608""
","
","","","","","","","","","","","","","","","","","","","","","","","","","","",""
"pit-instructions","80","692002","0.0-2.0-16.0","battery-v0.2","","""event"",""trial"",""time""
""fullscreenenter"",""1"",""3608""
","
","
","""event"",""trial"",""time""
""fullscreenenter"",""1"",""3608""
","
","","[{""page_index"":0,""viewing_time"":6859.80000000447},{""page_index"":1,""viewing_time"":11061.69999999553},{""page_index"":2,""viewing_time"":5040.80000000447},{""page_index"":3,""viewing_time"":4705.5}]","27668.39999999851","","","","","","","","","","","","","","","","","","","","","","","",""
"pit-trial","81","695555","0.0-2.0-17.0-0.0","battery-v0.2","","""event"",""trial"",""time""
""fullscreenenter"",""1"",""3608""
","
","
","""event"",""trial"",""time""
""fullscreenenter"",""1"",""3608""
","
","","","694.1000000014901","","","10","11236","5231","&#9789;","elianto","#f73b6a7A"," "," ","1","0","[1544.3999999985099]","1","0","4","","","","","","","",""
"pit-trial","82","698858","0.0-2.0-17.0-1.0","battery-v0.2","","""event"",""trial"",""time""
""fullscreenenter"",""1"",""3608""
","
","
","""event"",""trial"",""time""
""fullscreenenter"",""1"",""3608""
","
","","","445.69999999552965","","","10","11236","5231","&#9789;","elianto","#f73b6a7A"," "," ","1","0","[1296]","1","0","4","","","","","","","",""
"pit-trial","83","702659","0.0-2.0-17.0-2.0","battery-v0.2","","""event"",""trial"",""time""
""fullscreenenter"",""1"",""3608""
","
","
","""event"",""trial"",""time""
""fullscreenenter"",""1"",""3608""
","
","","","942.7000000029802","","","10","11236","5231","&#9789;","elianto","#f73b6a7A"," "," ","1","0","[1793.2000000029802]","1","0","4","","","","","","","",""
"pit-trial","84","706042","0.0-2.0-17.0-3.0","battery-v0.2","","""event"",""trial"",""time""
""fullscreenenter"",""1"",""3608""
","
","
","""event"",""trial"",""time""
""fullscreenenter"",""1"",""3608""
","
","","","526.2000000029802","","","10","11236","5231","&#9789;","elianto","#f73b6a7A"," "," ","1","-10","[1376.5]","1","0","4","","","","","","","",""
"pit-trial","85","709591","0.0-2.0-17.0-4.0","battery-v0.2","","""event"",""trial"",""time""
""fullscreenenter"",""1"",""3608""
","
","
","""event"",""trial"",""time""
""fullscreenenter"",""1"",""3608""
","
","","","692.6000000014901","","","10","11236","5231","&#9789;","elianto","#f73b6a7A"," "," ","1","0","[1544.7999999970198]","1","0","4","","","","","","","",""
"pit-trial","86","713046","0.0-2.0-17.1-0.1","battery-v0.2","","""event"",""trial"",""time""
""fullscreenenter"",""1"",""3608""
","
","
","""event"",""trial"",""time""
""fullscreenenter"",""1"",""3608""
","
","","","599.2000000029802","","","10","11236","5231","&#9789;","elianto","#f73b6a7A"," "," ","1","0","[1449.7000000029802]","1","0","4","","","","","","","",""
"pit-trial","87","716627","0.0-2.0-17.1-1.1","battery-v0.2","","""event"",""trial"",""time""
""fullscreenenter"",""1"",""3608""
","
","
","""event"",""trial"",""time""
""fullscreenenter"",""1"",""3608""
","
","","","722","","","10","11236","5231","&#9789;","elianto","#f73b6a7A"," "," ","1","0","[1572.8999999985099]","1","0","4","","","","","","","",""
"pit-trial","88","720087","0.0-2.0-17.1-2.1","battery-v0.2","","""event"",""trial"",""time""
""fullscreenenter"",""1"",""3608""
","
","
","""event"",""trial"",""time""
""fullscreenenter"",""1"",""3608""
","
","","","605.7000000029802","","","10","11236","5231","&#9789;","elianto","#f73b6a7A"," "," ","1","0","[1455.7999999970198]","1","0","4","","","","","","","",""
"pit-trial","89","723635","0.0-2.0-17.1-3.1","battery-v0.2","","""event"",""trial"",""time""
""fullscreenenter"",""1"",""3608""
","
","
","""event"",""trial"",""time""
""fullscreenenter"",""1"",""3608""
","
","","","689.7000000029802","","","10","11236","5231","&#9789;","elianto","#f73b6a7A"," "," ","1","-10","[1540]","1","0","4","","","","","","","",""
"pit-trial","90","727147","0.0-2.0-17.1-4.1","battery-v0.2","","""event"",""trial"",""time""
""fullscreenenter"",""1"",""3608""
","
","
","""event"",""trial"",""time""
""fullscreenenter"",""1"",""3608""
","
","","","653","","","10","11236","5231","&#9789;","elianto","#f73b6a7A"," "," ","1","0","[1504.4000000059605]","1","0","4","","","","","","","",""
"pit-trial","91","730776","0.0-2.0-17.2-0.2","battery-v0.2","","""event"",""trial"",""time""
""fullscreenenter"",""1"",""3608""
","
","
","""event"",""trial"",""time""
""fullscreenenter"",""1"",""3608""
","
","","","771.8000000044703","","","10","11236","5231","&#9789;","elianto","#f73b6a7A"," "," ","1","0","[1622.8000000044703]","1","0","4","","","","","","","",""
"pit-trial","92","735327","0.0-2.0-17.2-1.2","battery-v0.2","","""event"",""trial"",""time""
""fullscreenenter"",""1"",""3608""
","
","
","""event"",""trial"",""time""
""fullscreenenter"",""1"",""3608""
","
","","","1697.6000000014901","","","10","11236","5231","&#9789;","elianto","#f73b6a7A"," "," ","1","0","[2548]","1","0","4","","","","","","","",""
"pit-trial","93","738792","0.0-2.0-17.2-2.2","battery-v0.2","","""event"",""trial"",""time""
""fullscreenenter"",""1"",""3608""
","
","
","""event"",""trial"",""time""
""fullscreenenter"",""1"",""3608""
","
","","","609.7000000029802","","","10","11236","5231","&#9789;","elianto","#f73b6a7A"," "," ","1","0","[1461.2999999970198]","1","0","4","","","","","","","",""
"pit-trial","94","742194","0.0-2.0-17.2-3.2","battery-v0.2","","""event"",""trial"",""time""
""fullscreenenter"",""1"",""3608""
","
","
","""event"",""trial"",""time""
""fullscreenenter"",""1"",""3608""
","
","","","545.5999999940395","","","10","11236","5231","&#9789;","elianto","#f73b6a7A"," "," ","1","-10","[1395.6000000014901]","1","0","4","","","","","","","",""
"pit-trial","95","745799","0.0-2.0-17.2-4.2","battery-v0.2","","""event"",""trial"",""time""
""fullscreenenter"",""1"",""3608""
","
","
","""event"",""trial"",""time""
""fullscreenenter"",""1"",""3608""
","
","","","751.2999999970198","","","10","11236","5231","&#9789;","elianto","#f73b6a7A"," "," ","1","0","[1601.6000000014901]","1","0","4","","","","","","","",""
"pit-trial","96","749473","0.0-2.0-17.3-0.3","battery-v0.2","","""event"",""trial"",""time""
""fullscreenenter"",""1"",""3608""
","
","
","""event"",""trial"",""time""
""fullscreenenter"",""1"",""3608""
","
","","","816.6000000014901","","","10","11236","5231","&#9789;","elianto","#f73b6a7A"," "," ","1","0","[1668]","1","0","4","","","","","","","",""
"pit-trial","97","753200","0.0-2.0-17.3-1.3","battery-v0.2","","""event"",""trial"",""time""
""fullscreenenter"",""1"",""3608""
","
","
","""event"",""trial"",""time""
""fullscreenenter"",""1"",""3608""
","
","","","870.5","","","10","11236","5231","&#9789;","elianto","#f73b6a7A"," "," ","1","0","[1721.8999999985099]","1","0","4","","","","","","","",""
"pit-trial","98","756747","0.0-2.0-17.3-2.3","battery-v0.2","","""event"",""trial"",""time""
""fullscreenenter"",""1"",""3608""
","
","
","""event"",""trial"",""time""
""fullscreenenter"",""1"",""3608""
","
","","","689.2000000029802","","","10","11236","5231","&#9789;","elianto","#f73b6a7A"," "," ","1","0","[1539.5]","1","0","4","","","","","","","",""
"pit-trial","99","760242","0.0-2.0-17.3-3.3","battery-v0.2","","""event"",""trial"",""time""
""fullscreenenter"",""1"",""3608""
","
","
","""event"",""trial"",""time""
""fullscreenenter"",""1"",""3608""
","
","","","638.5","","","10","11236","5231","&#9789;","elianto","#f73b6a7A"," "," ","1","-10","[1488.7999999970198]","1","0","4","","","","","","","",""
"pit-trial","100","763603","0.0-2.0-17.3-4.3","battery-v0.2","","""event"",""trial"",""time""
""fullscreenenter"",""1"",""3608""
","
","
","""event"",""trial"",""time""
""fullscreenenter"",""1"",""3608""
","
","","","503.6000000014901","","","10","11236","5231","&#9789;","elianto","#f73b6a7A"," "," ","1","0","[1354.1000000014901]","1","0","4","","","","","","","",""
"call-function","101","763606","0.0-2.0-18.0","battery-v0.2","","""event"",""trial"",""time""
""fullscreenenter"",""1"",""3608""
","
","
","""event"",""trial"",""time""
""fullscreenenter"",""1"",""3608""
","
","","","","","","","","","","","","","","","","","","","","","","","","","","",""
"pit-instructions","102","871672","0.0-2.0-19.0","battery-v0.2","","""event"",""trial"",""time""
""fullscreenenter"",""1"",""3608""
","
","
","""event"",""trial"",""time""
""fullscreenenter"",""1"",""3608""
","
","","[{""page_index"":0,""viewing_time"":6441.4000000059605},{""page_index"":1,""viewing_time"":5518.39999999851},{""page_index"":2,""viewing_time"":45733.89999999851},{""page_index"":3,""viewing_time"":9304.20000000298},{""page_index"":4,""viewing_time"":9329.79999999702},{""page_index"":5,""viewing_time"":9249.70000000298},{""page_index"":6,""viewing_time"":9435.5},{""page_index"":7,""viewing_time"":9108.39999999851},{""page_index"":8,""viewing_time"":3941.6999999955297}]","108063.60000000149","","","","","","","","","","","","","","","","","","","","","","","",""
"pit-comprehension","103","876714","0.0-2.0-20.0-0.0","battery-v0.2","","""event"",""trial"",""time""
""fullscreenenter"",""1"",""3608""
","
","
","""event"",""trial"",""time""
""fullscreenenter"",""1"",""3608""
","
","","","5035.5999999940395","[""SPACE""]","0","10","11236","5231","","","","","","","","","","","","","","","","","","",""
"pit-instructions","104","880155","0.0-2.0-20.0-1.0","battery-v0.2","","""event"",""trial"",""time""
""fullscreenenter"",""1"",""3608""
","
","
","""event"",""trial"",""time""
""fullscreenenter"",""1"",""3608""
","
","","[{""page_index"":0,""viewing_time"":3391.9000000059605}]","3392.3000000044703","","","","","","","","","","","","","","","","","","","","","","","",""
"pit-comprehension","105","889504","0.0-2.0-21.0-0.0","battery-v0.2","","""event"",""trial"",""time""
""fullscreenenter"",""1"",""3608""
","
","
","""event"",""trial"",""time""
""fullscreenenter"",""1"",""3608""
","
","","","9343.39999999851","[""10""]","0","10","11236","5231","","","","","","","","","","","","","","","","","","",""
"pit-instructions","106","898175","0.0-2.0-21.0-1.0","battery-v0.2","","""event"",""trial"",""time""
""fullscreenenter"",""1"",""3608""
","
","
","""event"",""trial"",""time""
""fullscreenenter"",""1"",""3608""
","
","","[{""page_index"":0,""viewing_time"":8620.19999999553}]","8620.79999999702","","","","","","","","","","","","","","","","","","","","","","","",""
"pit-comprehension","107","907406","0.0-2.0-22.0-0.0","battery-v0.2","","""event"",""trial"",""time""
""fullscreenenter"",""1"",""3608""
","
","
","""event"",""trial"",""time""
""fullscreenenter"",""1"",""3608""
","
","","","9224.70000000298","[""0""]","0","10","11236","5231","","","","","","","","","","","","","","","","","","",""
"pit-instructions","108","910801","0.0-2.0-22.0-1.0","battery-v0.2","","""event"",""trial"",""time""
""fullscreenenter"",""1"",""3608""
","
","
","""event"",""trial"",""time""
""fullscreenenter"",""1"",""3608""
","
","","[{""page_index"":0,""viewing_time"":3345.60000000149}]","3346.10000000149","","","","","","","","","","","","","","","","","","","","","","","",""
"pit-comprehension","109","929926","0.0-2.0-23.0-0.0","battery-v0.2","","""event"",""trial"",""time""
""fullscreenenter"",""1"",""3608""
","
","
","""event"",""trial"",""time""
""fullscreenenter"",""1"",""3608""
","
","","","19119.29999999702","[""True""]","0","10","11236","5231","","","","","","","","","","","","","","","","","","",""
"pit-instructions","110","931929","0.0-2.0-23.0-1.0","battery-v0.2","","""event"",""trial"",""time""
""fullscreenenter"",""1"",""3608""
","
","
","""event"",""trial"",""time""
""fullscreenenter"",""1"",""3608""
","
","","[{""page_index"":0,""viewing_time"":1952.3000000044703}]","1952.8000000044703","","","","","","","","","","","","","","","","","","","","","","","",""
"pit-comprehension","111","940588","0.0-2.0-24.0-0.0","battery-v0.2","","""event"",""trial"",""time""
""fullscreenenter"",""1"",""3608""
","
","
","""event"",""trial"",""time""
""fullscreenenter"",""1"",""3608""
","
","","","8653.80000000447","[""True""]","0","10","11236","5231","","","","","","","","","","","","","","","","","","",""
"pit-instructions","112","943374","0.0-2.0-24.0-1.0","battery-v0.2","","""event"",""trial"",""time""
""fullscreenenter"",""1"",""3608""
","
","
","""event"",""trial"",""time""
""fullscreenenter"",""1"",""3608""
","
","","[{""page_index"":0,""viewing_time"":2734.39999999851}]","2735","","","","","","","","","","","","","","","","","","","","","","","",""
"pit-comprehension","113","951306","0.0-2.0-25.0-0.0","battery-v0.2","","""event"",""trial"",""time""
""fullscreenenter"",""1"",""3608""
","
","
","""event"",""trial"",""time""
""fullscreenenter"",""1"",""3608""
","
","","","7926.80000000447","[""True""]","0","10","11236","5231","","","","","","","","","","","","","","","","","","",""
"pit-instructions","114","954496","0.0-2.0-25.0-1.0","battery-v0.2","","""event"",""trial"",""time""
""fullscreenenter"",""1"",""3608""
","
","
","""event"",""trial"",""time""
""fullscreenenter"",""1"",""3608""
","
","","[{""page_index"":0,""viewing_time"":3142.39999999851}]","3142.89999999851","","","","","","","","","","","","","","","","","","","","","","","",""
"pit-comprehension","115","960493","0.0-2.0-26.0-0.0","battery-v0.2","","""event"",""trial"",""time""
""fullscreenenter"",""1"",""3608""
","
","
","""event"",""trial"",""time""
""fullscreenenter"",""1"",""3608""
","
","","","5992.10000000149","[""False""]","0","10","11236","5231","","","","","","","","","","","","","","","","","","",""
"pit-instructions","116","962367","0.0-2.0-26.0-1.0","battery-v0.2","","""event"",""trial"",""time""
""fullscreenenter"",""1"",""3608""
","
","
","""event"",""trial"",""time""
""fullscreenenter"",""1"",""3608""
","
","","[{""page_index"":0,""viewing_time"":1823.7999999970198}]","1824.1999999955297","","","","","","","","","","","","","","","","","","","","","","","",""
"pit-instructions","117","981270","0.0-3.0","battery-v0.2","","""event"",""trial"",""time""
""fullscreenenter"",""1"",""3608""
","
","
","""event"",""trial"",""time""
""fullscreenenter"",""1"",""3608""
","
","","[{""page_index"":0,""viewing_time"":3996.0999999940395},{""page_index"":1,""viewing_time"":7424},{""page_index"":2,""viewing_time"":7479.80000000447}]","18900.39999999851","","","","","","","","","","","","","","","","","","","","","","","",""
"pit-trial","118","985061","0.0-4.0","battery-v0.2","","""event"",""trial"",""time""
""fullscreenenter"",""1"",""3608""
","
","
","""event"",""trial"",""time""
""fullscreenenter"",""1"",""3608""
","
","","","927.3000000044703","","","10","11236","5231","&#9730;","elianto","#3366ff99"," "," ","1","+10","[1779.3000000044703]","1","1","","","11236","1","1","1","win","go","0"
"pit-trial","119","989920","0.0-5.0","battery-v0.2","","""event"",""trial"",""time""
""fullscreenenter"",""1"",""3608""
","
","
","""event"",""trial"",""time""
""fullscreenenter"",""1"",""3608""
","
","","","-1","","","10","11236","5231","&#9728;","elianto","#f73b6a7A","-1","-1","1","0","[]","0","1","","","11236","2","0","4","lose","no-go","0"
"pit-trial","120","993844","0.0-6.0","battery-v0.2","","""event"",""trial"",""time""
""fullscreenenter"",""1"",""3608""
","
","
","""event"",""trial"",""time""
""fullscreenenter"",""1"",""3608""
","
","","","1069.5999999940395","","","10","11236","5231","&#9752;","elianto","#f73b6a7A"," "," ","1","0","[1919.8999999985099]","1","1","","","11236","3","3","3","lose","go","0"
"pit-trial","121","998005","0.0-7.0","battery-v0.2","","""event"",""trial"",""time""
""fullscreenenter"",""1"",""3608""
","
","
","""event"",""trial"",""time""
""fullscreenenter"",""1"",""3608""
","
","","","1305.1000000014901","","","10","11236","5231","&#9733;","elianto","#3366ff99","-1"," ","0","0","[2155.1999999955297]","1","1","","","11236","4","2","2","win","no-go","0"
"pit-trial","122","1002865","0.0-8.0","battery-v0.2","","""event"",""trial"",""time""
""fullscreenenter"",""1"",""3608""
","
","
","""event"",""trial"",""time""
""fullscreenenter"",""1"",""3608""
","
","","","-1","","","10","11236","5231","&#9728;","elianto","#f73b6a7A","-1","-1","1","0","[]","0","1","","","11236","5","0","4","lose","no-go","0"
"pit-trial","123","1007103","0.0-9.0","battery-v0.2","","""event"",""trial"",""time""
""fullscreenenter"",""1"",""3608""
","
","
","""event"",""trial"",""time""
""fullscreenenter"",""1"",""3608""
","
","","","1380.5","","","10","11236","5231","&#9733;","elianto","#3366ff99","-1"," ","0","+10","[2230.89999999851]","1","1","","","11236","6","2","2","win","no-go","1"
"pit-trial","124","1011963","0.0-10.0","battery-v0.2","","""event"",""trial"",""time""
""fullscreenenter"",""1"",""3608""
","
","
","""event"",""trial"",""time""
""fullscreenenter"",""1"",""3608""
","
","","","-1","","","10","11236","5231","&#9752;","elianto","#f73b6a7A"," ","-1","0","0","[]","0","1","","","11236","7","3","3","lose","go","1"
"pit-trial","125","1015452","0.0-11.0","battery-v0.2","","""event"",""trial"",""time""
""fullscreenenter"",""1"",""3608""
","
","
","""event"",""trial"",""time""
""fullscreenenter"",""1"",""3608""
","
","","","634.7000000029802","","","10","11236","5231","&#9730;","elianto","#3366ff99"," "," ","1","+10","[1485]","1","1","","","11236","8","1","1","win","go","0"
"pit-trial","126","1020311","0.0-12.0","battery-v0.2","","""event"",""trial"",""time""
""fullscreenenter"",""1"",""3608""
","
","
","""event"",""trial"",""time""
""fullscreenenter"",""1"",""3608""
","
","","","-1","","","10","11236","5231","&#9728;","elianto","#f73b6a7A","-1","-1","1","0","[]","0","1","","","11236","9","0","4","lose","no-go","0"
"pit-trial","127","1023840","0.0-13.0","battery-v0.2","","""event"",""trial"",""time""
""fullscreenenter"",""1"",""3608""
","
","
","""event"",""trial"",""time""
""fullscreenenter"",""1"",""3608""
","
","","","671.6000000014901","","","10","11236","5231","&#9733;","elianto","#3366ff99","-1"," ","0","+10","[1521.6999999955297]","1","1","","","11236","10","2","2","win","no-go","1"
"pit-trial","128","1028699","0.0-14.0","battery-v0.2","","""event"",""trial"",""time""
""fullscreenenter"",""1"",""3608""
","
","
","""event"",""trial"",""time""
""fullscreenenter"",""1"",""3608""
","
","","","-1","","","10","11236","5231","&#9752;","elianto","#f73b6a7A"," ","-1","0","-10","[]","0","1","","","11236","11","3","3","lose","go","0"
"pit-trial","129","1032141","0.0-15.0","battery-v0.2","","""event"",""trial"",""time""
""fullscreenenter"",""1"",""3608""
","
","
","""event"",""trial"",""time""
""fullscreenenter"",""1"",""3608""
","
","","","586.6999999955297","","","10","11236","5231","&#9730;","elianto","#3366ff99"," "," ","1","0","[1436.7999999970198]","1","1","","","11236","12","1","1","win","go","1"
"pit-trial","130","1037000","0.0-16.0","battery-v0.2","","""event"",""trial"",""time""
""fullscreenenter"",""1"",""3608""
","
","
","""event"",""trial"",""time""
""fullscreenenter"",""1"",""3608""
","
","","","-1","","","10","11236","5231","&#9752;","elianto","#f73b6a7A"," ","-1","0","0","[]","0","1","","","11236","13","3","3","lose","go","1"
"pit-trial","131","1040605","0.0-17.0","battery-v0.2","","""event"",""trial"",""time""
""fullscreenenter"",""1"",""3608""
","
","
","""event"",""trial"",""time""
""fullscreenenter"",""1"",""3608""
","
","","","749.8000000044703","","","10","11236","5231","&#9733;","elianto","#3366ff99","-1"," ","0","0","[1599.8999999985099]","1","1","","","11236","14","2","2","win","no-go","0"
"pit-trial","132","1044175","0.0-18.0","battery-v0.2","","""event"",""trial"",""time""
""fullscreenenter"",""1"",""3608""
","
","
","""event"",""trial"",""time""
""fullscreenenter"",""1"",""3608""
","
","","","712","","","10","11236","5231","&#9730;","elianto","#3366ff99"," "," ","1","+10","[1562.7999999970198]","1","1","","","11236","15","1","1","win","go","0"
"pit-trial","133","1049034","0.0-19.0","battery-v0.2","","""event"",""trial"",""time""
""fullscreenenter"",""1"",""3608""
","
","
","""event"",""trial"",""time""
""fullscreenenter"",""1"",""3608""
","
","","","-1","","","10","11236","5231","&#9728;","elianto","#f73b6a7A","-1","-1","1","0","[]","0","1","","","11236","16","0","4","lose","no-go","0"
"pit-trial","134","1053893","0.0-20.0","battery-v0.2","","""event"",""trial"",""time""
""fullscreenenter"",""1"",""3608""
","
","
","""event"",""trial"",""time""
""fullscreenenter"",""1"",""3608""
","
","","","-1","","","10","11236","5231","&#9752;","elianto","#f73b6a7A"," ","-1","0","0","[]","0","1","","","11236","17","3","3","lose","go","1"
"pit-trial","135","1058752","0.0-21.0","battery-v0.2","","""event"",""trial"",""time""
""fullscreenenter"",""1"",""3608""
","
","
","""event"",""trial"",""time""
""fullscreenenter"",""1"",""3608""
","
","","","-1","","","10","11236","5231","&#9728;","elianto","#f73b6a7A","-1","-1","1","0","[]","0","1","","","11236","18","0","4","lose","no-go","0"
"pit-trial","136","1062380","0.0-22.0","battery-v0.2","","""event"",""trial"",""time""
""fullscreenenter"",""1"",""3608""
","
","
","""event"",""trial"",""time""
""fullscreenenter"",""1"",""3608""
","
","","","774.5999999940395","","","10","11236","5231","&#9733;","elianto","#3366ff99","-1"," ","0","0","[1624.7000000029802]","1","1","","","11236","19","2","2","win","no-go","0"
"pit-trial","137","1066200","0.0-23.0","battery-v0.2","","""event"",""trial"",""time""
""fullscreenenter"",""1"",""3608""
","
","
","""event"",""trial"",""time""
""fullscreenenter"",""1"",""3608""
","
","","","962.2000000029802","","","10","11236","5231","&#9730;","elianto","#3366ff99"," "," ","1","+10","[1812.1999999955297]","1","1","","","11236","20","1","1","win","go","0"
"pit-instructions","138","1078560","0.0-24.0","battery-v0.2","","""event"",""trial"",""time""
""fullscreenenter"",""1"",""3608""
","
","
","""event"",""trial"",""time""
""fullscreenenter"",""1"",""3608""
","
","","[{""page_index"":0,""viewing_time"":5808.60000000149},{""page_index"":1,""viewing_time"":6548.5}]","12357.60000000149","","","","","","","","","","","","","","","","","","","","","","","",""
"pit-trial","139","1083418","0.0-25.0","battery-v0.2","","""event"",""trial"",""time""
""fullscreenenter"",""1"",""3608""
","
","
","""event"",""trial"",""time""
""fullscreenenter"",""1"",""3608""
","
","","","-1","","","10","11236","5231","a","elianto","#f73b6a7A"," ","-1","0","-10","[]","0","2","","","11236","21","2","3","lose","go","0"
"pit-trial","140","1088276","0.0-26.0","battery-v0.2","","""event"",""trial"",""time""
""fullscreenenter"",""1"",""3608""
","
","
","""event"",""trial"",""time""
""fullscreenenter"",""1"",""3608""
","
","","","-1","","","10","11236","5231","u","elianto","#f73b6a7A"," ","-1","0","0","[]","0","2","","","11236","22","0","3","lose","go","1"
"pit-trial","141","1092184","0.0-27.0","battery-v0.2","","""event"",""trial"",""time""
""fullscreenenter"",""1"",""3608""
","
","
","""event"",""trial"",""time""
""fullscreenenter"",""1"",""3608""
","
","","","1049.6000000014901","","","10","11236","5231","l","elianto","#3366ff99","-1"," ","0","0","[1900.3999999985099]","1","2","","","11236","23","1","2","win","no-go","0"
"pit-trial","142","1096486","0.0-28.0","battery-v0.2","","""event"",""trial"",""time""
""fullscreenenter"",""1"",""3608""
","
","
","""event"",""trial"",""time""
""fullscreenenter"",""1"",""3608""
","
","","","1444.2999999970198","","","10","11236","5231","g","elianto","#f73b6a7A","-1"," ","0","-10","[2296.1999999955297]","1","2","","","11236","24","3","4","lose","no-go","0"
"pit-trial","143","1101345","0.0-29.0","battery-v0.2","","""event"",""trial"",""time""
""fullscreenenter"",""1"",""3608""
","
","
","""event"",""trial"",""time""
""fullscreenenter"",""1"",""3608""
","
","","","-1","","","10","11236","5231","l","elianto","#3366ff99","-1","-1","1","+10","[]","0","2","","","11236","25","1","2","win","no-go","0"
"pit-trial","144","1106204","0.0-30.0","battery-v0.2","","""event"",""trial"",""time""
""fullscreenenter"",""1"",""3608""
","
","
","""event"",""trial"",""time""
""fullscreenenter"",""1"",""3608""
","
","","","-1","","","10","11236","5231","u","elianto","#f73b6a7A"," ","-1","0","-10","[]","0","2","","","11236","26","0","3","lose","go","0"
"pit-trial","145","1111064","0.0-31.0","battery-v0.2","","""event"",""trial"",""time""
""fullscreenenter"",""1"",""3608""
","
","
","""event"",""trial"",""time""
""fullscreenenter"",""1"",""3608""
","
","","","-1","","","10","11236","5231","g","elianto","#f73b6a7A","-1","-1","1","-10","[]","0","2","","","11236","27","3","4","lose","no-go","1"
"pit-trial","146","1115191","0.0-32.0","battery-v0.2","","""event"",""trial"",""time""
""fullscreenenter"",""1"",""3608""
","
","
","""event"",""trial"",""time""
""fullscreenenter"",""1"",""3608""
","
","","","1270.7999999970198","","","10","11236","5231","a","elianto","#f73b6a7A"," "," ","1","-10","[2122.10000000149]","1","2","","","11236","28","2","3","lose","go","1"
"pit-trial","147","1120050","0.0-33.0","battery-v0.2","","""event"",""trial"",""time""
""fullscreenenter"",""1"",""3608""
","
","
","""event"",""trial"",""time""
""fullscreenenter"",""1"",""3608""
","
","","","-1","","","10","11236","5231","g","elianto","#f73b6a7A","-1","-1","1","-10","[]","0","2","","","11236","29","3","4","lose","no-go","1"
"pit-trial","148","1124293","0.0-34.0","battery-v0.2","","""event"",""trial"",""time""
""fullscreenenter"",""1"",""3608""
","
","
","""event"",""trial"",""time""
""fullscreenenter"",""1"",""3608""
","
","","","1389.3000000044703","","","10","11236","5231","u","elianto","#f73b6a7A"," "," ","1","0","[2239.9000000059605]","1","2","","","11236","30","0","3","lose","go","0"
"pit-trial","149","1128101","0.0-35.0","battery-v0.2","","""event"",""trial"",""time""
""fullscreenenter"",""1"",""3608""
","
","
","""event"",""trial"",""time""
""fullscreenenter"",""1"",""3608""
","
","","","953","","","10","11236","5231","l","elianto","#3366ff99","-1"," ","0","0","[1804.1000000014901]","1","2","","","11236","31","1","2","win","no-go","0"
"pit-trial","150","1132960","0.0-36.0","battery-v0.2","","""event"",""trial"",""time""
""fullscreenenter"",""1"",""3608""
","
","
","""event"",""trial"",""time""
""fullscreenenter"",""1"",""3608""
","
","","","-1","","","10","11236","5231","a","elianto","#f73b6a7A"," ","-1","0","-10","[]","0","2","","","11236","32","2","3","lose","go","0"
"pit-trial","151","1137064","0.0-37.0","battery-v0.2","","""event"",""trial"",""time""
""fullscreenenter"",""1"",""3608""
","
","
","""event"",""trial"",""time""
""fullscreenenter"",""1"",""3608""
","
","","","1247.2999999970198","","","10","11236","5231","u","elianto","#f73b6a7A"," "," ","1","-10","[2097.60000000149]","1","2","","","11236","33","0","3","lose","go","1"
"pit-trial","152","1141314","0.0-38.0","battery-v0.2","","""event"",""trial"",""time""
""fullscreenenter"",""1"",""3608""
","
","
","""event"",""trial"",""time""
""fullscreenenter"",""1"",""3608""
","
","","","1389.8999999985099","","","10","11236","5231","a","elianto","#f73b6a7A"," "," ","1","-10","[2241.2999999970198]","1","2","","","11236","34","2","3","lose","go","1"
"pit-trial","153","1144855","0.0-39.0","battery-v0.2","","""event"",""trial"",""time""
""fullscreenenter"",""1"",""3608""
","
","
","""event"",""trial"",""time""
""fullscreenenter"",""1"",""3608""
","
","","","685.5","","","10","11236","5231","g","elianto","#f73b6a7A","-1"," ","0","0","[1535.7000000029802]","1","2","","","11236","35","3","4","lose","no-go","1"
"pit-trial","154","1148338","0.0-40.0","battery-v0.2","","""event"",""trial"",""time""
""fullscreenenter"",""1"",""3608""
","
","
","""event"",""trial"",""time""
""fullscreenenter"",""1"",""3608""
","
","","","624.7000000029802","","","10","11236","5231","l","elianto","#3366ff99","-1"," ","0","0","[1475]","1","2","","","11236","36","1","2","win","no-go","0"
"pit-trial","155","1151873","0.0-41.0","battery-v0.2","","""event"",""trial"",""time""
""fullscreenenter"",""1"",""3608""
","
","
","""event"",""trial"",""time""
""fullscreenenter"",""1"",""3608""
","
","","","676.7000000029802","","","10","11236","5231","l","elianto","#3366ff99","-1"," ","0","0","[1528.1000000014901]","1","2","","","11236","37","1","2","win","no-go","0"
"pit-trial","156","1156732","0.0-42.0","battery-v0.2","","""event"",""trial"",""time""
""fullscreenenter"",""1"",""3608""
","
","
","""event"",""trial"",""time""
""fullscreenenter"",""1"",""3608""
","
","","","-1","","","10","11236","5231","g","elianto","#f73b6a7A","-1","-1","1","0","[]","0","2","","","11236","38","3","4","lose","no-go","0"
"pit-trial","157","1161591","0.0-43.0","battery-v0.2","","""event"",""trial"",""time""
""fullscreenenter"",""1"",""3608""
","
","
","""event"",""trial"",""time""
""fullscreenenter"",""1"",""3608""
","
","","","-1","","","10","11236","5231","u","elianto","#f73b6a7A"," ","-1","0","-10","[]","0","2","","","11236","39","0","3","lose","go","0"
"pit-trial","158","1166450","0.0-44.0","battery-v0.2","","""event"",""trial"",""time""
""fullscreenenter"",""1"",""3608""
","
","
","""event"",""trial"",""time""
""fullscreenenter"",""1"",""3608""
","
","","","-1","","","10","11236","5231","a","elianto","#f73b6a7A"," ","-1","0","-10","[]","0","2","","","11236","40","2","3","lose","go","0"
"pit-trial","159","1169927","0.0-45.0","battery-v0.2","","""event"",""trial"",""time""
""fullscreenenter"",""1"",""3608""
","
","
","""event"",""trial"",""time""
""fullscreenenter"",""1"",""3608""
","
","","","622.3999999985099","","","10","11236","5231","l","elianto","#3366ff99","-1"," ","0","+10","[1472.6999999955297]","1","2","","","11236","41","1","2","win","no-go","1"
"pit-trial","160","1173335","0.0-46.0","battery-v0.2","","""event"",""trial"",""time""
""fullscreenenter"",""1"",""3608""
","
","
","""event"",""trial"",""time""
""fullscreenenter"",""1"",""3608""
","
","","","552.5999999940395","","","10","11236","5231","g","elianto","#f73b6a7A","-1"," ","0","-10","[1402.8999999985099]","1","2","","","11236","42","3","4","lose","no-go","0"
"pit-trial","161","1176998","0.0-47.0","battery-v0.2","","""event"",""trial"",""time""
""fullscreenenter"",""1"",""3608""
","
","
","""event"",""trial"",""time""
""fullscreenenter"",""1"",""3608""
","
","","","807.1000000014901","","","10","11236","5231","u","elianto","#f73b6a7A"," "," ","1","0","[1659.1000000014901]","1","2","","","11236","43","0","3","lose","go","0"
"pit-trial","162","1180655","0.0-48.0","battery-v0.2","","""event"",""trial"",""time""
""fullscreenenter"",""1"",""3608""
","
","
","""event"",""trial"",""time""
""fullscreenenter"",""1"",""3608""
","
","","","802.6999999955297","","","10","11236","5231","a","elianto","#f73b6a7A"," "," ","1","0","[1653.2999999970198]","1","2","","","11236","44","2","3","lose","go","0"
"pit-trial","163","1184434","0.0-49.0","battery-v0.2","","""event"",""trial"",""time""
""fullscreenenter"",""1"",""3608""
","
","
","""event"",""trial"",""time""
""fullscreenenter"",""1"",""3608""
","
","","","918.6000000014901","","","10","11236","5231","g","elianto","#f73b6a7A","-1"," ","0","-10","[1771]","1","2","","","11236","45","3","4","lose","no-go","0"
"pit-trial","164","1189293","0.0-50.0","battery-v0.2","","""event"",""trial"",""time""
""fullscreenenter"",""1"",""3608""
","
","
","""event"",""trial"",""time""
""fullscreenenter"",""1"",""3608""
","
","","","-1","","","10","11236","5231","u","elianto","#f73b6a7A"," ","-1","0","-10","[]","0","2","","","11236","46","0","3","lose","go","0"
"pit-trial","165","1192776","0.0-51.0","battery-v0.2","","""event"",""trial"",""time""
""fullscreenenter"",""1"",""3608""
","
","
","""event"",""trial"",""time""
""fullscreenenter"",""1"",""3608""
","
","","","626.8999999985099","","","10","11236","5231","l","elianto","#3366ff99","-1"," ","0","0","[1477.8999999985099]","1","2","","","11236","47","1","2","win","no-go","0"
"pit-trial","166","1197634","0.0-52.0","battery-v0.2","","""event"",""trial"",""time""
""fullscreenenter"",""1"",""3608""
","
","
","""event"",""trial"",""time""
""fullscreenenter"",""1"",""3608""
","
","","","-1","","","10","11236","5231","a","elianto","#f73b6a7A"," ","-1","0","0","[]","0","2","","","11236","48","2","3","lose","go","1"
"pit-trial","167","1202494","0.0-53.0","battery-v0.2","","""event"",""trial"",""time""
""fullscreenenter"",""1"",""3608""
","
","
","""event"",""trial"",""time""
""fullscreenenter"",""1"",""3608""
","
","","","-1","","","10","11236","5231","a","elianto","#f73b6a7A"," ","-1","0","-10","[]","0","2","","","11236","49","2","3","lose","go","0"
"pit-trial","168","1206185","0.0-54.0","battery-v0.2","","""event"",""trial"",""time""
""fullscreenenter"",""1"",""3608""
","
","
","""event"",""trial"",""time""
""fullscreenenter"",""1"",""3608""
","
","","","834.8999999985099","","","10","11236","5231","u","elianto","#f73b6a7A"," "," ","1","-10","[1685.2999999970198]","1","2","","","11236","50","0","3","lose","go","1"
"pit-trial","169","1209703","0.0-55.0","battery-v0.2","","""event"",""trial"",""time""
""fullscreenenter"",""1"",""3608""
","
","
","""event"",""trial"",""time""
""fullscreenenter"",""1"",""3608""
","
","","","662.7999999970198","","","10","11236","5231","l","elianto","#3366ff99","-1"," ","0","0","[1513]","1","2","","","11236","51","1","2","win","no-go","0"
"pit-trial","170","1214562","0.0-56.0","battery-v0.2","","""event"",""trial"",""time""
""fullscreenenter"",""1"",""3608""
","
","
","""event"",""trial"",""time""
""fullscreenenter"",""1"",""3608""
","
","","","-1","","","10","11236","5231","g","elianto","#f73b6a7A","-1","-1","1","0","[]","0","2","","","11236","52","3","4","lose","no-go","0"
"pit-trial","171","1219423","0.0-57.0","battery-v0.2","","""event"",""trial"",""time""
""fullscreenenter"",""1"",""3608""
","
","
","""event"",""trial"",""time""
""fullscreenenter"",""1"",""3608""
","
","","","-1","","","10","11236","5231","u","elianto","#f73b6a7A"," ","-1","0","-10","[]","0","2","","","11236","53","0","3","lose","go","0"
"pit-trial","172","1223537","0.0-58.0","battery-v0.2","","""event"",""trial"",""time""
""fullscreenenter"",""1"",""3608""
","
","
","""event"",""trial"",""time""
""fullscreenenter"",""1"",""3608""
","
","","","1256.1000000014901","","","10","11236","5231","g","elianto","#f73b6a7A","-1"," ","0","-10","[2107.6999999955297]","1","2","","","11236","54","3","4","lose","no-go","0"
"pit-trial","173","1228396","0.0-59.0","battery-v0.2","","""event"",""trial"",""time""
""fullscreenenter"",""1"",""3608""
","
","
","""event"",""trial"",""time""
""fullscreenenter"",""1"",""3608""
","
","","","-1","","","10","11236","5231","a","elianto","#f73b6a7A"," ","-1","0","0","[]","0","2","","","11236","55","2","3","lose","go","1"
"pit-trial","174","1233255","0.0-60.0","battery-v0.2","","""event"",""trial"",""time""
""fullscreenenter"",""1"",""3608""
","
","
","""event"",""trial"",""time""
""fullscreenenter"",""1"",""3608""
","
","","","-1","","","10","11236","5231","l","elianto","#3366ff99","-1","-1","1","0","[]","0","2","","","11236","56","1","2","win","no-go","1"
"pit-trial","175","1238113","0.0-61.0","battery-v0.2","","""event"",""trial"",""time""
""fullscreenenter"",""1"",""3608""
","
","
","""event"",""trial"",""time""
""fullscreenenter"",""1"",""3608""
","
","","","-1","","","10","11236","5231","g","elianto","#f73b6a7A","-1","-1","1","0","[]","0","2","","","11236","57","3","4","lose","no-go","0"
"pit-trial","176","1241521","0.0-62.0","battery-v0.2","","""event"",""trial"",""time""
""fullscreenenter"",""1"",""3608""
","
","
","""event"",""trial"",""time""
""fullscreenenter"",""1"",""3608""
","
","","","551.7999999970198","","","10","11236","5231","u","elianto","#f73b6a7A"," "," ","1","0","[1402]","1","2","","","11236","58","0","3","lose","go","0"
"pit-trial","177","1246380","0.0-63.0","battery-v0.2","","""event"",""trial"",""time""
""fullscreenenter"",""1"",""3608""
","
","
","""event"",""trial"",""time""
""fullscreenenter"",""1"",""3608""
","
","","","-1","","","10","11236","5231","a","elianto","#f73b6a7A"," ","-1","0","-10","[]","0","2","","","11236","59","2","3","lose","go","0"
"pit-trial","178","1250385","0.0-64.0","battery-v0.2","","""event"",""trial"",""time""
""fullscreenenter"",""1"",""3608""
","
","
","""event"",""trial"",""time""
""fullscreenenter"",""1"",""3608""
","
","","","1148.6000000014901","","","10","11236","5231","p","elianto","#3366ff99"," "," ","1","+10","[1998.7999999970198]","1","2","","","11236","60","4","1","win","go","0"
"pit-trial","179","1255246","0.0-65.0","battery-v0.2","","""event"",""trial"",""time""
""fullscreenenter"",""1"",""3608""
","
","
","""event"",""trial"",""time""
""fullscreenenter"",""1"",""3608""
","
","","","-1","","","10","11236","5231","g","elianto","#f73b6a7A","-1","-1","1","0","[]","0","2","","","11236","61","3","4","lose","no-go","0"
"pit-trial","180","1258721","0.0-66.0","battery-v0.2","","""event"",""trial"",""time""
""fullscreenenter"",""1"",""3608""
","
","
","""event"",""trial"",""time""
""fullscreenenter"",""1"",""3608""
","
","","","618","","","10","11236","5231","p","elianto","#3366ff99"," "," ","1","+10","[1469.5999999940395]","1","2","","","11236","62","4","1","win","go","0"
"pit-trial","181","1263580","0.0-67.0","battery-v0.2","","""event"",""trial"",""time""
""fullscreenenter"",""1"",""3608""
","
","
","""event"",""trial"",""time""
""fullscreenenter"",""1"",""3608""
","
","","","-1","","","10","11236","5231","l","elianto","#3366ff99","-1","-1","1","+10","[]","0","2","","","11236","63","1","2","win","no-go","0"
"pit-trial","182","1268440","0.0-68.0","battery-v0.2","","""event"",""trial"",""time""
""fullscreenenter"",""1"",""3608""
","
","
","""event"",""trial"",""time""
""fullscreenenter"",""1"",""3608""
","
","","","-1","","","10","11236","5231","a","elianto","#f73b6a7A"," ","-1","0","-10","[]","0","2","","","11236","64","2","3","lose","go","0"
"pit-trial","183","1273298","0.0-69.0","battery-v0.2","","""event"",""trial"",""time""
""fullscreenenter"",""1"",""3608""
","
","
","""event"",""trial"",""time""
""fullscreenenter"",""1"",""3608""
","
","","","-1","","","10","11236","5231","l","elianto","#3366ff99","-1","-1","1","+10","[]","0","2","","","11236","65","1","2","win","no-go","0"
"pit-trial","184","1277723","0.0-70.0","battery-v0.2","","""event"",""trial"",""time""
""fullscreenenter"",""1"",""3608""
","
","
","""event"",""trial"",""time""
""fullscreenenter"",""1"",""3608""
","
","","","1567.6999999955297","","","10","11236","5231","g","elianto","#f73b6a7A","-1"," ","0","-10","[2418.2999999970198]","1","2","","","11236","66","3","4","lose","no-go","0"
"pit-trial","185","1281280","0.0-71.0","battery-v0.2","","""event"",""trial"",""time""
""fullscreenenter"",""1"",""3608""
","
","
","""event"",""trial"",""time""
""fullscreenenter"",""1"",""3608""
","
","","","703.1000000014901","","","10","11236","5231","p","elianto","#3366ff99"," "," ","1","+10","[1553.2000000029802]","1","2","","","11236","67","4","1","win","go","0"
"pit-trial","186","1284873","0.0-72.0","battery-v0.2","","""event"",""trial"",""time""
""fullscreenenter"",""1"",""3608""
","
","
","""event"",""trial"",""time""
""fullscreenenter"",""1"",""3608""
","
","","","737.2999999970198","","","10","11236","5231","s","elianto","#3366ff99","-1"," ","0","0","[1587.5]","1","2","","","11236","68","5","2","win","no-go","0"
"pit-trial","187","1289732","0.0-73.0","battery-v0.2","","""event"",""trial"",""time""
""fullscreenenter"",""1"",""3608""
","
","
","""event"",""trial"",""time""
""fullscreenenter"",""1"",""3608""
","
","","","-1","","","10","11236","5231","a","elianto","#f73b6a7A"," ","-1","0","0","[]","0","2","","","11236","69","2","3","lose","go","1"
"pit-trial","188","1293395","0.0-74.0","battery-v0.2","","""event"",""trial"",""time""
""fullscreenenter"",""1"",""3608""
","
","
","""event"",""trial"",""time""
""fullscreenenter"",""1"",""3608""
","
","","","805.1000000014901","","","10","11236","5231","s","elianto","#3366ff99","-1"," ","0","0","[1655.2000000029802]","1","2","","","11236","70","5","2","win","no-go","0"
"pit-trial","189","1297035","0.0-75.0","battery-v0.2","","""event"",""trial"",""time""
""fullscreenenter"",""1"",""3608""
","
","
","""event"",""trial"",""time""
""fullscreenenter"",""1"",""3608""
","
","","","782.5","","","10","11236","5231","l","elianto","#3366ff99","-1"," ","0","0","[1632.6999999955297]","1","2","","","11236","71","1","2","win","no-go","0"
"pit-trial","190","1300652","0.0-76.0","battery-v0.2","","""event"",""trial"",""time""
""fullscreenenter"",""1"",""3608""
","
","
","""event"",""trial"",""time""
""fullscreenenter"",""1"",""3608""
","
","","","758.1000000014901","","","10","11236","5231","p","elianto","#3366ff99"," "," ","1","+10","[1608.8999999985099]","1","2","","","11236","72","4","1","win","go","0"
"pit-trial","191","1304193","0.0-77.0","battery-v0.2","","""event"",""trial"",""time""
""fullscreenenter"",""1"",""3608""
","
","
","""event"",""trial"",""time""
""fullscreenenter"",""1"",""3608""
","
","","","684.6999999955297","","","10","11236","5231","s","elianto","#3366ff99","-1"," ","0","0","[1536.5999999940395]","1","2","","","11236","73","5","2","win","no-go","0"
"pit-trial","192","1307716","0.0-78.0","battery-v0.2","","""event"",""trial"",""time""
""fullscreenenter"",""1"",""3608""
","
","
","""event"",""trial"",""time""
""fullscreenenter"",""1"",""3608""
","
","","","663.8999999985099","","","10","11236","5231","p","elianto","#3366ff99"," "," ","1","0","[1515.7000000029802]","1","2","","","11236","74","4","1","win","go","1"
"pit-trial","193","1312575","0.0-79.0","battery-v0.2","","""event"",""trial"",""time""
""fullscreenenter"",""1"",""3608""
","
","
","""event"",""trial"",""time""
""fullscreenenter"",""1"",""3608""
","
","","","-1","","","10","11236","5231","g","elianto","#f73b6a7A","-1","-1","1","0","[]","0","2","","","11236","75","3","4","lose","no-go","0"
"pit-trial","194","1316377","0.0-80.0","battery-v0.2","","""event"",""trial"",""time""
""fullscreenenter"",""1"",""3608""
","
","
","""event"",""trial"",""time""
""fullscreenenter"",""1"",""3608""
","
","","","947.3999999985099","","","10","11236","5231","l","elianto","#3366ff99","-1"," ","0","+10","[1797.7999999970198]","1","2","","","11236","76","1","2","win","no-go","1"
"pit-trial","195","1321236","0.0-81.0","battery-v0.2","","""event"",""trial"",""time""
""fullscreenenter"",""1"",""3608""
","
","
","""event"",""trial"",""time""
""fullscreenenter"",""1"",""3608""
","
","","","-1","","","10","11236","5231","p","elianto","#3366ff99"," ","-1","0","0","[]","0","2","","","11236","77","4","1","win","go","0"
"pit-trial","196","1325178","0.0-82.0","battery-v0.2","","""event"",""trial"",""time""
""fullscreenenter"",""1"",""3608""
","
","
","""event"",""trial"",""time""
""fullscreenenter"",""1"",""3608""
","
","","","1085.8999999985099","","","10","11236","5231","p","elianto","#3366ff99"," "," ","1","+10","[1936.1000000014901]","1","2","","","11236","78","4","1","win","go","0"
"pit-trial","197","1330037","0.0-83.0","battery-v0.2","","""event"",""trial"",""time""
""fullscreenenter"",""1"",""3608""
","
","
","""event"",""trial"",""time""
""fullscreenenter"",""1"",""3608""
","
","","","-1","","","10","11236","5231","g","elianto","#f73b6a7A","-1","-1","1","-10","[]","0","2","","","11236","79","3","4","lose","no-go","1"
"pit-trial","198","1334181","0.0-84.0","battery-v0.2","","""event"",""trial"",""time""
""fullscreenenter"",""1"",""3608""
","
","
","""event"",""trial"",""time""
""fullscreenenter"",""1"",""3608""
","
","","","1286","","","10","11236","5231","s","elianto","#3366ff99","-1"," ","0","0","[2136.39999999851]","1","2","","","11236","80","5","2","win","no-go","0"
"pit-trial","199","1339040","0.0-85.0","battery-v0.2","","""event"",""trial"",""time""
""fullscreenenter"",""1"",""3608""
","
","
","""event"",""trial"",""time""
""fullscreenenter"",""1"",""3608""
","
","","","-1","","","10","11236","5231","s","elianto","#3366ff99","-1","-1","1","+10","[]","0","2","","","11236","81","5","2","win","no-go","0"
"pit-trial","200","1343899","0.0-86.0","battery-v0.2","","""event"",""trial"",""time""
""fullscreenenter"",""1"",""3608""
","
","
","""event"",""trial"",""time""
""fullscreenenter"",""1"",""3608""
","
","","","-1","","","10","11236","5231","e","elianto","#f73b6a7A","-1","-1","1","0","[]","0","2","","","11236","82","7","4","lose","no-go","0"
"pit-trial","201","1348759","0.0-87.0","battery-v0.2","","""event"",""trial"",""time""
""fullscreenenter"",""1"",""3608""
","
","
","""event"",""trial"",""time""
""fullscreenenter"",""1"",""3608""
","
","","","-1","","","10","11236","5231","g","elianto","#f73b6a7A","-1","-1","1","-10","[]","0","2","","","11236","83","3","4","lose","no-go","1"
"pit-trial","202","1352526","0.0-88.0","battery-v0.2","","""event"",""trial"",""time""
""fullscreenenter"",""1"",""3608""
","
","
","""event"",""trial"",""time""
""fullscreenenter"",""1"",""3608""
","
","","","908.7999999970198","","","10","11236","5231","p","elianto","#3366ff99"," "," ","1","+10","[1758.8999999985099]","1","2","","","11236","84","4","1","win","go","0"
"pit-trial","203","1357385","0.0-89.0","battery-v0.2","","""event"",""trial"",""time""
""fullscreenenter"",""1"",""3608""
","
","
","""event"",""trial"",""time""
""fullscreenenter"",""1"",""3608""
","
","","","-1","","","10","11236","5231","s","elianto","#3366ff99","-1","-1","1","+10","[]","0","2","","","11236","85","5","2","win","no-go","0"
"pit-trial","204","1361315","0.0-90.0","battery-v0.2","","""event"",""trial"",""time""
""fullscreenenter"",""1"",""3608""
","
","
","""event"",""trial"",""time""
""fullscreenenter"",""1"",""3608""
","
","","","1071.3999999985099","","","10","11236","5231","w","elianto","#f73b6a7A"," "," ","1","0","[1924.1000000014901]","1","2","","","11236","86","6","3","lose","go","0"
"pit-trial","205","1365036","0.0-91.0","battery-v0.2","","""event"",""trial"",""time""
""fullscreenenter"",""1"",""3608""
","
","
","""event"",""trial"",""time""
""fullscreenenter"",""1"",""3608""
","
","","","864.3000000044703","","","10","11236","5231","p","elianto","#3366ff99"," "," ","1","+10","[1714.5]","1","2","","","11236","87","4","1","win","go","0"
"pit-trial","206","1369894","0.0-92.0","battery-v0.2","","""event"",""trial"",""time""
""fullscreenenter"",""1"",""3608""
","
","
","""event"",""trial"",""time""
""fullscreenenter"",""1"",""3608""
","
","","","-1","","","10","11236","5231","e","elianto","#f73b6a7A","-1","-1","1","0","[]","0","2","","","11236","88","7","4","lose","no-go","0"
"pit-trial","207","1374753","0.0-93.0","battery-v0.2","","""event"",""trial"",""time""
""fullscreenenter"",""1"",""3608""
","
","
","""event"",""trial"",""time""
""fullscreenenter"",""1"",""3608""
","
","","","-1","","","10","11236","5231","e","elianto","#f73b6a7A","-1","-1","1","0","[]","0","2","","","11236","89","7","4","lose","no-go","0"
"pit-trial","208","1378457","0.0-94.0","battery-v0.2","","""event"",""trial"",""time""
""fullscreenenter"",""1"",""3608""
","
","
","""event"",""trial"",""time""
""fullscreenenter"",""1"",""3608""
","
","","","849.8000000044703","","","10","11236","5231","w","elianto","#f73b6a7A"," "," ","1","-10","[1700.1000000014901]","1","2","","","11236","90","6","3","lose","go","1"
"pit-trial","209","1382190","0.0-95.0","battery-v0.2","","""event"",""trial"",""time""
""fullscreenenter"",""1"",""3608""
","
","
","""event"",""trial"",""time""
""fullscreenenter"",""1"",""3608""
","
","","","874.2000000029802","","","10","11236","5231","p","elianto","#3366ff99"," "," ","1","0","[1724.3999999985099]","1","2","","","11236","91","4","1","win","go","1"
"pit-trial","210","1387048","0.0-96.0","battery-v0.2","","""event"",""trial"",""time""
""fullscreenenter"",""1"",""3608""
","
","
","""event"",""trial"",""time""
""fullscreenenter"",""1"",""3608""
","
","","","-1","","","10","11236","5231","s","elianto","#3366ff99","-1","-1","1","+10","[]","0","2","","","11236","92","5","2","win","no-go","0"
"pit-trial","211","1390915","0.0-97.0","battery-v0.2","","""event"",""trial"",""time""
""fullscreenenter"",""1"",""3608""
","
","
","""event"",""trial"",""time""
""fullscreenenter"",""1"",""3608""
","
","","","1011.1000000014901","","","10","11236","5231","w","elianto","#f73b6a7A"," "," ","1","0","[1861.5]","1","2","","","11236","93","6","3","lose","go","0"
"pit-trial","212","1395530","0.0-98.0","battery-v0.2","","""event"",""trial"",""time""
""fullscreenenter"",""1"",""3608""
","
","
","""event"",""trial"",""time""
""fullscreenenter"",""1"",""3608""
","
","","","1759.1999999955297","","","10","11236","5231","s","elianto","#3366ff99","-1"," ","0","0","[2610.5999999940395]","1","2","","","11236","94","5","2","win","no-go","0"
"pit-trial","213","1399674","0.0-99.0","battery-v0.2","","""event"",""trial"",""time""
""fullscreenenter"",""1"",""3608""
","
","
","""event"",""trial"",""time""
""fullscreenenter"",""1"",""3608""
","
","","","1289.5","","","10","11236","5231","d","elianto","#3366ff99"," "," ","1","+10","[2139.89999999851]","1","2","","","11236","95","8","1","win","go","0"
"pit-trial","214","1404535","0.0-100.0","battery-v0.2","","""event"",""trial"",""time""
""fullscreenenter"",""1"",""3608""
","
","
","""event"",""trial"",""time""
""fullscreenenter"",""1"",""3608""
","
","","","-1","","","10","11236","5231","e","elianto","#f73b6a7A","-1","-1","1","0","[]","0","2","","","11236","96","7","4","lose","no-go","0"
"pit-trial","215","1408539","0.0-101.0","battery-v0.2","","""event"",""trial"",""time""
""fullscreenenter"",""1"",""3608""
","
","
","""event"",""trial"",""time""
""fullscreenenter"",""1"",""3608""
","
","","","1147.1999999955297","","","10","11236","5231","s","elianto","#3366ff99","-1"," ","0","0","[1998.3999999985099]","1","2","","","11236","97","5","2","win","no-go","0"
"pit-trial","216","1412294","0.0-102.0","battery-v0.2","","""event"",""trial"",""time""
""fullscreenenter"",""1"",""3608""
","
","
","""event"",""trial"",""time""
""fullscreenenter"",""1"",""3608""
","
","","","896.7000000029802","","","10","11236","5231","d","elianto","#3366ff99"," "," ","1","+10","[1746.8000000044703]","1","2","","","11236","98","8","1","win","go","0"
"pit-trial","217","1417154","0.0-103.0","battery-v0.2","","""event"",""trial"",""time""
""fullscreenenter"",""1"",""3608""
","
","
","""event"",""trial"",""time""
""fullscreenenter"",""1"",""3608""
","
","","","-1","","","10","11236","5231","e","elianto","#f73b6a7A","-1","-1","1","0","[]","0","2","","","11236","99","7","4","lose","no-go","0"
"pit-trial","218","1422012","0.0-104.0","battery-v0.2","","""event"",""trial"",""time""
""fullscreenenter"",""1"",""3608""
","
","
","""event"",""trial"",""time""
""fullscreenenter"",""1"",""3608""
","
","","","-1","","","10","11236","5231","w","elianto","#f73b6a7A"," ","-1","0","-10","[3052.10000000149]","1","2","","","11236","100","6","3","lose","go","0"
"pit-trial","219","1426870","0.0-105.0","battery-v0.2","","""event"",""trial"",""time""
""fullscreenenter"",""1"",""3608""
","
","
","""event"",""trial"",""time""
""fullscreenenter"",""1"",""3608""
","
","","","-1","","","10","11236","5231","e","elianto","#f73b6a7A","-1","-1","1","0","[]","0","2","","","11236","101","7","4","lose","no-go","0"
"pit-trial","220","1430668","0.0-106.0","battery-v0.2","","""event"",""trial"",""time""
""fullscreenenter"",""1"",""3608""
","
","
","""event"",""trial"",""time""
""fullscreenenter"",""1"",""3608""
","
","","","941.3000000044703","","","10","11236","5231","j","elianto","#3366ff99"," "," ","1","0","[1792.2000000029802]","1","2","","","11236","102","9","1","win","go","1"
"pit-trial","221","1434389","0.0-107.0","battery-v0.2","","""event"",""trial"",""time""
""fullscreenenter"",""1"",""3608""
","
","
","""event"",""trial"",""time""
""fullscreenenter"",""1"",""3608""
","
","","","863.6000000014901","","","10","11236","5231","s","elianto","#3366ff99","-1"," ","0","0","[1714.3000000044703]","1","2","","","11236","103","5","2","win","no-go","0"
"pit-trial","222","1438082","0.0-108.0","battery-v0.2","","""event"",""trial"",""time""
""fullscreenenter"",""1"",""3608""
","
","
","""event"",""trial"",""time""
""fullscreenenter"",""1"",""3608""
","
","","","838.2000000029802","","","10","11236","5231","d","elianto","#3366ff99"," "," ","1","+10","[1688.3999999985099]","1","2","","","11236","104","8","1","win","go","0"
"pit-trial","223","1441628","0.0-109.0","battery-v0.2","","""event"",""trial"",""time""
""fullscreenenter"",""1"",""3608""
","
","
","""event"",""trial"",""time""
""fullscreenenter"",""1"",""3608""
","
","","","689.7999999970198","","","10","11236","5231","w","elianto","#f73b6a7A"," "," ","1","0","[1540.6000000014901]","1","2","","","11236","105","6","3","lose","go","0"
"pit-trial","224","1445180","0.0-110.0","battery-v0.2","","""event"",""trial"",""time""
""fullscreenenter"",""1"",""3608""
","
","
","""event"",""trial"",""time""
""fullscreenenter"",""1"",""3608""
","
","","","695.8999999985099","","","10","11236","5231","d","elianto","#3366ff99"," "," ","1","0","[1546.1000000014901]","1","2","","","11236","106","8","1","win","go","1"
"pit-trial","225","1448954","0.0-111.0","battery-v0.2","","""event"",""trial"",""time""
""fullscreenenter"",""1"",""3608""
","
","
","""event"",""trial"",""time""
""fullscreenenter"",""1"",""3608""
","
","","","919.7999999970198","","","10","11236","5231","j","elianto","#3366ff99"," "," ","1","0","[1771.8999999985099]","1","2","","","11236","107","9","1","win","go","1"
"pit-trial","226","1452774","0.0-112.0","battery-v0.2","","""event"",""trial"",""time""
""fullscreenenter"",""1"",""3608""
","
","
","""event"",""trial"",""time""
""fullscreenenter"",""1"",""3608""
","
","","","962.2000000029802","","","10","11236","5231","p","elianto","#3366ff99"," "," ","1","+10","[1812.3999999985099]","1","2","","","11236","108","4","1","win","go","0"
"pit-trial","227","1457632","0.0-113.0","battery-v0.2","","""event"",""trial"",""time""
""fullscreenenter"",""1"",""3608""
","
","
","""event"",""trial"",""time""
""fullscreenenter"",""1"",""3608""
","
","","","-1","","","10","11236","5231","j","elianto","#3366ff99"," ","-1","0","0","[]","0","2","","","11236","109","9","1","win","go","0"
"pit-trial","228","1461266","0.0-114.0","battery-v0.2","","""event"",""trial"",""time""
""fullscreenenter"",""1"",""3608""
","
","
","""event"",""trial"",""time""
""fullscreenenter"",""1"",""3608""
","
","","","780","","","10","11236","5231","w","elianto","#f73b6a7A"," "," ","1","-10","[1630.3000000044703]","1","2","","","11236","110","6","3","lose","go","1"
"pit-trial","229","1464755","0.0-115.0","battery-v0.2","","""event"",""trial"",""time""
""fullscreenenter"",""1"",""3608""
","
","
","""event"",""trial"",""time""
""fullscreenenter"",""1"",""3608""
","
","","","634.3999999985099","","","10","11236","5231","d","elianto","#3366ff99"," "," ","1","+10","[1484.7000000029802]","1","2","","","11236","111","8","1","win","go","0"
"pit-trial","230","1468198","0.0-116.0","battery-v0.2","","""event"",""trial"",""time""
""fullscreenenter"",""1"",""3608""
","
","
","""event"",""trial"",""time""
""fullscreenenter"",""1"",""3608""
","
","","","585.5","","","10","11236","5231","s","elianto","#3366ff99","-1"," ","0","0","[1435.5]","1","2","","","11236","112","5","2","win","no-go","0"
"pit-trial","231","1471832","0.0-117.0","battery-v0.2","","""event"",""trial"",""time""
""fullscreenenter"",""1"",""3608""
","
","
","""event"",""trial"",""time""
""fullscreenenter"",""1"",""3608""
","
","","","774.4000000059605","","","10","11236","5231","j","elianto","#3366ff99"," "," ","1","+10","[1625.6000000014901]","1","2","","","11236","113","9","1","win","go","0"
"pit-trial","232","1476691","0.0-118.0","battery-v0.2","","""event"",""trial"",""time""
""fullscreenenter"",""1"",""3608""
","
","
","""event"",""trial"",""time""
""fullscreenenter"",""1"",""3608""
","
","","","-1","","","10","11236","5231","w","elianto","#f73b6a7A"," ","-1","0","-10","[]","0","2","","","11236","114","6","3","lose","go","0"
"pit-trial","233","1480139","0.0-119.0","battery-v0.2","","""event"",""trial"",""time""
""fullscreenenter"",""1"",""3608""
","
","
","""event"",""trial"",""time""
""fullscreenenter"",""1"",""3608""
","
","","","592.6000000014901","","","10","11236","5231","d","elianto","#3366ff99"," "," ","1","+10","[1444.2000000029802]","1","2","","","11236","115","8","1","win","go","0"
"pit-trial","234","1483895","0.0-120.0","battery-v0.2","","""event"",""trial"",""time""
""fullscreenenter"",""1"",""3608""
","
","
","""event"",""trial"",""time""
""fullscreenenter"",""1"",""3608""
","
","","","898.2999999970198","","","10","11236","5231","s","elianto","#3366ff99","-1"," ","0","0","[1748.3999999985099]","1","2","","","11236","116","5","2","win","no-go","0"
"pit-trial","235","1488753","0.0-121.0","battery-v0.2","","""event"",""trial"",""time""
""fullscreenenter"",""1"",""3608""
","
","
","""event"",""trial"",""time""
""fullscreenenter"",""1"",""3608""
","
","","","-1","","","10","11236","5231","s","elianto","#3366ff99","-1","-1","1","+10","[]","0","2","","","11236","117","5","2","win","no-go","0"
"pit-trial","236","1493519","0.0-122.0","battery-v0.2","","""event"",""trial"",""time""
""fullscreenenter"",""1"",""3608""
","
","
","""event"",""trial"",""time""
""fullscreenenter"",""1"",""3608""
","
","","","1907.1999999955297","","","10","11236","5231","j","elianto","#3366ff99"," "," ","1","+10","[2757.39999999851]","1","2","","","11236","118","9","1","win","go","0"
"pit-trial","237","1497043","0.0-123.0","battery-v0.2","","""event"",""trial"",""time""
""fullscreenenter"",""1"",""3608""
","
","
","""event"",""trial"",""time""
""fullscreenenter"",""1"",""3608""
","
","","","667.7999999970198","","","10","11236","5231","d","elianto","#3366ff99"," "," ","1","+10","[1520.1000000014901]","1","2","","","11236","119","8","1","win","go","0"
"pit-trial","238","1501652","0.0-124.0","battery-v0.2","","""event"",""trial"",""time""
""fullscreenenter"",""1"",""3608""
","
","
","""event"",""trial"",""time""
""fullscreenenter"",""1"",""3608""
","
","","","1752.8000000044703","","","10","11236","5231","w","elianto","#f73b6a7A"," "," ","1","0","[2603.2000000029802]","1","2","","","11236","120","6","3","lose","go","0"
"pit-trial","239","1506511","0.0-125.0","battery-v0.2","","""event"",""trial"",""time""
""fullscreenenter"",""1"",""3608""
","
","
","""event"",""trial"",""time""
""fullscreenenter"",""1"",""3608""
","
","","","-1","","","10","11236","5231","e","elianto","#f73b6a7A","-1","-1","1","0","[]","0","2","","","11236","121","7","4","lose","no-go","0"
"pit-trial","240","1510290","0.0-126.0","battery-v0.2","","""event"",""trial"",""time""
""fullscreenenter"",""1"",""3608""
","
","
","""event"",""trial"",""time""
""fullscreenenter"",""1"",""3608""
","
","","","925.6000000014901","","","10","11236","5231","j","elianto","#3366ff99"," "," ","1","+10","[1775.7000000029802]","1","2","","","11236","122","9","1","win","go","0"
"pit-trial","241","1513869","0.0-127.0","battery-v0.2","","""event"",""trial"",""time""
""fullscreenenter"",""1"",""3608""
","
","
","""event"",""trial"",""time""
""fullscreenenter"",""1"",""3608""
","
","","","721.8999999985099","","","10","11236","5231","d","elianto","#3366ff99"," "," ","1","+10","[1572.6999999955297]","1","2","","","11236","123","8","1","win","go","0"
"pit-trial","242","1518156","0.0-128.0","battery-v0.2","","""event"",""trial"",""time""
""fullscreenenter"",""1"",""3608""
","
","
","""event"",""trial"",""time""
""fullscreenenter"",""1"",""3608""
","
","","","1430.4000000059605","","","10","11236","5231","w","elianto","#f73b6a7A"," "," ","1","0","[2281.5]","1","2","","","11236","124","6","3","lose","go","0"
"pit-trial","243","1521947","0.0-129.0","battery-v0.2","","""event"",""trial"",""time""
""fullscreenenter"",""1"",""3608""
","
","
","""event"",""trial"",""time""
""fullscreenenter"",""1"",""3608""
","
","","","936.5","","","10","11236","5231","d","elianto","#3366ff99"," "," ","1","+10","[1786.7000000029802]","1","2","","","11236","125","8","1","win","go","0"
"pit-trial","244","1525389","0.0-130.0","battery-v0.2","","""event"",""trial"",""time""
""fullscreenenter"",""1"",""3608""
","
","
","""event"",""trial"",""time""
""fullscreenenter"",""1"",""3608""
","
","","","585.8999999985099","","","10","11236","5231","j","elianto","#3366ff99"," "," ","1","+10","[1436.3999999985099]","1","2","","","11236","126","9","1","win","go","0"
"pit-trial","245","1529012","0.0-131.0","battery-v0.2","","""event"",""trial"",""time""
""fullscreenenter"",""1"",""3608""
","
","
","""event"",""trial"",""time""
""fullscreenenter"",""1"",""3608""
","
","","","766.6000000014901","","","10","11236","5231","w","elianto","#f73b6a7A"," "," ","1","0","[1618.2999999970198]","1","2","","","11236","127","6","3","lose","go","0"
"pit-trial","246","1533870","0.0-132.0","battery-v0.2","","""event"",""trial"",""time""
""fullscreenenter"",""1"",""3608""
","
","
","""event"",""trial"",""time""
""fullscreenenter"",""1"",""3608""
","
","","","-1","","","10","11236","5231","e","elianto","#f73b6a7A","-1","-1","1","-10","[]","0","2","","","11236","128","7","4","lose","no-go","1"
"pit-trial","247","1537394","0.0-133.0","battery-v0.2","","""event"",""trial"",""time""
""fullscreenenter"",""1"",""3608""
","
","
","""event"",""trial"",""time""
""fullscreenenter"",""1"",""3608""
","
","","","669.5","","","10","11236","5231","j","elianto","#3366ff99"," "," ","1","+10","[1520.5]","1","2","","","11236","129","9","1","win","go","0"
"pit-trial","248","1542253","0.0-134.0","battery-v0.2","","""event"",""trial"",""time""
""fullscreenenter"",""1"",""3608""
","
","
","""event"",""trial"",""time""
""fullscreenenter"",""1"",""3608""
","
","","","-1","","","10","11236","5231","e","elianto","#f73b6a7A","-1","-1","1","-10","[]","0","2","","","11236","130","7","4","lose","no-go","1"
"pit-trial","249","1545860","0.0-135.0","battery-v0.2","","""event"",""trial"",""time""
""fullscreenenter"",""1"",""3608""
","
","
","""event"",""trial"",""time""
""fullscreenenter"",""1"",""3608""
","
","","","750","","","10","11236","5231","w","elianto","#f73b6a7A"," "," ","1","-10","[1602.2000000029802]","1","2","","","11236","131","6","3","lose","go","1"
"pit-trial","250","1549440","0.0-136.0","battery-v0.2","","""event"",""trial"",""time""
""fullscreenenter"",""1"",""3608""
","
","
","""event"",""trial"",""time""
""fullscreenenter"",""1"",""3608""
","
","","","720","","","10","11236","5231","d","elianto","#3366ff99"," "," ","1","+10","[1572]","1","2","","","11236","132","8","1","win","go","0"
"pit-trial","251","1552967","0.0-137.0","battery-v0.2","","""event"",""trial"",""time""
""fullscreenenter"",""1"",""3608""
","
","
","""event"",""trial"",""time""
""fullscreenenter"",""1"",""3608""
","
","","","669.2000000029802","","","10","11236","5231","w","elianto","#f73b6a7A"," "," ","1","0","[1520]","1","2","","","11236","133","6","3","lose","go","0"
"pit-trial","252","1556551","0.0-138.0","battery-v0.2","","""event"",""trial"",""time""
""fullscreenenter"",""1"",""3608""
","
","
","""event"",""trial"",""time""
""fullscreenenter"",""1"",""3608""
","
","","","725.1000000014901","","","10","11236","5231","d","elianto","#3366ff99"," "," ","1","0","[1576.3999999985099]","1","2","","","11236","134","8","1","win","go","1"
"pit-trial","253","1560127","0.0-139.0","battery-v0.2","","""event"",""trial"",""time""
""fullscreenenter"",""1"",""3608""
","
","
","""event"",""trial"",""time""
""fullscreenenter"",""1"",""3608""
","
","","","719.1999999955297","","","10","11236","5231","j","elianto","#3366ff99"," "," ","1","+10","[1569.3000000044703]","1","2","","","11236","135","9","1","win","go","0"
"pit-trial","254","1564986","0.0-140.0","battery-v0.2","","""event"",""trial"",""time""
""fullscreenenter"",""1"",""3608""
","
","
","""event"",""trial"",""time""
""fullscreenenter"",""1"",""3608""
","
","","","-1","","","10","11236","5231","e","elianto","#f73b6a7A","-1","-1","1","-10","[]","0","2","","","11236","136","7","4","lose","no-go","1"
"pit-trial","255","1568521","0.0-141.0","battery-v0.2","","""event"",""trial"",""time""
""fullscreenenter"",""1"",""3608""
","
","
","""event"",""trial"",""time""
""fullscreenenter"",""1"",""3608""
","
","","","676.2000000029802","","","10","11236","5231","d","elianto","#3366ff99"," "," ","1","0","[1526.5]","1","2","","","11236","137","8","1","win","go","1"
"pit-trial","256","1572161","0.0-142.0","battery-v0.2","","""event"",""trial"",""time""
""fullscreenenter"",""1"",""3608""
","
","
","""event"",""trial"",""time""
""fullscreenenter"",""1"",""3608""
","
","","","780.7999999970198","","","10","11236","5231","j","elianto","#3366ff99"," "," ","1","+10","[1631.2999999970198]","1","2","","","11236","138","9","1","win","go","0"
"pit-trial","257","1577020","0.0-143.0","battery-v0.2","","""event"",""trial"",""time""
""fullscreenenter"",""1"",""3608""
","
","
","""event"",""trial"",""time""
""fullscreenenter"",""1"",""3608""
","
","","","-1","","","10","11236","5231","e","elianto","#f73b6a7A","-1","-1","1","0","[]","0","2","","","11236","139","7","4","lose","no-go","0"
"pit-trial","258","1580694","0.0-144.0","battery-v0.2","","""event"",""trial"",""time""
""fullscreenenter"",""1"",""3608""
","
","
","""event"",""trial"",""time""
""fullscreenenter"",""1"",""3608""
","
","","","818.0999999940395","","","10","11236","5231","w","elianto","#f73b6a7A"," "," ","1","0","[1668.8000000044703]","1","2","","","11236","140","6","3","lose","go","0"
"pit-instructions","259","1596810","0.0-145.0","battery-v0.2","","""event"",""trial"",""time""
""fullscreenenter"",""1"",""3608""
","
","
","""event"",""trial"",""time""
""fullscreenenter"",""1"",""3608""
","
","","[{""page_index"":0,""viewing_time"":5545.89999999851},{""page_index"":1,""viewing_time"":10566.5}]","16113","","","","","","","","","","","","","","","","","","","","","","","",""
"pit-trial","260","1600441","0.0-146.0","battery-v0.2","","""event"",""trial"",""time""
""fullscreenenter"",""1"",""3608""
","
","
","""event"",""trial"",""time""
""fullscreenenter"",""1"",""3608""
","
","","","765.7999999970198","","","10","11236","5231","n","elianto","#f73b6a7A","-1"," ","0","-10","[1616.6000000014901]","1","3","","","11236","141","0","4","lose","no-go","0"
"pit-trial","261","1604422","0.0-147.0","battery-v0.2","","""event"",""trial"",""time""
""fullscreenenter"",""1"",""3608""
","
","
","""event"",""trial"",""time""
""fullscreenenter"",""1"",""3608""
","
","","","1125.8999999985099","","","10","11236","5231","t","elianto","#f73b6a7A","-1"," ","0","-10","[1976.1000000014901]","1","3","","","11236","142","2","4","lose","no-go","0"
"pit-trial","262","1608121","0.0-148.0","battery-v0.2","","""event"",""trial"",""time""
""fullscreenenter"",""1"",""3608""
","
","
","""event"",""trial"",""time""
""fullscreenenter"",""1"",""3608""
","
","","","840.1000000014901","","","10","11236","5231","f","elianto","#3366ff99"," "," ","1","+10","[1690.6000000014901]","1","3","","","11236","143","1","1","win","go","0"
"pit-trial","263","1612979","0.0-149.0","battery-v0.2","","""event"",""trial"",""time""
""fullscreenenter"",""1"",""3608""
","
","
","""event"",""trial"",""time""
""fullscreenenter"",""1"",""3608""
","
","","","-1","","","10","11236","5231","b","elianto","#f73b6a7A"," ","-1","0","0","[]","0","3","","","11236","144","3","3","lose","go","1"
"pit-trial","264","1617838","0.0-150.0","battery-v0.2","","""event"",""trial"",""time""
""fullscreenenter"",""1"",""3608""
","
","
","""event"",""trial"",""time""
""fullscreenenter"",""1"",""3608""
","
","","","-1","","","10","11236","5231","n","elianto","#f73b6a7A","-1","-1","1","0","[]","0","3","","","11236","145","0","4","lose","no-go","0"
"pit-trial","265","1622697","0.0-151.0","battery-v0.2","","""event"",""trial"",""time""
""fullscreenenter"",""1"",""3608""
","
","
","""event"",""trial"",""time""
""fullscreenenter"",""1"",""3608""
","
","","","-1","","","10","11236","5231","b","elianto","#f73b6a7A"," ","-1","0","-10","[]","0","3","","","11236","146","3","3","lose","go","0"
"pit-trial","266","1626192","0.0-152.0","battery-v0.2","","""event"",""trial"",""time""
""fullscreenenter"",""1"",""3608""
","
","
","""event"",""trial"",""time""
