"trial_type","trial_index","time_elapsed","internal_node_id","task_version","subject_id","interactions","blur_events","focus_events","fullscreenenter_events","fullscreenexit_events","success","view_history","rt","responses","num_errors","age","subject","participantId","rune","rune_set","hex","correct","choice","accuracy","outcome","keys","total_keys","block","practice","value","sub","trial","stimulus","robot","valence","action","sham"
"pavlovia","0","37","0.0-0.0","battery-v0.2","","""event"",""trial"",""time""
""fullscreenenter"",""1"",""3925""
","
","
","""event"",""trial"",""time""
""fullscreenenter"",""1"",""3925""
","
","","","","","","","","","","","","","","","","","","","","","","","","","","",""
"fullscreen","1","4869","0.0-1.0","battery-v0.2","","""event"",""trial"",""time""
""fullscreenenter"",""1"",""3925""
","
","
","""event"",""trial"",""time""
""fullscreenenter"",""1"",""3925""
","
","true","","","","","","","","","","","","","","","","","","","","","","","","","",""
"pit-instructions","2","18561","0.0-2.0-0.0","battery-v0.2","","""event"",""trial"",""time""
""fullscreenenter"",""1"",""3925""
","
","
","""event"",""trial"",""time""
""fullscreenenter"",""1"",""3925""
","
","","[{""page_index"":0,""viewing_time"":13666.400000000373}]","13667.799999999814","","","","","","","","","","","","","","","","","","","","","","","",""
"pit-comprehension","3","25232","0.0-2.0-1.0-0.0","battery-v0.2","","""event"",""trial"",""time""
""fullscreenenter"",""1"",""3925""
","
","
","""event"",""trial"",""time""
""fullscreenenter"",""1"",""3925""
","
","","","6639.9000000003725","[""shark""]","0","24","4232","3046","","","","","","","","","","","","","","","","","","",""
"pit-instructions","4","27609","0.0-2.0-1.0-1.0","battery-v0.2","","""event"",""trial"",""time""
""fullscreenenter"",""1"",""3925""
","
","
","""event"",""trial"",""time""
""fullscreenenter"",""1"",""3925""
","
","","[{""page_index"":0,""viewing_time"":2317.7999999998137}]","2318.699999999255","","","","","","","","","","","","","","","","","","","","","","","",""
"pit-comprehension","5","32212","0.0-2.0-2.0-0.0","battery-v0.2","","""event"",""trial"",""time""
""fullscreenenter"",""1"",""3925""
","
","
","""event"",""trial"",""time""
""fullscreenenter"",""1"",""3925""
","
","","","4584.700000000186","[""tiger""]","0","24","4232","3046","","","","","","","","","","","","","","","","","","",""
"pit-instructions","6","35319","0.0-2.0-2.0-1.0","battery-v0.2","","""event"",""trial"",""time""
""fullscreenenter"",""1"",""3925""
","
","
","""event"",""trial"",""time""
""fullscreenenter"",""1"",""3925""
","
","","[{""page_index"":0,""viewing_time"":3086.800000000745}]","3087.800000000745","","","","","","","","","","","","","","","","","","","","","","","",""
"pit-instructions","7","162935","0.0-2.0-3.0","battery-v0.2","","""event"",""trial"",""time""
""fullscreenenter"",""1"",""3925""
","
","
","""event"",""trial"",""time""
""fullscreenenter"",""1"",""3925""
","
","","[{""page_index"":0,""viewing_time"":10709.700000000186},{""page_index"":1,""viewing_time"":8627.399999999441},{""page_index"":2,""viewing_time"":7492.5},{""page_index"":3,""viewing_time"":6190},{""page_index"":4,""viewing_time"":7080.9000000003725},{""page_index"":5,""viewing_time"":7029.200000000186},{""page_index"":6,""viewing_time"":8430.799999999814},{""page_index"":7,""viewing_time"":7209.0999999996275},{""page_index"":8,""viewing_time"":6840.9000000003725},{""page_index"":9,""viewing_time"":12189},{""page_index"":10,""viewing_time"":9811.200000000186},{""page_index"":11,""viewing_time"":23028.799999999814},{""page_index"":12,""viewing_time"":6380.0999999996275},{""page_index"":13,""viewing_time"":6570}]","127592.20000000019","","","","","","","","","","","","","","","","","","","","","","","",""
"pit-trial","8","166913","0.0-2.0-4.0-0.0","battery-v0.2","","""event"",""trial"",""time""
""fullscreenenter"",""1"",""3925""
","
","
","""event"",""trial"",""time""
""fullscreenenter"",""1"",""3925""
","
","","","1104.7999999998137","","","24","4232","3046","&#9784;","elianto","#FFFFF080"," "," ","1","&#10004","[1959.6000000005588,2360.100000000559]","2","0","0","","","","","","","",""
"pit-trial","9","170655","0.0-2.0-4.1-0.1","battery-v0.2","","""event"",""trial"",""time""
""fullscreenenter"",""1"",""3925""
","
","
","""event"",""trial"",""time""
""fullscreenenter"",""1"",""3925""
","
","","","867.5","","","24","4232","3046","&#9784;","elianto","#FFFFF080"," "," ","1","&#10004","[1725.7000000001863]","1","0","0","","","","","","","",""
"pit-trial","10","174188","0.0-2.0-4.2-0.2","battery-v0.2","","""event"",""trial"",""time""
""fullscreenenter"",""1"",""3925""
","
","
","""event"",""trial"",""time""
""fullscreenenter"",""1"",""3925""
","
","","","659.6000000005588","","","24","4232","3046","&#9784;","elianto","#FFFFF080"," "," ","1","&#10004","[1510.7000000001863]","1","0","0","","","","","","","",""
"pit-trial","11","177686","0.0-2.0-4.3-0.3","battery-v0.2","","""event"",""trial"",""time""
""fullscreenenter"",""1"",""3925""
","
","
","""event"",""trial"",""time""
""fullscreenenter"",""1"",""3925""
","
","","","622.4000000003725","","","24","4232","3046","&#9784;","elianto","#FFFFF080"," "," ","1","&#10004","[1486.8999999994412]","1","0","0","","","","","","","",""
"pit-trial","12","181421","0.0-2.0-4.4-0.4","battery-v0.2","","""event"",""trial"",""time""
""fullscreenenter"",""1"",""3925""
","
","
","""event"",""trial"",""time""
""fullscreenenter"",""1"",""3925""
","
","","","844.7000000001863","","","24","4232","3046","&#9784;","elianto","#FFFFF080"," "," ","1","&#10004","[1705.7999999998137]","1","0","0","","","","","","","",""
"pit-instructions","13","219915","0.0-2.0-5.0","battery-v0.2","","""event"",""trial"",""time""
""fullscreenenter"",""1"",""3925""
","
","
","""event"",""trial"",""time""
""fullscreenenter"",""1"",""3925""
","
","","[{""page_index"":0,""viewing_time"":15267.399999999441},{""page_index"":1,""viewing_time"":8487},{""page_index"":2,""viewing_time"":7639.200000000186},{""page_index"":3,""viewing_time"":7083.5}]","38478.200000000186","","","","","","","","","","","","","","","","","","","","","","","",""
"pit-trial","14","224802","0.0-2.0-6.0-0.0","battery-v0.2","","""event"",""trial"",""time""
""fullscreenenter"",""1"",""3925""
","
","
","""event"",""trial"",""time""
""fullscreenenter"",""1"",""3925""
","
","","","-1","","","24","4232","3046","&#9854;","elianto","#FFFFF080","-1","-1","1","&#10004","[]","0","0","1","","","","","","","",""
"pit-trial","15","229672","0.0-2.0-6.1-0.1","battery-v0.2","","""event"",""trial"",""time""
""fullscreenenter"",""1"",""3925""
","
","
","""event"",""trial"",""time""
""fullscreenenter"",""1"",""3925""
","
","","","-1","","","24","4232","3046","&#9854;","elianto","#FFFFF080","-1","-1","1","&#10004","[]","0","0","1","","","","","","","",""
"pit-trial","16","234561","0.0-2.0-6.2-0.2","battery-v0.2","","""event"",""trial"",""time""
""fullscreenenter"",""1"",""3925""
","
","
","""event"",""trial"",""time""
""fullscreenenter"",""1"",""3925""
","
","","","-1","","","24","4232","3046","&#9854;","elianto","#FFFFF080","-1","-1","1","&#10004","[]","0","0","1","","","","","","","",""
"pit-trial","17","239432","0.0-2.0-6.3-0.3","battery-v0.2","","""event"",""trial"",""time""
""fullscreenenter"",""1"",""3925""
","
","
","""event"",""trial"",""time""
""fullscreenenter"",""1"",""3925""
","
","","","-1","","","24","4232","3046","&#9854;","elianto","#FFFFF080","-1","-1","1","&#10004","[]","0","0","1","","","","","","","",""
"pit-trial","18","244312","0.0-2.0-6.4-0.4","battery-v0.2","","""event"",""trial"",""time""
""fullscreenenter"",""1"",""3925""
","
","
","""event"",""trial"",""time""
""fullscreenenter"",""1"",""3925""
","
","","","-1","","","24","4232","3046","&#9854;","elianto","#FFFFF080","-1","-1","1","&#10004","[]","0","0","1","","","","","","","",""
"pit-instructions","19","396082","0.0-2.0-7.0","battery-v0.2","","""event"",""trial"",""time""
""fullscreenenter"",""1"",""3925""
","
","
","""event"",""trial"",""time""
""fullscreenenter"",""1"",""3925""
","
","","[{""page_index"":0,""viewing_time"":6874.200000000186},{""page_index"":1,""viewing_time"":7640},{""page_index"":2,""viewing_time"":7035.699999999255},{""page_index"":3,""viewing_time"":7164.800000000745},{""page_index"":4,""viewing_time"":6549.199999999255},{""page_index"":5,""viewing_time"":6100.4000000003725},{""page_index"":6,""viewing_time"":5890.0999999996275},{""page_index"":7,""viewing_time"":8221.900000000373},{""page_index"":8,""viewing_time"":6938.700000000186},{""page_index"":9,""viewing_time"":6749.399999999441},{""page_index"":10,""viewing_time"":7379.600000000559},{""page_index"":11,""viewing_time"":9540.299999999814},{""page_index"":12,""viewing_time"":10810.200000000186},{""page_index"":13,""viewing_time"":9459.799999999814},{""page_index"":14,""viewing_time"":11535.599999999627},{""page_index"":15,""viewing_time"":7944.100000000559},{""page_index"":16,""viewing_time"":16845.799999999814},{""page_index"":17,""viewing_time"":9074.099999999627}]","151755","","","","","","","","","","","","","","","","","","","","","","","",""
"pit-trial","20","400960","0.0-2.0-8.0-0.0","battery-v0.2","","""event"",""trial"",""time""
""fullscreenenter"",""1"",""3925""
","
","
","""event"",""trial"",""time""
""fullscreenenter"",""1"",""3925""
","
","","","-1","","","24","4232","3046","&#9776;","elianto","#3366ff99"," ","-1","0","0","[2918.4000000003725]","1","0","1","","","","","","","",""
"pit-trial","21","405845","0.0-2.0-8.0-1.0","battery-v0.2","","""event"",""trial"",""time""
""fullscreenenter"",""1"",""3925""
","
","
","""event"",""trial"",""time""
""fullscreenenter"",""1"",""3925""
","
","","","-1","","","24","4232","3046","&#9776;","elianto","#3366ff99"," ","-1","0","0","[]","0","0","1","","","","","","","",""
"pit-trial","22","410741","0.0-2.0-8.0-2.0","battery-v0.2","","""event"",""trial"",""time""
""fullscreenenter"",""1"",""3925""
","
","
","""event"",""trial"",""time""
""fullscreenenter"",""1"",""3925""
","
","","","-1","","","24","4232","3046","&#9776;","elianto","#3366ff99"," ","-1","0","0","[]","0","0","1","","","","","","","",""
"pit-trial","23","414960","0.0-2.0-8.0-3.0","battery-v0.2","","""event"",""trial"",""time""
""fullscreenenter"",""1"",""3925""
","
","
","""event"",""trial"",""time""
""fullscreenenter"",""1"",""3925""
","
","","","1341.800000000745","","","24","4232","3046","&#9776;","elianto","#3366ff99"," "," ","1","0","[2207.5]","1","0","1","","","","","","","",""
"pit-trial","24","418990","0.0-2.0-8.0-4.0","battery-v0.2","","""event"",""trial"",""time""
""fullscreenenter"",""1"",""3925""
","
","
","""event"",""trial"",""time""
""fullscreenenter"",""1"",""3925""
","
","","","1152.7999999998137","","","24","4232","3046","&#9776;","elianto","#3366ff99"," "," ","1","+10","[2011.5]","1","0","1","","","","","","","",""
"pit-trial","25","423369","0.0-2.0-8.1-0.1","battery-v0.2","","""event"",""trial"",""time""
""fullscreenenter"",""1"",""3925""
","
","
","""event"",""trial"",""time""
""fullscreenenter"",""1"",""3925""
","
","","","1497.0999999996275","","","24","4232","3046","&#9776;","elianto","#3366ff99"," "," ","1","+10","[2353.2000000001863]","1","0","1","","","","","","","",""
"pit-trial","26","426758","0.0-2.0-8.1-1.1","battery-v0.2","","""event"",""trial"",""time""
""fullscreenenter"",""1"",""3925""
","
","
","""event"",""trial"",""time""
""fullscreenenter"",""1"",""3925""
","
","","","519.7999999998137","","","24","4232","3046","&#9776;","elianto","#3366ff99"," "," ","1","+10","[1378]","1","0","1","","","","","","","",""
"pit-trial","27","430734","0.0-2.0-8.1-2.1","battery-v0.2","","""event"",""trial"",""time""
""fullscreenenter"",""1"",""3925""
","
","
","""event"",""trial"",""time""
""fullscreenenter"",""1"",""3925""
","
","","","1115","","","24","4232","3046","&#9776;","elianto","#3366ff99"," "," ","1","+10","[1966.8999999994412]","1","0","1","","","","","","","",""
"pit-trial","28","434346","0.0-2.0-8.1-3.1","battery-v0.2","","""event"",""trial"",""time""
""fullscreenenter"",""1"",""3925""
","
","
","""event"",""trial"",""time""
""fullscreenenter"",""1"",""3925""
","
","","","737.1000000005588","","","24","4232","3046","&#9776;","elianto","#3366ff99"," "," ","1","0","[1591.699999999255]","1","0","1","","","","","","","",""
"pit-trial","29","439216","0.0-2.0-8.1-4.1","battery-v0.2","","""event"",""trial"",""time""
""fullscreenenter"",""1"",""3925""
","
","
","""event"",""trial"",""time""
""fullscreenenter"",""1"",""3925""
","
","","","-1","","","24","4232","3046","&#9776;","elianto","#3366ff99"," ","-1","0","0","[]","0","0","1","","","","","","","",""
"pit-trial","30","444087","0.0-2.0-8.2-0.2","battery-v0.2","","""event"",""trial"",""time""
""fullscreenenter"",""1"",""3925""
","
","
","""event"",""trial"",""time""
""fullscreenenter"",""1"",""3925""
","
","","","-1","","","24","4232","3046","&#9776;","elianto","#3366ff99"," ","-1","0","0","[]","0","0","1","","","","","","","",""
"pit-trial","31","448955","0.0-2.0-8.2-1.2","battery-v0.2","","""event"",""trial"",""time""
""fullscreenenter"",""1"",""3925""
","
","
","""event"",""trial"",""time""
""fullscreenenter"",""1"",""3925""
","
","","","-1","","","24","4232","3046","&#9776;","elianto","#3366ff99"," ","-1","0","0","[]","0","0","1","","","","","","","",""
"pit-trial","32","453826","0.0-2.0-8.2-2.2","battery-v0.2","","""event"",""trial"",""time""
""fullscreenenter"",""1"",""3925""
","
","
","""event"",""trial"",""time""
""fullscreenenter"",""1"",""3925""
","
","","","-1","","","24","4232","3046","&#9776;","elianto","#3366ff99"," ","-1","0","0","[]","0","0","1","","","","","","","",""
"pit-trial","33","457932","0.0-2.0-8.2-3.2","battery-v0.2","","""event"",""trial"",""time""
""fullscreenenter"",""1"",""3925""
","
","
","""event"",""trial"",""time""
""fullscreenenter"",""1"",""3925""
","
","","","1244.4000000003725","","","24","4232","3046","&#9776;","elianto","#3366ff99"," "," ","1","0","[2095.0999999996275]","1","0","1","","","","","","","",""
"pit-trial","34","461347","0.0-2.0-8.2-4.2","battery-v0.2","","""event"",""trial"",""time""
""fullscreenenter"",""1"",""3925""
","
","
","""event"",""trial"",""time""
""fullscreenenter"",""1"",""3925""
","
","","","545.5","","","24","4232","3046","&#9776;","elianto","#3366ff99"," "," ","1","+10","[1405.2999999998137]","1","0","1","","","","","","","",""
"call-function","35","461353","0.0-2.0-9.0","battery-v0.2","","""event"",""trial"",""time""
""fullscreenenter"",""1"",""3925""
","
","
","""event"",""trial"",""time""
""fullscreenenter"",""1"",""3925""
","
","","","","","","","","","","","","","","","","","","","","","","","","","","",""
"pit-instructions","36","508349","0.0-2.0-10.0","battery-v0.2","","""event"",""trial"",""time""
""fullscreenenter"",""1"",""3925""
","
","
","""event"",""trial"",""time""
""fullscreenenter"",""1"",""3925""
","
","","[{""page_index"":0,""viewing_time"":8990.200000000186},{""page_index"":1,""viewing_time"":8908.099999999627},{""page_index"":2,""viewing_time"":10121.900000000373},{""page_index"":3,""viewing_time"":9999.900000000373},{""page_index"":4,""viewing_time"":8971.099999999627}]","46992.299999999814","","","","","","","","","","","","","","","","","","","","","","","",""
"pit-trial","37","512085","0.0-2.0-11.0-0.0","battery-v0.2","","""event"",""trial"",""time""
""fullscreenenter"",""1"",""3925""
","
","
","""event"",""trial"",""time""
""fullscreenenter"",""1"",""3925""
","
","","","857.7999999998137","","","24","4232","3046","&#9761;","elianto","#3366ff99","-1"," ","0","0","[1720.5999999996275]","1","0","2","","","","","","","",""
"pit-trial","38","515896","0.0-2.0-11.0-1.0","battery-v0.2","","""event"",""trial"",""time""
""fullscreenenter"",""1"",""3925""
","
","
","""event"",""trial"",""time""
""fullscreenenter"",""1"",""3925""
","
","","","931.6999999992549","","","24","4232","3046","&#9761;","elianto","#3366ff99","-1"," ","0","0","[1788.4000000003725]","1","0","2","","","","","","","",""
"pit-trial","39","520796","0.0-2.0-11.0-2.0","battery-v0.2","","""event"",""trial"",""time""
""fullscreenenter"",""1"",""3925""
","
","
","""event"",""trial"",""time""
""fullscreenenter"",""1"",""3925""
","
","","","-1","","","24","4232","3046","&#9761;","elianto","#3366ff99","-1","-1","1","+10","[]","0","0","2","","","","","","","",""
"pit-trial","40","525681","0.0-2.0-11.0-3.0","battery-v0.2","","""event"",""trial"",""time""
""fullscreenenter"",""1"",""3925""
","
","
","""event"",""trial"",""time""
""fullscreenenter"",""1"",""3925""
","
","","","-1","","","24","4232","3046","&#9761;","elianto","#3366ff99","-1","-1","1","0","[]","0","0","2","","","","","","","",""
"pit-trial","41","529046","0.0-2.0-11.0-4.0","battery-v0.2","","""event"",""trial"",""time""
""fullscreenenter"",""1"",""3925""
","
","
","""event"",""trial"",""time""
""fullscreenenter"",""1"",""3925""
","
","","","494.19999999925494","","","24","4232","3046","&#9761;","elianto","#3366ff99","-1"," ","0","0","[1351.7000000001863]","1","0","2","","","","","","","",""
"pit-trial","42","532628","0.0-2.0-11.1-0.1","battery-v0.2","","""event"",""trial"",""time""
""fullscreenenter"",""1"",""3925""
","
","
","""event"",""trial"",""time""
""fullscreenenter"",""1"",""3925""
","
","","","693.7000000001863","","","24","4232","3046","&#9761;","elianto","#3366ff99","-1"," ","0","0","[1553.8999999994412]","1","0","2","","","","","","","",""
"pit-trial","43","536078","0.0-2.0-11.1-1.1","battery-v0.2","","""event"",""trial"",""time""
""fullscreenenter"",""1"",""3925""
","
","
","""event"",""trial"",""time""
""fullscreenenter"",""1"",""3925""
","
","","","576","","","24","4232","3046","&#9761;","elianto","#3366ff99","-1"," ","0","0","[1427.7000000001863]","1","0","2","","","","","","","",""
"pit-trial","44","540043","0.0-2.0-11.1-2.1","battery-v0.2","","""event"",""trial"",""time""
""fullscreenenter"",""1"",""3925""
","
","
","""event"",""trial"",""time""
""fullscreenenter"",""1"",""3925""
","
","","","1091.7000000001863","","","24","4232","3046","&#9761;","elianto","#3366ff99","-1"," ","0","0","[1949]","1","0","2","","","","","","","",""
"pit-trial","45","543212","0.0-2.0-11.1-3.1","battery-v0.2","","""event"",""trial"",""time""
""fullscreenenter"",""1"",""3925""
","
","
","""event"",""trial"",""time""
""fullscreenenter"",""1"",""3925""
","
","","","301","","","24","4232","3046","&#9761;","elianto","#3366ff99","-1"," ","0","+10","[1155.2999999998137]","1","0","2","","","","","","","",""
"pit-trial","46","547565","0.0-2.0-11.1-4.1","battery-v0.2","","""event"",""trial"",""time""
""fullscreenenter"",""1"",""3925""
","
","
","""event"",""trial"",""time""
""fullscreenenter"",""1"",""3925""
","
","","","1479.2999999998137","","","24","4232","3046","&#9761;","elianto","#3366ff99","-1"," ","0","0","[2343]","1","0","2","","","","","","","",""
"pit-trial","47","551201","0.0-2.0-11.2-0.2","battery-v0.2","","""event"",""trial"",""time""
""fullscreenenter"",""1"",""3925""
","
","
","""event"",""trial"",""time""
""fullscreenenter"",""1"",""3925""
","
","","","763.1999999992549","","","24","4232","3046","&#9761;","elianto","#3366ff99","-1"," ","0","0","[1620.4000000003725]","1","0","2","","","","","","","",""
"pit-trial","48","554525","0.0-2.0-11.2-1.2","battery-v0.2","","""event"",""trial"",""time""
""fullscreenenter"",""1"",""3925""
","
","
","""event"",""trial"",""time""
""fullscreenenter"",""1"",""3925""
","
","","","461.59999999962747","","","24","4232","3046","&#9761;","elianto","#3366ff99","-1"," ","0","0","[1313.2999999998137]","1","0","2","","","","","","","",""
"pit-trial","49","558558","0.0-2.0-11.2-2.2","battery-v0.2","","""event"",""trial"",""time""
""fullscreenenter"",""1"",""3925""
","
","
","""event"",""trial"",""time""
""fullscreenenter"",""1"",""3925""
","
","","","1161","","","24","4232","3046","&#9761;","elianto","#3366ff99","-1"," ","0","0","[2019.800000000745]","1","0","2","","","","","","","",""
"pit-trial","50","562233","0.0-2.0-11.2-3.2","battery-v0.2","","""event"",""trial"",""time""
""fullscreenenter"",""1"",""3925""
","
","
","""event"",""trial"",""time""
""fullscreenenter"",""1"",""3925""
","
","","","803","","","24","4232","3046","&#9761;","elianto","#3366ff99","-1"," ","0","+10","[1657.5]","1","0","2","","","","","","","",""
"pit-trial","51","565951","0.0-2.0-11.2-4.2","battery-v0.2","","""event"",""trial"",""time""
""fullscreenenter"",""1"",""3925""
","
","
","""event"",""trial"",""time""
""fullscreenenter"",""1"",""3925""
","
","","","847.7000000001863","","","24","4232","3046","&#9761;","elianto","#3366ff99","-1"," ","0","0","[1706.3999999994412]","1","0","2","","","","","","","",""
"pit-trial","52","569104","0.0-2.0-11.3-0.3","battery-v0.2","","""event"",""trial"",""time""
""fullscreenenter"",""1"",""3925""
","
","
","""event"",""trial"",""time""
""fullscreenenter"",""1"",""3925""
","
","","","284.5","","","24","4232","3046","&#9761;","elianto","#3366ff99","-1"," ","0","0","[1136.199999999255]","1","0","2","","","","","","","",""
"pit-trial","53","573974","0.0-2.0-11.3-1.3","battery-v0.2","","""event"",""trial"",""time""
""fullscreenenter"",""1"",""3925""
","
","
","""event"",""trial"",""time""
""fullscreenenter"",""1"",""3925""
","
","","","-1","","","24","4232","3046","&#9761;","elianto","#3366ff99","-1","-1","1","+10","[]","0","0","2","","","","","","","",""
"pit-trial","54","577622","0.0-2.0-11.3-2.3","battery-v0.2","","""event"",""trial"",""time""
""fullscreenenter"",""1"",""3925""
","
","
","""event"",""trial"",""time""
""fullscreenenter"",""1"",""3925""
","
","","","782.2999999998137","","","24","4232","3046","&#9761;","elianto","#3366ff99","-1"," ","0","0","[1638.5]","1","0","2","","","","","","","",""
"pit-trial","55","581129","0.0-2.0-11.3-3.3","battery-v0.2","","""event"",""trial"",""time""
""fullscreenenter"",""1"",""3925""
","
","
","""event"",""trial"",""time""
""fullscreenenter"",""1"",""3925""
","
","","","635.2999999998137","","","24","4232","3046","&#9761;","elianto","#3366ff99","-1"," ","0","+10","[1491]","1","0","2","","","","","","","",""
"pit-trial","56","584910","0.0-2.0-11.3-4.3","battery-v0.2","","""event"",""trial"",""time""
""fullscreenenter"",""1"",""3925""
","
","
","""event"",""trial"",""time""
""fullscreenenter"",""1"",""3925""
","
","","","912.4000000003725","","","24","4232","3046","&#9761;","elianto","#3366ff99","-1"," ","0","0","[1769.199999999255]","1","0","2","","","","","","","",""
"call-function","57","584915","0.0-2.0-12.0","battery-v0.2","","""event"",""trial"",""time""
""fullscreenenter"",""1"",""3925""
","
","
","""event"",""trial"",""time""
""fullscreenenter"",""1"",""3925""
","
","","","","","","","","","","","","","","","","","","","","","","","","","","",""
"pit-instructions","58","623875","0.0-2.0-13.0","battery-v0.2","","""event"",""trial"",""time""
""fullscreenenter"",""1"",""3925""
","
","
","""event"",""trial"",""time""
""fullscreenenter"",""1"",""3925""
","
","","[{""page_index"":0,""viewing_time"":7631.5999999996275},{""page_index"":1,""viewing_time"":7890.299999999814},{""page_index"":2,""viewing_time"":3930.600000000559},{""page_index"":3,""viewing_time"":12344.699999999255},{""page_index"":4,""viewing_time"":7160}]","38958.199999999255","","","","","","","","","","","","","","","","","","","","","","","",""
"pit-trial","59","627591","0.0-2.0-14.0-0.0","battery-v0.2","","""event"",""trial"",""time""
""fullscreenenter"",""1"",""3925""
","
","
","""event"",""trial"",""time""
""fullscreenenter"",""1"",""3925""
","
","","","849.8999999994412","","","24","4232","3046","&#9826;","elianto","#f73b6a7A","-1"," ","0","-10","[1704.7000000001863]","1","0","3","","","","","","","",""
"pit-trial","60","632476","0.0-2.0-14.0-1.0","battery-v0.2","","""event"",""trial"",""time""
""fullscreenenter"",""1"",""3925""
","
","
","""event"",""trial"",""time""
""fullscreenenter"",""1"",""3925""
","
","","","-1","","","24","4232","3046","&#9826;","elianto","#f73b6a7A","-1","-1","1","0","[]","0","0","3","","","","","","","",""
"pit-trial","61","637355","0.0-2.0-14.0-2.0","battery-v0.2","","""event"",""trial"",""time""
""fullscreenenter"",""1"",""3925""
","
","
","""event"",""trial"",""time""
""fullscreenenter"",""1"",""3925""
","
","","","-1","","","24","4232","3046","&#9826;","elianto","#f73b6a7A","-1","-1","1","0","[]","0","0","3","","","","","","","",""
"pit-trial","62","642235","0.0-2.0-14.0-3.0","battery-v0.2","","""event"",""trial"",""time""
""fullscreenenter"",""1"",""3925""
","
","
","""event"",""trial"",""time""
""fullscreenenter"",""1"",""3925""
","
","","","-1","","","24","4232","3046","&#9826;","elianto","#f73b6a7A","-1","-1","1","-10","[]","0","0","3","","","","","","","",""
"pit-trial","63","647107","0.0-2.0-14.0-4.0","battery-v0.2","","""event"",""trial"",""time""
""fullscreenenter"",""1"",""3925""
","
","
","""event"",""trial"",""time""
""fullscreenenter"",""1"",""3925""
","
","","","-1","","","24","4232","3046","&#9826;","elianto","#f73b6a7A","-1","-1","1","0","[2891.9000000003725]","1","0","3","","","","","","","",""
"pit-trial","64","651986","0.0-2.0-14.1-0.1","battery-v0.2","","""event"",""trial"",""time""
""fullscreenenter"",""1"",""3925""
","
","
","""event"",""trial"",""time""
""fullscreenenter"",""1"",""3925""
","
","","","-1","","","24","4232","3046","&#9826;","elianto","#f73b6a7A","-1","-1","1","0","[3556.4000000003725]","1","0","3","","","","","","","",""
"pit-trial","65","656852","0.0-2.0-14.1-1.1","battery-v0.2","","""event"",""trial"",""time""
""fullscreenenter"",""1"",""3925""
","
","
","""event"",""trial"",""time""
""fullscreenenter"",""1"",""3925""
","
","","","-1","","","24","4232","3046","&#9826;","elianto","#f73b6a7A","-1","-1","1","0","[]","0","0","3","","","","","","","",""
"pit-trial","66","661723","0.0-2.0-14.1-2.1","battery-v0.2","","""event"",""trial"",""time""
""fullscreenenter"",""1"",""3925""
","
","
","""event"",""trial"",""time""
""fullscreenenter"",""1"",""3925""
","
","","","-1","","","24","4232","3046","&#9826;","elianto","#f73b6a7A","-1","-1","1","0","[243.79999999981374,3454.7999999998137]","2","0","3","","","","","","","",""
"pit-trial","67","665639","0.0-2.0-14.1-3.1","battery-v0.2","","""event"",""trial"",""time""
""fullscreenenter"",""1"",""3925""
","
","
","""event"",""trial"",""time""
""fullscreenenter"",""1"",""3925""
","
","","","1043.7000000001863","","","24","4232","3046","&#9826;","elianto","#f73b6a7A","-1"," ","0","0","[1901.4000000003725]","1","0","3","","","","","","","",""
"pit-trial","68","669722","0.0-2.0-14.1-4.1","battery-v0.2","","""event"",""trial"",""time""
""fullscreenenter"",""1"",""3925""
","
","
","""event"",""trial"",""time""
""fullscreenenter"",""1"",""3925""
","
","","","1216.0999999996275","","","24","4232","3046","&#9826;","elianto","#f73b6a7A","-1"," ","0","-10","[2076]","1","0","3","","","","","","","",""
"pit-trial","69","674596","0.0-2.0-14.2-0.2","battery-v0.2","","""event"",""trial"",""time""
""fullscreenenter"",""1"",""3925""
","
","
","""event"",""trial"",""time""
""fullscreenenter"",""1"",""3925""
","
","","","-1","","","24","4232","3046","&#9826;","elianto","#f73b6a7A","-1","-1","1","0","[]","0","0","3","","","","","","","",""
"pit-trial","70","678997","0.0-2.0-14.2-1.2","battery-v0.2","","""event"",""trial"",""time""
""fullscreenenter"",""1"",""3925""
","
","
","""event"",""trial"",""time""
""fullscreenenter"",""1"",""3925""
","
","","","1538.2000000001863","","","24","4232","3046","&#9826;","elianto","#f73b6a7A","-1"," ","0","-10","[2388.5]","1","0","3","","","","","","","",""
"pit-trial","71","683020","0.0-2.0-14.2-2.2","battery-v0.2","","""event"",""trial"",""time""
""fullscreenenter"",""1"",""3925""
","
","
","""event"",""trial"",""time""
""fullscreenenter"",""1"",""3925""
","
","","","1151.6000000005588","","","24","4232","3046","&#9826;","elianto","#f73b6a7A","-1"," ","0","-10","[2010.199999999255]","1","0","3","","","","","","","",""
"pit-trial","72","687900","0.0-2.0-14.2-3.2","battery-v0.2","","""event"",""trial"",""time""
""fullscreenenter"",""1"",""3925""
","
","
","""event"",""trial"",""time""
""fullscreenenter"",""1"",""3925""
","
","","","-1","","","24","4232","3046","&#9826;","elianto","#f73b6a7A","-1","-1","1","-10","[]","0","0","3","","","","","","","",""
"pit-trial","73","692770","0.0-2.0-14.2-4.2","battery-v0.2","","""event"",""trial"",""time""
""fullscreenenter"",""1"",""3925""
","
","
","""event"",""trial"",""time""
""fullscreenenter"",""1"",""3925""
","
","","","-1","","","24","4232","3046","&#9826;","elianto","#f73b6a7A","-1","-1","1","0","[]","0","0","3","","","","","","","",""
"pit-trial","74","697539","0.0-2.0-14.3-0.3","battery-v0.2","","""event"",""trial"",""time""
""fullscreenenter"",""1"",""3925""
","
","
","""event"",""trial"",""time""
""fullscreenenter"",""1"",""3925""
","
","","","1893.3999999994412","","","24","4232","3046","&#9826;","elianto","#f73b6a7A","-1"," ","0","-10","[2752.7000000001863]","1","0","3","","","","","","","",""
"pit-trial","75","702422","0.0-2.0-14.3-1.3","battery-v0.2","","""event"",""trial"",""time""
""fullscreenenter"",""1"",""3925""
","
","
","""event"",""trial"",""time""
""fullscreenenter"",""1"",""3925""
","
","","","-1","","","24","4232","3046","&#9826;","elianto","#f73b6a7A","-1","-1","1","0","[3276.0999999996275]","1","0","3","","","","","","","",""
"pit-trial","76","705706","0.0-2.0-14.3-2.3","battery-v0.2","","""event"",""trial"",""time""
""fullscreenenter"",""1"",""3925""
","
","
","""event"",""trial"",""time""
""fullscreenenter"",""1"",""3925""
","
","","","416.3999999994412","","","24","4232","3046","&#9826;","elianto","#f73b6a7A","-1"," ","0","-10","[1275.9000000003725]","1","0","3","","","","","","","",""
"pit-trial","77","710579","0.0-2.0-14.3-3.3","battery-v0.2","","""event"",""trial"",""time""
""fullscreenenter"",""1"",""3925""
","
","
","""event"",""trial"",""time""
""fullscreenenter"",""1"",""3925""
","
","","","-1","","","24","4232","3046","&#9826;","elianto","#f73b6a7A","-1","-1","1","-10","[]","0","0","3","","","","","","","",""
"pit-trial","78","715450","0.0-2.0-14.3-4.3","battery-v0.2","","""event"",""trial"",""time""
""fullscreenenter"",""1"",""3925""
","
","
","""event"",""trial"",""time""
""fullscreenenter"",""1"",""3925""
","
","","","-1","","","24","4232","3046","&#9826;","elianto","#f73b6a7A","-1","-1","1","0","[]","0","0","3","","","","","","","",""
"call-function","79","715455","0.0-2.0-15.0","battery-v0.2","","""event"",""trial"",""time""
""fullscreenenter"",""1"",""3925""
","
","
","""event"",""trial"",""time""
""fullscreenenter"",""1"",""3925""
","
","","","","","","","","","","","","","","","","","","","","","","","","","","",""
"pit-instructions","80","743328","0.0-2.0-16.0","battery-v0.2","","""event"",""trial"",""time""
""fullscreenenter"",""1"",""3925""
","
","
","""event"",""trial"",""time""
""fullscreenenter"",""1"",""3925""
","
","","[{""page_index"":0,""viewing_time"":8470},{""page_index"":1,""viewing_time"":9960},{""page_index"":2,""viewing_time"":4030.2999999998137},{""page_index"":3,""viewing_time"":5409.899999999441}]","27871.199999999255","","","","","","","","","","","","","","","","","","","","","","","",""
"pit-trial","81","746684","0.0-2.0-17.0-0.0","battery-v0.2","","""event"",""trial"",""time""
""fullscreenenter"",""1"",""3925""
","
","
","""event"",""trial"",""time""
""fullscreenenter"",""1"",""3925""
","
","","","468.20000000018626","","","24","4232","3046","&#9789;","elianto","#f73b6a7A"," "," ","1","0","[1328.7000000001863]","1","0","4","","","","","","","",""
"pit-trial","82","751179","0.0-2.0-17.0-1.0","battery-v0.2","","""event"",""trial"",""time""
""fullscreenenter"",""1"",""3925""
","
","
","""event"",""trial"",""time""
""fullscreenenter"",""1"",""3925""
","
","","","1614.7999999998137","","","24","4232","3046","&#9789;","elianto","#f73b6a7A"," "," ","1","0","[2468.800000000745]","1","0","4","","","","","","","",""
"pit-trial","83","755448","0.0-2.0-17.0-2.0","battery-v0.2","","""event"",""trial"",""time""
""fullscreenenter"",""1"",""3925""
","
","
","""event"",""trial"",""time""
""fullscreenenter"",""1"",""3925""
","
","","","1399.0999999996275","","","24","4232","3046","&#9789;","elianto","#f73b6a7A"," "," ","1","0","[2258]","1","0","4","","","","","","","",""
"pit-trial","84","760336","0.0-2.0-17.0-3.0","battery-v0.2","","""event"",""trial"",""time""
""fullscreenenter"",""1"",""3925""
","
","
","""event"",""trial"",""time""
""fullscreenenter"",""1"",""3925""
","
","","","-1","","","24","4232","3046","&#9789;","elianto","#f73b6a7A"," ","-1","0","0","[]","0","0","4","","","","","","","",""
"pit-trial","85","765228","0.0-2.0-17.0-4.0","battery-v0.2","","""event"",""trial"",""time""
""fullscreenenter"",""1"",""3925""
","
","
","""event"",""trial"",""time""
""fullscreenenter"",""1"",""3925""
","
","","","-1","","","24","4232","3046","&#9789;","elianto","#f73b6a7A"," ","-1","0","-10","[]","0","0","4","","","","","","","",""
"pit-trial","86","768849","0.0-2.0-17.1-0.1","battery-v0.2","","""event"",""trial"",""time""
""fullscreenenter"",""1"",""3925""
","
","
","""event"",""trial"",""time""
""fullscreenenter"",""1"",""3925""
","
","","","745.8999999994412","","","24","4232","3046","&#9789;","elianto","#f73b6a7A"," "," ","1","0","[1605.7999999998137]","1","0","4","","","","","","","",""
"pit-trial","87","773724","0.0-2.0-17.1-1.1","battery-v0.2","","""event"",""trial"",""time""
""fullscreenenter"",""1"",""3925""
","
","
","""event"",""trial"",""time""
""fullscreenenter"",""1"",""3925""
","
","","","-1","","","24","4232","3046","&#9789;","elianto","#f73b6a7A"," ","-1","0","-10","[]","0","0","4","","","","","","","",""
"pit-trial","88","777814","0.0-2.0-17.1-2.1","battery-v0.2","","""event"",""trial"",""time""
""fullscreenenter"",""1"",""3925""
","
","
","""event"",""trial"",""time""
""fullscreenenter"",""1"",""3925""
","
","","","1219.5","","","24","4232","3046","&#9789;","elianto","#f73b6a7A"," "," ","1","0","[2076.300000000745]","1","0","4","","","","","","","",""
"pit-trial","89","782686","0.0-2.0-17.1-3.1","battery-v0.2","","""event"",""trial"",""time""
""fullscreenenter"",""1"",""3925""
","
","
","""event"",""trial"",""time""
""fullscreenenter"",""1"",""3925""
","
","","","-1","","","24","4232","3046","&#9789;","elianto","#f73b6a7A"," ","-1","0","0","[]","0","0","4","","","","","","","",""
"pit-trial","90","786768","0.0-2.0-17.1-4.1","battery-v0.2","","""event"",""trial"",""time""
""fullscreenenter"",""1"",""3925""
","
","
","""event"",""trial"",""time""
""fullscreenenter"",""1"",""3925""
","
","","","1211.0999999996275","","","24","4232","3046","&#9789;","elianto","#f73b6a7A"," "," ","1","0","[2064.5]","1","0","4","","","","","","","",""
"pit-trial","91","791648","0.0-2.0-17.2-0.2","battery-v0.2","","""event"",""trial"",""time""
""fullscreenenter"",""1"",""3925""
","
","
","""event"",""trial"",""time""
""fullscreenenter"",""1"",""3925""
","
","","","-1","","","24","4232","3046","&#9789;","elianto","#f73b6a7A"," ","-1","0","-10","[]","0","0","4","","","","","","","",""
"pit-trial","92","796518","0.0-2.0-17.2-1.2","battery-v0.2","","""event"",""trial"",""time""
""fullscreenenter"",""1"",""3925""
","
","
","""event"",""trial"",""time""
""fullscreenenter"",""1"",""3925""
","
","","","-1","","","24","4232","3046","&#9789;","elianto","#f73b6a7A"," ","-1","0","-10","[]","0","0","4","","","","","","","",""
"pit-trial","93","801393","0.0-2.0-17.2-2.2","battery-v0.2","","""event"",""trial"",""time""
""fullscreenenter"",""1"",""3925""
","
","
","""event"",""trial"",""time""
""fullscreenenter"",""1"",""3925""
","
","","","-1","","","24","4232","3046","&#9789;","elianto","#f73b6a7A"," ","-1","0","-10","[]","0","0","4","","","","","","","",""
"pit-trial","94","806264","0.0-2.0-17.2-3.2","battery-v0.2","","""event"",""trial"",""time""
""fullscreenenter"",""1"",""3925""
","
","
","""event"",""trial"",""time""
""fullscreenenter"",""1"",""3925""
","
","","","-1","","","24","4232","3046","&#9789;","elianto","#f73b6a7A"," ","-1","0","0","[]","0","0","4","","","","","","","",""
"pit-trial","95","811137","0.0-2.0-17.2-4.2","battery-v0.2","","""event"",""trial"",""time""
""fullscreenenter"",""1"",""3925""
","
","
","""event"",""trial"",""time""
""fullscreenenter"",""1"",""3925""
","
","","","-1","","","24","4232","3046","&#9789;","elianto","#f73b6a7A"," ","-1","0","-10","[]","0","0","4","","","","","","","",""
"pit-trial","96","816010","0.0-2.0-17.3-0.3","battery-v0.2","","""event"",""trial"",""time""
""fullscreenenter"",""1"",""3925""
","
","
","""event"",""trial"",""time""
""fullscreenenter"",""1"",""3925""
","
","","","-1","","","24","4232","3046","&#9789;","elianto","#f73b6a7A"," ","-1","0","-10","[]","0","0","4","","","","","","","",""
"pit-trial","97","820890","0.0-2.0-17.3-1.3","battery-v0.2","","""event"",""trial"",""time""
""fullscreenenter"",""1"",""3925""
","
","
","""event"",""trial"",""time""
""fullscreenenter"",""1"",""3925""
","
","","","-1","","","24","4232","3046","&#9789;","elianto","#f73b6a7A"," ","-1","0","-10","[]","0","0","4","","","","","","","",""
"pit-trial","98","825761","0.0-2.0-17.3-2.3","battery-v0.2","","""event"",""trial"",""time""
""fullscreenenter"",""1"",""3925""
","
","
","""event"",""trial"",""time""
""fullscreenenter"",""1"",""3925""
","
","","","-1","","","24","4232","3046","&#9789;","elianto","#f73b6a7A"," ","-1","0","-10","[]","0","0","4","","","","","","","",""
"pit-trial","99","830641","0.0-2.0-17.3-3.3","battery-v0.2","","""event"",""trial"",""time""
""fullscreenenter"",""1"",""3925""
","
","
","""event"",""trial"",""time""
""fullscreenenter"",""1"",""3925""
","
","","","-1","","","24","4232","3046","&#9789;","elianto","#f73b6a7A"," ","-1","0","0","[]","0","0","4","","","","","","","",""
"pit-trial","100","835520","0.0-2.0-17.3-4.3","battery-v0.2","","""event"",""trial"",""time""
""fullscreenenter"",""1"",""3925""
","
","
","""event"",""trial"",""time""
""fullscreenenter"",""1"",""3925""
","
","","","-1","","","24","4232","3046","&#9789;","elianto","#f73b6a7A"," ","-1","0","-10","[]","0","0","4","","","","","","","",""
"call-function","101","835525","0.0-2.0-18.0","battery-v0.2","","""event"",""trial"",""time""
""fullscreenenter"",""1"",""3925""
","
","
","""event"",""trial"",""time""
""fullscreenenter"",""1"",""3925""
","
","","","","","","","","","","","","","","","","","","","","","","","","","","",""
"pit-instructions","102","1035654","0.0-2.0-19.0","battery-v0.2","","""event"",""trial"",""time""
""fullscreenenter"",""1"",""3925""
","
","
","""event"",""trial"",""time""
""fullscreenenter"",""1"",""3925""
","
","","[{""page_index"":0,""viewing_time"":125940.59999999963},{""page_index"":1,""viewing_time"":9046.700000000186},{""page_index"":2,""viewing_time"":14395.399999999441},{""page_index"":3,""viewing_time"":8508.300000000745},{""page_index"":4,""viewing_time"":10075.5},{""page_index"":5,""viewing_time"":8609.5},{""page_index"":6,""viewing_time"":9465.399999999441},{""page_index"":7,""viewing_time"":8093.200000000186},{""page_index"":8,""viewing_time"":5987.299999999814}]","200123","","","","","","","","","","","","","","","","","","","","","","","",""
"pit-comprehension","103","1045486","0.0-2.0-20.0-0.0","battery-v0.2","","""event"",""trial"",""time""
""fullscreenenter"",""1"",""3925""
","
","
","""event"",""trial"",""time""
""fullscreenenter"",""1"",""3925""
","
","","","9812.699999999255","[""SPACE""]","0","24","4232","3046","","","","","","","","","","","","","","","","","","",""
"pit-instructions","104","1048773","0.0-2.0-20.0-1.0","battery-v0.2","","""event"",""trial"",""time""
""fullscreenenter"",""1"",""3925""
","
","
","""event"",""trial"",""time""
""fullscreenenter"",""1"",""3925""
","
","","[{""page_index"":0,""viewing_time"":3073.5}]","3074.600000000559","","","","","","","","","","","","","","","","","","","","","","","",""
"pit-comprehension","105","1056385","0.0-2.0-21.0-0.0","battery-v0.2","","""event"",""trial"",""time""
""fullscreenenter"",""1"",""3925""
","
","
","""event"",""trial"",""time""
""fullscreenenter"",""1"",""3925""
","
","","","7583.699999999255","[""10""]","0","24","4232","3046","","","","","","","","","","","","","","","","","","",""
"pit-instructions","106","1060053","0.0-2.0-21.0-1.0","battery-v0.2","","""event"",""trial"",""time""
""fullscreenenter"",""1"",""3925""
","
","
","""event"",""trial"",""time""
""fullscreenenter"",""1"",""3925""
","
","","[{""page_index"":0,""viewing_time"":3573.4000000003725}]","3574.2999999998137","","","","","","","","","","","","","","","","","","","","","","","",""
"pit-comprehension","107","1067736","0.0-2.0-22.0-0.0","battery-v0.2","","""event"",""trial"",""time""
""fullscreenenter"",""1"",""3925""
","
","
","""event"",""trial"",""time""
""fullscreenenter"",""1"",""3925""
","
","","","7664.5","[""-10""]","1","24","4232","3046","","","","","","","","","","","","","","","","","","",""
"pit-instructions","108","1077713","0.0-2.0-22.0-1.0","battery-v0.2","","""event"",""trial"",""time""
""fullscreenenter"",""1"",""3925""
","
","
","""event"",""trial"",""time""
""fullscreenenter"",""1"",""3925""
","
","","[{""page_index"":0,""viewing_time"":9887.700000000186}]","9888.700000000186","","","","","","","","","","","","","","","","","","","","","","","",""
"pit-instructions","109","1079334","0.0-2.0-22.0-2.0-0.0","battery-v0.2","","""event"",""trial"",""time""
""fullscreenenter"",""1"",""3925""
","
","
","""event"",""trial"",""time""
""fullscreenenter"",""1"",""3925""
","
","","[{""page_index"":0,""viewing_time"":1608.2999999998137}]","1609.8999999994412","","","","","","","","","","","","","","","","","","","","","","","",""
"pit-comprehension","110","1086536","0.0-2.0-22.1-0.1","battery-v0.2","","""event"",""trial"",""time""
""fullscreenenter"",""1"",""3925""
","
","
","""event"",""trial"",""time""
""fullscreenenter"",""1"",""3925""
","
","","","7182.299999999814","[""0""]","0","24","4232","3046","","","","","","","","","","","","","","","","","","",""
"pit-instructions","111","1088959","0.0-2.0-22.1-1.1","battery-v0.2","","""event"",""trial"",""time""
""fullscreenenter"",""1"",""3925""
","
","
","""event"",""trial"",""time""
""fullscreenenter"",""1"",""3925""
","
","","[{""page_index"":0,""viewing_time"":2140.899999999441}]","2141.7999999998137","","","","","","","","","","","","","","","","","","","","","","","",""
"pit-comprehension","112","1103326","0.0-2.0-23.0-0.0","battery-v0.2","","""event"",""trial"",""time""
""fullscreenenter"",""1"",""3925""
","
","
","""event"",""trial"",""time""
""fullscreenenter"",""1"",""3925""
","
","","","14350.100000000559","[""True""]","0","24","4232","3046","","","","","","","","","","","","","","","","","","",""
"pit-instructions","113","1106014","0.0-2.0-23.0-1.0","battery-v0.2","","""event"",""trial"",""time""
""fullscreenenter"",""1"",""3925""
","
","
","""event"",""trial"",""time""
""fullscreenenter"",""1"",""3925""
","
","","[{""page_index"":0,""viewing_time"":2469.2000000001863}]","2470.2000000001863","","","","","","","","","","","","","","","","","","","","","","","",""
"pit-comprehension","114","1115726","0.0-2.0-24.0-0.0","battery-v0.2","","""event"",""trial"",""time""
""fullscreenenter"",""1"",""3925""
","
","
","""event"",""trial"",""time""
""fullscreenenter"",""1"",""3925""
","
","","","9695","[""True""]","0","24","4232","3046","","","","","","","","","","","","","","","","","","",""
"pit-instructions","115","1118694","0.0-2.0-24.0-1.0","battery-v0.2","","""event"",""trial"",""time""
""fullscreenenter"",""1"",""3925""
","
","
","""event"",""trial"",""time""
""fullscreenenter"",""1"",""3925""
","
","","[{""page_index"":0,""viewing_time"":2863.5}]","2864.5","","","","","","","","","","","","","","","","","","","","","","","",""
"pit-comprehension","116","1129776","0.0-2.0-25.0-0.0","battery-v0.2","","""event"",""trial"",""time""
""fullscreenenter"",""1"",""3925""
","
","
","""event"",""trial"",""time""
""fullscreenenter"",""1"",""3925""
","
","","","11066.099999999627","[""True""]","0","24","4232","3046","","","","","","","","","","","","","","","","","","",""
"pit-instructions","117","1133554","0.0-2.0-25.0-1.0","battery-v0.2","","""event"",""trial"",""time""
""fullscreenenter"",""1"",""3925""
","
","
","""event"",""trial"",""time""
""fullscreenenter"",""1"",""3925""
","
","","[{""page_index"":0,""viewing_time"":3619.2999999998137}]","3620.2000000001863","","","","","","","","","","","","","","","","","","","","","","","",""
"pit-comprehension","118","1141762","0.0-2.0-26.0-0.0","battery-v0.2","","""event"",""trial"",""time""
""fullscreenenter"",""1"",""3925""
","
","
","""event"",""trial"",""time""
""fullscreenenter"",""1"",""3925""
","
","","","8194.099999999627","[""False""]","0","24","4232","3046","","","","","","","","","","","","","","","","","","",""
"pit-instructions","119","1144701","0.0-2.0-26.0-1.0","battery-v0.2","","""event"",""trial"",""time""
""fullscreenenter"",""1"",""3925""
","
","
","""event"",""trial"",""time""
""fullscreenenter"",""1"",""3925""
","
","","[{""page_index"":0,""viewing_time"":2650.0999999996275}]","2651.0999999996275","","","","","","","","","","","","","","","","","","","","","","","",""
"pit-instructions","120","1222411","0.0-3.0","battery-v0.2","","""event"",""trial"",""time""
""fullscreenenter"",""1"",""3925""
","
","
","""event"",""trial"",""time""
""fullscreenenter"",""1"",""3925""
","
","","[{""page_index"":0,""viewing_time"":4355.9000000003725},{""page_index"":1,""viewing_time"":5559.700000000186},{""page_index"":2,""viewing_time"":67777.70000000019}]","77694.30000000075","","","","","","","","","","","","","","","","","","","","","","","",""
"pit-trial","121","1227294","0.0-4.0","battery-v0.2","","""event"",""trial"",""time""
""fullscreenenter"",""1"",""3925""
","
","
","""event"",""trial"",""time""
""fullscreenenter"",""1"",""3925""
","
","","","-1","","","24","4232","3046","&#9752;","elianto","#f73b6a7A"," ","-1","0","-10","[3383.5]","1","1","","","4232","1","3","3","lose","go","0"
"pit-trial","122","1232168","0.0-5.0","battery-v0.2","","""event"",""trial"",""time""
""fullscreenenter"",""1"",""3925""
","
","
","""event"",""trial"",""time""
""fullscreenenter"",""1"",""3925""
","
","","","-1","","","24","4232","3046","&#9728;","elianto","#f73b6a7A","-1","-1","1","0","[2985.699999999255]","1","1","","","4232","2","0","4","lose","no-go","0"
"pit-trial","123","1236543","0.0-6.0","battery-v0.2","","""event"",""trial"",""time""
""fullscreenenter"",""1"",""3925""
","
","
","""event"",""trial"",""time""
""fullscreenenter"",""1"",""3925""
","
","","","1510.2999999998137","","","24","4232","3046","&#9733;","elianto","#3366ff99","-1"," ","0","+10","[2360.9000000003725]","1","1","","","4232","3","2","2","win","no-go","1"
"pit-trial","124","1240743","0.0-7.0","battery-v0.2","","""event"",""trial"",""time""
""fullscreenenter"",""1"",""3925""
","
","
","""event"",""trial"",""time""
""fullscreenenter"",""1"",""3925""
","
","","","1338.2999999998137","","","24","4232","3046","&#9730;","elianto","#3366ff99"," "," ","1","+10","[2190.5999999996275]","1","1","","","4232","4","1","1","win","go","0"
"pit-trial","125","1244687","0.0-8.0","battery-v0.2","","""event"",""trial"",""time""
""fullscreenenter"",""1"",""3925""
","
","
","""event"",""trial"",""time""
""fullscreenenter"",""1"",""3925""
","
","","","1081.2000000001863","","","24","4232","3046","&#9730;","elianto","#3366ff99"," "," ","1","+10","[1932.5]","1","1","","","4232","5","1","1","win","go","0"
"pit-trial","126","1248864","0.0-9.0","battery-v0.2","","""event"",""trial"",""time""
""fullscreenenter"",""1"",""3925""
","
","
","""event"",""trial"",""time""
""fullscreenenter"",""1"",""3925""
","
","","","1303.0999999996275","","","24","4232","3046","&#9752;","elianto","#f73b6a7A"," "," ","1","0","[2160.5]","1","1","","","4232","6","3","3","lose","go","0"
"pit-trial","127","1252617","0.0-10.0","battery-v0.2","","""event"",""trial"",""time""
""fullscreenenter"",""1"",""3925""
","
","
","""event"",""trial"",""time""
""fullscreenenter"",""1"",""3925""
","
","","","882.5","","","24","4232","3046","&#9733;","elianto","#3366ff99","-1"," ","0","0","[1735]","1","1","","","4232","7","2","2","win","no-go","0"
"pit-trial","128","1256128","0.0-11.0","battery-v0.2","","""event"",""trial"",""time""
""fullscreenenter"",""1"",""3925""
","
","
","""event"",""trial"",""time""
""fullscreenenter"",""1"",""3925""
","
","","","641.5999999996275","","","24","4232","3046","&#9728;","elianto","#f73b6a7A","-1"," ","0","-10","[1495.4000000003725]","1","1","","","4232","8","0","4","lose","no-go","0"
"pit-trial","129","1259950","0.0-12.0","battery-v0.2","","""event"",""trial"",""time""
""fullscreenenter"",""1"",""3925""
","
","
","""event"",""trial"",""time""
""fullscreenenter"",""1"",""3925""
","
","","","960.7000000001863","","","24","4232","3046","&#9728;","elianto","#f73b6a7A","-1"," ","0","-10","[1812.2999999998137]","1","1","","","4232","9","0","4","lose","no-go","0"
"pit-trial","130","1263606","0.0-13.0","battery-v0.2","","""event"",""trial"",""time""
""fullscreenenter"",""1"",""3925""
","
","
","""event"",""trial"",""time""
""fullscreenenter"",""1"",""3925""
","
","","","788.3999999994412","","","24","4232","3046","&#9730;","elianto","#3366ff99"," "," ","1","+10","[1647.5999999996275]","1","1","","","4232","10","1","1","win","go","0"
"pit-trial","131","1267548","0.0-14.0","battery-v0.2","","""event"",""trial"",""time""
""fullscreenenter"",""1"",""3925""
","
","
","""event"",""trial"",""time""
""fullscreenenter"",""1"",""3925""
","
","","","1063.5","","","24","4232","3046","&#9752;","elianto","#f73b6a7A"," "," ","1","0","[1923]","1","1","","","4232","11","3","3","lose","go","0"
"pit-trial","132","1271196","0.0-15.0","battery-v0.2","","""event"",""trial"",""time""
""fullscreenenter"",""1"",""3925""
","
","
","""event"",""trial"",""time""
""fullscreenenter"",""1"",""3925""
","
","","","787.9000000003725","","","24","4232","3046","&#9733;","elianto","#3366ff99","-1"," ","0","0","[1640.5]","1","1","","","4232","12","2","2","win","no-go","0"
"pit-trial","133","1274656","0.0-16.0","battery-v0.2","","""event"",""trial"",""time""
""fullscreenenter"",""1"",""3925""
","
","
","""event"",""trial"",""time""
""fullscreenenter"",""1"",""3925""
","
","","","597.1000000005588","","","24","4232","3046","&#9733;","elianto","#3366ff99","-1"," ","0","+10","[1448.4000000003725]","1","1","","","4232","13","2","2","win","no-go","1"
"pit-trial","134","1278390","0.0-17.0","battery-v0.2","","""event"",""trial"",""time""
""fullscreenenter"",""1"",""3925""
","
","
","""event"",""trial"",""time""
""fullscreenenter"",""1"",""3925""
","
","","","863.9000000003725","","","24","4232","3046","&#9728;","elianto","#f73b6a7A","-1"," ","0","-10","[1721.3999999994412]","1","1","","","4232","14","0","4","lose","no-go","0"
"pit-trial","135","1282045","0.0-18.0","battery-v0.2","","""event"",""trial"",""time""
""fullscreenenter"",""1"",""3925""
","
","
","""event"",""trial"",""time""
""fullscreenenter"",""1"",""3925""
","
","","","790.9000000003725","","","24","4232","3046","&#9730;","elianto","#3366ff99"," "," ","1","+10","[1641.300000000745]","1","1","","","4232","15","1","1","win","go","0"
"pit-trial","136","1286916","0.0-19.0","battery-v0.2","","""event"",""trial"",""time""
""fullscreenenter"",""1"",""3925""
","
","
","""event"",""trial"",""time""
""fullscreenenter"",""1"",""3925""
","
","","","-1","","","24","4232","3046","&#9752;","elianto","#f73b6a7A"," ","-1","0","-10","[]","0","1","","","4232","16","3","3","lose","go","0"
"pit-trial","137","1290724","0.0-20.0","battery-v0.2","","""event"",""trial"",""time""
""fullscreenenter"",""1"",""3925""
","
","
","""event"",""trial"",""time""
""fullscreenenter"",""1"",""3925""
","
","","","935","","","24","4232","3046","&#9730;","elianto","#3366ff99"," "," ","1","0","[1798.3999999994412]","1","1","","","4232","17","1","1","win","go","1"
"pit-trial","138","1295033","0.0-21.0","battery-v0.2","","""event"",""trial"",""time""
""fullscreenenter"",""1"",""3925""
","
","
","""event"",""trial"",""time""
""fullscreenenter"",""1"",""3925""
","
","","","1447.199999999255","","","24","4232","3046","&#9728;","elianto","#f73b6a7A","-1"," ","0","-10","[2299.0999999996275]","1","1","","","4232","18","0","4","lose","no-go","0"
"pit-trial","139","1299910","0.0-22.0","battery-v0.2","","""event"",""trial"",""time""
""fullscreenenter"",""1"",""3925""
","
","
","""event"",""trial"",""time""
""fullscreenenter"",""1"",""3925""
","
","","","-1","","","24","4232","3046","&#9752;","elianto","#f73b6a7A"," ","-1","0","-10","[]","0","1","","","4232","19","3","3","lose","go","0"
"pit-trial","140","1303668","0.0-23.0","battery-v0.2","","""event"",""trial"",""time""
""fullscreenenter"",""1"",""3925""
","
","
","""event"",""trial"",""time""
""fullscreenenter"",""1"",""3925""
","
","","","889.7000000001863","","","24","4232","3046","&#9733;","elianto","#3366ff99","-1"," ","0","0","[1746.3999999994412]","1","1","","","4232","20","2","2","win","no-go","0"
"pit-instructions","141","1319235","0.0-24.0","battery-v0.2","","""event"",""trial"",""time""
""fullscreenenter"",""1"",""3925""
","
","
","""event"",""trial"",""time""
""fullscreenenter"",""1"",""3925""
","
","","[{""page_index"":0,""viewing_time"":7221},{""page_index"":1,""viewing_time"":8339.100000000559}]","15562.600000000559","","","","","","","","","","","","","","","","","","","","","","","",""
"pit-trial","142","1323313","0.0-25.0","battery-v0.2","","""event"",""trial"",""time""
""fullscreenenter"",""1"",""3925""
","
","
","""event"",""trial"",""time""
""fullscreenenter"",""1"",""3925""
","
","","","1189.0999999996275","","","24","4232","3046","m","elianto","#f73b6a7A","-1"," ","0","-10","[2039.5]","1","2","","","4232","21","0","4","lose","no-go","0"
"pit-trial","143","1327151","0.0-26.0","battery-v0.2","","""event"",""trial"",""time""
""fullscreenenter"",""1"",""3925""
","
","
","""event"",""trial"",""time""
""fullscreenenter"",""1"",""3925""
","
","","","945.9000000003725","","","24","4232","3046","r","elianto","#3366ff99"," "," ","1","+10","[1810.5]","1","2","","","4232","22","1","1","win","go","0"
"pit-trial","144","1331361","0.0-27.0","battery-v0.2","","""event"",""trial"",""time""
""fullscreenenter"",""1"",""3925""
","
","
","""event"",""trial"",""time""
""fullscreenenter"",""1"",""3925""
","
","","","1324","","","24","4232","3046","y","elianto","#f73b6a7A","-1"," ","0","0","[2180.100000000559]","1","2","","","4232","23","2","4","lose","no-go","1"
"pit-trial","145","1335353","0.0-28.0","battery-v0.2","","""event"",""trial"",""time""
""fullscreenenter"",""1"",""3925""
","
","
","""event"",""trial"",""time""
""fullscreenenter"",""1"",""3925""
","
","","","1117.3999999994412","","","24","4232","3046","h","elianto","#f73b6a7A"," "," ","1","0","[1976.2999999998137]","1","2","","","4232","24","3","3","lose","go","0"
"pit-trial","146","1339361","0.0-29.0","battery-v0.2","","""event"",""trial"",""time""
""fullscreenenter"",""1"",""3925""
","
","
","""event"",""trial"",""time""
""fullscreenenter"",""1"",""3925""
","
","","","1129.2999999998137","","","24","4232","3046","y","elianto","#f73b6a7A","-1"," ","0","-10","[1988.0999999996275]","1","2","","","4232","25","2","4","lose","no-go","0"
"pit-trial","147","1343024","0.0-30.0","battery-v0.2","","""event"",""trial"",""time""
""fullscreenenter"",""1"",""3925""
","
","
","""event"",""trial"",""time""
""fullscreenenter"",""1"",""3925""
","
","","","784.3000000007451","","","24","4232","3046","r","elianto","#3366ff99"," "," ","1","+10","[1636.8999999994412]","1","2","","","4232","26","1","1","win","go","0"
"pit-trial","148","1347920","0.0-31.0","battery-v0.2","","""event"",""trial"",""time""
""fullscreenenter"",""1"",""3925""
","
","
","""event"",""trial"",""time""
""fullscreenenter"",""1"",""3925""
","
","","","-1","","","24","4232","3046","h","elianto","#f73b6a7A"," ","-1","0","-10","[]","0","2","","","4232","27","3","3","lose","go","0"
"pit-trial","149","1351881","0.0-32.0","battery-v0.2","","""event"",""trial"",""time""
""fullscreenenter"",""1"",""3925""
","
","
","""event"",""trial"",""time""
""fullscreenenter"",""1"",""3925""
","
","","","1093.7000000001863","","","24","4232","3046","m","elianto","#f73b6a7A","-1"," ","0","0","[1945.5]","1","2","","","4232","28","0","4","lose","no-go","1"
"pit-trial","150","1356381","0.0-33.0","battery-v0.2","","""event"",""trial"",""time""
""fullscreenenter"",""1"",""3925""
","
","
","""event"",""trial"",""time""
""fullscreenenter"",""1"",""3925""
","
","","","1641.199999999255","","","24","4232","3046","h","elianto","#f73b6a7A"," "," ","1","0","[2492.2000000001863]","1","2","","","4232","29","3","3","lose","go","0"
"pit-trial","151","1360638","0.0-34.0","battery-v0.2","","""event"",""trial"",""time""
""fullscreenenter"",""1"",""3925""
","
","
","""event"",""trial"",""time""
""fullscreenenter"",""1"",""3925""
","
","","","1383.4000000003725","","","24","4232","3046","r","elianto","#3366ff99"," "," ","1","+10","[2233.899999999441]","1","2","","","4232","30","1","1","win","go","0"
"pit-trial","152","1365371","0.0-35.0","battery-v0.2","","""event"",""trial"",""time""
""fullscreenenter"",""1"",""3925""
","
","
","""event"",""trial"",""time""
""fullscreenenter"",""1"",""3925""
","
","","","1862.7000000001863","","","24","4232","3046","y","elianto","#f73b6a7A","-1"," ","0","-10","[2718.5999999996275]","1","2","","","4232","31","2","4","lose","no-go","0"
"pit-trial","153","1369551","0.0-36.0","battery-v0.2","","""event"",""trial"",""time""
""fullscreenenter"",""1"",""3925""
","
","
","""event"",""trial"",""time""
""fullscreenenter"",""1"",""3925""
","
","","","1317.0999999996275","","","24","4232","3046","m","elianto","#f73b6a7A","-1"," ","0","0","[2168.4000000003725]","1","2","","","4232","32","0","4","lose","no-go","1"
"pit-trial","154","1374429","0.0-37.0","battery-v0.2","","""event"",""trial"",""time""
""fullscreenenter"",""1"",""3925""
","
","
","""event"",""trial"",""time""
""fullscreenenter"",""1"",""3925""
","
","","","-1","","","24","4232","3046","m","elianto","#f73b6a7A","-1","-1","1","0","[]","0","2","","","4232","33","0","4","lose","no-go","0"
"pit-trial","155","1379305","0.0-38.0","battery-v0.2","","""event"",""trial"",""time""
""fullscreenenter"",""1"",""3925""
","
","
","""event"",""trial"",""time""
""fullscreenenter"",""1"",""3925""
","
","","","-1","","","24","4232","3046","r","elianto","#3366ff99"," ","-1","0","0","[]","0","2","","","4232","34","1","1","win","go","0"
"pit-trial","156","1384182","0.0-39.0","battery-v0.2","","""event"",""trial"",""time""
""fullscreenenter"",""1"",""3925""
","
","
","""event"",""trial"",""time""
""fullscreenenter"",""1"",""3925""
","
","","","-1","","","24","4232","3046","y","elianto","#f73b6a7A","-1","-1","1","-10","[]","0","2","","","4232","35","2","4","lose","no-go","1"
"pit-trial","157","1389062","0.0-40.0","battery-v0.2","","""event"",""trial"",""time""
""fullscreenenter"",""1"",""3925""
","
","
","""event"",""trial"",""time""
""fullscreenenter"",""1"",""3925""
","
","","","-1","","","24","4232","3046","h","elianto","#f73b6a7A"," ","-1","0","0","[]","0","2","","","4232","36","3","3","lose","go","1"
"pit-trial","158","1393942","0.0-41.0","battery-v0.2","","""event"",""trial"",""time""
""fullscreenenter"",""1"",""3925""
","
","
","""event"",""trial"",""time""
""fullscreenenter"",""1"",""3925""
","
","","","-1","","","24","4232","3046","m","elianto","#f73b6a7A","-1","-1","1","0","[]","0","2","","","4232","37","0","4","lose","no-go","0"
"pit-trial","159","1398816","0.0-42.0","battery-v0.2","","""event"",""trial"",""time""
""fullscreenenter"",""1"",""3925""
","
","
","""event"",""trial"",""time""
""fullscreenenter"",""1"",""3925""
","
","","","-1","","","24","4232","3046","r","elianto","#3366ff99"," ","-1","0","0","[]","0","2","","","4232","38","1","1","win","go","0"
"pit-trial","160","1403686","0.0-43.0","battery-v0.2","","""event"",""trial"",""time""
""fullscreenenter"",""1"",""3925""
","
","
","""event"",""trial"",""time""
""fullscreenenter"",""1"",""3925""
","
","","","-1","","","24","4232","3046","y","elianto","#f73b6a7A","-1","-1","1","0","[]","0","2","","","4232","39","2","4","lose","no-go","0"
"pit-trial","161","1408558","0.0-44.0","battery-v0.2","","""event"",""trial"",""time""
""fullscreenenter"",""1"",""3925""
","
","
","""event"",""trial"",""time""
""fullscreenenter"",""1"",""3925""
","
","","","-1","","","24","4232","3046","h","elianto","#f73b6a7A"," ","-1","0","0","[]","0","2","","","4232","40","3","3","lose","go","1"
"pit-trial","162","1413430","0.0-45.0","battery-v0.2","","""event"",""trial"",""time""
""fullscreenenter"",""1"",""3925""
","
","
","""event"",""trial"",""time""
""fullscreenenter"",""1"",""3925""
","
","","","-1","","","24","4232","3046","h","elianto","#f73b6a7A"," ","-1","0","-10","[]","0","2","","","4232","41","3","3","lose","go","0"
"pit-trial","163","1417406","0.0-46.0","battery-v0.2","","""event"",""trial"",""time""
""fullscreenenter"",""1"",""3925""
","
","
","""event"",""trial"",""time""
""fullscreenenter"",""1"",""3925""
","
","","","1099.2999999998137","","","24","4232","3046","r","elianto","#3366ff99"," "," ","1","0","[1960.6000000005588]","1","2","","","4232","42","1","1","win","go","1"
"pit-trial","164","1422278","0.0-47.0","battery-v0.2","","""event"",""trial"",""time""
""fullscreenenter"",""1"",""3925""
","
","
","""event"",""trial"",""time""
""fullscreenenter"",""1"",""3925""
","
","","","-1","","","24","4232","3046","m","elianto","#f73b6a7A","-1","-1","1","0","[]","0","2","","","4232","43","0","4","lose","no-go","0"
"pit-trial","165","1426260","0.0-48.0","battery-v0.2","","""event"",""trial"",""time""
""fullscreenenter"",""1"",""3925""
","
","
","""event"",""trial"",""time""
""fullscreenenter"",""1"",""3925""
","
","","","1116","","","24","4232","3046","y","elianto","#f73b6a7A","-1"," ","0","-10","[1968.9000000003725]","1","2","","","4232","44","2","4","lose","no-go","0"
"pit-trial","166","1431131","0.0-49.0","battery-v0.2","","""event"",""trial"",""time""
""fullscreenenter"",""1"",""3925""
","
","
","""event"",""trial"",""time""
""fullscreenenter"",""1"",""3925""
","
","","","-1","","","24","4232","3046","m","elianto","#f73b6a7A","-1","-1","1","0","[]","0","2","","","4232","45","0","4","lose","no-go","0"
"pit-trial","167","1435997","0.0-50.0","battery-v0.2","","""event"",""trial"",""time""
""fullscreenenter"",""1"",""3925""
","
","
","""event"",""trial"",""time""
""fullscreenenter"",""1"",""3925""
","
","","","-1","","","24","4232","3046","h","elianto","#f73b6a7A"," ","-1","0","-10","[]","0","2","","","4232","46","3","3","lose","go","0"
"pit-trial","168","1440869","0.0-51.0","battery-v0.2","","""event"",""trial"",""time""
""fullscreenenter"",""1"",""3925""
","
","
","""event"",""trial"",""time""
""fullscreenenter"",""1"",""3925""
","
","","","-1","","","24","4232","3046","z","elianto","#3366ff99","-1","-1","1","+10","[]","0","2","","","4232","47","4","2","win","no-go","0"
"pit-trial","169","1445748","0.0-52.0","battery-v0.2","","""event"",""trial"",""time""
""fullscreenenter"",""1"",""3925""
","
","
","""event"",""trial"",""time""
""fullscreenenter"",""1"",""3925""
","
","","","-1","","","24","4232","3046","y","elianto","#f73b6a7A","-1","-1","1","0","[]","0","2","","","4232","48","2","4","lose","no-go","0"
"pit-trial","170","1450621","0.0-53.0","battery-v0.2","","""event"",""trial"",""time""
""fullscreenenter"",""1"",""3925""
","
","
","""event"",""trial"",""time""
""fullscreenenter"",""1"",""3925""
","
","","","-1","","","24","4232","3046","h","elianto","#f73b6a7A"," ","-1","0","-10","[]","0","2","","","4232","49","3","3","lose","go","0"
"pit-trial","171","1455491","0.0-54.0","battery-v0.2","","""event"",""trial"",""time""
""fullscreenenter"",""1"",""3925""
","
","
","""event"",""trial"",""time""
""fullscreenenter"",""1"",""3925""
","
","","","-1","","","24","4232","3046","z","elianto","#3366ff99","-1","-1","1","+10","[]","0","2","","","4232","50","4","2","win","no-go","0"
"pit-trial","172","1460358","0.0-55.0","battery-v0.2","","""event"",""trial"",""time""
""fullscreenenter"",""1"",""3925""
","
","
","""event"",""trial"",""time""
""fullscreenenter"",""1"",""3925""
","
","","","-1","","","24","4232","3046","m","elianto","#f73b6a7A","-1","-1","1","0","[]","0","2","","","4232","51","0","4","lose","no-go","0"
"pit-trial","173","1465229","0.0-56.0","battery-v0.2","","""event"",""trial"",""time""
""fullscreenenter"",""1"",""3925""
","
","
","""event"",""trial"",""time""
""fullscreenenter"",""1"",""3925""
","
","","","-1","","","24","4232","3046","r","elianto","#3366ff99"," ","-1","0","0","[]","0","2","","","4232","52","1","1","win","go","0"
"pit-trial","174","1469150","0.0-57.0","battery-v0.2","","""event"",""trial"",""time""
""fullscreenenter"",""1"",""3925""
","
","
","""event"",""trial"",""time""
""fullscreenenter"",""1"",""3925""
","
","","","1047.2999999998137","","","24","4232","3046","m","elianto","#f73b6a7A","-1"," ","0","-10","[1905]","1","2","","","4232","53","0","4","lose","no-go","0"
"pit-trial","175","1472769","0.0-58.0","battery-v0.2","","""event"",""trial"",""time""
""fullscreenenter"",""1"",""3925""
","
","
","""event"",""trial"",""time""
""fullscreenenter"",""1"",""3925""
","
","","","748.3999999994412","","","24","4232","3046","z","elianto","#3366ff99","-1"," ","0","0","[1605.5]","1","2","","","4232","54","4","2","win","no-go","0"
"pit-trial","176","1476895","0.0-59.0","battery-v0.2","","""event"",""trial"",""time""
""fullscreenenter"",""1"",""3925""
","
","
","""event"",""trial"",""time""
""fullscreenenter"",""1"",""3925""
","
","","","1255.7999999998137","","","24","4232","3046","y","elianto","#f73b6a7A","-1"," ","0","0","[2115.7999999998137]","1","2","","","4232","55","2","4","lose","no-go","1"
"pit-trial","177","1480983","0.0-60.0","battery-v0.2","","""event"",""trial"",""time""
""fullscreenenter"",""1"",""3925""
","
","
","""event"",""trial"",""time""
""fullscreenenter"",""1"",""3925""
","
","","","1223.9000000003725","","","24","4232","3046","r","elianto","#3366ff99"," "," ","1","+10","[2075]","1","2","","","4232","56","1","1","win","go","0"
"pit-trial","178","1485852","0.0-61.0","battery-v0.2","","""event"",""trial"",""time""
""fullscreenenter"",""1"",""3925""
","
","
","""event"",""trial"",""time""
""fullscreenenter"",""1"",""3925""
","
","","","-1","","","24","4232","3046","h","elianto","#f73b6a7A"," ","-1","0","-10","[]","0","2","","","4232","57","3","3","lose","go","0"
"pit-trial","179","1490727","0.0-62.0","battery-v0.2","","""event"",""trial"",""time""
""fullscreenenter"",""1"",""3925""
","
","
","""event"",""trial"",""time""
""fullscreenenter"",""1"",""3925""
","
","","","-1","","","24","4232","3046","m","elianto","#f73b6a7A","-1","-1","1","-10","[]","0","2","","","4232","58","0","4","lose","no-go","1"
"pit-trial","180","1494327","0.0-63.0","battery-v0.2","","""event"",""trial"",""time""
""fullscreenenter"",""1"",""3925""
","
","
","""event"",""trial"",""time""
""fullscreenenter"",""1"",""3925""
","
","","","732.0999999996275","","","24","4232","3046","z","elianto","#3366ff99","-1"," ","0","0","[1590.3999999994412]","1","2","","","4232","59","4","2","win","no-go","0"
"pit-trial","181","1498052","0.0-64.0","battery-v0.2","","""event"",""trial"",""time""
""fullscreenenter"",""1"",""3925""
","
","
","""event"",""trial"",""time""
""fullscreenenter"",""1"",""3925""
","
","","","863.5","","","24","4232","3046","r","elianto","#3366ff99"," "," ","1","+10","[1717.2999999998137]","1","2","","","4232","60","1","1","win","go","0"
"pit-trial","182","1502926","0.0-65.0","battery-v0.2","","""event"",""trial"",""time""
""fullscreenenter"",""1"",""3925""
","
","
","""event"",""trial"",""time""
""fullscreenenter"",""1"",""3925""
","
","","","-1","","","24","4232","3046","r","elianto","#3366ff99"," ","-1","0","+10","[2982.5999999996275]","1","2","","","4232","61","1","1","win","go","1"
"pit-trial","183","1507798","0.0-66.0","battery-v0.2","","""event"",""trial"",""time""
""fullscreenenter"",""1"",""3925""
","
","
","""event"",""trial"",""time""
""fullscreenenter"",""1"",""3925""
","
","","","-1","","","24","4232","3046","h","elianto","#f73b6a7A"," ","-1","0","-10","[]","0","2","","","4232","62","3","3","lose","go","0"
"pit-trial","184","1512343","0.0-67.0","battery-v0.2","","""event"",""trial"",""time""
""fullscreenenter"",""1"",""3925""
","
","
","""event"",""trial"",""time""
""fullscreenenter"",""1"",""3925""
","
","","","1676.6000000005588","","","24","4232","3046","y","elianto","#f73b6a7A","-1"," ","0","0","[2529.5999999996275]","1","2","","","4232","63","2","4","lose","no-go","1"
"pit-trial","185","1516030","0.0-68.0","battery-v0.2","","""event"",""trial"",""time""
""fullscreenenter"",""1"",""3925""
","
","
","""event"",""trial"",""time""
""fullscreenenter"",""1"",""3925""
","
","","","821.2999999998137","","","24","4232","3046","z","elianto","#3366ff99","-1"," ","0","0","[1674.4000000003725]","1","2","","","4232","64","4","2","win","no-go","0"
"pit-trial","186","1519823","0.0-69.0","battery-v0.2","","""event"",""trial"",""time""
""fullscreenenter"",""1"",""3925""
","
","
","""event"",""trial"",""time""
""fullscreenenter"",""1"",""3925""
","
","","","922.5999999996275","","","24","4232","3046","y","elianto","#f73b6a7A","-1"," ","0","-10","[1779.7000000001863]","1","2","","","4232","65","2","4","lose","no-go","0"
"pit-trial","187","1523320","0.0-70.0","battery-v0.2","","""event"",""trial"",""time""
""fullscreenenter"",""1"",""3925""
","
","
","""event"",""trial"",""time""
""fullscreenenter"",""1"",""3925""
","
","","","620.9000000003725","","","24","4232","3046","z","elianto","#3366ff99","-1"," ","0","0","[1481.3999999994412]","1","2","","","4232","66","4","2","win","no-go","0"
"pit-trial","188","1526909","0.0-71.0","battery-v0.2","","""event"",""trial"",""time""
""fullscreenenter"",""1"",""3925""
","
","
","""event"",""trial"",""time""
""fullscreenenter"",""1"",""3925""
","
","","","719.5999999996275","","","24","4232","3046","h","elianto","#f73b6a7A"," "," ","1","0","[1574]","1","2","","","4232","67","3","3","lose","go","0"
"pit-trial","189","1530380","0.0-72.0","battery-v0.2","","""event"",""trial"",""time""
""fullscreenenter"",""1"",""3925""
","
","
","""event"",""trial"",""time""
""fullscreenenter"",""1"",""3925""
","
","","","602.4000000003725","","","24","4232","3046","r","elianto","#3366ff99"," "," ","1","+10","[1455.2000000001863]","1","2","","","4232","68","1","1","win","go","0"
"pit-trial","190","1534668","0.0-73.0","battery-v0.2","","""event"",""trial"",""time""
""fullscreenenter"",""1"",""3925""
","
","
","""event"",""trial"",""time""
""fullscreenenter"",""1"",""3925""
","
","","","1421","","","24","4232","3046","c","elianto","#3366ff99"," "," ","1","+10","[2281]","1","2","","","4232","69","5","1","win","go","0"
"pit-trial","191","1538811","0.0-74.0","battery-v0.2","","""event"",""trial"",""time""
""fullscreenenter"",""1"",""3925""
","
","
","""event"",""trial"",""time""
""fullscreenenter"",""1"",""3925""
","
","","","1279.8999999994412","","","24","4232","3046","h","elianto","#f73b6a7A"," "," ","1","0","[2133.9000000003725]","1","2","","","4232","70","3","3","lose","go","0"
"pit-trial","192","1543687","0.0-75.0","battery-v0.2","","""event"",""trial"",""time""
""fullscreenenter"",""1"",""3925""
","
","
","""event"",""trial"",""time""
""fullscreenenter"",""1"",""3925""
","
","","","-1","","","24","4232","3046","r","elianto","#3366ff99"," ","-1","0","0","[]","0","2","","","4232","71","1","1","win","go","0"
"pit-trial","193","1547787","0.0-76.0","battery-v0.2","","""event"",""trial"",""time""
""fullscreenenter"",""1"",""3925""
","
","
","""event"",""trial"",""time""
""fullscreenenter"",""1"",""3925""
","
","","","1228","","","24","4232","3046","z","elianto","#3366ff99","-1"," ","0","0","[2087.4000000003725]","1","2","","","4232","72","4","2","win","no-go","0"
"pit-trial","194","1551534","0.0-77.0","battery-v0.2","","""event"",""trial"",""time""
""fullscreenenter"",""1"",""3925""
","
","
","""event"",""trial"",""time""
""fullscreenenter"",""1"",""3925""
","
","","","880.9000000003725","","","24","4232","3046","c","elianto","#3366ff99"," "," ","1","+10","[1735.7999999998137]","1","2","","","4232","73","5","1","win","go","0"
"pit-trial","195","1555046","0.0-78.0","battery-v0.2","","""event"",""trial"",""time""
""fullscreenenter"",""1"",""3925""
","
","
","""event"",""trial"",""time""
""fullscreenenter"",""1"",""3925""
","
","","","646.2999999998137","","","24","4232","3046","z","elianto","#3366ff99","-1"," ","0","+10","[1501.5]","1","2","","","4232","74","4","2","win","no-go","1"
"pit-trial","196","1559077","0.0-79.0","battery-v0.2","","""event"",""trial"",""time""
""fullscreenenter"",""1"",""3925""
","
","
","""event"",""trial"",""time""
""fullscreenenter"",""1"",""3925""
","
","","","1168.0999999996275","","","24","4232","3046","h","elianto","#f73b6a7A"," "," ","1","0","[2021.2999999998137]","1","2","","","4232","75","3","3","lose","go","0"
"pit-trial","197","1562488","0.0-80.0","battery-v0.2","","""event"",""trial"",""time""
""fullscreenenter"",""1"",""3925""
","
","
","""event"",""trial"",""time""
""fullscreenenter"",""1"",""3925""
","
","","","540.8000000007451","","","24","4232","3046","r","elianto","#3366ff99"," "," ","1","+10","[1395.5]","1","2","","","4232","76","1","1","win","go","0"
"pit-trial","198","1566078","0.0-81.0","battery-v0.2","","""event"",""trial"",""time""
""fullscreenenter"",""1"",""3925""
","
","
","""event"",""trial"",""time""
""fullscreenenter"",""1"",""3925""
","
","","","720.7000000001863","","","24","4232","3046","c","elianto","#3366ff99"," "," ","1","+10","[1574.1000000005588]","1","2","","","4232","77","5","1","win","go","0"
"pit-trial","199","1570949","0.0-82.0","battery-v0.2","","""event"",""trial"",""time""
""fullscreenenter"",""1"",""3925""
","
","
","""event"",""trial"",""time""
""fullscreenenter"",""1"",""3925""
","
","","","-1","","","24","4232","3046","h","elianto","#f73b6a7A"," ","-1","0","-10","[]","0","2","","","4232","78","3","3","lose","go","0"
"pit-trial","200","1575269","0.0-83.0","battery-v0.2","","""event"",""trial"",""time""
""fullscreenenter"",""1"",""3925""
","
","
","""event"",""trial"",""time""
""fullscreenenter"",""1"",""3925""
","
","","","1452.0999999996275","","","24","4232","3046","b","elianto","#f73b6a7A","-1"," ","0","0","[2306.600000000559]","1","2","","","4232","79","6","4","lose","no-go","1"
"pit-trial","201","1579229","0.0-84.0","battery-v0.2","","""event"",""trial"",""time""
""fullscreenenter"",""1"",""3925""
","
","
","""event"",""trial"",""time""
""fullscreenenter"",""1"",""3925""
","
","","","1089.2000000001863","","","24","4232","3046","z","elianto","#3366ff99","-1"," ","0","0","[1949.2000000001863]","1","2","","","4232","80","4","2","win","no-go","0"
"pit-trial","202","1584100","0.0-85.0","battery-v0.2","","""event"",""trial"",""time""
""fullscreenenter"",""1"",""3925""
","
","
","""event"",""trial"",""time""
""fullscreenenter"",""1"",""3925""
","
","","","-1","","","24","4232","3046","c","elianto","#3366ff99"," ","-1","0","0","[]","0","2","","","4232","81","5","1","win","go","0"
"pit-trial","203","1588969","0.0-86.0","battery-v0.2","","""event"",""trial"",""time""
""fullscreenenter"",""1"",""3925""
","
","
","""event"",""trial"",""time""
""fullscreenenter"",""1"",""3925""
","
","","","-1","","","24","4232","3046","b","elianto","#f73b6a7A","-1","-1","1","0","[]","0","2","","","4232","82","6","4","lose","no-go","0"
"pit-trial","204","1592506","0.0-87.0","battery-v0.2","","""event"",""trial"",""time""
""fullscreenenter"",""1"",""3925""
","
","
","""event"",""trial"",""time""
""fullscreenenter"",""1"",""3925""
","
","","","672.0999999996275","","","24","4232","3046","z","elianto","#3366ff99","-1"," ","0","0","[1522.5]","1","2","","","4232","83","4","2","win","no-go","0"
"pit-trial","205","1597083","0.0-88.0","battery-v0.2","","""event"",""trial"",""time""
""fullscreenenter"",""1"",""3925""
","
","
","""event"",""trial"",""time""
""fullscreenenter"",""1"",""3925""
","
","","","1710.5999999996275","","","24","4232","3046","t","elianto","#f73b6a7A"," "," ","1","0","[2567.2000000001863]","1","2","","","4232","84","7","3","lose","go","0"
"pit-trial","206","1600842","0.0-89.0","battery-v0.2","","""event"",""trial"",""time""
""fullscreenenter"",""1"",""3925""
","
","
","""event"",""trial"",""time""
""fullscreenenter"",""1"",""3925""
","
","","","893","","","24","4232","3046","b","elianto","#f73b6a7A","-1"," ","0","-10","[1748.7000000001863]","1","2","","","4232","85","6","4","lose","no-go","0"
"pit-trial","207","1604779","0.0-90.0","battery-v0.2","","""event"",""trial"",""time""
""fullscreenenter"",""1"",""3925""
","
","
","""event"",""trial"",""time""
""fullscreenenter"",""1"",""3925""
","
","","","1063.5","","","24","4232","3046","t","elianto","#f73b6a7A"," "," ","1","-10","[1921.7999999998137]","1","2","","","4232","86","7","3","lose","go","1"
"pit-trial","208","1608315","0.0-91.0","battery-v0.2","","""event"",""trial"",""time""
""fullscreenenter"",""1"",""3925""
","
","
","""event"",""trial"",""time""
""fullscreenenter"",""1"",""3925""
","
","","","669.2999999998137","","","24","4232","3046","z","elianto","#3366ff99","-1"," ","0","+10","[1520.2999999998137]","1","2","","","4232","87","4","2","win","no-go","1"
"pit-trial","209","1611829","0.0-92.0","battery-v0.2","","""event"",""trial"",""time""
""fullscreenenter"",""1"",""3925""
","
","
","""event"",""trial"",""time""
""fullscreenenter"",""1"",""3925""
","
","","","648.5","","","24","4232","3046","c","elianto","#3366ff99"," "," ","1","+10","[1501.2999999998137]","1","2","","","4232","88","5","1","win","go","0"
"pit-trial","210","1616706","0.0-93.0","battery-v0.2","","""event"",""trial"",""time""
""fullscreenenter"",""1"",""3925""
","
","
","""event"",""trial"",""time""
""fullscreenenter"",""1"",""3925""
","
","","","-1","","","24","4232","3046","b","elianto","#f73b6a7A","-1","-1","1","0","[]","0","2","","","4232","89","6","4","lose","no-go","0"
"pit-trial","211","1621112","0.0-94.0","battery-v0.2","","""event"",""trial"",""time""
""fullscreenenter"",""1"",""3925""
","
","
","""event"",""trial"",""time""
""fullscreenenter"",""1"",""3925""
","
","","","1535.699999999255","","","24","4232","3046","t","elianto","#f73b6a7A"," "," ","1","0","[2386.0999999996275]","1","2","","","4232","90","7","3","lose","go","0"
"pit-trial","212","1624834","0.0-95.0","battery-v0.2","","""event"",""trial"",""time""
""fullscreenenter"",""1"",""3925""
","
","
","""event"",""trial"",""time""
""fullscreenenter"",""1"",""3925""
","
","","","852.1000000005588","","","24","4232","3046","z","elianto","#3366ff99","-1"," ","0","+10","[1707.4000000003725]","1","2","","","4232","91","4","2","win","no-go","1"
"pit-trial","213","1628740","0.0-96.0","battery-v0.2","","""event"",""trial"",""time""
""fullscreenenter"",""1"",""3925""
","
","
","""event"",""trial"",""time""
""fullscreenenter"",""1"",""3925""
","
","","","1034.2000000001863","","","24","4232","3046","c","elianto","#3366ff99"," "," ","1","+10","[1892.7999999998137]","1","2","","","4232","92","5","1","win","go","0"
"pit-trial","214","1632768","0.0-97.0","battery-v0.2","","""event"",""trial"",""time""
""fullscreenenter"",""1"",""3925""
","
","
","""event"",""trial"",""time""
""fullscreenenter"",""1"",""3925""
","
","","","1161.7000000001863","","","24","4232","3046","f","elianto","#3366ff99","-1"," ","0","0","[2016.199999999255]","1","2","","","4232","93","8","2","win","no-go","0"
"pit-trial","215","1636925","0.0-98.0","battery-v0.2","","""event"",""trial"",""time""
""fullscreenenter"",""1"",""3925""
","
","
","""event"",""trial"",""time""
""fullscreenenter"",""1"",""3925""
","
","","","1285.5999999996275","","","24","4232","3046","t","elianto","#f73b6a7A"," "," ","1","0","[2141]","1","2","","","4232","94","7","3","lose","go","0"
"pit-trial","216","1640315","0.0-99.0","battery-v0.2","","""event"",""trial"",""time""
""fullscreenenter"",""1"",""3925""
","
","
","""event"",""trial"",""time""
""fullscreenenter"",""1"",""3925""
","
","","","515","","","24","4232","3046","b","elianto","#f73b6a7A","-1"," ","0","0","[1378.7999999998137]","1","2","","","4232","95","6","4","lose","no-go","1"
"pit-trial","217","1644138","0.0-100.0","battery-v0.2","","""event"",""trial"",""time""
""fullscreenenter"",""1"",""3925""
","
","
","""event"",""trial"",""time""
""fullscreenenter"",""1"",""3925""
","
","","","955.2000000001863","","","24","4232","3046","c","elianto","#3366ff99"," "," ","1","+10","[1808.0999999996275]","1","2","","","4232","96","5","1","win","go","0"
"pit-trial","218","1649009","0.0-101.0","battery-v0.2","","""event"",""trial"",""time""
""fullscreenenter"",""1"",""3925""
","
","
","""event"",""trial"",""time""
""fullscreenenter"",""1"",""3925""
","
","","","-1","","","24","4232","3046","f","elianto","#3366ff99","-1","-1","1","+10","[3882.5999999996275]","1","2","","","4232","97","8","2","win","no-go","0"
"pit-trial","219","1653858","0.0-102.0","battery-v0.2","","""event"",""trial"",""time""
""fullscreenenter"",""1"",""3925""
","
","
","""event"",""trial"",""time""
""fullscreenenter"",""1"",""3925""
","
","","","1984.300000000745","","","24","4232","3046","t","elianto","#f73b6a7A"," "," ","1","0","[2841.9000000003725]","1","2","","","4232","98","7","3","lose","go","0"
"pit-trial","220","1658729","0.0-103.0","battery-v0.2","","""event"",""trial"",""time""
""fullscreenenter"",""1"",""3925""
","
","
","""event"",""trial"",""time""
""fullscreenenter"",""1"",""3925""
","
","","","-1","","","24","4232","3046","b","elianto","#f73b6a7A","-1","-1","1","0","[]","0","2","","","4232","99","6","4","lose","no-go","0"
"pit-trial","221","1663595","0.0-104.0","battery-v0.2","","""event"",""trial"",""time""
""fullscreenenter"",""1"",""3925""
","
","
","""event"",""trial"",""time""
""fullscreenenter"",""1"",""3925""
","
","","","-1","","","24","4232","3046","c","elianto","#3366ff99"," ","-1","0","0","[3602.399999999441]","1","2","","","4232","100","5","1","win","go","0"
"pit-trial","222","1667058","0.0-105.0","battery-v0.2","","""event"",""trial"",""time""
""fullscreenenter"",""1"",""3925""
","
","
","""event"",""trial"",""time""
""fullscreenenter"",""1"",""3925""
","
","","","589.2999999998137","","","24","4232","3046","f","elianto","#3366ff99","-1"," ","0","0","[1450.699999999255]","1","2","","","4232","101","8","2","win","no-go","0"
"pit-trial","223","1670658","0.0-106.0","battery-v0.2","","""event"",""trial"",""time""
""fullscreenenter"",""1"",""3925""
","
","
","""event"",""trial"",""time""
""fullscreenenter"",""1"",""3925""
","
","","","728.7999999998137","","","24","4232","3046","c","elianto","#3366ff99"," "," ","1","+10","[1589.5]","1","2","","","4232","102","5","1","win","go","0"
"pit-trial","224","1674211","0.0-107.0","battery-v0.2","","""event"",""trial"",""time""
""fullscreenenter"",""1"",""3925""
","
","
","""event"",""trial"",""time""
""fullscreenenter"",""1"",""3925""
","
","","","678.2999999998137","","","24","4232","3046","n","elianto","#3366ff99","-1"," ","0","0","[1536.5]","1","2","","","4232","103","9","2","win","no-go","0"
"pit-trial","225","1678787","0.0-108.0","battery-v0.2","","""event"",""trial"",""time""
""fullscreenenter"",""1"",""3925""
","
","
","""event"",""trial"",""time""
""fullscreenenter"",""1"",""3925""
","
","","","1706.0999999996275","","","24","4232","3046","b","elianto","#f73b6a7A","-1"," ","0","0","[2560.4000000003725]","1","2","","","4232","104","6","4","lose","no-go","1"
"pit-trial","226","1682355","0.0-109.0","battery-v0.2","","""event"",""trial"",""time""
""fullscreenenter"",""1"",""3925""
","
","
","""event"",""trial"",""time""
""fullscreenenter"",""1"",""3925""
","
","","","691.2000000001863","","","24","4232","3046","f","elianto","#3366ff99","-1"," ","0","+10","[1554.2999999998137]","1","2","","","4232","105","8","2","win","no-go","1"
"pit-trial","227","1686147","0.0-110.0","battery-v0.2","","""event"",""trial"",""time""
""fullscreenenter"",""1"",""3925""
","
","
","""event"",""trial"",""time""
""fullscreenenter"",""1"",""3925""
","
","","","928.9000000003725","","","24","4232","3046","c","elianto","#3366ff99"," "," ","1","+10","[1780.699999999255]","1","2","","","4232","106","5","1","win","go","0"
"pit-trial","228","1691018","0.0-111.0","battery-v0.2","","""event"",""trial"",""time""
""fullscreenenter"",""1"",""3925""
","
","
","""event"",""trial"",""time""
""fullscreenenter"",""1"",""3925""
","
","","","-1","","","24","4232","3046","b","elianto","#f73b6a7A","-1","-1","1","0","[]","0","2","","","4232","107","6","4","lose","no-go","0"
"pit-trial","229","1694907","0.0-112.0","battery-v0.2","","""event"",""trial"",""time""
""fullscreenenter"",""1"",""3925""
","
","
","""event"",""trial"",""time""
""fullscreenenter"",""1"",""3925""
","
","","","1009.9000000003725","","","24","4232","3046","n","elianto","#3366ff99","-1"," ","0","0","[1874.4000000003725]","1","2","","","4232","108","9","2","win","no-go","0"
"pit-trial","230","1699380","0.0-113.0","battery-v0.2","","""event"",""trial"",""time""
""fullscreenenter"",""1"",""3925""
","
","
","""event"",""trial"",""time""
""fullscreenenter"",""1"",""3925""
","
","","","1601.3999999994412","","","24","4232","3046","b","elianto","#f73b6a7A","-1"," ","0","-10","[2456.9000000003725]","1","2","","","4232","109","6","4","lose","no-go","0"
"pit-trial","231","1703027","0.0-114.0","battery-v0.2","","""event"",""trial"",""time""
""fullscreenenter"",""1"",""3925""
","
","
","""event"",""trial"",""time""
""fullscreenenter"",""1"",""3925""
","
","","","779.8000000007451","","","24","4232","3046","n","elianto","#3366ff99","-1"," ","0","+10","[1637.7000000001863]","1","2","","","4232","110","9","2","win","no-go","1"
"pit-trial","232","1707332","0.0-115.0","battery-v0.2","","""event"",""trial"",""time""
""fullscreenenter"",""1"",""3925""
","
","
","""event"",""trial"",""time""
""fullscreenenter"",""1"",""3925""
","
","","","1429.2999999998137","","","24","4232","3046","c","elianto","#3366ff99"," "," ","1","+10","[2293]","1","2","","","4232","111","5","1","win","go","0"
"pit-trial","233","1711040","0.0-116.0","battery-v0.2","","""event"",""trial"",""time""
""fullscreenenter"",""1"",""3925""
","
","
","""event"",""trial"",""time""
""fullscreenenter"",""1"",""3925""
","
","","","840.7999999998137","","","24","4232","3046","f","elianto","#3366ff99","-1"," ","0","0","[1695]","1","2","","","4232","112","8","2","win","no-go","0"
"pit-trial","234","1715088","0.0-117.0","battery-v0.2","","""event"",""trial"",""time""
""fullscreenenter"",""1"",""3925""
","
","
","""event"",""trial"",""time""
""fullscreenenter"",""1"",""3925""
","
","","","1181.800000000745","","","24","4232","3046","f","elianto","#3366ff99","-1"," ","0","0","[2035.2999999998137]","1","2","","","4232","113","8","2","win","no-go","0"
"pit-trial","235","1719958","0.0-118.0","battery-v0.2","","""event"",""trial"",""time""
""fullscreenenter"",""1"",""3925""
","
","
","""event"",""trial"",""time""
""fullscreenenter"",""1"",""3925""
","
","","","-1","","","24","4232","3046","t","elianto","#f73b6a7A"," ","-1","0","-10","[3116.600000000559]","1","2","","","4232","114","7","3","lose","go","0"
"pit-trial","236","1723879","0.0-119.0","battery-v0.2","","""event"",""trial"",""time""
""fullscreenenter"",""1"",""3925""
","
","
","""event"",""trial"",""time""
""fullscreenenter"",""1"",""3925""
","
","","","1054.2999999998137","","","24","4232","3046","n","elianto","#3366ff99","-1"," ","0","0","[1906.4000000003725]","1","2","","","4232","115","9","2","win","no-go","0"
"pit-trial","237","1727571","0.0-120.0","battery-v0.2","","""event"",""trial"",""time""
""fullscreenenter"",""1"",""3925""
","
","
","""event"",""trial"",""time""
""fullscreenenter"",""1"",""3925""
","
","","","828.7000000001863","","","24","4232","3046","c","elianto","#3366ff99"," "," ","1","+10","[1682.7000000001863]","1","2","","","4232","116","5","1","win","go","0"
"pit-trial","238","1731389","0.0-121.0","battery-v0.2","","""event"",""trial"",""time""
""fullscreenenter"",""1"",""3925""
","
","
","""event"",""trial"",""time""
""fullscreenenter"",""1"",""3925""
","
","","","953.7999999998137","","","24","4232","3046","c","elianto","#3366ff99"," "," ","1","+10","[1807.800000000745]","1","2","","","4232","117","5","1","win","go","0"
"pit-trial","239","1736260","0.0-122.0","battery-v0.2","","""event"",""trial"",""time""
""fullscreenenter"",""1"",""3925""
","
","
","""event"",""trial"",""time""
""fullscreenenter"",""1"",""3925""
","
","","","-1","","","24","4232","3046","b","elianto","#f73b6a7A","-1","-1","1","0","[]","0","2","","","4232","118","6","4","lose","no-go","0"
"pit-trial","240","1741131","0.0-123.0","battery-v0.2","","""event"",""trial"",""time""
""fullscreenenter"",""1"",""3925""
","
","
","""event"",""trial"",""time""
""fullscreenenter"",""1"",""3925""
","
","","","-1","","","24","4232","3046","n","elianto","#3366ff99","-1","-1","1","+10","[3967.7000000001863]","1","2","","","4232","119","9","2","win","no-go","0"
"pit-trial","241","1745079","0.0-124.0","battery-v0.2","","""event"",""trial"",""time""
""fullscreenenter"",""1"",""3925""
","
","
","""event"",""trial"",""time""
""fullscreenenter"",""1"",""3925""
","
","","","1081.2000000001863","","","24","4232","3046","f","elianto","#3366ff99","-1"," ","0","0","[1936.5]","1","2","","","4232","120","8","2","win","no-go","0"
"pit-trial","242","1748567","0.0-125.0","battery-v0.2","","""event"",""trial"",""time""
""fullscreenenter"",""1"",""3925""
","
","
","""event"",""trial"",""time""
""fullscreenenter"",""1"",""3925""
","
","","","622.3000000007451","","","24","4232","3046","c","elianto","#3366ff99"," "," ","1","0","[1475.7999999998137]","1","2","","","4232","121","5","1","win","go","1"
"pit-trial","243","1752126","0.0-126.0","battery-v0.2","","""event"",""trial"",""time""
""fullscreenenter"",""1"",""3925""
","
","
","""event"",""trial"",""time""
""fullscreenenter"",""1"",""3925""
","
","","","681","","","24","4232","3046","f","elianto","#3366ff99","-1"," ","0","0","[1542.3999999994412]","1","2","","","4232","122","8","2","win","no-go","0"
"pit-trial","244","1755740","0.0-127.0","battery-v0.2","","""event"",""trial"",""time""
""fullscreenenter"",""1"",""3925""
","
","
","""event"",""trial"",""time""
""fullscreenenter"",""1"",""3925""
","
","","","728.6000000005588","","","24","4232","3046","n","elianto","#3366ff99","-1"," ","0","0","[1591.7000000001863]","1","2","","","4232","123","9","2","win","no-go","0"
"pit-trial","245","1759820","0.0-128.0","battery-v0.2","","""event"",""trial"",""time""
""fullscreenenter"",""1"",""3925""
","
","
","""event"",""trial"",""time""
""fullscreenenter"",""1"",""3925""
","
","","","1217.5","","","24","4232","3046","t","elianto","#f73b6a7A"," "," ","1","0","[2068.5999999996275]","1","2","","","4232","124","7","3","lose","go","0"
"pit-trial","246","1763500","0.0-129.0","battery-v0.2","","""event"",""trial"",""time""
""fullscreenenter"",""1"",""3925""
","
","
","""event"",""trial"",""time""
""fullscreenenter"",""1"",""3925""
","
","","","814.6000000005588","","","24","4232","3046","t","elianto","#f73b6a7A"," "," ","1","0","[1664.5999999996275]","1","2","","","4232","125","7","3","lose","go","0"
"pit-trial","247","1767550","0.0-130.0","battery-v0.2","","""event"",""trial"",""time""
""fullscreenenter"",""1"",""3925""
","
","
","""event"",""trial"",""time""
""fullscreenenter"",""1"",""3925""
","
","","","1179.7000000001863","","","24","4232","3046","f","elianto","#3366ff99","-1"," ","0","+10","[2040.2999999998137]","1","2","","","4232","126","8","2","win","no-go","1"
"pit-trial","248","1772070","0.0-131.0","battery-v0.2","","""event"",""trial"",""time""
""fullscreenenter"",""1"",""3925""
","
","
","""event"",""trial"",""time""
""fullscreenenter"",""1"",""3925""
","
","","","1646.1000000005588","","","24","4232","3046","b","elianto","#f73b6a7A","-1"," ","0","-10","[2507.2000000001863]","1","2","","","4232","127","6","4","lose","no-go","0"
"pit-trial","249","1775573","0.0-132.0","battery-v0.2","","""event"",""trial"",""time""
""fullscreenenter"",""1"",""3925""
","
","
","""event"",""trial"",""time""
""fullscreenenter"",""1"",""3925""
","
","","","639.4000000003725","","","24","4232","3046","n","elianto","#3366ff99","-1"," ","0","0","[1492.6000000005588]","1","2","","","4232","128","9","2","win","no-go","0"
"pit-trial","250","1778972","0.0-133.0","battery-v0.2","","""event"",""trial"",""time""
""fullscreenenter"",""1"",""3925""
","
","
","""event"",""trial"",""time""
""fullscreenenter"",""1"",""3925""
","
","","","530.0999999996275","","","24","4232","3046","n","elianto","#3366ff99","-1"," ","0","0","[1390.5]","1","2","","","4232","129","9","2","win","no-go","0"
"pit-trial","251","1782341","0.0-134.0","battery-v0.2","","""event"",""trial"",""time""
""fullscreenenter"",""1"",""3925""
","
","
","""event"",""trial"",""time""
""fullscreenenter"",""1"",""3925""
","
","","","510.30000000074506","","","24","4232","3046","f","elianto","#3366ff99","-1"," ","0","0","[1360.8999999994412]","1","2","","","4232","130","8","2","win","no-go","0"
"pit-trial","252","1785621","0.0-135.0","battery-v0.2","","""event"",""trial"",""time""
""fullscreenenter"",""1"",""3925""
","
","
","""event"",""trial"",""time""
""fullscreenenter"",""1"",""3925""
","
","","","410.40000000037253","","","24","4232","3046","b","elianto","#f73b6a7A","-1"," ","0","-10","[1265.7000000001863]","1","2","","","4232","131","6","4","lose","no-go","0"
"pit-trial","253","1789430","0.0-136.0","battery-v0.2","","""event"",""trial"",""time""
""fullscreenenter"",""1"",""3925""
","
","
","""event"",""trial"",""time""
""fullscreenenter"",""1"",""3925""
","
","","","933.2999999998137","","","24","4232","3046","t","elianto","#f73b6a7A"," "," ","1","0","[1791.7999999998137]","1","2","","","4232","132","7","3","lose","go","0"
"pit-trial","254","1794306","0.0-137.0","battery-v0.2","","""event"",""trial"",""time""
""fullscreenenter"",""1"",""3925""
","
","
","""event"",""trial"",""time""
""fullscreenenter"",""1"",""3925""
","
","","","-1","","","24","4232","3046","b","elianto","#f73b6a7A","-1","-1","1","0","[]","0","2","","","4232","133","6","4","lose","no-go","0"
"pit-trial","255","1797839","0.0-138.0","battery-v0.2","","""event"",""trial"",""time""
""fullscreenenter"",""1"",""3925""
","
","
","""event"",""trial"",""time""
""fullscreenenter"",""1"",""3925""
","
","","","657.6000000005588","","","24","4232","3046","f","elianto","#3366ff99","-1"," ","0","0","[1515.7000000001863]","1","2","","","4232","134","8","2","win","no-go","0"
"pit-trial","256","1801200","0.0-139.0","battery-v0.2","","""event"",""trial"",""time""
""fullscreenenter"",""1"",""3925""
","
","
","""event"",""trial"",""time""
""fullscreenenter"",""1"",""3925""
","
","","","490.5","","","24","4232","3046","n","elianto","#3366ff99","-1"," ","0","0","[1348.5]","1","2","","","4232","135","9","2","win","no-go","0"
"pit-trial","257","1806078","0.0-140.0","battery-v0.2","","""event"",""trial"",""time""
""fullscreenenter"",""1"",""3925""
","
","
","""event"",""trial"",""time""
""fullscreenenter"",""1"",""3925""
","
","","","-1","","","24","4232","3046","t","elianto","#f73b6a7A"," ","-1","0","0","[]","0","2","","","4232","136","7","3","lose","go","1"
"pit-trial","258","1809957","0.0-141.0","battery-v0.2","","""event"",""trial"",""time""
""fullscreenenter"",""1"",""3925""
","
","
","""event"",""trial"",""time""
""fullscreenenter"",""1"",""3925""
","
","","","1003.3999999994412","","","24","4232","3046","t","elianto","#f73b6a7A"," "," ","1","-10","[1866.3999999994412]","1","2","","","4232","137","7","3","lose","go","1"
"pit-trial","259","1813790","0.0-142.0","battery-v0.2","","""event"",""trial"",""time""
""fullscreenenter"",""1"",""3925""
","
","
","""event"",""trial"",""time""
""fullscreenenter"",""1"",""3925""
","
","","","963.5","","","24","4232","3046","b","elianto","#f73b6a7A","-1"," ","0","-10","[1821.2000000001863]","1","2","","","4232","138","6","4","lose","no-go","0"
"pit-trial","260","1817238","0.0-143.0","battery-v0.2","","""event"",""trial"",""time""
""fullscreenenter"",""1"",""3925""
","
","
","""event"",""trial"",""time""
""fullscreenenter"",""1"",""3925""
","
","","","578.7999999998137","","","24","4232","3046","n","elianto","#3366ff99","-1"," ","0","0","[1434.1000000005588]","1","2","","","4232","139","9","2","win","no-go","0"
"pit-trial","261","1820646","0.0-144.0","battery-v0.2","","""event"",""trial"",""time""
""fullscreenenter"",""1"",""3925""
","
","
","""event"",""trial"",""time""
""fullscreenenter"",""1"",""3925""
","
","","","540.4000000003725","","","24","4232","3046","f","elianto","#3366ff99","-1"," ","0","0","[1398.7000000001863]","1","2","","","4232","140","8","2","win","no-go","0"
"pit-instructions","262","1838413","0.0-145.0","battery-v0.2","","""event"",""trial"",""time""
""fullscreenenter"",""1"",""3925""
","
","
","""event"",""trial"",""time""
""fullscreenenter"",""1"",""3925""
","
","","[{""page_index"":0,""viewing_time"":8469.899999999441},{""page_index"":1,""viewing_time"":9290.5}]","17761.799999999814","","","","","","","","","","","","","","","","","","","","","","","",""
"pit-trial","263","1843068","0.0-146.0","battery-v0.2","","""event"",""trial"",""time""
""fullscreenenter"",""1"",""3925""
","
","
","""event"",""trial"",""time""
""fullscreenenter"",""1"",""3925""
","
","","","1752","","","24","4232","3046","g","elianto","#f73b6a7A","-1"," ","0","0","[2615.100000000559]","1","3","","","4232","141","3","4","lose","no-go","1"
"pit-trial","264","1847959","0.0-147.0","battery-v0.2","","""event"",""trial"",""time""
""fullscreenenter"",""1"",""3925""
","
","
","""event"",""trial"",""time""
""fullscreenenter"",""1"",""3925""
","
","","","-1","","","24","4232","3046","l","elianto","#3366ff99","-1","-1","1","0","[]","0","3","","","4232","142","1","2","win","no-go","1"
"pit-trial","265","1851991","0.0-148.0","battery-v0.2","","""event"",""trial"",""time""
""fullscreenenter"",""1"",""3925""
","
","
","""event"",""trial"",""time""
""fullscreenenter"",""1"",""3925""
","
