"trial_type","trial_index","time_elapsed","internal_node_id","task_version","subject_id","interactions","blur_events","focus_events","fullscreenenter_events","fullscreenexit_events","success","view_history","rt","responses","num_errors","age","subject","participantId","rune","rune_set","hex","correct","choice","accuracy","outcome","keys","total_keys","block","practice","value","sub","trial","stimulus","robot","valence","action","sham"
"pavlovia","0","6","0.0-0.0","battery-v0.2","","""event"",""trial"",""time""
""fullscreenenter"",""1"",""2952""
","
","
","""event"",""trial"",""time""
""fullscreenenter"",""1"",""2952""
","
","","","","","","","","","","","","","","","","","","","","","","","","","","",""
"fullscreen","1","3935","0.0-1.0","battery-v0.2","","""event"",""trial"",""time""
""fullscreenenter"",""1"",""2952""
","
","
","""event"",""trial"",""time""
""fullscreenenter"",""1"",""2952""
","
","true","","","","","","","","","","","","","","","","","","","","","","","","","",""
"pit-instructions","2","11206","0.0-2.0-0.0","battery-v0.2","","""event"",""trial"",""time""
""fullscreenenter"",""1"",""2952""
","
","
","""event"",""trial"",""time""
""fullscreenenter"",""1"",""2952""
","
","","[{""page_index"":0,""viewing_time"":7269.5}]","7269.699999988079","","","","","","","","","","","","","","","","","","","","","","","",""
"pit-comprehension","3","18936","0.0-2.0-1.0-0.0","battery-v0.2","","""event"",""trial"",""time""
""fullscreenenter"",""1"",""2952""
","
","
","""event"",""trial"",""time""
""fullscreenenter"",""1"",""2952""
","
","","","7728","[""shark""]","0","10","10104","4830","","","","","","","","","","","","","","","","","","",""
"pit-instructions","4","21235","0.0-2.0-1.0-1.0","battery-v0.2","","""event"",""trial"",""time""
""fullscreenenter"",""1"",""2952""
","
","
","""event"",""trial"",""time""
""fullscreenenter"",""1"",""2952""
","
","","[{""page_index"":0,""viewing_time"":2291.699999988079}]","2291.7999999821186","","","","","","","","","","","","","","","","","","","","","","","",""
"pit-comprehension","5","24362","0.0-2.0-2.0-0.0","battery-v0.2","","""event"",""trial"",""time""
""fullscreenenter"",""1"",""2952""
","
","
","""event"",""trial"",""time""
""fullscreenenter"",""1"",""2952""
","
","","","3124.5","[""tiger""]","0","10","10104","4830","","","","","","","","","","","","","","","","","","",""
"pit-instructions","6","27429","0.0-2.0-2.0-1.0","battery-v0.2","","""event"",""trial"",""time""
""fullscreenenter"",""1"",""2952""
","
","
","""event"",""trial"",""time""
""fullscreenenter"",""1"",""2952""
","
","","[{""page_index"":0,""viewing_time"":3066}]","3066.199999988079","","","","","","","","","","","","","","","","","","","","","","","",""
"pit-instructions","7","128057","0.0-2.0-3.0","battery-v0.2","","""event"",""trial"",""time""
""fullscreenenter"",""1"",""2952""
","
","
","""event"",""trial"",""time""
""fullscreenenter"",""1"",""2952""
","
","","[{""page_index"":0,""viewing_time"":8596.5},{""page_index"":1,""viewing_time"":6179.5999999940395},{""page_index"":2,""viewing_time"":7331.9000000059605},{""page_index"":3,""viewing_time"":5967.699999988079},{""page_index"":4,""viewing_time"":6050.300000011921},{""page_index"":5,""viewing_time"":5542.399999976158},{""page_index"":6,""viewing_time"":8019.5},{""page_index"":7,""viewing_time"":7070.300000011921},{""page_index"":8,""viewing_time"":7985.5999999940395},{""page_index"":9,""viewing_time"":10434},{""page_index"":10,""viewing_time"":9032.09999999404},{""page_index"":11,""viewing_time"":6725.9000000059605},{""page_index"":12,""viewing_time"":6454},{""page_index"":13,""viewing_time"":5236.300000011921}]","100626.39999997616","","","","","","","","","","","","","","","","","","","","","","","",""
"pit-trial","8","131571","0.0-2.0-4.0-0.0","battery-v0.2","","""event"",""trial"",""time""
""fullscreenenter"",""1"",""2952""
","
","
","""event"",""trial"",""time""
""fullscreenenter"",""1"",""2952""
","
","","","651.5","","","10","10104","4830","&#9784;","elianto","#FFFFF080"," "," ","1","&#10004","[1510.5999999940395]","1","0","0","","","","","","","",""
"pit-trial","9","135119","0.0-2.0-4.1-0.1","battery-v0.2","","""event"",""trial"",""time""
""fullscreenenter"",""1"",""2952""
","
","
","""event"",""trial"",""time""
""fullscreenenter"",""1"",""2952""
","
","","","677.2000000178814","","","10","10104","4830","&#9784;","elianto","#FFFFF080"," "," ","1","&#10004","[1535.4000000059605]","1","0","0","","","","","","","",""
"pit-trial","10","138469","0.0-2.0-4.2-0.2","battery-v0.2","","""event"",""trial"",""time""
""fullscreenenter"",""1"",""2952""
","
","
","""event"",""trial"",""time""
""fullscreenenter"",""1"",""2952""
","
","","","474.5","","","10","10104","4830","&#9784;","elianto","#FFFFF080"," "," ","1","&#10004","[1329.3999999761581]","1","0","0","","","","","","","",""
"pit-trial","11","141889","0.0-2.0-4.3-0.3","battery-v0.2","","""event"",""trial"",""time""
""fullscreenenter"",""1"",""2952""
","
","
","""event"",""trial"",""time""
""fullscreenenter"",""1"",""2952""
","
","","","554.6999999880791","","","10","10104","4830","&#9784;","elianto","#FFFFF080"," "," ","1","&#10004","[1410.5999999940395]","1","0","0","","","","","","","",""
"pit-trial","12","145559","0.0-2.0-4.4-0.4","battery-v0.2","","""event"",""trial"",""time""
""fullscreenenter"",""1"",""2952""
","
","
","""event"",""trial"",""time""
""fullscreenenter"",""1"",""2952""
","
","","","811.5999999940395","","","10","10104","4830","&#9784;","elianto","#FFFFF080"," "," ","1","&#10004","[1667.8999999761581]","1","0","0","","","","","","","",""
"pit-instructions","13","166734","0.0-2.0-5.0","battery-v0.2","","""event"",""trial"",""time""
""fullscreenenter"",""1"",""2952""
","
","
","""event"",""trial"",""time""
""fullscreenenter"",""1"",""2952""
","
","","[{""page_index"":0,""viewing_time"":4866.0999999940395},{""page_index"":1,""viewing_time"":6188.5},{""page_index"":2,""viewing_time"":4769.699999988079},{""page_index"":3,""viewing_time"":5349.200000017881}]","21173.69999998808","","","","","","","","","","","","","","","","","","","","","","","",""
"pit-trial","14","171605","0.0-2.0-6.0-0.0","battery-v0.2","","""event"",""trial"",""time""
""fullscreenenter"",""1"",""2952""
","
","
","""event"",""trial"",""time""
""fullscreenenter"",""1"",""2952""
","
","","","-1","","","10","10104","4830","&#9854;","elianto","#FFFFF080","-1","-1","1","&#10004","[]","0","0","1","","","","","","","",""
"pit-trial","15","176474","0.0-2.0-6.1-0.1","battery-v0.2","","""event"",""trial"",""time""
""fullscreenenter"",""1"",""2952""
","
","
","""event"",""trial"",""time""
""fullscreenenter"",""1"",""2952""
","
","","","-1","","","10","10104","4830","&#9854;","elianto","#FFFFF080","-1","-1","1","&#10004","[]","0","0","1","","","","","","","",""
"pit-trial","16","181339","0.0-2.0-6.2-0.2","battery-v0.2","","""event"",""trial"",""time""
""fullscreenenter"",""1"",""2952""
","
","
","""event"",""trial"",""time""
""fullscreenenter"",""1"",""2952""
","
","","","-1","","","10","10104","4830","&#9854;","elianto","#FFFFF080","-1","-1","1","&#10004","[]","0","0","1","","","","","","","",""
"pit-trial","17","186229","0.0-2.0-6.3-0.3","battery-v0.2","","""event"",""trial"",""time""
""fullscreenenter"",""1"",""2952""
","
","
","""event"",""trial"",""time""
""fullscreenenter"",""1"",""2952""
","
","","","-1","","","10","10104","4830","&#9854;","elianto","#FFFFF080","-1","-1","1","&#10004","[]","0","0","1","","","","","","","",""
"pit-trial","18","191089","0.0-2.0-6.4-0.4","battery-v0.2","","""event"",""trial"",""time""
""fullscreenenter"",""1"",""2952""
","
","
","""event"",""trial"",""time""
""fullscreenenter"",""1"",""2952""
","
","","","-1","","","10","10104","4830","&#9854;","elianto","#FFFFF080","-1","-1","1","&#10004","[]","0","0","1","","","","","","","",""
"pit-instructions","19","310723","0.0-2.0-7.0","battery-v0.2","","""event"",""trial"",""time""
""fullscreenenter"",""1"",""2952""
","
","
","""event"",""trial"",""time""
""fullscreenenter"",""1"",""2952""
","
","","[{""page_index"":0,""viewing_time"":6014.199999988079},{""page_index"":1,""viewing_time"":7180.0999999940395},{""page_index"":2,""viewing_time"":7231.9000000059605},{""page_index"":3,""viewing_time"":6315.700000017881},{""page_index"":4,""viewing_time"":6118.5},{""page_index"":5,""viewing_time"":5161.5999999940395},{""page_index"":6,""viewing_time"":4920.0999999940395},{""page_index"":7,""viewing_time"":7493.699999988079},{""page_index"":8,""viewing_time"":6434.4000000059605},{""page_index"":9,""viewing_time"":6147.800000011921},{""page_index"":10,""viewing_time"":6758.199999988079},{""page_index"":11,""viewing_time"":4713.700000017881},{""page_index"":12,""viewing_time"":6994.0999999940395},{""page_index"":13,""viewing_time"":7215.699999988079},{""page_index"":14,""viewing_time"":7246.300000011921},{""page_index"":15,""viewing_time"":7541.699999988079},{""page_index"":16,""viewing_time"":6538.0999999940395},{""page_index"":17,""viewing_time"":9606}]","119631.90000000596","","","","","","","","","","","","","","","","","","","","","","","",""
"pit-trial","20","314298","0.0-2.0-8.0-0.0","battery-v0.2","","""event"",""trial"",""time""
""fullscreenenter"",""1"",""2952""
","
","
","""event"",""trial"",""time""
""fullscreenenter"",""1"",""2952""
","
","","","718.1000000238419","","","10","10104","4830","&#9776;","elianto","#3366ff99"," "," ","1","+10","[1573.2000000178814]","1","0","1","","","","","","","",""
"pit-trial","21","317828","0.0-2.0-8.0-1.0","battery-v0.2","","""event"",""trial"",""time""
""fullscreenenter"",""1"",""2952""
","
","
","""event"",""trial"",""time""
""fullscreenenter"",""1"",""2952""
","
","","","667.4000000059605","","","10","10104","4830","&#9776;","elianto","#3366ff99"," "," ","1","+10","[1523]","1","0","1","","","","","","","",""
"pit-trial","22","321307","0.0-2.0-8.0-2.0","battery-v0.2","","""event"",""trial"",""time""
""fullscreenenter"",""1"",""2952""
","
","
","""event"",""trial"",""time""
""fullscreenenter"",""1"",""2952""
","
","","","618.8999999761581","","","10","10104","4830","&#9776;","elianto","#3366ff99"," "," ","1","+10","[1474.2999999821186]","1","0","1","","","","","","","",""
"pit-trial","23","324763","0.0-2.0-8.0-3.0","battery-v0.2","","""event"",""trial"",""time""
""fullscreenenter"",""1"",""2952""
","
","
","""event"",""trial"",""time""
""fullscreenenter"",""1"",""2952""
","
","","","594.5999999940395","","","10","10104","4830","&#9776;","elianto","#3366ff99"," "," ","1","0","[1449.9000000059605]","1","0","1","","","","","","","",""
"pit-trial","24","328393","0.0-2.0-8.0-4.0","battery-v0.2","","""event"",""trial"",""time""
""fullscreenenter"",""1"",""2952""
","
","
","""event"",""trial"",""time""
""fullscreenenter"",""1"",""2952""
","
","","","754","","","10","10104","4830","&#9776;","elianto","#3366ff99"," "," ","1","+10","[1610.5]","1","0","1","","","","","","","",""
"pit-trial","25","332028","0.0-2.0-8.1-0.1","battery-v0.2","","""event"",""trial"",""time""
""fullscreenenter"",""1"",""2952""
","
","
","""event"",""trial"",""time""
""fullscreenenter"",""1"",""2952""
","
","","","762.6999999880791","","","10","10104","4830","&#9776;","elianto","#3366ff99"," "," ","1","+10","[1617.800000011921]","1","0","1","","","","","","","",""
"pit-trial","26","335523","0.0-2.0-8.1-1.1","battery-v0.2","","""event"",""trial"",""time""
""fullscreenenter"",""1"",""2952""
","
","
","""event"",""trial"",""time""
""fullscreenenter"",""1"",""2952""
","
","","","623.8000000119209","","","10","10104","4830","&#9776;","elianto","#3366ff99"," "," ","1","+10","[1479.199999988079]","1","0","1","","","","","","","",""
"pit-trial","27","338995","0.0-2.0-8.1-2.1","battery-v0.2","","""event"",""trial"",""time""
""fullscreenenter"",""1"",""2952""
","
","
","""event"",""trial"",""time""
""fullscreenenter"",""1"",""2952""
","
","","","614","","","10","10104","4830","&#9776;","elianto","#3366ff99"," "," ","1","+10","[1469.5]","1","0","1","","","","","","","",""
"pit-trial","28","342276","0.0-2.0-8.1-3.1","battery-v0.2","","""event"",""trial"",""time""
""fullscreenenter"",""1"",""2952""
","
","
","""event"",""trial"",""time""
""fullscreenenter"",""1"",""2952""
","
","","","428","","","10","10104","4830","&#9776;","elianto","#3366ff99"," "," ","1","0","[1278.7999999821186]","1","0","1","","","","","","","",""
"pit-trial","29","345926","0.0-2.0-8.1-4.1","battery-v0.2","","""event"",""trial"",""time""
""fullscreenenter"",""1"",""2952""
","
","
","""event"",""trial"",""time""
""fullscreenenter"",""1"",""2952""
","
","","","797.6999999880791","","","10","10104","4830","&#9776;","elianto","#3366ff99"," "," ","1","+10","[1649.0999999940395]","1","0","1","","","","","","","",""
"pit-trial","30","349563","0.0-2.0-8.2-0.2","battery-v0.2","","""event"",""trial"",""time""
""fullscreenenter"",""1"",""2952""
","
","
","""event"",""trial"",""time""
""fullscreenenter"",""1"",""2952""
","
","","","783","","","10","10104","4830","&#9776;","elianto","#3366ff99"," "," ","1","+10","[1633.699999988079]","1","0","1","","","","","","","",""
"pit-trial","31","352925","0.0-2.0-8.2-1.2","battery-v0.2","","""event"",""trial"",""time""
""fullscreenenter"",""1"",""2952""
","
","
","""event"",""trial"",""time""
""fullscreenenter"",""1"",""2952""
","
","","","510.7000000178814","","","10","10104","4830","&#9776;","elianto","#3366ff99"," "," ","1","+10","[1361.4000000059605]","1","0","1","","","","","","","",""
"pit-trial","32","356371","0.0-2.0-8.2-2.2","battery-v0.2","","""event"",""trial"",""time""
""fullscreenenter"",""1"",""2952""
","
","
","""event"",""trial"",""time""
""fullscreenenter"",""1"",""2952""
","
","","","593","","","10","10104","4830","&#9776;","elianto","#3366ff99"," "," ","1","+10","[1443.7000000178814]","1","0","1","","","","","","","",""
"pit-trial","33","359902","0.0-2.0-8.2-3.2","battery-v0.2","","""event"",""trial"",""time""
""fullscreenenter"",""1"",""2952""
","
","
","""event"",""trial"",""time""
""fullscreenenter"",""1"",""2952""
","
","","","678.5","","","10","10104","4830","&#9776;","elianto","#3366ff99"," "," ","1","0","[1529.7000000178814]","1","0","1","","","","","","","",""
"pit-trial","34","363748","0.0-2.0-8.2-4.2","battery-v0.2","","""event"",""trial"",""time""
""fullscreenenter"",""1"",""2952""
","
","
","""event"",""trial"",""time""
""fullscreenenter"",""1"",""2952""
","
","","","994","","","10","10104","4830","&#9776;","elianto","#3366ff99"," "," ","1","+10","[1844.2000000178814]","1","0","1","","","","","","","",""
"call-function","35","363749","0.0-2.0-9.0","battery-v0.2","","""event"",""trial"",""time""
""fullscreenenter"",""1"",""2952""
","
","
","""event"",""trial"",""time""
""fullscreenenter"",""1"",""2952""
","
","","","","","","","","","","","","","","","","","","","","","","","","","","",""
"pit-instructions","36","404054","0.0-2.0-10.0","battery-v0.2","","""event"",""trial"",""time""
""fullscreenenter"",""1"",""2952""
","
","
","""event"",""trial"",""time""
""fullscreenenter"",""1"",""2952""
","
","","[{""page_index"":0,""viewing_time"":7087},{""page_index"":1,""viewing_time"":7651},{""page_index"":2,""viewing_time"":9069},{""page_index"":3,""viewing_time"":8885.300000011921},{""page_index"":4,""viewing_time"":7612.5999999940395}]","40305.09999999404","","","","","","","","","","","","","","","","","","","","","","","",""
"pit-trial","37","407379","0.0-2.0-11.0-0.0","battery-v0.2","","""event"",""trial"",""time""
""fullscreenenter"",""1"",""2952""
","
","
","""event"",""trial"",""time""
""fullscreenenter"",""1"",""2952""
","
","","","456.90000000596046","","","10","10104","4830","&#9761;","elianto","#3366ff99","-1"," ","0","0","[1308.300000011921]","1","0","2","","","","","","","",""
"pit-trial","38","410331","0.0-2.0-11.0-1.0","battery-v0.2","","""event"",""trial"",""time""
""fullscreenenter"",""1"",""2952""
","
","
","""event"",""trial"",""time""
""fullscreenenter"",""1"",""2952""
","
","","","88.59999999403954","","","10","10104","4830","&#9761;","elianto","#3366ff99","-1"," ","0","0","[951.2000000178814]","1","0","2","","","","","","","",""
"pit-trial","39","415188","0.0-2.0-11.0-2.0","battery-v0.2","","""event"",""trial"",""time""
""fullscreenenter"",""1"",""2952""
","
","
","""event"",""trial"",""time""
""fullscreenenter"",""1"",""2952""
","
","","","-1","","","10","10104","4830","&#9761;","elianto","#3366ff99","-1","-1","1","+10","[]","0","0","2","","","","","","","",""
"pit-trial","40","418578","0.0-2.0-11.0-3.0","battery-v0.2","","""event"",""trial"",""time""
""fullscreenenter"",""1"",""2952""
","
","
","""event"",""trial"",""time""
""fullscreenenter"",""1"",""2952""
","
","","","532.0999999940395","","","10","10104","4830","&#9761;","elianto","#3366ff99","-1"," ","0","+10","[1385.5999999940395]","1","0","2","","","","","","","",""
"pit-trial","41","421749","0.0-2.0-11.0-4.0","battery-v0.2","","""event"",""trial"",""time""
""fullscreenenter"",""1"",""2952""
","
","
","""event"",""trial"",""time""
""fullscreenenter"",""1"",""2952""
","
","","","308.2000000178814","","","10","10104","4830","&#9761;","elianto","#3366ff99","-1"," ","0","0","[1166.2000000178814]","1","0","2","","","","","","","",""
"pit-trial","42","425235","0.0-2.0-11.1-0.1","battery-v0.2","","""event"",""trial"",""time""
""fullscreenenter"",""1"",""2952""
","
","
","""event"",""trial"",""time""
""fullscreenenter"",""1"",""2952""
","
","","","628.0999999940395","","","10","10104","4830","&#9761;","elianto","#3366ff99","-1"," ","0","0","[1483.0999999940395]","1","0","2","","","","","","","",""
"pit-trial","43","430118","0.0-2.0-11.1-1.1","battery-v0.2","","""event"",""trial"",""time""
""fullscreenenter"",""1"",""2952""
","
","
","""event"",""trial"",""time""
""fullscreenenter"",""1"",""2952""
","
","","","-1","","","10","10104","4830","&#9761;","elianto","#3366ff99","-1","-1","1","+10","[]","0","0","2","","","","","","","",""
"pit-trial","44","433710","0.0-2.0-11.1-2.1","battery-v0.2","","""event"",""trial"",""time""
""fullscreenenter"",""1"",""2952""
","
","
","""event"",""trial"",""time""
""fullscreenenter"",""1"",""2952""
","
","","","734.6999999880791","","","10","10104","4830","&#9761;","elianto","#3366ff99","-1"," ","0","0","[1590.3999999761581]","1","0","2","","","","","","","",""
"pit-trial","45","436885","0.0-2.0-11.1-3.1","battery-v0.2","","""event"",""trial"",""time""
""fullscreenenter"",""1"",""2952""
","
","
","""event"",""trial"",""time""
""fullscreenenter"",""1"",""2952""
","
","","","323.40000000596046","","","10","10104","4830","&#9761;","elianto","#3366ff99","-1"," ","0","+10","[1173.800000011921]","1","0","2","","","","","","","",""
"pit-trial","46","440196","0.0-2.0-11.1-4.1","battery-v0.2","","""event"",""trial"",""time""
""fullscreenenter"",""1"",""2952""
","
","
","""event"",""trial"",""time""
""fullscreenenter"",""1"",""2952""
","
","","","456.90000000596046","","","10","10104","4830","&#9761;","elianto","#3366ff99","-1"," ","0","0","[1308.4000000059605]","1","0","2","","","","","","","",""
"pit-trial","47","443263","0.0-2.0-11.2-0.2","battery-v0.2","","""event"",""trial"",""time""
""fullscreenenter"",""1"",""2952""
","
","
","""event"",""trial"",""time""
""fullscreenenter"",""1"",""2952""
","
","","","214.19999998807907","","","10","10104","4830","&#9761;","elianto","#3366ff99","-1"," ","0","0","[1064.2999999821186,2652.0999999940395]","2","0","2","","","","","","","",""
"pit-trial","48","446914","0.0-2.0-11.2-1.2","battery-v0.2","","""event"",""trial"",""time""
""fullscreenenter"",""1"",""2952""
","
","
","""event"",""trial"",""time""
""fullscreenenter"",""1"",""2952""
","
","","","797.6999999880791","","","10","10104","4830","&#9761;","elianto","#3366ff99","-1"," ","0","0","[1648.5999999940395]","1","0","2","","","","","","","",""
"pit-trial","49","451100","0.0-2.0-11.2-2.2","battery-v0.2","","""event"",""trial"",""time""
""fullscreenenter"",""1"",""2952""
","
","
","""event"",""trial"",""time""
""fullscreenenter"",""1"",""2952""
","
","","","1334.199999988079","","","10","10104","4830","&#9761;","elianto","#3366ff99","-1"," ","0","0","[2184.5]","1","0","2","","","","","","","",""
"pit-trial","50","455953","0.0-2.0-11.2-3.2","battery-v0.2","","""event"",""trial"",""time""
""fullscreenenter"",""1"",""2952""
","
","
","""event"",""trial"",""time""
""fullscreenenter"",""1"",""2952""
","
","","","-1","","","10","10104","4830","&#9761;","elianto","#3366ff99","-1","-1","1","0","[]","0","0","2","","","","","","","",""
"pit-trial","51","459380","0.0-2.0-11.2-4.2","battery-v0.2","","""event"",""trial"",""time""
""fullscreenenter"",""1"",""2952""
","
","
","""event"",""trial"",""time""
""fullscreenenter"",""1"",""2952""
","
","","","573.5","","","10","10104","4830","&#9761;","elianto","#3366ff99","-1"," ","0","0","[1423.699999988079]","1","0","2","","","","","","","",""
"pit-trial","52","464234","0.0-2.0-11.3-0.3","battery-v0.2","","""event"",""trial"",""time""
""fullscreenenter"",""1"",""2952""
","
","
","""event"",""trial"",""time""
""fullscreenenter"",""1"",""2952""
","
","","","-1","","","10","10104","4830","&#9761;","elianto","#3366ff99","-1","-1","1","+10","[]","0","0","2","","","","","","","",""
"pit-trial","53","469087","0.0-2.0-11.3-1.3","battery-v0.2","","""event"",""trial"",""time""
""fullscreenenter"",""1"",""2952""
","
","
","""event"",""trial"",""time""
""fullscreenenter"",""1"",""2952""
","
","","","-1","","","10","10104","4830","&#9761;","elianto","#3366ff99","-1","-1","1","+10","[]","0","0","2","","","","","","","",""
"pit-trial","54","472455","0.0-2.0-11.3-2.3","battery-v0.2","","""event"",""trial"",""time""
""fullscreenenter"",""1"",""2952""
","
","
","""event"",""trial"",""time""
""fullscreenenter"",""1"",""2952""
","
","","","515.5999999940395","","","10","10104","4830","&#9761;","elianto","#3366ff99","-1"," ","0","0","[1365.699999988079]","1","0","2","","","","","","","",""
"pit-trial","55","475587","0.0-2.0-11.3-3.3","battery-v0.2","","""event"",""trial"",""time""
""fullscreenenter"",""1"",""2952""
","
","
","""event"",""trial"",""time""
""fullscreenenter"",""1"",""2952""
","
","","","279.40000000596046","","","10","10104","4830","&#9761;","elianto","#3366ff99","-1"," ","0","+10","[1130.4000000059605]","1","0","2","","","","","","","",""
"pit-trial","56","478853","0.0-2.0-11.3-4.3","battery-v0.2","","""event"",""trial"",""time""
""fullscreenenter"",""1"",""2952""
","
","
","""event"",""trial"",""time""
""fullscreenenter"",""1"",""2952""
","
","","","412.2000000178814","","","10","10104","4830","&#9761;","elianto","#3366ff99","-1"," ","0","0","[1263.5]","1","0","2","","","","","","","",""
"call-function","57","478854","0.0-2.0-12.0","battery-v0.2","","""event"",""trial"",""time""
""fullscreenenter"",""1"",""2952""
","
","
","""event"",""trial"",""time""
""fullscreenenter"",""1"",""2952""
","
","","","","","","","","","","","","","","","","","","","","","","","","","","",""
"pit-instructions","58","511918","0.0-2.0-13.0","battery-v0.2","","""event"",""trial"",""time""
""fullscreenenter"",""1"",""2952""
","
","
","""event"",""trial"",""time""
""fullscreenenter"",""1"",""2952""
","
","","[{""page_index"":0,""viewing_time"":6643.5},{""page_index"":1,""viewing_time"":7583.9000000059605},{""page_index"":2,""viewing_time"":3700.199999988079},{""page_index"":3,""viewing_time"":10188},{""page_index"":4,""viewing_time"":4947.9000000059605}]","33063.70000001788","","","","","","","","","","","","","","","","","","","","","","","",""
"pit-trial","59","516797","0.0-2.0-14.0-0.0","battery-v0.2","","""event"",""trial"",""time""
""fullscreenenter"",""1"",""2952""
","
","
","""event"",""trial"",""time""
""fullscreenenter"",""1"",""2952""
","
","","","-1","","","10","10104","4830","&#9826;","elianto","#f73b6a7A","-1","-1","1","0","[]","0","0","3","","","","","","","",""
"pit-trial","60","521684","0.0-2.0-14.0-1.0","battery-v0.2","","""event"",""trial"",""time""
""fullscreenenter"",""1"",""2952""
","
","
","""event"",""trial"",""time""
""fullscreenenter"",""1"",""2952""
","
","","","-1","","","10","10104","4830","&#9826;","elianto","#f73b6a7A","-1","-1","1","0","[]","0","0","3","","","","","","","",""
"pit-trial","61","526554","0.0-2.0-14.0-2.0","battery-v0.2","","""event"",""trial"",""time""
""fullscreenenter"",""1"",""2952""
","
","
","""event"",""trial"",""time""
""fullscreenenter"",""1"",""2952""
","
","","","-1","","","10","10104","4830","&#9826;","elianto","#f73b6a7A","-1","-1","1","0","[]","0","0","3","","","","","","","",""
"pit-trial","62","531428","0.0-2.0-14.0-3.0","battery-v0.2","","""event"",""trial"",""time""
""fullscreenenter"",""1"",""2952""
","
","
","""event"",""trial"",""time""
""fullscreenenter"",""1"",""2952""
","
","","","-1","","","10","10104","4830","&#9826;","elianto","#f73b6a7A","-1","-1","1","-10","[]","0","0","3","","","","","","","",""
"pit-trial","63","535394","0.0-2.0-14.0-4.0","battery-v0.2","","""event"",""trial"",""time""
""fullscreenenter"",""1"",""2952""
","
","
","""event"",""trial"",""time""
""fullscreenenter"",""1"",""2952""
","
","","","1107.2000000178814","","","10","10104","4830","&#9826;","elianto","#f73b6a7A","-1"," ","0","-10","[1962.7000000178814]","1","0","3","","","","","","","",""
"pit-trial","64","540278","0.0-2.0-14.1-0.1","battery-v0.2","","""event"",""trial"",""time""
""fullscreenenter"",""1"",""2952""
","
","
","""event"",""trial"",""time""
""fullscreenenter"",""1"",""2952""
","
","","","-1","","","10","10104","4830","&#9826;","elianto","#f73b6a7A","-1","-1","1","0","[]","0","0","3","","","","","","","",""
"pit-trial","65","545131","0.0-2.0-14.1-1.1","battery-v0.2","","""event"",""trial"",""time""
""fullscreenenter"",""1"",""2952""
","
","
","""event"",""trial"",""time""
""fullscreenenter"",""1"",""2952""
","
","","","-1","","","10","10104","4830","&#9826;","elianto","#f73b6a7A","-1","-1","1","0","[]","0","0","3","","","","","","","",""
"pit-trial","66","549983","0.0-2.0-14.1-2.1","battery-v0.2","","""event"",""trial"",""time""
""fullscreenenter"",""1"",""2952""
","
","
","""event"",""trial"",""time""
""fullscreenenter"",""1"",""2952""
","
","","","-1","","","10","10104","4830","&#9826;","elianto","#f73b6a7A","-1","-1","1","0","[]","0","0","3","","","","","","","",""
"pit-trial","67","554835","0.0-2.0-14.1-3.1","battery-v0.2","","""event"",""trial"",""time""
""fullscreenenter"",""1"",""2952""
","
","
","""event"",""trial"",""time""
""fullscreenenter"",""1"",""2952""
","
","","","-1","","","10","10104","4830","&#9826;","elianto","#f73b6a7A","-1","-1","1","-10","[]","0","0","3","","","","","","","",""
"pit-trial","68","559688","0.0-2.0-14.1-4.1","battery-v0.2","","""event"",""trial"",""time""
""fullscreenenter"",""1"",""2952""
","
","
","""event"",""trial"",""time""
""fullscreenenter"",""1"",""2952""
","
","","","-1","","","10","10104","4830","&#9826;","elianto","#f73b6a7A","-1","-1","1","0","[]","0","0","3","","","","","","","",""
"pit-trial","69","564541","0.0-2.0-14.2-0.2","battery-v0.2","","""event"",""trial"",""time""
""fullscreenenter"",""1"",""2952""
","
","
","""event"",""trial"",""time""
""fullscreenenter"",""1"",""2952""
","
","","","-1","","","10","10104","4830","&#9826;","elianto","#f73b6a7A","-1","-1","1","0","[]","0","0","3","","","","","","","",""
"pit-trial","70","569406","0.0-2.0-14.2-1.2","battery-v0.2","","""event"",""trial"",""time""
""fullscreenenter"",""1"",""2952""
","
","
","""event"",""trial"",""time""
""fullscreenenter"",""1"",""2952""
","
","","","-1","","","10","10104","4830","&#9826;","elianto","#f73b6a7A","-1","-1","1","0","[]","0","0","3","","","","","","","",""
"pit-trial","71","574271","0.0-2.0-14.2-2.2","battery-v0.2","","""event"",""trial"",""time""
""fullscreenenter"",""1"",""2952""
","
","
","""event"",""trial"",""time""
""fullscreenenter"",""1"",""2952""
","
","","","-1","","","10","10104","4830","&#9826;","elianto","#f73b6a7A","-1","-1","1","0","[]","0","0","3","","","","","","","",""
"pit-trial","72","579123","0.0-2.0-14.2-3.2","battery-v0.2","","""event"",""trial"",""time""
""fullscreenenter"",""1"",""2952""
","
","
","""event"",""trial"",""time""
""fullscreenenter"",""1"",""2952""
","
","","","-1","","","10","10104","4830","&#9826;","elianto","#f73b6a7A","-1","-1","1","-10","[]","0","0","3","","","","","","","",""
"pit-trial","73","583976","0.0-2.0-14.2-4.2","battery-v0.2","","""event"",""trial"",""time""
""fullscreenenter"",""1"",""2952""
","
","
","""event"",""trial"",""time""
""fullscreenenter"",""1"",""2952""
","
","","","-1","","","10","10104","4830","&#9826;","elianto","#f73b6a7A","-1","-1","1","0","[]","0","0","3","","","","","","","",""
"pit-trial","74","587458","0.0-2.0-14.3-0.3","battery-v0.2","","""event"",""trial"",""time""
""fullscreenenter"",""1"",""2952""
","
","
","""event"",""trial"",""time""
""fullscreenenter"",""1"",""2952""
","
","","","629.8999999761581","","","10","10104","4830","&#9826;","elianto","#f73b6a7A","-1"," ","0","-10","[1480.0999999940395]","1","0","3","","","","","","","",""
"pit-trial","75","592310","0.0-2.0-14.3-1.3","battery-v0.2","","""event"",""trial"",""time""
""fullscreenenter"",""1"",""2952""
","
","
","""event"",""trial"",""time""
""fullscreenenter"",""1"",""2952""
","
","","","-1","","","10","10104","4830","&#9826;","elianto","#f73b6a7A","-1","-1","1","0","[]","0","0","3","","","","","","","",""
"pit-trial","76","597170","0.0-2.0-14.3-2.3","battery-v0.2","","""event"",""trial"",""time""
""fullscreenenter"",""1"",""2952""
","
","
","""event"",""trial"",""time""
""fullscreenenter"",""1"",""2952""
","
","","","-1","","","10","10104","4830","&#9826;","elianto","#f73b6a7A","-1","-1","1","0","[]","0","0","3","","","","","","","",""
"pit-trial","77","602023","0.0-2.0-14.3-3.3","battery-v0.2","","""event"",""trial"",""time""
""fullscreenenter"",""1"",""2952""
","
","
","""event"",""trial"",""time""
""fullscreenenter"",""1"",""2952""
","
","","","-1","","","10","10104","4830","&#9826;","elianto","#f73b6a7A","-1","-1","1","-10","[]","0","0","3","","","","","","","",""
"pit-trial","78","606877","0.0-2.0-14.3-4.3","battery-v0.2","","""event"",""trial"",""time""
""fullscreenenter"",""1"",""2952""
","
","
","""event"",""trial"",""time""
""fullscreenenter"",""1"",""2952""
","
","","","-1","","","10","10104","4830","&#9826;","elianto","#f73b6a7A","-1","-1","1","0","[]","0","0","3","","","","","","","",""
"call-function","79","606877","0.0-2.0-15.0","battery-v0.2","","""event"",""trial"",""time""
""fullscreenenter"",""1"",""2952""
","
","
","""event"",""trial"",""time""
""fullscreenenter"",""1"",""2952""
","
","","","","","","","","","","","","","","","","","","","","","","","","","","",""
"pit-instructions","80","631514","0.0-2.0-16.0","battery-v0.2","","""event"",""trial"",""time""
""fullscreenenter"",""1"",""2952""
","
","
","""event"",""trial"",""time""
""fullscreenenter"",""1"",""2952""
","
","","[{""page_index"":0,""viewing_time"":7579.300000011921},{""page_index"":1,""viewing_time"":8164.5},{""page_index"":2,""viewing_time"":4290.199999988079},{""page_index"":3,""viewing_time"":4601.800000011921}]","24636","","","","","","","","","","","","","","","","","","","","","","","",""
"pit-trial","81","635108","0.0-2.0-17.0-0.0","battery-v0.2","","""event"",""trial"",""time""
""fullscreenenter"",""1"",""2952""
","
","
","""event"",""trial"",""time""
""fullscreenenter"",""1"",""2952""
","
","","","736.7999999821186","","","10","10104","4830","&#9789;","elianto","#f73b6a7A"," "," ","1","0","[1588.9000000059605]","1","0","4","","","","","","","",""
"pit-trial","82","639978","0.0-2.0-17.0-1.0","battery-v0.2","","""event"",""trial"",""time""
""fullscreenenter"",""1"",""2952""
","
","
","""event"",""trial"",""time""
""fullscreenenter"",""1"",""2952""
","
","","","-1","","","10","10104","4830","&#9789;","elianto","#f73b6a7A"," ","-1","0","-10","[]","0","0","4","","","","","","","",""
"pit-trial","83","644853","0.0-2.0-17.0-2.0","battery-v0.2","","""event"",""trial"",""time""
""fullscreenenter"",""1"",""2952""
","
","
","""event"",""trial"",""time""
""fullscreenenter"",""1"",""2952""
","
","","","-1","","","10","10104","4830","&#9789;","elianto","#f73b6a7A"," ","-1","0","-10","[]","0","0","4","","","","","","","",""
"pit-trial","84","649733","0.0-2.0-17.0-3.0","battery-v0.2","","""event"",""trial"",""time""
""fullscreenenter"",""1"",""2952""
","
","
","""event"",""trial"",""time""
""fullscreenenter"",""1"",""2952""
","
","","","-1","","","10","10104","4830","&#9789;","elianto","#f73b6a7A"," ","-1","0","0","[]","0","0","4","","","","","","","",""
"pit-trial","85","654608","0.0-2.0-17.0-4.0","battery-v0.2","","""event"",""trial"",""time""
""fullscreenenter"",""1"",""2952""
","
","
","""event"",""trial"",""time""
""fullscreenenter"",""1"",""2952""
","
","","","-1","","","10","10104","4830","&#9789;","elianto","#f73b6a7A"," ","-1","0","-10","[]","0","0","4","","","","","","","",""
"pit-trial","86","659473","0.0-2.0-17.1-0.1","battery-v0.2","","""event"",""trial"",""time""
""fullscreenenter"",""1"",""2952""
","
","
","""event"",""trial"",""time""
""fullscreenenter"",""1"",""2952""
","
","","","-1","","","10","10104","4830","&#9789;","elianto","#f73b6a7A"," ","-1","0","-10","[]","0","0","4","","","","","","","",""
"pit-trial","87","664324","0.0-2.0-17.1-1.1","battery-v0.2","","""event"",""trial"",""time""
""fullscreenenter"",""1"",""2952""
","
","
","""event"",""trial"",""time""
""fullscreenenter"",""1"",""2952""
","
","","","-1","","","10","10104","4830","&#9789;","elianto","#f73b6a7A"," ","-1","0","-10","[]","0","0","4","","","","","","","",""
"pit-trial","88","669177","0.0-2.0-17.1-2.1","battery-v0.2","","""event"",""trial"",""time""
""fullscreenenter"",""1"",""2952""
","
","
","""event"",""trial"",""time""
""fullscreenenter"",""1"",""2952""
","
","","","-1","","","10","10104","4830","&#9789;","elianto","#f73b6a7A"," ","-1","0","-10","[]","0","0","4","","","","","","","",""
"pit-trial","89","674031","0.0-2.0-17.1-3.1","battery-v0.2","","""event"",""trial"",""time""
""fullscreenenter"",""1"",""2952""
","
","
","""event"",""trial"",""time""
""fullscreenenter"",""1"",""2952""
","
","","","-1","","","10","10104","4830","&#9789;","elianto","#f73b6a7A"," ","-1","0","0","[]","0","0","4","","","","","","","",""
"pit-trial","90","678883","0.0-2.0-17.1-4.1","battery-v0.2","","""event"",""trial"",""time""
""fullscreenenter"",""1"",""2952""
","
","
","""event"",""trial"",""time""
""fullscreenenter"",""1"",""2952""
","
","","","-1","","","10","10104","4830","&#9789;","elianto","#f73b6a7A"," ","-1","0","-10","[]","0","0","4","","","","","","","",""
"pit-trial","91","683736","0.0-2.0-17.2-0.2","battery-v0.2","","""event"",""trial"",""time""
""fullscreenenter"",""1"",""2952""
","
","
","""event"",""trial"",""time""
""fullscreenenter"",""1"",""2952""
","
","","","-1","","","10","10104","4830","&#9789;","elianto","#f73b6a7A"," ","-1","0","-10","[]","0","0","4","","","","","","","",""
"pit-trial","92","688588","0.0-2.0-17.2-1.2","battery-v0.2","","""event"",""trial"",""time""
""fullscreenenter"",""1"",""2952""
","
","
","""event"",""trial"",""time""
""fullscreenenter"",""1"",""2952""
","
","","","-1","","","10","10104","4830","&#9789;","elianto","#f73b6a7A"," ","-1","0","-10","[]","0","0","4","","","","","","","",""
"pit-trial","93","693441","0.0-2.0-17.2-2.2","battery-v0.2","","""event"",""trial"",""time""
""fullscreenenter"",""1"",""2952""
","
","
","""event"",""trial"",""time""
""fullscreenenter"",""1"",""2952""
","
","","","-1","","","10","10104","4830","&#9789;","elianto","#f73b6a7A"," ","-1","0","-10","[]","0","0","4","","","","","","","",""
"pit-trial","94","698294","0.0-2.0-17.2-3.2","battery-v0.2","","""event"",""trial"",""time""
""fullscreenenter"",""1"",""2952""
","
","
","""event"",""trial"",""time""
""fullscreenenter"",""1"",""2952""
","
","","","-1","","","10","10104","4830","&#9789;","elianto","#f73b6a7A"," ","-1","0","0","[]","0","0","4","","","","","","","",""
"pit-trial","95","703147","0.0-2.0-17.2-4.2","battery-v0.2","","""event"",""trial"",""time""
""fullscreenenter"",""1"",""2952""
","
","
","""event"",""trial"",""time""
""fullscreenenter"",""1"",""2952""
","
","","","-1","","","10","10104","4830","&#9789;","elianto","#f73b6a7A"," ","-1","0","-10","[]","0","0","4","","","","","","","",""
"pit-trial","96","707999","0.0-2.0-17.3-0.3","battery-v0.2","","""event"",""trial"",""time""
""fullscreenenter"",""1"",""2952""
","
","
","""event"",""trial"",""time""
""fullscreenenter"",""1"",""2952""
","
","","","-1","","","10","10104","4830","&#9789;","elianto","#f73b6a7A"," ","-1","0","-10","[]","0","0","4","","","","","","","",""
"pit-trial","97","712851","0.0-2.0-17.3-1.3","battery-v0.2","","""event"",""trial"",""time""
""fullscreenenter"",""1"",""2952""
","
","
","""event"",""trial"",""time""
""fullscreenenter"",""1"",""2952""
","
","","","-1","","","10","10104","4830","&#9789;","elianto","#f73b6a7A"," ","-1","0","-10","[]","0","0","4","","","","","","","",""
"pit-trial","98","717704","0.0-2.0-17.3-2.3","battery-v0.2","","""event"",""trial"",""time""
""fullscreenenter"",""1"",""2952""
","
","
","""event"",""trial"",""time""
""fullscreenenter"",""1"",""2952""
","
","","","-1","","","10","10104","4830","&#9789;","elianto","#f73b6a7A"," ","-1","0","-10","[]","0","0","4","","","","","","","",""
"pit-trial","99","722556","0.0-2.0-17.3-3.3","battery-v0.2","","""event"",""trial"",""time""
""fullscreenenter"",""1"",""2952""
","
","
","""event"",""trial"",""time""
""fullscreenenter"",""1"",""2952""
","
","","","-1","","","10","10104","4830","&#9789;","elianto","#f73b6a7A"," ","-1","0","0","[]","0","0","4","","","","","","","",""
"pit-trial","100","727409","0.0-2.0-17.3-4.3","battery-v0.2","","""event"",""trial"",""time""
""fullscreenenter"",""1"",""2952""
","
","
","""event"",""trial"",""time""
""fullscreenenter"",""1"",""2952""
","
","","","-1","","","10","10104","4830","&#9789;","elianto","#f73b6a7A"," ","-1","0","-10","[]","0","0","4","","","","","","","",""
"call-function","101","727410","0.0-2.0-18.0","battery-v0.2","","""event"",""trial"",""time""
""fullscreenenter"",""1"",""2952""
","
","
","""event"",""trial"",""time""
""fullscreenenter"",""1"",""2952""
","
","","","","","","","","","","","","","","","","","","","","","","","","","","",""
"pit-instructions","102","806938","0.0-2.0-19.0","battery-v0.2","","""event"",""trial"",""time""
""fullscreenenter"",""1"",""2952""
","
","
","""event"",""trial"",""time""
""fullscreenenter"",""1"",""2952""
","
","","[{""page_index"":0,""viewing_time"":8511},{""page_index"":1,""viewing_time"":6759.5999999940395},{""page_index"":2,""viewing_time"":13488.09999999404},{""page_index"":3,""viewing_time"":8901.800000011921},{""page_index"":4,""viewing_time"":14000},{""page_index"":5,""viewing_time"":8636.199999988079},{""page_index"":6,""viewing_time"":8507.699999988079},{""page_index"":7,""viewing_time"":6302.300000011921},{""page_index"":8,""viewing_time"":4420}]","79527","","","","","","","","","","","","","","","","","","","","","","","",""
"pit-comprehension","103","812374","0.0-2.0-20.0-0.0","battery-v0.2","","""event"",""trial"",""time""
""fullscreenenter"",""1"",""2952""
","
","
","""event"",""trial"",""time""
""fullscreenenter"",""1"",""2952""
","
","","","5434.0999999940395","[""SPACE""]","0","10","10104","4830","","","","","","","","","","","","","","","","","","",""
"pit-instructions","104","815973","0.0-2.0-20.0-1.0","battery-v0.2","","""event"",""trial"",""time""
""fullscreenenter"",""1"",""2952""
","
","
","""event"",""trial"",""time""
""fullscreenenter"",""1"",""2952""
","
","","[{""page_index"":0,""viewing_time"":3576.4000000059605}]","3576.600000023842","","","","","","","","","","","","","","","","","","","","","","","",""
"pit-comprehension","105","823289","0.0-2.0-21.0-0.0","battery-v0.2","","""event"",""trial"",""time""
""fullscreenenter"",""1"",""2952""
","
","
","""event"",""trial"",""time""
""fullscreenenter"",""1"",""2952""
","
","","","7314.700000017881","[""10""]","0","10","10104","4830","","","","","","","","","","","","","","","","","","",""
"pit-instructions","106","825073","0.0-2.0-21.0-1.0","battery-v0.2","","""event"",""trial"",""time""
""fullscreenenter"",""1"",""2952""
","
","
","""event"",""trial"",""time""
""fullscreenenter"",""1"",""2952""
","
","","[{""page_index"":0,""viewing_time"":1760}]","1760.2000000178814","","","","","","","","","","","","","","","","","","","","","","","",""
"pit-comprehension","107","832095","0.0-2.0-22.0-0.0","battery-v0.2","","""event"",""trial"",""time""
""fullscreenenter"",""1"",""2952""
","
","
","""event"",""trial"",""time""
""fullscreenenter"",""1"",""2952""
","
","","","7020.800000011921","[""0""]","0","10","10104","4830","","","","","","","","","","","","","","","","","","",""
"pit-instructions","108","836331","0.0-2.0-22.0-1.0","battery-v0.2","","""event"",""trial"",""time""
""fullscreenenter"",""1"",""2952""
","
","
","""event"",""trial"",""time""
""fullscreenenter"",""1"",""2952""
","
","","[{""page_index"":0,""viewing_time"":4213.899999976158}]","4214.0999999940395","","","","","","","","","","","","","","","","","","","","","","","",""
"pit-comprehension","109","861363","0.0-2.0-23.0-0.0","battery-v0.2","","""event"",""trial"",""time""
""fullscreenenter"",""1"",""2952""
","
","
","""event"",""trial"",""time""
""fullscreenenter"",""1"",""2952""
","
","","","25030.80000001192","[""False""]","1","10","10104","4830","","","","","","","","","","","","","","","","","","",""
"pit-instructions","110","867127","0.0-2.0-23.0-1.0","battery-v0.2","","""event"",""trial"",""time""
""fullscreenenter"",""1"",""2952""
","
","
","""event"",""trial"",""time""
""fullscreenenter"",""1"",""2952""
","
","","[{""page_index"":0,""viewing_time"":5740.4000000059605}]","5740.5","","","","","","","","","","","","","","","","","","","","","","","",""
"pit-instructions","111","871535","0.0-2.0-23.0-2.0-0.0","battery-v0.2","","""event"",""trial"",""time""
""fullscreenenter"",""1"",""2952""
","
","
","""event"",""trial"",""time""
""fullscreenenter"",""1"",""2952""
","
","","[{""page_index"":0,""viewing_time"":4407.200000017881}]","4407.4000000059605","","","","","","","","","","","","","","","","","","","","","","","",""
"pit-comprehension","112","881197","0.0-2.0-23.1-0.1","battery-v0.2","","""event"",""trial"",""time""
""fullscreenenter"",""1"",""2952""
","
","
","""event"",""trial"",""time""
""fullscreenenter"",""1"",""2952""
","
","","","9660.5","[""True""]","0","10","10104","4830","","","","","","","","","","","","","","","","","","",""
"pit-instructions","113","883179","0.0-2.0-23.1-1.1","battery-v0.2","","""event"",""trial"",""time""
""fullscreenenter"",""1"",""2952""
","
","
","""event"",""trial"",""time""
""fullscreenenter"",""1"",""2952""
","
","","[{""page_index"":0,""viewing_time"":1959}]","1959.2000000178814","","","","","","","","","","","","","","","","","","","","","","","",""
"pit-comprehension","114","891050","0.0-2.0-24.0-0.0","battery-v0.2","","""event"",""trial"",""time""
""fullscreenenter"",""1"",""2952""
","
","
","""event"",""trial"",""time""
""fullscreenenter"",""1"",""2952""
","
","","","7870","[""True""]","0","10","10104","4830","","","","","","","","","","","","","","","","","","",""
"pit-instructions","115","895197","0.0-2.0-24.0-1.0","battery-v0.2","","""event"",""trial"",""time""
""fullscreenenter"",""1"",""2952""
","
","
","""event"",""trial"",""time""
""fullscreenenter"",""1"",""2952""
","
","","[{""page_index"":0,""viewing_time"":4122}]","4122.199999988079","","","","","","","","","","","","","","","","","","","","","","","",""
"pit-comprehension","116","905711","0.0-2.0-25.0-0.0","battery-v0.2","","""event"",""trial"",""time""
""fullscreenenter"",""1"",""2952""
","
","
","""event"",""trial"",""time""
""fullscreenenter"",""1"",""2952""
","
","","","10512.800000011921","[""True""]","0","10","10104","4830","","","","","","","","","","","","","","","","","","",""
"pit-instructions","117","907353","0.0-2.0-25.0-1.0","battery-v0.2","","""event"",""trial"",""time""
""fullscreenenter"",""1"",""2952""
","
","
","""event"",""trial"",""time""
""fullscreenenter"",""1"",""2952""
","
","","[{""page_index"":0,""viewing_time"":1618.699999988079}]","1618.9000000059605","","","","","","","","","","","","","","","","","","","","","","","",""
"pit-comprehension","118","913537","0.0-2.0-26.0-0.0","battery-v0.2","","""event"",""trial"",""time""
""fullscreenenter"",""1"",""2952""
","
","
","""event"",""trial"",""time""
""fullscreenenter"",""1"",""2952""
","
","","","6182.9000000059605","[""True""]","1","10","10104","4830","","","","","","","","","","","","","","","","","","",""
"pit-instructions","119","917793","0.0-2.0-26.0-1.0","battery-v0.2","","""event"",""trial"",""time""
""fullscreenenter"",""1"",""2952""
","
","
","""event"",""trial"",""time""
""fullscreenenter"",""1"",""2952""
","
","","[{""page_index"":0,""viewing_time"":4231.9000000059605}]","4232.100000023842","","","","","","","","","","","","","","","","","","","","","","","",""
"pit-instructions","120","918623","0.0-2.0-26.0-2.0-0.0","battery-v0.2","","""event"",""trial"",""time""
""fullscreenenter"",""1"",""2952""
","
","
","""event"",""trial"",""time""
""fullscreenenter"",""1"",""2952""
","
","","[{""page_index"":0,""viewing_time"":828.6999999880791}]","828.7999999821186","","","","","","","","","","","","","","","","","","","","","","","",""
"pit-comprehension","121","924071","0.0-2.0-26.1-0.1","battery-v0.2","","""event"",""trial"",""time""
""fullscreenenter"",""1"",""2952""
","
","
","""event"",""trial"",""time""
""fullscreenenter"",""1"",""2952""
","
","","","5447","[""False""]","0","10","10104","4830","","","","","","","","","","","","","","","","","","",""
"pit-instructions","122","926077","0.0-2.0-26.1-1.1","battery-v0.2","","""event"",""trial"",""time""
""fullscreenenter"",""1"",""2952""
","
","
","""event"",""trial"",""time""
""fullscreenenter"",""1"",""2952""
","
","","[{""page_index"":0,""viewing_time"":1981.4000000059605}]","1981.5999999940395","","","","","","","","","","","","","","","","","","","","","","","",""
"pit-instructions","123","950661","0.0-3.0","battery-v0.2","","""event"",""trial"",""time""
""fullscreenenter"",""1"",""2952""
","
","
","""event"",""trial"",""time""
""fullscreenenter"",""1"",""2952""
","
","","[{""page_index"":0,""viewing_time"":6410.800000011921},{""page_index"":1,""viewing_time"":6791.9000000059605},{""page_index"":2,""viewing_time"":11380.199999988079}]","24583","","","","","","","","","","","","","","","","","","","","","","","",""
"pit-trial","124","954135","0.0-4.0","battery-v0.2","","""event"",""trial"",""time""
""fullscreenenter"",""1"",""2952""
","
","
","""event"",""trial"",""time""
""fullscreenenter"",""1"",""2952""
","
","","","608.0999999940395","","","10","10104","4830","&#9733;","elianto","#3366ff99","-1"," ","0","0","[1469.0999999940395]","1","1","","","10104","1","2","2","win","no-go","0"
"pit-trial","125","957910","0.0-5.0","battery-v0.2","","""event"",""trial"",""time""
""fullscreenenter"",""1"",""2952""
","
","
","""event"",""trial"",""time""
""fullscreenenter"",""1"",""2952""
","
","","","910","","","10","10104","4830","&#9728;","elianto","#f73b6a7A","-1"," ","0","-10","[1766.199999988079]","1","1","","","10104","2","0","4","lose","no-go","0"
"pit-trial","126","961792","0.0-6.0","battery-v0.2","","""event"",""trial"",""time""
""fullscreenenter"",""1"",""2952""
","
","
","""event"",""trial"",""time""
""fullscreenenter"",""1"",""2952""
","
","","","1010.0999999940395","","","10","10104","4830","&#9730;","elianto","#3366ff99"," "," ","1","+10","[1866.699999988079]","1","1","","","10104","3","1","1","win","go","0"
"pit-trial","127","966650","0.0-7.0","battery-v0.2","","""event"",""trial"",""time""
""fullscreenenter"",""1"",""2952""
","
","
","""event"",""trial"",""time""
""fullscreenenter"",""1"",""2952""
","
","","","-1","","","10","10104","4830","&#9752;","elianto","#f73b6a7A"," ","-1","0","-10","[]","0","1","","","10104","4","3","3","lose","go","0"
"pit-trial","128","970216","0.0-8.0","battery-v0.2","","""event"",""trial"",""time""
""fullscreenenter"",""1"",""2952""
","
","
","""event"",""trial"",""time""
""fullscreenenter"",""1"",""2952""
","
","","","700.6000000238419","","","10","10104","4830","&#9733;","elianto","#3366ff99","-1"," ","0","0","[1556.5]","1","1","","","10104","5","2","2","win","no-go","0"
"pit-trial","129","974040","0.0-9.0","battery-v0.2","","""event"",""trial"",""time""
""fullscreenenter"",""1"",""2952""
","
","
","""event"",""trial"",""time""
""fullscreenenter"",""1"",""2952""
","
","","","952.0999999940395","","","10","10104","4830","&#9730;","elianto","#3366ff99"," "," ","1","0","[1808.2000000178814]","1","1","","","10104","6","1","1","win","go","1"
"pit-trial","130","978906","0.0-10.0","battery-v0.2","","""event"",""trial"",""time""
""fullscreenenter"",""1"",""2952""
","
","
","""event"",""trial"",""time""
""fullscreenenter"",""1"",""2952""
","
","","","-1","","","10","10104","4830","&#9752;","elianto","#f73b6a7A"," ","-1","0","0","[]","0","1","","","10104","7","3","3","lose","go","1"
"pit-trial","131","983088","0.0-11.0","battery-v0.2","","""event"",""trial"",""time""
""fullscreenenter"",""1"",""2952""
","
","
","""event"",""trial"",""time""
""fullscreenenter"",""1"",""2952""
","
","","","1329.0999999940395","","","10","10104","4830","&#9728;","elianto","#f73b6a7A","-1"," ","0","-10","[2179.7999999821186]","1","1","","","10104","8","0","4","lose","no-go","0"
"pit-trial","132","987039","0.0-12.0","battery-v0.2","","""event"",""trial"",""time""
""fullscreenenter"",""1"",""2952""
","
","
","""event"",""trial"",""time""
""fullscreenenter"",""1"",""2952""
","
","","","1090.0999999940395","","","10","10104","4830","&#9730;","elianto","#3366ff99"," "," ","1","+10","[1942.0999999940395]","1","1","","","10104","9","1","1","win","go","0"
"pit-trial","133","991902","0.0-13.0","battery-v0.2","","""event"",""trial"",""time""
""fullscreenenter"",""1"",""2952""
","
","
","""event"",""trial"",""time""
""fullscreenenter"",""1"",""2952""
","
","","","-1","","","10","10104","4830","&#9752;","elianto","#f73b6a7A"," ","-1","0","-10","[]","0","1","","","10104","10","3","3","lose","go","0"
"pit-trial","134","995807","0.0-14.0","battery-v0.2","","""event"",""trial"",""time""
""fullscreenenter"",""1"",""2952""
","
","
","""event"",""trial"",""time""
""fullscreenenter"",""1"",""2952""
","
","","","1050.7999999821186","","","10","10104","4830","&#9733;","elianto","#3366ff99","-1"," ","0","+10","[1902.7999999821186]","1","1","","","10104","11","2","2","win","no-go","1"
"pit-trial","135","1000659","0.0-15.0","battery-v0.2","","""event"",""trial"",""time""
""fullscreenenter"",""1"",""2952""
","
","
","""event"",""trial"",""time""
""fullscreenenter"",""1"",""2952""
","
","","","-1","","","10","10104","4830","&#9728;","elianto","#f73b6a7A","-1","-1","1","0","[]","0","1","","","10104","12","0","4","lose","no-go","0"
"pit-trial","136","1004574","0.0-16.0","battery-v0.2","","""event"",""trial"",""time""
""fullscreenenter"",""1"",""2952""
","
","
","""event"",""trial"",""time""
""fullscreenenter"",""1"",""2952""
","
","","","1062.5","","","10","10104","4830","&#9733;","elianto","#3366ff99","-1"," ","0","0","[1913.300000011921]","1","1","","","10104","13","2","2","win","no-go","0"
"pit-trial","137","1009429","0.0-17.0","battery-v0.2","","""event"",""trial"",""time""
""fullscreenenter"",""1"",""2952""
","
","
","""event"",""trial"",""time""
""fullscreenenter"",""1"",""2952""
","
","","","-1","","","10","10104","4830","&#9752;","elianto","#f73b6a7A"," ","-1","0","0","[]","0","1","","","10104","14","3","3","lose","go","1"
"pit-trial","138","1014283","0.0-18.0","battery-v0.2","","""event"",""trial"",""time""
""fullscreenenter"",""1"",""2952""
","
","
","""event"",""trial"",""time""
""fullscreenenter"",""1"",""2952""
","
","","","-1","","","10","10104","4830","&#9728;","elianto","#f73b6a7A","-1","-1","1","0","[]","0","1","","","10104","15","0","4","lose","no-go","0"
"pit-trial","139","1017900","0.0-19.0","battery-v0.2","","""event"",""trial"",""time""
""fullscreenenter"",""1"",""2952""
","
","
","""event"",""trial"",""time""
""fullscreenenter"",""1"",""2952""
","
","","","766.2999999821186","","","10","10104","4830","&#9730;","elianto","#3366ff99"," "," ","1","+10","[1616.7999999821186]","1","1","","","10104","16","1","1","win","go","0"
"pit-trial","140","1021929","0.0-20.0","battery-v0.2","","""event"",""trial"",""time""
""fullscreenenter"",""1"",""2952""
","
","
","""event"",""trial"",""time""
""fullscreenenter"",""1"",""2952""
","
","","","1176.4000000059605","","","10","10104","4830","&#9733;","elianto","#3366ff99","-1"," ","0","0","[2026.6000000238419]","1","1","","","10104","17","2","2","win","no-go","0"
"pit-trial","141","1026795","0.0-21.0","battery-v0.2","","""event"",""trial"",""time""
""fullscreenenter"",""1"",""2952""
","
","
","""event"",""trial"",""time""
""fullscreenenter"",""1"",""2952""
","
","","","-1","","","10","10104","4830","&#9728;","elianto","#f73b6a7A","-1","-1","1","0","[]","0","1","","","10104","18","0","4","lose","no-go","0"
"pit-trial","142","1030698","0.0-22.0","battery-v0.2","","""event"",""trial"",""time""
""fullscreenenter"",""1"",""2952""
","
","
","""event"",""trial"",""time""
""fullscreenenter"",""1"",""2952""
","
","","","1048.300000011921","","","10","10104","4830","&#9730;","elianto","#3366ff99"," "," ","1","+10","[1899.199999988079]","1","1","","","10104","19","1","1","win","go","0"
"pit-trial","143","1035551","0.0-23.0","battery-v0.2","","""event"",""trial"",""time""
""fullscreenenter"",""1"",""2952""
","
","
","""event"",""trial"",""time""
""fullscreenenter"",""1"",""2952""
","
","","","-1","","","10","10104","4830","&#9752;","elianto","#f73b6a7A"," ","-1","0","-10","[]","0","1","","","10104","20","3","3","lose","go","0"
"pit-instructions","144","1050894","0.0-24.0","battery-v0.2","","""event"",""trial"",""time""
""fullscreenenter"",""1"",""2952""
","
","
","""event"",""trial"",""time""
""fullscreenenter"",""1"",""2952""
","
","","[{""page_index"":0,""viewing_time"":7182.199999988079},{""page_index"":1,""viewing_time"":8160}]","15342.40000000596","","","","","","","","","","","","","","","","","","","","","","","",""
"pit-trial","145","1054612","0.0-25.0","battery-v0.2","","""event"",""trial"",""time""
""fullscreenenter"",""1"",""2952""
","
","
","""event"",""trial"",""time""
""fullscreenenter"",""1"",""2952""
","
","","","836.8000000119209","","","10","10104","4830","m","elianto","#f73b6a7A","-1"," ","0","-10","[1697.5999999940395]","1","2","","","10104","21","0","4","lose","no-go","0"
"pit-trial","146","1059481","0.0-26.0","battery-v0.2","","""event"",""trial"",""time""
""fullscreenenter"",""1"",""2952""
","
","
","""event"",""trial"",""time""
""fullscreenenter"",""1"",""2952""
","
","","","-1","","","10","10104","4830","h","elianto","#f73b6a7A"," ","-1","0","-10","[]","0","2","","","10104","22","3","3","lose","go","0"
"pit-trial","147","1063002","0.0-27.0","battery-v0.2","","""event"",""trial"",""time""
""fullscreenenter"",""1"",""2952""
","
","
","""event"",""trial"",""time""
""fullscreenenter"",""1"",""2952""
","
","","","661.5","","","10","10104","4830","r","elianto","#3366ff99"," "," ","1","+10","[1516.7000000178814]","1","2","","","10104","23","1","1","win","go","0"
"pit-trial","148","1067870","0.0-28.0","battery-v0.2","","""event"",""trial"",""time""
""fullscreenenter"",""1"",""2952""
","
","
","""event"",""trial"",""time""
""fullscreenenter"",""1"",""2952""
","
","","","-1","","","10","10104","4830","y","elianto","#f73b6a7A","-1","-1","1","-10","[]","0","2","","","10104","24","2","4","lose","no-go","1"
"pit-trial","149","1071832","0.0-29.0","battery-v0.2","","""event"",""trial"",""time""
""fullscreenenter"",""1"",""2952""
","
","
","""event"",""trial"",""time""
""fullscreenenter"",""1"",""2952""
","
","","","1089.2000000178814","","","10","10104","4830","r","elianto","#3366ff99"," "," ","1","+10","[1945.7000000178814]","1","2","","","10104","25","1","1","win","go","0"
"pit-trial","150","1076692","0.0-30.0","battery-v0.2","","""event"",""trial"",""time""
""fullscreenenter"",""1"",""2952""
","
","
","""event"",""trial"",""time""
""fullscreenenter"",""1"",""2952""
","
","","","-1","","","10","10104","4830","m","elianto","#f73b6a7A","-1","-1","1","-10","[]","0","2","","","10104","26","0","4","lose","no-go","1"
"pit-trial","151","1081549","0.0-31.0","battery-v0.2","","""event"",""trial"",""time""
""fullscreenenter"",""1"",""2952""
","
","
","""event"",""trial"",""time""
""fullscreenenter"",""1"",""2952""
","
","","","-1","","","10","10104","4830","y","elianto","#f73b6a7A","-1","-1","1","0","[]","0","2","","","10104","27","2","4","lose","no-go","0"
"pit-trial","152","1086402","0.0-32.0","battery-v0.2","","""event"",""trial"",""time""
""fullscreenenter"",""1"",""2952""
","
","
","""event"",""trial"",""time""
""fullscreenenter"",""1"",""2952""
","
","","","-1","","","10","10104","4830","h","elianto","#f73b6a7A"," ","-1","0","0","[]","0","2","","","10104","28","3","3","lose","go","1"
"pit-trial","153","1089859","0.0-33.0","battery-v0.2","","""event"",""trial"",""time""
""fullscreenenter"",""1"",""2952""
","
","
","""event"",""trial"",""time""
""fullscreenenter"",""1"",""2952""
","
","","","604.5999999940395","","","10","10104","4830","r","elianto","#3366ff99"," "," ","1","+10","[1455.0999999940395]","1","2","","","10104","29","1","1","win","go","0"
"pit-trial","154","1093912","0.0-34.0","battery-v0.2","","""event"",""trial"",""time""
""fullscreenenter"",""1"",""2952""
","
","
","""event"",""trial"",""time""
""fullscreenenter"",""1"",""2952""
","
","","","1200.2000000178814","","","10","10104","4830","y","elianto","#f73b6a7A","-1"," ","0","-10","[2051.4000000059605]","1","2","","","10104","30","2","4","lose","no-go","0"
"pit-trial","155","1098765","0.0-35.0","battery-v0.2","","""event"",""trial"",""time""
""fullscreenenter"",""1"",""2952""
","
","
","""event"",""trial"",""time""
""fullscreenenter"",""1"",""2952""
","
","","","-1","","","10","10104","4830","h","elianto","#f73b6a7A"," ","-1","0","-10","[2885.699999988079]","1","2","","","10104","31","3","3","lose","go","0"
"pit-trial","156","1103618","0.0-36.0","battery-v0.2","","""event"",""trial"",""time""
""fullscreenenter"",""1"",""2952""
","
","
","""event"",""trial"",""time""
""fullscreenenter"",""1"",""2952""
","
","","","-1","","","10","10104","4830","m","elianto","#f73b6a7A","-1","-1","1","0","[]","0","2","","","10104","32","0","4","lose","no-go","0"
"pit-trial","157","1107171","0.0-37.0","battery-v0.2","","""event"",""trial"",""time""
""fullscreenenter"",""1"",""2952""
","
","
","""event"",""trial"",""time""
""fullscreenenter"",""1"",""2952""
","
","","","700.9000000059605","","","10","10104","4830","r","elianto","#3366ff99"," "," ","1","+10","[1551.5999999940395]","1","2","","","10104","33","1","1","win","go","0"
"pit-trial","158","1112025","0.0-38.0","battery-v0.2","","""event"",""trial"",""time""
""fullscreenenter"",""1"",""2952""
","
","
","""event"",""trial"",""time""
""fullscreenenter"",""1"",""2952""
","
","","","-1","","","10","10104","4830","h","elianto","#f73b6a7A"," ","-1","0","-10","[]","0","2","","","10104","34","3","3","lose","go","0"
"pit-trial","159","1116879","0.0-39.0","battery-v0.2","","""event"",""trial"",""time""
""fullscreenenter"",""1"",""2952""
","
","
","""event"",""trial"",""time""
""fullscreenenter"",""1"",""2952""
","
","","","-1","","","10","10104","4830","y","elianto","#f73b6a7A","-1","-1","1","0","[]","0","2","","","10104","35","2","4","lose","no-go","0"
"pit-trial","160","1121732","0.0-40.0","battery-v0.2","","""event"",""trial"",""time""
""fullscreenenter"",""1"",""2952""
","
","
","""event"",""trial"",""time""
""fullscreenenter"",""1"",""2952""
","
","","","-1","","","10","10104","4830","m","elianto","#f73b6a7A","-1","-1","1","0","[]","0","2","","","10104","36","0","4","lose","no-go","0"
"pit-trial","161","1126586","0.0-41.0","battery-v0.2","","""event"",""trial"",""time""
""fullscreenenter"",""1"",""2952""
","
","
","""event"",""trial"",""time""
""fullscreenenter"",""1"",""2952""
","
","","","-1","","","10","10104","4830","y","elianto","#f73b6a7A","-1","-1","1","0","[]","0","2","","","10104","37","2","4","lose","no-go","0"
"pit-trial","162","1131440","0.0-42.0","battery-v0.2","","""event"",""trial"",""time""
""fullscreenenter"",""1"",""2952""
","
","
","""event"",""trial"",""time""
""fullscreenenter"",""1"",""2952""
","
","","","-1","","","10","10104","4830","h","elianto","#f73b6a7A"," ","-1","0","-10","[]","0","2","","","10104","38","3","3","lose","go","0"
"pit-trial","163","1135616","0.0-43.0","battery-v0.2","","""event"",""trial"",""time""
""fullscreenenter"",""1"",""2952""
","
","
","""event"",""trial"",""time""
""fullscreenenter"",""1"",""2952""
","
","","","1325","","","10","10104","4830","m","elianto","#f73b6a7A","-1"," ","0","-10","[2175.4000000059605]","1","2","","","10104","39","0","4","lose","no-go","0"
"pit-trial","164","1139213","0.0-44.0","battery-v0.2","","""event"",""trial"",""time""
""fullscreenenter"",""1"",""2952""
","
","
","""event"",""trial"",""time""
""fullscreenenter"",""1"",""2952""
","
","","","743.6000000238419","","","10","10104","4830","r","elianto","#3366ff99"," "," ","1","+10","[1594.1000000238419]","1","2","","","10104","40","1","1","win","go","0"
"pit-trial","165","1144067","0.0-45.0","battery-v0.2","","""event"",""trial"",""time""
""fullscreenenter"",""1"",""2952""
","
","
","""event"",""trial"",""time""
""fullscreenenter"",""1"",""2952""
","
","","","-1","","","10","10104","4830","h","elianto","#f73b6a7A"," ","-1","0","-10","[]","0","2","","","10104","41","3","3","lose","go","0"
"pit-trial","166","1148920","0.0-46.0","battery-v0.2","","""event"",""trial"",""time""
""fullscreenenter"",""1"",""2952""
","
","
","""event"",""trial"",""time""
""fullscreenenter"",""1"",""2952""
","
","","","-1","","","10","10104","4830","y","elianto","#f73b6a7A","-1","-1","1","0","[]","0","2","","","10104","42","2","4","lose","no-go","0"
"pit-trial","167","1152531","0.0-47.0","battery-v0.2","","""event"",""trial"",""time""
""fullscreenenter"",""1"",""2952""
","
","
","""event"",""trial"",""time""
""fullscreenenter"",""1"",""2952""
","
","","","758.9000000059605","","","10","10104","4830","r","elianto","#3366ff99"," "," ","1","+10","[1610.0999999940395]","1","2","","","10104","43","1","1","win","go","0"
"pit-trial","168","1157386","0.0-48.0","battery-v0.2","","""event"",""trial"",""time""
""fullscreenenter"",""1"",""2952""
","
","
","""event"",""trial"",""time""
""fullscreenenter"",""1"",""2952""
","
","","","-1","","","10","10104","4830","m","elianto","#f73b6a7A","-1","-1","1","0","[]","0","2","","","10104","44","0","4","lose","no-go","0"
"pit-trial","169","1162153","0.0-49.0","battery-v0.2","","""event"",""trial"",""time""
""fullscreenenter"",""1"",""2952""
","
","
","""event"",""trial"",""time""
""fullscreenenter"",""1"",""2952""
","
","","","1914.5","","","10","10104","4830","z","elianto","#3366ff99","-1"," ","0","0","[2764.9000000059605]","1","2","","","10104","45","4","2","win","no-go","0"
"pit-trial","170","1167006","0.0-50.0","battery-v0.2","","""event"",""trial"",""time""
""fullscreenenter"",""1"",""2952""
","
","
","""event"",""trial"",""time""
""fullscreenenter"",""1"",""2952""
","
","","","-1","","","10","10104","4830","m","elianto","#f73b6a7A","-1","-1","1","0","[]","0","2","","","10104","46","0","4","lose","no-go","0"
"pit-trial","171","1171858","0.0-51.0","battery-v0.2","","""event"",""trial"",""time""
""fullscreenenter"",""1"",""2952""
","
","
","""event"",""trial"",""time""
""fullscreenenter"",""1"",""2952""
","
","","","-1","","","10","10104","4830","h","elianto","#f73b6a7A"," ","-1","0","0","[]","0","2","","","10104","47","3","3","lose","go","1"
"pit-trial","172","1176711","0.0-52.0","battery-v0.2","","""event"",""trial"",""time""
""fullscreenenter"",""1"",""2952""
","
","
","""event"",""trial"",""time""
""fullscreenenter"",""1"",""2952""
","
","","","-1","","","10","10104","4830","y","elianto","#f73b6a7A","-1","-1","1","0","[]","0","2","","","10104","48","2","4","lose","no-go","0"
"pit-trial","173","1181566","0.0-53.0","battery-v0.2","","""event"",""trial"",""time""
""fullscreenenter"",""1"",""2952""
","
","
","""event"",""trial"",""time""
""fullscreenenter"",""1"",""2952""
","
","","","-1","","","10","10104","4830","h","elianto","#f73b6a7A"," ","-1","0","-10","[]","0","2","","","10104","49","3","3","lose","go","0"
"pit-trial","174","1185060","0.0-54.0","battery-v0.2","","""event"",""trial"",""time""
""fullscreenenter"",""1"",""2952""
","
","
","""event"",""trial"",""time""
""fullscreenenter"",""1"",""2952""
","
","","","642.1999999880791","","","10","10104","4830","r","elianto","#3366ff99"," "," ","1","+10","[1492.800000011921]","1","2","","","10104","50","1","1","win","go","0"
"pit-trial","175","1188938","0.0-55.0","battery-v0.2","","""event"",""trial"",""time""
""fullscreenenter"",""1"",""2952""
","
","
","""event"",""trial"",""time""
""fullscreenenter"",""1"",""2952""
","
","","","1025","","","10","10104","4830","z","elianto","#3366ff99","-1"," ","0","0","[1875.8999999761581]","1","2","","","10104","51","4","2","win","no-go","0"
"pit-trial","176","1193792","0.0-56.0","battery-v0.2","","""event"",""trial"",""time""
""fullscreenenter"",""1"",""2952""
","
","
","""event"",""trial"",""time""
""fullscreenenter"",""1"",""2952""
","
","","","-1","","","10","10104","4830","m","elianto","#f73b6a7A","-1","-1","1","0","[]","0","2","","","10104","52","0","4","lose","no-go","0"
"pit-trial","177","1198646","0.0-57.0","battery-v0.2","","""event"",""trial"",""time""
""fullscreenenter"",""1"",""2952""
","
","
","""event"",""trial"",""time""
""fullscreenenter"",""1"",""2952""
","
","","","-1","","","10","10104","4830","y","elianto","#f73b6a7A","-1","-1","1","0","[]","0","2","","","10104","53","2","4","lose","no-go","0"
"pit-trial","178","1202270","0.0-58.0","battery-v0.2","","""event"",""trial"",""time""
""fullscreenenter"",""1"",""2952""
","
","
","""event"",""trial"",""time""
""fullscreenenter"",""1"",""2952""
","
","","","771","","","10","10104","4830","z","elianto","#3366ff99","-1"," ","0","0","[1621.9000000059605]","1","2","","","10104","54","4","2","win","no-go","0"
"pit-trial","179","1205908","0.0-59.0","battery-v0.2","","""event"",""trial"",""time""
""fullscreenenter"",""1"",""2952""
","
","
","""event"",""trial"",""time""
""fullscreenenter"",""1"",""2952""
","
","","","786.1000000238419","","","10","10104","4830","r","elianto","#3366ff99"," "," ","1","0","[1636.800000011921]","1","2","","","10104","55","1","1","win","go","1"
"pit-trial","180","1210051","0.0-60.0","battery-v0.2","","""event"",""trial"",""time""
""fullscreenenter"",""1"",""2952""
","
","
","""event"",""trial"",""time""
""fullscreenenter"",""1"",""2952""
","
","","","1290","","","10","10104","4830","m","elianto","#f73b6a7A","-1"," ","0","-10","[2141.199999988079]","1","2","","","10104","56","0","4","lose","no-go","0"
"pit-trial","181","1213914","0.0-61.0","battery-v0.2","","""event"",""trial"",""time""
""fullscreenenter"",""1"",""2952""
","
","
","""event"",""trial"",""time""
""fullscreenenter"",""1"",""2952""
","
","","","1011.5999999940395","","","10","10104","4830","m","elianto","#f73b6a7A","-1"," ","0","-10","[1861.699999988079]","1","2","","","10104","57","0","4","lose","no-go","0"
"pit-trial","182","1217387","0.0-62.0","battery-v0.2","","""event"",""trial"",""time""
""fullscreenenter"",""1"",""2952""
","
","
","""event"",""trial"",""time""
""fullscreenenter"",""1"",""2952""
","
","","","620.1000000238419","","","10","10104","4830","z","elianto","#3366ff99","-1"," ","0","0","[1470.4000000059605]","1","2","","","10104","58","4","2","win","no-go","0"
"pit-trial","183","1222240","0.0-63.0","battery-v0.2","","""event"",""trial"",""time""
""fullscreenenter"",""1"",""2952""
","
","
","""event"",""trial"",""time""
""fullscreenenter"",""1"",""2952""
","
","","","-1","","","10","10104","4830","h","elianto","#f73b6a7A"," ","-1","0","0","[]","0","2","","","10104","59","3","3","lose","go","1"
"pit-trial","184","1226340","0.0-64.0","battery-v0.2","","""event"",""trial"",""time""
""fullscreenenter"",""1"",""2952""
","
","
","""event"",""trial"",""time""
""fullscreenenter"",""1"",""2952""
","
","","","1247.2000000178814","","","10","10104","4830","r","elianto","#3366ff99"," "," ","1","+10","[2098.800000011921]","1","2","","","10104","60","1","1","win","go","0"
"pit-trial","185","1229969","0.0-65.0","battery-v0.2","","""event"",""trial"",""time""
""fullscreenenter"",""1"",""2952""
","
","
","""event"",""trial"",""time""
""fullscreenenter"",""1"",""2952""
","
","","","776.1999999880791","","","10","10104","4830","r","elianto","#3366ff99"," "," ","1","+10","[1626.5]","1","2","","","10104","61","1","1","win","go","0"
"pit-trial","186","1234822","0.0-66.0","battery-v0.2","","""event"",""trial"",""time""
""fullscreenenter"",""1"",""2952""
","
","
","""event"",""trial"",""time""
""fullscreenenter"",""1"",""2952""
","
","","","-1","","","10","10104","4830","h","elianto","#f73b6a7A"," ","-1","0","-10","[]","0","2","","","10104","62","3","3","lose","go","0"
"pit-trial","187","1239674","0.0-67.0","battery-v0.2","","""event"",""trial"",""time""
""fullscreenenter"",""1"",""2952""
","
","
","""event"",""trial"",""time""
""fullscreenenter"",""1"",""2952""
","
","","","-1","","","10","10104","4830","y","elianto","#f73b6a7A","-1","-1","1","-10","[]","0","2","","","10104","63","2","4","lose","no-go","1"
"pit-trial","188","1243241","0.0-68.0","battery-v0.2","","""event"",""trial"",""time""
""fullscreenenter"",""1"",""2952""
","
","
","""event"",""trial"",""time""
""fullscreenenter"",""1"",""2952""
","
","","","714.6999999880791","","","10","10104","4830","z","elianto","#3366ff99","-1"," ","0","0","[1565.199999988079]","1","2","","","10104","64","4","2","win","no-go","0"
"pit-trial","189","1248094","0.0-69.0","battery-v0.2","","""event"",""trial"",""time""
""fullscreenenter"",""1"",""2952""
","
","
","""event"",""trial"",""time""
""fullscreenenter"",""1"",""2952""
","
","","","-1","","","10","10104","4830","y","elianto","#f73b6a7A","-1","-1","1","0","[]","0","2","","","10104","65","2","4","lose","no-go","0"
"pit-trial","190","1252947","0.0-70.0","battery-v0.2","","""event"",""trial"",""time""
""fullscreenenter"",""1"",""2952""
","
","
","""event"",""trial"",""time""
""fullscreenenter"",""1"",""2952""
","
","","","-1","","","10","10104","4830","h","elianto","#f73b6a7A"," ","-1","0","-10","[]","0","2","","","10104","66","3","3","lose","go","0"
"pit-trial","191","1256491","0.0-71.0","battery-v0.2","","""event"",""trial"",""time""
""fullscreenenter"",""1"",""2952""
","
","
","""event"",""trial"",""time""
""fullscreenenter"",""1"",""2952""
","
","","","691","","","10","10104","4830","r","elianto","#3366ff99"," "," ","1","+10","[1541.3999999761581]","1","2","","","10104","67","1","1","win","go","0"
"pit-trial","192","1261345","0.0-72.0","battery-v0.2","","""event"",""trial"",""time""
""fullscreenenter"",""1"",""2952""
","
","
","""event"",""trial"",""time""
""fullscreenenter"",""1"",""2952""
","
","","","-1","","","10","10104","4830","z","elianto","#3366ff99","-1","-1","1","+10","[]","0","2","","","10104","68","4","2","win","no-go","0"
"pit-trial","193","1264960","0.0-73.0","battery-v0.2","","""event"",""trial"",""time""
""fullscreenenter"",""1"",""2952""
","
","
","""event"",""trial"",""time""
""fullscreenenter"",""1"",""2952""
","
","","","762.6999999880791","","","10","10104","4830","c","elianto","#3366ff99"," "," ","1","0","[1613]","1","2","","","10104","69","5","1","win","go","1"
"pit-trial","194","1268916","0.0-74.0","battery-v0.2","","""event"",""trial"",""time""
""fullscreenenter"",""1"",""2952""
","
","
","""event"",""trial"",""time""
""fullscreenenter"",""1"",""2952""
","
","","","1103.9000000059605","","","10","10104","4830","z","elianto","#3366ff99","-1"," ","0","0","[1954.699999988079]","1","2","","","10104","70","4","2","win","no-go","0"
"pit-trial","195","1272722","0.0-75.0","battery-v0.2","","""event"",""trial"",""time""
""fullscreenenter"",""1"",""2952""
","
","
","""event"",""trial"",""time""
""fullscreenenter"",""1"",""2952""
","
","","","955.1999999880791","","","10","10104","4830","r","elianto","#3366ff99"," "," ","1","0","[1805.300000011921]","1","2","","","10104","71","1","1","win","go","1"
"pit-trial","196","1277574","0.0-76.0","battery-v0.2","","""event"",""trial"",""time""
""fullscreenenter"",""1"",""2952""
","
","
","""event"",""trial"",""time""
""fullscreenenter"",""1"",""2952""
","
","","","-1","","","10","10104","4830","h","elianto","#f73b6a7A"," ","-1","0","-10","[]","0","2","","","10104","72","3","3","lose","go","0"
"pit-trial","197","1281669","0.0-77.0","battery-v0.2","","""event"",""trial"",""time""
""fullscreenenter"",""1"",""2952""
","
","
","""event"",""trial"",""time""
""fullscreenenter"",""1"",""2952""
","
","","","1243.0999999940395","","","10","10104","4830","z","elianto","#3366ff99","-1"," ","0","+10","[2093.4000000059605]","1","2","","","10104","73","4","2","win","no-go","1"
"pit-trial","198","1285896","0.0-78.0","battery-v0.2","","""event"",""trial"",""time""
""fullscreenenter"",""1"",""2952""
","
","
","""event"",""trial"",""time""
""fullscreenenter"",""1"",""2952""
","
","","","1373.199999988079","","","10","10104","4830","c","elianto","#3366ff99"," "," ","1","+10","[2223.2999999821186]","1","2","","","10104","74","5","1","win","go","0"
"pit-trial","199","1290749","0.0-79.0","battery-v0.2","","""event"",""trial"",""time""
""fullscreenenter"",""1"",""2952""
","
","
","""event"",""trial"",""time""
""fullscreenenter"",""1"",""2952""
","
","","","-1","","","10","10104","4830","h","elianto","#f73b6a7A"," ","-1","0","-10","[]","0","2","","","10104","75","3","3","lose","go","0"
"pit-trial","200","1294258","0.0-80.0","battery-v0.2","","""event"",""trial"",""time""
""fullscreenenter"",""1"",""2952""
","
","
","""event"",""trial"",""time""
""fullscreenenter"",""1"",""2952""
","
","","","656.0999999940395","","","10","10104","4830","r","elianto","#3366ff99"," "," ","1","+10","[1506.4000000059605]","1","2","","","10104","76","1","1","win","go","0"
"pit-trial","201","1298286","0.0-81.0","battery-v0.2","","""event"",""trial"",""time""
""fullscreenenter"",""1"",""2952""
","
","
","""event"",""trial"",""time""
""fullscreenenter"",""1"",""2952""
","
","","","1174.699999988079","","","10","10104","4830","c","elianto","#3366ff99"," "," ","1","0","[2025.5]","1","2","","","10104","77","5","1","win","go","1"
"pit-trial","202","1302168","0.0-82.0","battery-v0.2","","""event"",""trial"",""time""
""fullscreenenter"",""1"",""2952""
","
","
","""event"",""trial"",""time""
""fullscreenenter"",""1"",""2952""
","
","","","1015.5999999940395","","","10","10104","4830","z","elianto","#3366ff99","-1"," ","0","+10","[1866.5]","1","2","","","10104","78","4","2","win","no-go","1"
"pit-trial","203","1307021","0.0-83.0","battery-v0.2","","""event"",""trial"",""time""
""fullscreenenter"",""1"",""2952""
","
","
","""event"",""trial"",""time""
""fullscreenenter"",""1"",""2952""
","
","","","-1","","","10","10104","4830","b","elianto","#f73b6a7A","-1","-1","1","0","[]","0","2","","","10104","79","6","4","lose","no-go","0"
"pit-trial","204","1311875","0.0-84.0","battery-v0.2","","""event"",""trial"",""time""
""fullscreenenter"",""1"",""2952""
","
","
","""event"",""trial"",""time""
""fullscreenenter"",""1"",""2952""
","
","","","-1","","","10","10104","4830","h","elianto","#f73b6a7A"," ","-1","0","-10","[]","0","2","","","10104","80","3","3","lose","go","0"
"pit-trial","205","1315409","0.0-85.0","battery-v0.2","","""event"",""trial"",""time""
""fullscreenenter"",""1"",""2952""
","
","
","""event"",""trial"",""time""
""fullscreenenter"",""1"",""2952""
","
","","","682.5999999940395","","","10","10104","4830","c","elianto","#3366ff99"," "," ","1","0","[1533]","1","2","","","10104","81","5","1","win","go","1"
"pit-trial","206","1320261","0.0-86.0","battery-v0.2","","""event"",""trial"",""time""
""fullscreenenter"",""1"",""2952""
","
","
","""event"",""trial"",""time""
""fullscreenenter"",""1"",""2952""
","
","","","-1","","","10","10104","4830","b","elianto","#f73b6a7A","-1","-1","1","0","[]","0","2","","","10104","82","6","4","lose","no-go","0"
"pit-trial","207","1325115","0.0-87.0","battery-v0.2","","""event"",""trial"",""time""
""fullscreenenter"",""1"",""2952""
","
","
","""event"",""trial"",""time""
""fullscreenenter"",""1"",""2952""
","
","","","-1","","","10","10104","4830","t","elianto","#f73b6a7A"," ","-1","0","-10","[]","0","2","","","10104","83","7","3","lose","go","0"
"pit-trial","208","1328786","0.0-88.0","battery-v0.2","","""event"",""trial"",""time""
""fullscreenenter"",""1"",""2952""
","
","
","""event"",""trial"",""time""
""fullscreenenter"",""1"",""2952""
","
","","","818.1999999880791","","","10","10104","4830","z","elianto","#3366ff99","-1"," ","0","0","[1669.199999988079]","1","2","","","10104","84","4","2","win","no-go","0"
"pit-trial","209","1332354","0.0-89.0","battery-v0.2","","""event"",""trial"",""time""
""fullscreenenter"",""1"",""2952""
","
","
","""event"",""trial"",""time""
""fullscreenenter"",""1"",""2952""
","
","","","715","","","10","10104","4830","z","elianto","#3366ff99","-1"," ","0","0","[1565.199999988079]","1","2","","","10104","85","4","2","win","no-go","0"
"pit-trial","210","1335988","0.0-90.0","battery-v0.2","","""event"",""trial"",""time""
""fullscreenenter"",""1"",""2952""
","
","
","""event"",""trial"",""time""
""fullscreenenter"",""1"",""2952""
","
","","","781.3000000119209","","","10","10104","4830","c","elianto","#3366ff99"," "," ","1","+10","[1632.300000011921]","1","2","","","10104","86","5","1","win","go","0"
"pit-trial","211","1340839","0.0-91.0","battery-v0.2","","""event"",""trial"",""time""
""fullscreenenter"",""1"",""2952""
","
","
","""event"",""trial"",""time""
""fullscreenenter"",""1"",""2952""
","
","","","-1","","","10","10104","4830","b","elianto","#f73b6a7A","-1","-1","1","0","[]","0","2","","","10104","87","6","4","lose","no-go","0"
"pit-trial","212","1345692","0.0-92.0","battery-v0.2","","""event"",""trial"",""time""
""fullscreenenter"",""1"",""2952""
","
","
","""event"",""trial"",""time""
""fullscreenenter"",""1"",""2952""
","
","","","-1","","","10","10104","4830","t","elianto","#f73b6a7A"," ","-1","0","0","[]","0","2","","","10104","88","7","3","lose","go","1"
"pit-trial","213","1349513","0.0-93.0","battery-v0.2","","""event"",""trial"",""time""
""fullscreenenter"",""1"",""2952""
","
","
","""event"",""trial"",""time""
""fullscreenenter"",""1"",""2952""
","
","","","968.4000000059605","","","10","10104","4830","z","elianto","#3366ff99","-1"," ","0","0","[1818.9000000059605]","1","2","","","10104","89","4","2","win","no-go","0"
"pit-trial","214","1354368","0.0-94.0","battery-v0.2","","""event"",""trial"",""time""
""fullscreenenter"",""1"",""2952""
","
","
","""event"",""trial"",""time""
""fullscreenenter"",""1"",""2952""
","
","","","-1","","","10","10104","4830","t","elianto","#f73b6a7A"," ","-1","0","-10","[]","0","2","","","10104","90","7","3","lose","go","0"
"pit-trial","215","1359221","0.0-95.0","battery-v0.2","","""event"",""trial"",""time""
""fullscreenenter"",""1"",""2952""
","
","
","""event"",""trial"",""time""
""fullscreenenter"",""1"",""2952""
","
","","","-1","","","10","10104","4830","b","elianto","#f73b6a7A","-1","-1","1","0","[]","0","2","","","10104","91","6","4","lose","no-go","0"
"pit-trial","216","1362768","0.0-96.0","battery-v0.2","","""event"",""trial"",""time""
""fullscreenenter"",""1"",""2952""
","
","
","""event"",""trial"",""time""
""fullscreenenter"",""1"",""2952""
","
","","","694.2999999821186","","","10","10104","4830","c","elianto","#3366ff99"," "," ","1","0","[1544.699999988079]","1","2","","","10104","92","5","1","win","go","1"
"pit-trial","217","1367621","0.0-97.0","battery-v0.2","","""event"",""trial"",""time""
""fullscreenenter"",""1"",""2952""
","
","
","""event"",""trial"",""time""
""fullscreenenter"",""1"",""2952""
","
","","","-1","","","10","10104","4830","b","elianto","#f73b6a7A","-1","-1","1","-10","[]","0","2","","","10104","93","6","4","lose","no-go","1"
"pit-trial","218","1371279","0.0-98.0","battery-v0.2","","""event"",""trial"",""time""
""fullscreenenter"",""1"",""2952""
","
","
","""event"",""trial"",""time""
""fullscreenenter"",""1"",""2952""
","
","","","805.4000000059605","","","10","10104","4830","f","elianto","#3366ff99","-1"," ","0","+10","[1655.9000000059605]","1","2","","","10104","94","8","2","win","no-go","1"
"pit-trial","219","1376131","0.0-99.0","battery-v0.2","","""event"",""trial"",""time""
""fullscreenenter"",""1"",""2952""
","
","
","""event"",""trial"",""time""
""fullscreenenter"",""1"",""2952""
","
","","","-1","","","10","10104","4830","t","elianto","#f73b6a7A"," ","-1","0","0","[]","0","2","","","10104","95","7","3","lose","go","1"
"pit-trial","220","1379802","0.0-100.0","battery-v0.2","","""event"",""trial"",""time""
""fullscreenenter"",""1"",""2952""
","
","
","""event"",""trial"",""time""
""fullscreenenter"",""1"",""2952""
","
","","","817.3000000119209","","","10","10104","4830","c","elianto","#3366ff99"," "," ","1","+10","[1668.300000011921]","1","2","","","10104","96","5","1","win","go","0"
"pit-trial","221","1384656","0.0-101.0","battery-v0.2","","""event"",""trial"",""time""
""fullscreenenter"",""1"",""2952""
","
","
","""event"",""trial"",""time""
""fullscreenenter"",""1"",""2952""
","
","","","-1","","","10","10104","4830","t","elianto","#f73b6a7A"," ","-1","0","-10","[]","0","2","","","10104","97","7","3","lose","go","0"
"pit-trial","222","1389509","0.0-102.0","battery-v0.2","","""event"",""trial"",""time""
""fullscreenenter"",""1"",""2952""
","
","
","""event"",""trial"",""time""
""fullscreenenter"",""1"",""2952""
","
","","","-1","","","10","10104","4830","b","elianto","#f73b6a7A","-1","-1","1","0","[]","0","2","","","10104","98","6","4","lose","no-go","0"
"pit-trial","223","1393209","0.0-103.0","battery-v0.2","","""event"",""trial"",""time""
""fullscreenenter"",""1"",""2952""
","
","
","""event"",""trial"",""time""
""fullscreenenter"",""1"",""2952""
","
","","","848.4000000059605","","","10","10104","4830","f","elianto","#3366ff99","-1"," ","0","0","[1698.7000000178814]","1","2","","","10104","99","8","2","win","no-go","0"
"pit-trial","224","1396924","0.0-104.0","battery-v0.2","","""event"",""trial"",""time""
""fullscreenenter"",""1"",""2952""
","
","
","""event"",""trial"",""time""
""fullscreenenter"",""1"",""2952""
","
","","","861","","","10","10104","4830","c","elianto","#3366ff99"," "," ","1","+10","[1712.2999999821186]","1","2","","","10104","100","5","1","win","go","0"
"pit-trial","225","1400819","0.0-105.0","battery-v0.2","","""event"",""trial"",""time""
""fullscreenenter"",""1"",""2952""
","
","
","""event"",""trial"",""time""
""fullscreenenter"",""1"",""2952""
","
","","","1041.800000011921","","","10","10104","4830","n","elianto","#3366ff99","-1"," ","0","0","[1893.4000000059605]","1","2","","","10104","101","9","2","win","no-go","0"
"pit-trial","226","1404410","0.0-106.0","battery-v0.2","","""event"",""trial"",""time""
""fullscreenenter"",""1"",""2952""
","
","
","""event"",""trial"",""time""
""fullscreenenter"",""1"",""2952""
","
","","","734.6999999880791","","","10","10104","4830","f","elianto","#3366ff99","-1"," ","0","0","[1585.8999999761581]","1","2","","","10104","102","8","2","win","no-go","0"
"pit-trial","227","1409265","0.0-107.0","battery-v0.2","","""event"",""trial"",""time""
""fullscreenenter"",""1"",""2952""
","
","
","""event"",""trial"",""time""
""fullscreenenter"",""1"",""2952""
","
","","","-1","","","10","10104","4830","b","elianto","#f73b6a7A","-1","-1","1","0","[]","0","2","","","10104","103","6","4","lose","no-go","0"
"pit-trial","228","1413105","0.0-108.0","battery-v0.2","","""event"",""trial"",""time""
""fullscreenenter"",""1"",""2952""
","
","
","""event"",""trial"",""time""
""fullscreenenter"",""1"",""2952""
","
","","","986.9000000059605","","","10","10104","4830","c","elianto","#3366ff99"," "," ","1","+10","[1838.1000000238419]","1","2","","","10104","104","5","1","win","go","0"
"pit-trial","229","1416913","0.0-109.0","battery-v0.2","","""event"",""trial"",""time""
""fullscreenenter"",""1"",""2952""
","
","
","""event"",""trial"",""time""
""fullscreenenter"",""1"",""2952""
","
","","","955.5","","","10","10104","4830","c","elianto","#3366ff99"," "," ","1","0","[1805.9000000059605]","1","2","","","10104","105","5","1","win","go","1"
"pit-trial","230","1420519","0.0-110.0","battery-v0.2","","""event"",""trial"",""time""
""fullscreenenter"",""1"",""2952""
","
","
","""event"",""trial"",""time""
""fullscreenenter"",""1"",""2952""
","
","","","751.5999999940395","","","10","10104","4830","f","elianto","#3366ff99","-1"," ","0","+10","[1603]","1","2","","","10104","106","8","2","win","no-go","1"
"pit-trial","231","1424734","0.0-111.0","battery-v0.2","","""event"",""trial"",""time""
""fullscreenenter"",""1"",""2952""
","
","
","""event"",""trial"",""time""
""fullscreenenter"",""1"",""2952""
","
","","","1360.5","","","10","10104","4830","n","elianto","#3366ff99","-1"," ","0","+10","[2212]","1","2","","","10104","107","9","2","win","no-go","1"
"pit-trial","232","1429588","0.0-112.0","battery-v0.2","","""event"",""trial"",""time""
""fullscreenenter"",""1"",""2952""
","
","
","""event"",""trial"",""time""
""fullscreenenter"",""1"",""2952""
","
","","","-1","","","10","10104","4830","b","elianto","#f73b6a7A","-1","-1","1","0","[]","0","2","","","10104","108","6","4","lose","no-go","0"
"pit-trial","233","1433328","0.0-113.0","battery-v0.2","","""event"",""trial"",""time""
""fullscreenenter"",""1"",""2952""
","
","
","""event"",""trial"",""time""
""fullscreenenter"",""1"",""2952""
","
","","","886.9000000059605","","","10","10104","4830","f","elianto","#3366ff99","-1"," ","0","+10","[1737.4000000059605]","1","2","","","10104","109","8","2","win","no-go","1"
"pit-trial","234","1437550","0.0-114.0","battery-v0.2","","""event"",""trial"",""time""
""fullscreenenter"",""1"",""2952""
","
","
","""event"",""trial"",""time""
""fullscreenenter"",""1"",""2952""
","
","","","1369.5","","","10","10104","4830","n","elianto","#3366ff99","-1"," ","0","0","[2220]","1","2","","","10104","110","9","2","win","no-go","0"
"pit-trial","235","1441422","0.0-115.0","battery-v0.2","","""event"",""trial"",""time""
""fullscreenenter"",""1"",""2952""
","
","
","""event"",""trial"",""time""
""fullscreenenter"",""1"",""2952""
","
","","","1018.7999999821186","","","10","10104","4830","c","elianto","#3366ff99"," "," ","1","+10","[1869.699999988079]","1","2","","","10104","111","5","1","win","go","0"
"pit-trial","236","1446275","0.0-116.0","battery-v0.2","","""event"",""trial"",""time""
""fullscreenenter"",""1"",""2952""
","
","
","""event"",""trial"",""time""
""fullscreenenter"",""1"",""2952""
","
","","","-1","","","10","10104","4830","b","elianto","#f73b6a7A","-1","-1","1","-10","[]","0","2","","","10104","112","6","4","lose","no-go","1"
"pit-trial","237","1450102","0.0-117.0","battery-v0.2","","""event"",""trial"",""time""
""fullscreenenter"",""1"",""2952""
","
","
","""event"",""trial"",""time""
""fullscreenenter"",""1"",""2952""
","
","","","973.6999999880791","","","10","10104","4830","c","elianto","#3366ff99"," "," ","1","0","[1824.199999988079]","1","2","","","10104","113","5","1","win","go","1"
"pit-trial","238","1453656","0.0-118.0","battery-v0.2","","""event"",""trial"",""time""
""fullscreenenter"",""1"",""2952""
","
","
","""event"",""trial"",""time""
""fullscreenenter"",""1"",""2952""
","
","","","700","","","10","10104","4830","f","elianto","#3366ff99","-1"," ","0","+10","[1550.800000011921]","1","2","","","10104","114","8","2","win","no-go","1"
"pit-trial","239","1458508","0.0-119.0","battery-v0.2","","""event"",""trial"",""time""
""fullscreenenter"",""1"",""2952""
","
","
","""event"",""trial"",""time""
""fullscreenenter"",""1"",""2952""
","
","","","-1","","","10","10104","4830","t","elianto","#f73b6a7A"," ","-1","0","-10","[]","0","2","","","10104","115","7","3","lose","go","0"
"pit-trial","240","1462676","0.0-120.0","battery-v0.2","","""event"",""trial"",""time""
""fullscreenenter"",""1"",""2952""
","
","
","""event"",""trial"",""time""
""fullscreenenter"",""1"",""2952""
","
","","","1315.199999988079","","","10","10104","4830","n","elianto","#3366ff99","-1"," ","0","0","[2166]","1","2","","","10104","116","9","2","win","no-go","0"
"pit-trial","241","1467529","0.0-121.0","battery-v0.2","","""event"",""trial"",""time""
""fullscreenenter"",""1"",""2952""
","
","
","""event"",""trial"",""time""
""fullscreenenter"",""1"",""2952""
","
","","","-1","","","10","10104","4830","b","elianto","#f73b6a7A","-1","-1","1","-10","[]","0","2","","","10104","117","6","4","lose","no-go","1"
"pit-trial","242","1471064","0.0-122.0","battery-v0.2","","""event"",""trial"",""time""
""fullscreenenter"",""1"",""2952""
","
","
","""event"",""trial"",""time""
""fullscreenenter"",""1"",""2952""
","
","","","682.5999999940395","","","10","10104","4830","f","elianto","#3366ff99","-1"," ","0","0","[1533.199999988079]","1","2","","","10104","118","8","2","win","no-go","0"
"pit-trial","243","1475186","0.0-123.0","battery-v0.2","","""event"",""trial"",""time""
""fullscreenenter"",""1"",""2952""
","
","
","""event"",""trial"",""time""
""fullscreenenter"",""1"",""2952""
","
","","","1268.7000000178814","","","10","10104","4830","n","elianto","#3366ff99","-1"," ","0","+10","[2120.0999999940395]","1","2","","","10104","119","9","2","win","no-go","1"
"pit-trial","244","1478737","0.0-124.0","battery-v0.2","","""event"",""trial"",""time""
""fullscreenenter"",""1"",""2952""
","
","
","""event"",""trial"",""time""
""fullscreenenter"",""1"",""2952""
","
","","","698.0999999940395","","","10","10104","4830","c","elianto","#3366ff99"," "," ","1","+10","[1549.0999999940395]","1","2","","","10104","120","5","1","win","go","0"
"pit-trial","245","1482735","0.0-125.0","battery-v0.2","","""event"",""trial"",""time""
""fullscreenenter"",""1"",""2952""
","
","
","""event"",""trial"",""time""
""fullscreenenter"",""1"",""2952""
","
","","","1146.0999999940395","","","10","10104","4830","n","elianto","#3366ff99","-1"," ","0","0","[1996.5999999940395]","1","2","","","10104","121","9","2","win","no-go","0"
"pit-trial","246","1486506","0.0-126.0","battery-v0.2","","""event"",""trial"",""time""
""fullscreenenter"",""1"",""2952""
","
","
","""event"",""trial"",""time""
""fullscreenenter"",""1"",""2952""
","
","","","916.5999999940395","","","10","10104","4830","f","elianto","#3366ff99","-1"," ","0","0","[1768.2999999821186]","1","2","","","10104","122","8","2","win","no-go","0"
"pit-trial","247","1491367","0.0-127.0","battery-v0.2","","""event"",""trial"",""time""
""fullscreenenter"",""1"",""2952""
","
","
","""event"",""trial"",""time""
""fullscreenenter"",""1"",""2952""
","
","","","-1","","","10","10104","4830","t","elianto","#f73b6a7A"," ","-1","0","-10","[]","0","2","","","10104","123","7","3","lose","go","0"
"pit-trial","248","1494933","0.0-128.0","battery-v0.2","","""event"",""trial"",""time""
""fullscreenenter"",""1"",""2952""
","
","
","""event"",""trial"",""time""
""fullscreenenter"",""1"",""2952""
","
","","","711.8000000119209","","","10","10104","4830","c","elianto","#3366ff99"," "," ","1","+10","[1563.4000000059605]","1","2","","","10104","124","5","1","win","go","0"
"pit-trial","249","1498468","0.0-129.0","battery-v0.2","","""event"",""trial"",""time""
""fullscreenenter"",""1"",""2952""
","
","
","""event"",""trial"",""time""
""fullscreenenter"",""1"",""2952""
","
","","","683","","","10","10104","4830","f","elianto","#3366ff99","-1"," ","0","+10","[1533.300000011921]","1","2","","","10104","125","8","2","win","no-go","1"
"pit-trial","250","1502412","0.0-130.0","battery-v0.2","","""event"",""trial"",""time""
""fullscreenenter"",""1"",""2952""
","
","
","""event"",""trial"",""time""
""fullscreenenter"",""1"",""2952""
","
","","","1091.4000000059605","","","10","10104","4830","n","elianto","#3366ff99","-1"," ","0","0","[1942]","1","2","","","10104","126","9","2","win","no-go","0"
"pit-trial","251","1507264","0.0-131.0","battery-v0.2","","""event"",""trial"",""time""
""fullscreenenter"",""1"",""2952""
","
","
","""event"",""trial"",""time""
""fullscreenenter"",""1"",""2952""
","
","","","-1","","","10","10104","4830","t","elianto","#f73b6a7A"," ","-1","0","-10","[]","0","2","","","10104","127","7","3","lose","go","0"
"pit-trial","252","1512117","0.0-132.0","battery-v0.2","","""event"",""trial"",""time""
""fullscreenenter"",""1"",""2952""
","
","
","""event"",""trial"",""time""
""fullscreenenter"",""1"",""2952""
","
","","","-1","","","10","10104","4830","b","elianto","#f73b6a7A","-1","-1","1","-10","[]","0","2","","","10104","128","6","4","lose","no-go","1"
"pit-trial","253","1516970","0.0-133.0","battery-v0.2","","""event"",""trial"",""time""
""fullscreenenter"",""1"",""2952""
","
","
","""event"",""trial"",""time""
""fullscreenenter"",""1"",""2952""
","
","","","-1","","","10","10104","4830","t","elianto","#f73b6a7A"," ","-1","0","0","[]","0","2","","","10104","129","7","3","lose","go","1"
"pit-trial","254","1521824","0.0-134.0","battery-v0.2","","""event"",""trial"",""time""
""fullscreenenter"",""1"",""2952""
","
","
","""event"",""trial"",""time""
""fullscreenenter"",""1"",""2952""
","
","","","-1","","","10","10104","4830","b","elianto","#f73b6a7A","-1","-1","1","0","[]","0","2","","","10104","130","6","4","lose","no-go","0"
"pit-trial","255","1525526","0.0-135.0","battery-v0.2","","""event"",""trial"",""time""
""fullscreenenter"",""1"",""2952""
","
","
","""event"",""trial"",""time""
""fullscreenenter"",""1"",""2952""
","
","","","849.2999999821186","","","10","10104","4830","f","elianto","#3366ff99","-1"," ","0","+10","[1699.699999988079]","1","2","","","10104","131","8","2","win","no-go","1"
"pit-trial","256","1529619","0.0-136.0","battery-v0.2","","""event"",""trial"",""time""
""fullscreenenter"",""1"",""2952""
","
","
","""event"",""trial"",""time""
""fullscreenenter"",""1"",""2952""
","
","","","1240.199999988079","","","10","10104","4830","n","elianto","#3366ff99","-1"," ","0","0","[2090.899999976158]","1","2","","","10104","132","9","2","win","no-go","0"
"pit-trial","257","1533307","0.0-137.0","battery-v0.2","","""event"",""trial"",""time""
""fullscreenenter"",""1"",""2952""
","
","
","""event"",""trial"",""time""
""fullscreenenter"",""1"",""2952""
","
","","","835.4000000059605","","","10","10104","4830","f","elianto","#3366ff99","-1"," ","0","0","[1686.5999999940395]","1","2","","","10104","133","8","2","win","no-go","0"
"pit-trial","258","1536845","0.0-138.0","battery-v0.2","","""event"",""trial"",""time""
""fullscreenenter"",""1"",""2952""
","
","
","""event"",""trial"",""time""
""fullscreenenter"",""1"",""2952""
","
","","","682.5999999940395","","","10","10104","4830","n","elianto","#3366ff99","-1"," ","0","0","[1536]","1","2","","","10104","134","9","2","win","no-go","0"
"pit-trial","259","1541698","0.0-139.0","battery-v0.2","","""event"",""trial"",""time""
""fullscreenenter"",""1"",""2952""
","
","
","""event"",""trial"",""time""
""fullscreenenter"",""1"",""2952""
","
","","","-1","","","10","10104","4830","t","elianto","#f73b6a7A"," ","-1","0","-10","[]","0","2","","","10104","135","7","3","lose","go","0"
"pit-trial","260","1546551","0.0-140.0","battery-v0.2","","""event"",""trial"",""time""
""fullscreenenter"",""1"",""2952""
","
","
","""event"",""trial"",""time""
""fullscreenenter"",""1"",""2952""
","
","","","-1","","","10","10104","4830","b","elianto","#f73b6a7A","-1","-1","1","0","[]","0","2","","","10104","136","6","4","lose","no-go","0"
"pit-trial","261","1550297","0.0-141.0","battery-v0.2","","""event"",""trial"",""time""
""fullscreenenter"",""1"",""2952""
","
","
","""event"",""trial"",""time""
""fullscreenenter"",""1"",""2952""
","
","","","893.8000000119209","","","10","10104","4830","f","elianto","#3366ff99","-1"," ","0","+10","[1743.9000000059605]","1","2","","","10104","137","8","2","win","no-go","1"
"pit-trial","262","1555150","0.0-142.0","battery-v0.2","","""event"",""trial"",""time""
""fullscreenenter"",""1"",""2952""
","
","
","""event"",""trial"",""time""
""fullscreenenter"",""1"",""2952""
","
","","","-1","","","10","10104","4830","t","elianto","#f73b6a7A"," ","-1","0","-10","[]","0","2","","","10104","138","7","3","lose","go","0"
"pit-trial","263","1560003","0.0-143.0","battery-v0.2","","""event"",""trial"",""time""
""fullscreenenter"",""1"",""2952""
","
","
","""event"",""trial"",""time""
""fullscreenenter"",""1"",""2952""
","
","","","-1","","","10","10104","4830","b","elianto","#f73b6a7A","-1","-1","1","-10","[]","0","2","","","10104","139","6","4","lose","no-go","1"
"pit-trial","264","1563571","0.0-144.0","battery-v0.2","","""event"",""trial"",""time""
""fullscreenenter"",""1"",""2952""
","
","
","""event"",""trial"",""time""
""fullscreenenter"",""1"",""2952""
","
","","","715.1999999880791","","","10","10104","4830","n","elianto","#3366ff99","-1"," ","0","+10","[1566.199999988079]","1","2","","","10104","140","9","2","win","no-go","1"
"pit-instructions","265","1609215","0.0-145.0","battery-v0.2","","""event"",""trial"",""time""
""fullscreenenter"",""1"",""2952""
","
","
","""event"",""trial"",""time""
""fullscreenenter"",""1"",""2952""
","
","","[{""page_index"":0,""viewing_time"":36652.80000001192},{""page_index"":1,""viewing_time"":8990}]","45643","","","","","","","","","","","","","","","","","","","","","","","",""
"pit-trial","266","1614102","0.0-146.0","battery-v0.2","","""event"",""trial"",""time""
""fullscreenenter"",""1"",""2952""
","
","
","""event"",""trial"",""time""
""fullscreenenter"",""1"",""2952""
","
","","","-1","","","10","10104","4830","j","elianto","#f73b6a7A"," ","-1","0","0","[]","0","3","","","10104","141","0","3","lose","go","1"
"pit-trial","267","1617632","0.0-147.0","battery-v0.2","","""event"",""trial"",""time""
""fullscreenenter"",""1"",""2952""
","
","
","""event"",""trial"",""time""
""fullscreenenter"",""1"",""2952""
","
