"trial_type","trial_index","time_elapsed","internal_node_id","task_version","subject_id","interactions","blur_events","focus_events","fullscreenenter_events","fullscreenexit_events","success","view_history","rt","responses","num_errors","age","subject","participantId","rune","rune_set","hex","correct","choice","accuracy","outcome","keys","total_keys","block","practice","value","sub","trial","stimulus","robot","valence","action","sham"
"pavlovia","0","15","0.0-0.0","battery-v0.2","","""event"",""trial"",""time""
""fullscreenenter"",""1"",""2321""
","
","
","""event"",""trial"",""time""
""fullscreenenter"",""1"",""2321""
","
","","","","","","","","","","","","","","","","","","","","","","","","","","",""
"fullscreen","1","3291","0.0-1.0","battery-v0.2","","""event"",""trial"",""time""
""fullscreenenter"",""1"",""2321""
","
","
","""event"",""trial"",""time""
""fullscreenenter"",""1"",""2321""
","
","true","","","","","","","","","","","","","","","","","","","","","","","","","",""
"pit-instructions","2","7776","0.0-2.0-0.0","battery-v0.2","","""event"",""trial"",""time""
""fullscreenenter"",""1"",""2321""
","
","
","""event"",""trial"",""time""
""fullscreenenter"",""1"",""2321""
","
","","[{""page_index"":0,""viewing_time"":4483.100000000035}]","4483.300000000047","","","","","","","","","","","","","","","","","","","","","","","",""
"pit-comprehension","3","11186","0.0-2.0-1.0-0.0","battery-v0.2","","""event"",""trial"",""time""
""fullscreenenter"",""1"",""2321""
","
","
","""event"",""trial"",""time""
""fullscreenenter"",""1"",""2321""
","
","","","3407.2000000000116","[""shark""]","0","12","9604","4448","","","","","","","","","","","","","","","","","","",""
"pit-instructions","4","12232","0.0-2.0-1.0-1.0","battery-v0.2","","""event"",""trial"",""time""
""fullscreenenter"",""1"",""2321""
","
","
","""event"",""trial"",""time""
""fullscreenenter"",""1"",""2321""
","
","","[{""page_index"":0,""viewing_time"":1032.5999999999767}]","1032.7000000000116","","","","","","","","","","","","","","","","","","","","","","","",""
"pit-comprehension","5","14707","0.0-2.0-2.0-0.0","battery-v0.2","","""event"",""trial"",""time""
""fullscreenenter"",""1"",""2321""
","
","
","""event"",""trial"",""time""
""fullscreenenter"",""1"",""2321""
","
","","","2473.0999999999767","[""tiger""]","0","12","9604","4448","","","","","","","","","","","","","","","","","","",""
"pit-instructions","6","15630","0.0-2.0-2.0-1.0","battery-v0.2","","""event"",""trial"",""time""
""fullscreenenter"",""1"",""2321""
","
","
","""event"",""trial"",""time""
""fullscreenenter"",""1"",""2321""
","
","","[{""page_index"":0,""viewing_time"":919.0999999999767}]","919.3999999999651","","","","","","","","","","","","","","","","","","","","","","","",""
"pit-instructions","7","119685","0.0-2.0-3.0","battery-v0.2","","""event"",""trial"",""time""
""fullscreenenter"",""1"",""2321""
","
","
","""event"",""trial"",""time""
""fullscreenenter"",""1"",""2321""
","
","","[{""page_index"":0,""viewing_time"":8558.900000000023},{""page_index"":1,""viewing_time"":6176.599999999977},{""page_index"":2,""viewing_time"":6491.5},{""page_index"":3,""viewing_time"":7492.900000000023},{""page_index"":4,""viewing_time"":6086.299999999988},{""page_index"":5,""viewing_time"":5648},{""page_index"":6,""viewing_time"":7604.799999999988},{""page_index"":7,""viewing_time"":7380.600000000035},{""page_index"":8,""viewing_time"":8415.5},{""page_index"":9,""viewing_time"":9056.699999999953},{""page_index"":10,""viewing_time"":9438.600000000035},{""page_index"":11,""viewing_time"":9023.299999999988},{""page_index"":12,""viewing_time"":7571.5},{""page_index"":13,""viewing_time"":5107.799999999988}]","104053.40000000002","","","","","","","","","","","","","","","","","","","","","","","",""
"pit-trial","8","123366","0.0-2.0-4.0-0.0","battery-v0.2","","""event"",""trial"",""time""
""fullscreenenter"",""1"",""2321""
","
","
","""event"",""trial"",""time""
""fullscreenenter"",""1"",""2321""
","
","","","816.4000000000233","","","12","9604","4448","&#9784;","elianto","#FFFFF080"," "," ","1","&#10004","[1673.100000000035,3654.3000000000466]","2","0","0","","","","","","","",""
"pit-trial","9","127059","0.0-2.0-4.1-0.1","battery-v0.2","","""event"",""trial"",""time""
""fullscreenenter"",""1"",""2321""
","
","
","""event"",""trial"",""time""
""fullscreenenter"",""1"",""2321""
","
","","","822.6999999999534","","","12","9604","4448","&#9784;","elianto","#FFFFF080"," "," ","1","&#10004","[1680.5999999999767,2715.7999999999884]","2","0","0","","","","","","","",""
"pit-trial","10","130505","0.0-2.0-4.2-0.2","battery-v0.2","","""event"",""trial"",""time""
""fullscreenenter"",""1"",""2321""
","
","
","""event"",""trial"",""time""
""fullscreenenter"",""1"",""2321""
","
","","","591.1999999999534","","","12","9604","4448","&#9784;","elianto","#FFFFF080"," "," ","1","&#10004","[1442.399999999965]","1","0","0","","","","","","","",""
"pit-trial","11","133914","0.0-2.0-4.3-0.3","battery-v0.2","","""event"",""trial"",""time""
""fullscreenenter"",""1"",""2321""
","
","
","""event"",""trial"",""time""
""fullscreenenter"",""1"",""2321""
","
","","","549.6000000000349","","","12","9604","4448","&#9784;","elianto","#FFFFF080"," "," ","1","&#10004","[1405]","1","0","0","","","","","","","",""
"pit-trial","12","137281","0.0-2.0-4.4-0.4","battery-v0.2","","""event"",""trial"",""time""
""fullscreenenter"",""1"",""2321""
","
","
","""event"",""trial"",""time""
""fullscreenenter"",""1"",""2321""
","
","","","505.9000000000233","","","12","9604","4448","&#9784;","elianto","#FFFFF080"," "," ","1","&#10004","[1359.9000000000233]","1","0","0","","","","","","","",""
"pit-instructions","13","158859","0.0-2.0-5.0","battery-v0.2","","""event"",""trial"",""time""
""fullscreenenter"",""1"",""2321""
","
","
","""event"",""trial"",""time""
""fullscreenenter"",""1"",""2321""
","
","","[{""page_index"":0,""viewing_time"":4834.200000000012},{""page_index"":1,""viewing_time"":5209.200000000012},{""page_index"":2,""viewing_time"":4534},{""page_index"":3,""viewing_time"":6997.799999999988}]","21575.400000000023","","","","","","","","","","","","","","","","","","","","","","","",""
"pit-trial","14","163723","0.0-2.0-6.0-0.0","battery-v0.2","","""event"",""trial"",""time""
""fullscreenenter"",""1"",""2321""
","
","
","""event"",""trial"",""time""
""fullscreenenter"",""1"",""2321""
","
","","","-1","","","12","9604","4448","&#9854;","elianto","#FFFFF080","-1","-1","1","&#10004","[]","0","0","1","","","","","","","",""
"pit-trial","15","168588","0.0-2.0-6.1-0.1","battery-v0.2","","""event"",""trial"",""time""
""fullscreenenter"",""1"",""2321""
","
","
","""event"",""trial"",""time""
""fullscreenenter"",""1"",""2321""
","
","","","-1","","","12","9604","4448","&#9854;","elianto","#FFFFF080","-1","-1","1","&#10004","[]","0","0","1","","","","","","","",""
"pit-trial","16","173453","0.0-2.0-6.2-0.2","battery-v0.2","","""event"",""trial"",""time""
""fullscreenenter"",""1"",""2321""
","
","
","""event"",""trial"",""time""
""fullscreenenter"",""1"",""2321""
","
","","","-1","","","12","9604","4448","&#9854;","elianto","#FFFFF080","-1","-1","1","&#10004","[]","0","0","1","","","","","","","",""
"pit-trial","17","178319","0.0-2.0-6.3-0.3","battery-v0.2","","""event"",""trial"",""time""
""fullscreenenter"",""1"",""2321""
","
","
","""event"",""trial"",""time""
""fullscreenenter"",""1"",""2321""
","
","","","-1","","","12","9604","4448","&#9854;","elianto","#FFFFF080","-1","-1","1","&#10004","[]","0","0","1","","","","","","","",""
"pit-trial","18","183190","0.0-2.0-6.4-0.4","battery-v0.2","","""event"",""trial"",""time""
""fullscreenenter"",""1"",""2321""
","
","
","""event"",""trial"",""time""
""fullscreenenter"",""1"",""2321""
","
","","","-1","","","12","9604","4448","&#9854;","elianto","#FFFFF080","-1","-1","1","&#10004","[]","0","0","1","","","","","","","",""
"pit-instructions","19","304463","0.0-2.0-7.0","battery-v0.2","","""event"",""trial"",""time""
""fullscreenenter"",""1"",""2321""
","
","
","""event"",""trial"",""time""
""fullscreenenter"",""1"",""2321""
","
","","[{""page_index"":0,""viewing_time"":7574.099999999977},{""page_index"":1,""viewing_time"":6277.700000000012},{""page_index"":2,""viewing_time"":5524},{""page_index"":3,""viewing_time"":6345.300000000047},{""page_index"":4,""viewing_time"":5107.79999999993},{""page_index"":5,""viewing_time"":6075.20000000007},{""page_index"":6,""viewing_time"":4860.29999999993},{""page_index"":7,""viewing_time"":7942.800000000047},{""page_index"":8,""viewing_time"":8673.900000000023},{""page_index"":9,""viewing_time"":6221.699999999953},{""page_index"":10,""viewing_time"":7100.699999999953},{""page_index"":11,""viewing_time"":7131},{""page_index"":12,""viewing_time"":6817.800000000047},{""page_index"":13,""viewing_time"":6806.5},{""page_index"":14,""viewing_time"":7796.800000000047},{""page_index"":15,""viewing_time"":7144.199999999953},{""page_index"":16,""viewing_time"":6806.300000000047},{""page_index"":17,""viewing_time"":7065.29999999993}]","121271.70000000001","","","","","","","","","","","","","","","","","","","","","","","",""
"pit-trial","20","308662","0.0-2.0-8.0-0.0","battery-v0.2","","""event"",""trial"",""time""
""fullscreenenter"",""1"",""2321""
","
","
","""event"",""trial"",""time""
""fullscreenenter"",""1"",""2321""
","
","","","1338.4000000000233","","","12","9604","4448","&#9776;","elianto","#3366ff99"," "," ","1","+10","[2190.5]","1","0","1","","","","","","","",""
"pit-trial","21","312250","0.0-2.0-8.0-1.0","battery-v0.2","","""event"",""trial"",""time""
""fullscreenenter"",""1"",""2321""
","
","
","""event"",""trial"",""time""
""fullscreenenter"",""1"",""2321""
","
","","","725.7999999999302","","","12","9604","4448","&#9776;","elianto","#3366ff99"," "," ","1","+10","[1580.1999999999534]","1","0","1","","","","","","","",""
"pit-trial","22","315778","0.0-2.0-8.0-2.0","battery-v0.2","","""event"",""trial"",""time""
""fullscreenenter"",""1"",""2321""
","
","
","""event"",""trial"",""time""
""fullscreenenter"",""1"",""2321""
","
","","","673.2999999999302","","","12","9604","4448","&#9776;","elianto","#3366ff99"," "," ","1","+10","[1525.1999999999534]","1","0","1","","","","","","","",""
"pit-trial","23","319326","0.0-2.0-8.0-3.0","battery-v0.2","","""event"",""trial"",""time""
""fullscreenenter"",""1"",""2321""
","
","
","""event"",""trial"",""time""
""fullscreenenter"",""1"",""2321""
","
","","","684.5","","","12","9604","4448","&#9776;","elianto","#3366ff99"," "," ","1","0","[1541.1000000000931]","1","0","1","","","","","","","",""
"pit-trial","24","322861","0.0-2.0-8.0-4.0","battery-v0.2","","""event"",""trial"",""time""
""fullscreenenter"",""1"",""2321""
","
","
","""event"",""trial"",""time""
""fullscreenenter"",""1"",""2321""
","
","","","667","","","12","9604","4448","&#9776;","elianto","#3366ff99"," "," ","1","+10","[1525.3999999999069]","1","0","1","","","","","","","",""
"pit-trial","25","326397","0.0-2.0-8.1-0.1","battery-v0.2","","""event"",""trial"",""time""
""fullscreenenter"",""1"",""2321""
","
","
","""event"",""trial"",""time""
""fullscreenenter"",""1"",""2321""
","
","","","671.5","","","12","9604","4448","&#9776;","elianto","#3366ff99"," "," ","1","+10","[1523]","1","0","1","","","","","","","",""
"pit-trial","26","329898","0.0-2.0-8.1-1.1","battery-v0.2","","""event"",""trial"",""time""
""fullscreenenter"",""1"",""2321""
","
","
","""event"",""trial"",""time""
""fullscreenenter"",""1"",""2321""
","
","","","646.1999999999534","","","12","9604","4448","&#9776;","elianto","#3366ff99"," "," ","1","+10","[1497.0999999999767]","1","0","1","","","","","","","",""
"pit-trial","27","333426","0.0-2.0-8.1-2.1","battery-v0.2","","""event"",""trial"",""time""
""fullscreenenter"",""1"",""2321""
","
","
","""event"",""trial"",""time""
""fullscreenenter"",""1"",""2321""
","
","","","660.6999999999534","","","12","9604","4448","&#9776;","elianto","#3366ff99"," "," ","1","+10","[1518.0999999999767]","1","0","1","","","","","","","",""
"pit-trial","28","336875","0.0-2.0-8.1-3.1","battery-v0.2","","""event"",""trial"",""time""
""fullscreenenter"",""1"",""2321""
","
","
","""event"",""trial"",""time""
""fullscreenenter"",""1"",""2321""
","
","","","588.6999999999534","","","12","9604","4448","&#9776;","elianto","#3366ff99"," "," ","1","0","[1443.9000000000233]","1","0","1","","","","","","","",""
"pit-trial","29","340243","0.0-2.0-8.1-4.1","battery-v0.2","","""event"",""trial"",""time""
""fullscreenenter"",""1"",""2321""
","
","
","""event"",""trial"",""time""
""fullscreenenter"",""1"",""2321""
","
","","","507.19999999995343","","","12","9604","4448","&#9776;","elianto","#3366ff99"," "," ","1","+10","[1358.0999999999767]","1","0","1","","","","","","","",""
"pit-trial","30","343522","0.0-2.0-8.2-0.2","battery-v0.2","","""event"",""trial"",""time""
""fullscreenenter"",""1"",""2321""
","
","
","""event"",""trial"",""time""
""fullscreenenter"",""1"",""2321""
","
","","","425.0999999999767","","","12","9604","4448","&#9776;","elianto","#3366ff99"," "," ","1","+10","[1275.7000000000698]","1","0","1","","","","","","","",""
"pit-trial","31","346810","0.0-2.0-8.2-1.2","battery-v0.2","","""event"",""trial"",""time""
""fullscreenenter"",""1"",""2321""
","
","
","""event"",""trial"",""time""
""fullscreenenter"",""1"",""2321""
","
","","","428","","","12","9604","4448","&#9776;","elianto","#3366ff99"," "," ","1","+10","[1282]","1","0","1","","","","","","","",""
"pit-trial","32","350123","0.0-2.0-8.2-2.2","battery-v0.2","","""event"",""trial"",""time""
""fullscreenenter"",""1"",""2321""
","
","
","""event"",""trial"",""time""
""fullscreenenter"",""1"",""2321""
","
","","","450.80000000004657","","","12","9604","4448","&#9776;","elianto","#3366ff99"," "," ","1","+10","[1301.8000000000466]","1","0","1","","","","","","","",""
"pit-trial","33","353426","0.0-2.0-8.2-3.2","battery-v0.2","","""event"",""trial"",""time""
""fullscreenenter"",""1"",""2321""
","
","
","""event"",""trial"",""time""
""fullscreenenter"",""1"",""2321""
","
","","","443.20000000006985","","","12","9604","4448","&#9776;","elianto","#3366ff99"," "," ","1","0","[1296.9000000000233]","1","0","1","","","","","","","",""
"pit-trial","34","356781","0.0-2.0-8.2-4.2","battery-v0.2","","""event"",""trial"",""time""
""fullscreenenter"",""1"",""2321""
","
","
","""event"",""trial"",""time""
""fullscreenenter"",""1"",""2321""
","
","","","493.4000000000233","","","12","9604","4448","&#9776;","elianto","#3366ff99"," "," ","1","+10","[1345.8000000000466]","1","0","1","","","","","","","",""
"call-function","35","356782","0.0-2.0-9.0","battery-v0.2","","""event"",""trial"",""time""
""fullscreenenter"",""1"",""2321""
","
","
","""event"",""trial"",""time""
""fullscreenenter"",""1"",""2321""
","
","","","","","","","","","","","","","","","","","","","","","","","","","","",""
"pit-instructions","36","402432","0.0-2.0-10.0","battery-v0.2","","""event"",""trial"",""time""
""fullscreenenter"",""1"",""2321""
","
","
","""event"",""trial"",""time""
""fullscreenenter"",""1"",""2321""
","
","","[{""page_index"":0,""viewing_time"":6239.199999999953},{""page_index"":1,""viewing_time"":7222.800000000047},{""page_index"":2,""viewing_time"":12353},{""page_index"":3,""viewing_time"":10800.5},{""page_index"":4,""viewing_time"":9034.099999999977}]","45649.89999999991","","","","","","","","","","","","","","","","","","","","","","","",""
"pit-trial","37","407045","0.0-2.0-11.0-0.0","battery-v0.2","","""event"",""trial"",""time""
""fullscreenenter"",""1"",""2321""
","
","
","""event"",""trial"",""time""
""fullscreenenter"",""1"",""2321""
","
","","","1756.5999999999767","","","12","9604","4448","&#9761;","elianto","#3366ff99","-1"," ","0","0","[2606.8000000000466]","1","0","2","","","","","","","",""
"pit-trial","38","410662","0.0-2.0-11.0-1.0","battery-v0.2","","""event"",""trial"",""time""
""fullscreenenter"",""1"",""2321""
","
","
","""event"",""trial"",""time""
""fullscreenenter"",""1"",""2321""
","
","","","754.1000000000931","","","12","9604","4448","&#9761;","elianto","#3366ff99","-1"," ","0","0","[1605.8000000000466]","1","0","2","","","","","","","",""
"pit-trial","39","414146","0.0-2.0-11.0-2.0","battery-v0.2","","""event"",""trial"",""time""
""fullscreenenter"",""1"",""2321""
","
","
","""event"",""trial"",""time""
""fullscreenenter"",""1"",""2321""
","
","","","623.5","","","12","9604","4448","&#9761;","elianto","#3366ff99","-1"," ","0","0","[1476.0999999999767]","1","0","2","","","","","","","",""
"pit-trial","40","418213","0.0-2.0-11.0-3.0","battery-v0.2","","""event"",""trial"",""time""
""fullscreenenter"",""1"",""2321""
","
","
","""event"",""trial"",""time""
""fullscreenenter"",""1"",""2321""
","
","","","1200.3999999999069","","","12","9604","4448","&#9761;","elianto","#3366ff99","-1"," ","0","+10","[2054.5]","1","0","2","","","","","","","",""
"pit-trial","41","423077","0.0-2.0-11.0-4.0","battery-v0.2","","""event"",""trial"",""time""
""fullscreenenter"",""1"",""2321""
","
","
","""event"",""trial"",""time""
""fullscreenenter"",""1"",""2321""
","
","","","-1","","","12","9604","4448","&#9761;","elianto","#3366ff99","-1","-1","1","+10","[2891.3000000000466]","1","0","2","","","","","","","",""
"pit-trial","42","427020","0.0-2.0-11.1-0.1","battery-v0.2","","""event"",""trial"",""time""
""fullscreenenter"",""1"",""2321""
","
","
","""event"",""trial"",""time""
""fullscreenenter"",""1"",""2321""
","
","","","1079.7999999999302","","","12","9604","4448","&#9761;","elianto","#3366ff99","-1"," ","0","0","[1930.7999999999302]","1","0","2","","","","","","","",""
"pit-trial","43","431886","0.0-2.0-11.1-1.1","battery-v0.2","","""event"",""trial"",""time""
""fullscreenenter"",""1"",""2321""
","
","
","""event"",""trial"",""time""
""fullscreenenter"",""1"",""2321""
","
","","","-1","","","12","9604","4448","&#9761;","elianto","#3366ff99","-1","-1","1","+10","[]","0","0","2","","","","","","","",""
"pit-trial","44","436750","0.0-2.0-11.1-2.1","battery-v0.2","","""event"",""trial"",""time""
""fullscreenenter"",""1"",""2321""
","
","
","""event"",""trial"",""time""
""fullscreenenter"",""1"",""2321""
","
","","","-1","","","12","9604","4448","&#9761;","elianto","#3366ff99","-1","-1","1","+10","[]","0","0","2","","","","","","","",""
"pit-trial","45","441621","0.0-2.0-11.1-3.1","battery-v0.2","","""event"",""trial"",""time""
""fullscreenenter"",""1"",""2321""
","
","
","""event"",""trial"",""time""
""fullscreenenter"",""1"",""2321""
","
","","","-1","","","12","9604","4448","&#9761;","elianto","#3366ff99","-1","-1","1","0","[]","0","0","2","","","","","","","",""
"pit-trial","46","444810","0.0-2.0-11.1-4.1","battery-v0.2","","""event"",""trial"",""time""
""fullscreenenter"",""1"",""2321""
","
","
","""event"",""trial"",""time""
""fullscreenenter"",""1"",""2321""
","
","","","333.5","","","12","9604","4448","&#9761;","elianto","#3366ff99","-1"," ","0","0","[1185.8000000000466]","1","0","2","","","","","","","",""
"pit-trial","47","448150","0.0-2.0-11.2-0.2","battery-v0.2","","""event"",""trial"",""time""
""fullscreenenter"",""1"",""2321""
","
","
","""event"",""trial"",""time""
""fullscreenenter"",""1"",""2321""
","
","","","476.5","","","12","9604","4448","&#9761;","elianto","#3366ff99","-1"," ","0","0","[1326.6999999999534]","1","0","2","","","","","","","",""
"pit-trial","48","451373","0.0-2.0-11.2-1.2","battery-v0.2","","""event"",""trial"",""time""
""fullscreenenter"",""1"",""2321""
","
","
","""event"",""trial"",""time""
""fullscreenenter"",""1"",""2321""
","
","","","356.9000000000233","","","12","9604","4448","&#9761;","elianto","#3366ff99","-1"," ","0","0","[1215.9000000000233]","1","0","2","","","","","","","",""
"pit-trial","49","454653","0.0-2.0-11.2-2.2","battery-v0.2","","""event"",""trial"",""time""
""fullscreenenter"",""1"",""2321""
","
","
","""event"",""trial"",""time""
""fullscreenenter"",""1"",""2321""
","
","","","413.29999999993015","","","12","9604","4448","&#9761;","elianto","#3366ff99","-1"," ","0","0","[1267.1999999999534]","1","0","2","","","","","","","",""
"pit-trial","50","457625","0.0-2.0-11.2-3.2","battery-v0.2","","""event"",""trial"",""time""
""fullscreenenter"",""1"",""2321""
","
","
","""event"",""trial"",""time""
""fullscreenenter"",""1"",""2321""
","
","","","116.40000000002328","","","12","9604","4448","&#9761;","elianto","#3366ff99","-1"," ","0","+10","[968.5]","1","0","2","","","","","","","",""
"pit-trial","51","460886","0.0-2.0-11.2-4.2","battery-v0.2","","""event"",""trial"",""time""
""fullscreenenter"",""1"",""2321""
","
","
","""event"",""trial"",""time""
""fullscreenenter"",""1"",""2321""
","
","","","393.5","","","12","9604","4448","&#9761;","elianto","#3366ff99","-1"," ","0","0","[1247.5999999999767]","1","0","2","","","","","","","",""
"pit-trial","52","464237","0.0-2.0-11.3-0.3","battery-v0.2","","""event"",""trial"",""time""
""fullscreenenter"",""1"",""2321""
","
","
","""event"",""trial"",""time""
""fullscreenenter"",""1"",""2321""
","
","","","477.4000000000233","","","12","9604","4448","&#9761;","elianto","#3366ff99","-1"," ","0","0","[1337.5999999999767]","1","0","2","","","","","","","",""
"pit-trial","53","467203","0.0-2.0-11.3-1.3","battery-v0.2","","""event"",""trial"",""time""
""fullscreenenter"",""1"",""2321""
","
","
","""event"",""trial"",""time""
""fullscreenenter"",""1"",""2321""
","
","","","106.29999999993015","","","12","9604","4448","&#9761;","elianto","#3366ff99","-1"," ","0","0","[959]","1","0","2","","","","","","","",""
"pit-trial","54","470379","0.0-2.0-11.3-2.3","battery-v0.2","","""event"",""trial"",""time""
""fullscreenenter"",""1"",""2321""
","
","
","""event"",""trial"",""time""
""fullscreenenter"",""1"",""2321""
","
","","","309.4000000000233","","","12","9604","4448","&#9761;","elianto","#3366ff99","-1"," ","0","0","[1164.9000000000233]","1","0","2","","","","","","","",""
"pit-trial","55","473461","0.0-2.0-11.3-3.3","battery-v0.2","","""event"",""trial"",""time""
""fullscreenenter"",""1"",""2321""
","
","
","""event"",""trial"",""time""
""fullscreenenter"",""1"",""2321""
","
","","","218.40000000002328","","","12","9604","4448","&#9761;","elianto","#3366ff99","-1"," ","0","+10","[1072.1999999999534]","1","0","2","","","","","","","",""
"pit-trial","56","476567","0.0-2.0-11.3-4.3","battery-v0.2","","""event"",""trial"",""time""
""fullscreenenter"",""1"",""2321""
","
","
","""event"",""trial"",""time""
""fullscreenenter"",""1"",""2321""
","
","","","242","","","12","9604","4448","&#9761;","elianto","#3366ff99","-1"," ","0","0","[1094.5]","1","0","2","","","","","","","",""
"call-function","57","476568","0.0-2.0-12.0","battery-v0.2","","""event"",""trial"",""time""
""fullscreenenter"",""1"",""2321""
","
","
","""event"",""trial"",""time""
""fullscreenenter"",""1"",""2321""
","
","","","","","","","","","","","","","","","","","","","","","","","","","","",""
"pit-instructions","58","515736","0.0-2.0-13.0","battery-v0.2","","""event"",""trial"",""time""
""fullscreenenter"",""1"",""2321""
","
","
","""event"",""trial"",""time""
""fullscreenenter"",""1"",""2321""
","
","","[{""page_index"":0,""viewing_time"":6856.300000000047},{""page_index"":1,""viewing_time"":8302.5},{""page_index"":2,""viewing_time"":5411.699999999953},{""page_index"":3,""viewing_time"":13252.900000000023},{""page_index"":4,""viewing_time"":5344.099999999977}]","39167.69999999995","","","","","","","","","","","","","","","","","","","","","","","",""
"pit-trial","59","520606","0.0-2.0-14.0-0.0","battery-v0.2","","""event"",""trial"",""time""
""fullscreenenter"",""1"",""2321""
","
","
","""event"",""trial"",""time""
""fullscreenenter"",""1"",""2321""
","
","","","-1","","","12","9604","4448","&#9826;","elianto","#f73b6a7A","-1","-1","1","0","[]","0","0","3","","","","","","","",""
"pit-trial","60","523876","0.0-2.0-14.0-1.0","battery-v0.2","","""event"",""trial"",""time""
""fullscreenenter"",""1"",""2321""
","
","
","""event"",""trial"",""time""
""fullscreenenter"",""1"",""2321""
","
","","","398.5","","","12","9604","4448","&#9826;","elianto","#f73b6a7A","-1"," ","0","-10","[1257.7000000000698]","1","0","3","","","","","","","",""
"pit-trial","61","528743","0.0-2.0-14.0-2.0","battery-v0.2","","""event"",""trial"",""time""
""fullscreenenter"",""1"",""2321""
","
","
","""event"",""trial"",""time""
""fullscreenenter"",""1"",""2321""
","
","","","-1","","","12","9604","4448","&#9826;","elianto","#f73b6a7A","-1","-1","1","0","[]","0","0","3","","","","","","","",""
"pit-trial","62","533610","0.0-2.0-14.0-3.0","battery-v0.2","","""event"",""trial"",""time""
""fullscreenenter"",""1"",""2321""
","
","
","""event"",""trial"",""time""
""fullscreenenter"",""1"",""2321""
","
","","","-1","","","12","9604","4448","&#9826;","elianto","#f73b6a7A","-1","-1","1","-10","[]","0","0","3","","","","","","","",""
"pit-trial","63","538478","0.0-2.0-14.0-4.0","battery-v0.2","","""event"",""trial"",""time""
""fullscreenenter"",""1"",""2321""
","
","
","""event"",""trial"",""time""
""fullscreenenter"",""1"",""2321""
","
","","","-1","","","12","9604","4448","&#9826;","elianto","#f73b6a7A","-1","-1","1","0","[]","0","0","3","","","","","","","",""
"pit-trial","64","543350","0.0-2.0-14.1-0.1","battery-v0.2","","""event"",""trial"",""time""
""fullscreenenter"",""1"",""2321""
","
","
","""event"",""trial"",""time""
""fullscreenenter"",""1"",""2321""
","
","","","-1","","","12","9604","4448","&#9826;","elianto","#f73b6a7A","-1","-1","1","0","[]","0","0","3","","","","","","","",""
"pit-trial","65","547857","0.0-2.0-14.1-1.1","battery-v0.2","","""event"",""trial"",""time""
""fullscreenenter"",""1"",""2321""
","
","
","""event"",""trial"",""time""
""fullscreenenter"",""1"",""2321""
","
","","","1644.5999999999767","","","12","9604","4448","&#9826;","elianto","#f73b6a7A","-1"," ","0","-10","[2499.9000000000233]","1","0","3","","","","","","","",""
"pit-trial","66","552726","0.0-2.0-14.1-2.1","battery-v0.2","","""event"",""trial"",""time""
""fullscreenenter"",""1"",""2321""
","
","
","""event"",""trial"",""time""
""fullscreenenter"",""1"",""2321""
","
","","","-1","","","12","9604","4448","&#9826;","elianto","#f73b6a7A","-1","-1","1","0","[]","0","0","3","","","","","","","",""
"pit-trial","67","557597","0.0-2.0-14.1-3.1","battery-v0.2","","""event"",""trial"",""time""
""fullscreenenter"",""1"",""2321""
","
","
","""event"",""trial"",""time""
""fullscreenenter"",""1"",""2321""
","
","","","-1","","","12","9604","4448","&#9826;","elianto","#f73b6a7A","-1","-1","1","-10","[]","0","0","3","","","","","","","",""
"pit-trial","68","562462","0.0-2.0-14.1-4.1","battery-v0.2","","""event"",""trial"",""time""
""fullscreenenter"",""1"",""2321""
","
","
","""event"",""trial"",""time""
""fullscreenenter"",""1"",""2321""
","
","","","-1","","","12","9604","4448","&#9826;","elianto","#f73b6a7A","-1","-1","1","0","[]","0","0","3","","","","","","","",""
"pit-trial","69","567332","0.0-2.0-14.2-0.2","battery-v0.2","","""event"",""trial"",""time""
""fullscreenenter"",""1"",""2321""
","
","
","""event"",""trial"",""time""
""fullscreenenter"",""1"",""2321""
","
","","","-1","","","12","9604","4448","&#9826;","elianto","#f73b6a7A","-1","-1","1","0","[]","0","0","3","","","","","","","",""
"pit-trial","70","572197","0.0-2.0-14.2-1.2","battery-v0.2","","""event"",""trial"",""time""
""fullscreenenter"",""1"",""2321""
","
","
","""event"",""trial"",""time""
""fullscreenenter"",""1"",""2321""
","
","","","-1","","","12","9604","4448","&#9826;","elianto","#f73b6a7A","-1","-1","1","0","[]","0","0","3","","","","","","","",""
"pit-trial","71","577058","0.0-2.0-14.2-2.2","battery-v0.2","","""event"",""trial"",""time""
""fullscreenenter"",""1"",""2321""
","
","
","""event"",""trial"",""time""
""fullscreenenter"",""1"",""2321""
","
","","","-1","","","12","9604","4448","&#9826;","elianto","#f73b6a7A","-1","-1","1","0","[]","0","0","3","","","","","","","",""
"pit-trial","72","581926","0.0-2.0-14.2-3.2","battery-v0.2","","""event"",""trial"",""time""
""fullscreenenter"",""1"",""2321""
","
","
","""event"",""trial"",""time""
""fullscreenenter"",""1"",""2321""
","
","","","-1","","","12","9604","4448","&#9826;","elianto","#f73b6a7A","-1","-1","1","-10","[]","0","0","3","","","","","","","",""
"pit-trial","73","586796","0.0-2.0-14.2-4.2","battery-v0.2","","""event"",""trial"",""time""
""fullscreenenter"",""1"",""2321""
","
","
","""event"",""trial"",""time""
""fullscreenenter"",""1"",""2321""
","
","","","-1","","","12","9604","4448","&#9826;","elianto","#f73b6a7A","-1","-1","1","0","[]","0","0","3","","","","","","","",""
"pit-trial","74","591661","0.0-2.0-14.3-0.3","battery-v0.2","","""event"",""trial"",""time""
""fullscreenenter"",""1"",""2321""
","
","
","""event"",""trial"",""time""
""fullscreenenter"",""1"",""2321""
","
","","","-1","","","12","9604","4448","&#9826;","elianto","#f73b6a7A","-1","-1","1","0","[]","0","0","3","","","","","","","",""
"pit-trial","75","596523","0.0-2.0-14.3-1.3","battery-v0.2","","""event"",""trial"",""time""
""fullscreenenter"",""1"",""2321""
","
","
","""event"",""trial"",""time""
""fullscreenenter"",""1"",""2321""
","
","","","-1","","","12","9604","4448","&#9826;","elianto","#f73b6a7A","-1","-1","1","0","[]","0","0","3","","","","","","","",""
"pit-trial","76","601390","0.0-2.0-14.3-2.3","battery-v0.2","","""event"",""trial"",""time""
""fullscreenenter"",""1"",""2321""
","
","
","""event"",""trial"",""time""
""fullscreenenter"",""1"",""2321""
","
","","","-1","","","12","9604","4448","&#9826;","elianto","#f73b6a7A","-1","-1","1","0","[]","0","0","3","","","","","","","",""
"pit-trial","77","606261","0.0-2.0-14.3-3.3","battery-v0.2","","""event"",""trial"",""time""
""fullscreenenter"",""1"",""2321""
","
","
","""event"",""trial"",""time""
""fullscreenenter"",""1"",""2321""
","
","","","-1","","","12","9604","4448","&#9826;","elianto","#f73b6a7A","-1","-1","1","-10","[]","0","0","3","","","","","","","",""
"pit-trial","78","611125","0.0-2.0-14.3-4.3","battery-v0.2","","""event"",""trial"",""time""
""fullscreenenter"",""1"",""2321""
","
","
","""event"",""trial"",""time""
""fullscreenenter"",""1"",""2321""
","
","","","-1","","","12","9604","4448","&#9826;","elianto","#f73b6a7A","-1","-1","1","0","[]","0","0","3","","","","","","","",""
"call-function","79","611126","0.0-2.0-15.0","battery-v0.2","","""event"",""trial"",""time""
""fullscreenenter"",""1"",""2321""
","
","
","""event"",""trial"",""time""
""fullscreenenter"",""1"",""2321""
","
","","","","","","","","","","","","","","","","","","","","","","","","","","",""
"pit-instructions","80","644981","0.0-2.0-16.0","battery-v0.2","","""event"",""trial"",""time""
""fullscreenenter"",""1"",""2321""
","
","
","""event"",""trial"",""time""
""fullscreenenter"",""1"",""2321""
","
","","[{""page_index"":0,""viewing_time"":6707.099999999977},{""page_index"":1,""viewing_time"":8235.300000000047},{""page_index"":2,""viewing_time"":13849.199999999953},{""page_index"":3,""viewing_time"":5062.5}]","33854.30000000005","","","","","","","","","","","","","","","","","","","","","","","",""
"pit-trial","81","648739","0.0-2.0-17.0-0.0","battery-v0.2","","""event"",""trial"",""time""
""fullscreenenter"",""1"",""2321""
","
","
","""event"",""trial"",""time""
""fullscreenenter"",""1"",""2321""
","
","","","898","","","12","9604","4448","&#9789;","elianto","#f73b6a7A"," "," ","1","0","[1751.9000000000233]","1","0","4","","","","","","","",""
"pit-trial","82","652307","0.0-2.0-17.0-1.0","battery-v0.2","","""event"",""trial"",""time""
""fullscreenenter"",""1"",""2321""
","
","
","""event"",""trial"",""time""
""fullscreenenter"",""1"",""2321""
","
","","","709.8000000000466","","","12","9604","4448","&#9789;","elianto","#f73b6a7A"," "," ","1","0","[1560.3000000000466]","1","0","4","","","","","","","",""
"pit-trial","83","655798","0.0-2.0-17.0-2.0","battery-v0.2","","""event"",""trial"",""time""
""fullscreenenter"",""1"",""2321""
","
","
","""event"",""trial"",""time""
""fullscreenenter"",""1"",""2321""
","
","","","629.5","","","12","9604","4448","&#9789;","elianto","#f73b6a7A"," "," ","1","0","[1480.3999999999069]","1","0","4","","","","","","","",""
"pit-trial","84","659122","0.0-2.0-17.0-3.0","battery-v0.2","","""event"",""trial"",""time""
""fullscreenenter"",""1"",""2321""
","
","
","""event"",""trial"",""time""
""fullscreenenter"",""1"",""2321""
","
","","","460.0999999999767","","","12","9604","4448","&#9789;","elianto","#f73b6a7A"," "," ","1","-10","[1318.7999999999302]","1","0","4","","","","","","","",""
"pit-trial","85","662276","0.0-2.0-17.0-4.0","battery-v0.2","","""event"",""trial"",""time""
""fullscreenenter"",""1"",""2321""
","
","
","""event"",""trial"",""time""
""fullscreenenter"",""1"",""2321""
","
","","","291","","","12","9604","4448","&#9789;","elianto","#f73b6a7A"," "," ","1","0","[583,1145]","2","0","4","","","","","","","",""
"pit-trial","86","665694","0.0-2.0-17.1-0.1","battery-v0.2","","""event"",""trial"",""time""
""fullscreenenter"",""1"",""2321""
","
","
","""event"",""trial"",""time""
""fullscreenenter"",""1"",""2321""
","
","","","559.1999999999534","","","12","9604","4448","&#9789;","elianto","#f73b6a7A"," "," ","1","0","[1410.5]","1","0","4","","","","","","","",""
"pit-trial","87","669421","0.0-2.0-17.1-1.1","battery-v0.2","","""event"",""trial"",""time""
""fullscreenenter"",""1"",""2321""
","
","
","""event"",""trial"",""time""
""fullscreenenter"",""1"",""2321""
","
","","","866.4000000000233","","","12","9604","4448","&#9789;","elianto","#f73b6a7A"," "," ","1","0","[1716.9000000000233]","1","0","4","","","","","","","",""
"pit-trial","88","674285","0.0-2.0-17.1-2.1","battery-v0.2","","""event"",""trial"",""time""
""fullscreenenter"",""1"",""2321""
","
","
","""event"",""trial"",""time""
""fullscreenenter"",""1"",""2321""
","
","","","-1","","","12","9604","4448","&#9789;","elianto","#f73b6a7A"," ","-1","0","-10","[]","0","0","4","","","","","","","",""
"pit-trial","89","677179","0.0-2.0-17.1-3.1","battery-v0.2","","""event"",""trial"",""time""
""fullscreenenter"",""1"",""2321""
","
","
","""event"",""trial"",""time""
""fullscreenenter"",""1"",""2321""
","
","","","37.29999999993015","","","12","9604","4448","&#9789;","elianto","#f73b6a7A"," "," ","1","-10","[1.3000000000465661,664.6000000000931,888.5,1057.4000000000233,1630.9000000000233,1855.8000000000466,2092.100000000093,2294.600000000093,2519.70000000007,2879.5]","10","0","4","","","","","","","",""
"pit-trial","90","680252","0.0-2.0-17.1-4.1","battery-v0.2","","""event"",""trial"",""time""
""fullscreenenter"",""1"",""2321""
","
","
","""event"",""trial"",""time""
""fullscreenenter"",""1"",""2321""
","
","","","214.20000000006985","","","12","9604","4448","&#9789;","elianto","#f73b6a7A"," "," ","1","0","[1065.8000000000466]","1","0","4","","","","","","","",""
"pit-trial","91","683982","0.0-2.0-17.2-0.2","battery-v0.2","","""event"",""trial"",""time""
""fullscreenenter"",""1"",""2321""
","
","
","""event"",""trial"",""time""
""fullscreenenter"",""1"",""2321""
","
","","","865.2000000000698","","","12","9604","4448","&#9789;","elianto","#f73b6a7A"," "," ","1","0","[1717.8000000000466]","1","0","4","","","","","","","",""
"pit-trial","92","687558","0.0-2.0-17.2-1.2","battery-v0.2","","""event"",""trial"",""time""
""fullscreenenter"",""1"",""2321""
","
","
","""event"",""trial"",""time""
""fullscreenenter"",""1"",""2321""
","
","","","715.0999999999767","","","12","9604","4448","&#9789;","elianto","#f73b6a7A"," "," ","1","0","[1565.2999999999302]","1","0","4","","","","","","","",""
"pit-trial","93","691267","0.0-2.0-17.2-2.2","battery-v0.2","","""event"",""trial"",""time""
""fullscreenenter"",""1"",""2321""
","
","
","""event"",""trial"",""time""
""fullscreenenter"",""1"",""2321""
","
","","","843.1000000000931","","","12","9604","4448","&#9789;","elianto","#f73b6a7A"," "," ","1","0","[1701.3000000000466]","1","0","4","","","","","","","",""
"pit-trial","94","695011","0.0-2.0-17.2-3.2","battery-v0.2","","""event"",""trial"",""time""
""fullscreenenter"",""1"",""2321""
","
","
","""event"",""trial"",""time""
""fullscreenenter"",""1"",""2321""
","
","","","884.5999999999767","","","12","9604","4448","&#9789;","elianto","#f73b6a7A"," "," ","1","-10","[1738.2000000000698]","1","0","4","","","","","","","",""
"pit-trial","95","698750","0.0-2.0-17.2-4.2","battery-v0.2","","""event"",""trial"",""time""
""fullscreenenter"",""1"",""2321""
","
","
","""event"",""trial"",""time""
""fullscreenenter"",""1"",""2321""
","
","","","874.3000000000466","","","12","9604","4448","&#9789;","elianto","#f73b6a7A"," "," ","1","0","[1730.2000000000698]","1","0","4","","","","","","","",""
"pit-trial","96","703620","0.0-2.0-17.3-0.3","battery-v0.2","","""event"",""trial"",""time""
""fullscreenenter"",""1"",""2321""
","
","
","""event"",""trial"",""time""
""fullscreenenter"",""1"",""2321""
","
","","","-1","","","12","9604","4448","&#9789;","elianto","#f73b6a7A"," ","-1","0","-10","[3908.1999999999534]","1","0","4","","","","","","","",""
"pit-trial","97","706970","0.0-2.0-17.3-1.3","battery-v0.2","","""event"",""trial"",""time""
""fullscreenenter"",""1"",""2321""
","
","
","""event"",""trial"",""time""
""fullscreenenter"",""1"",""2321""
","
","","","493.5","","","12","9604","4448","&#9789;","elianto","#f73b6a7A"," "," ","1","0","[1345.3000000000466]","1","0","4","","","","","","","",""
"pit-trial","98","710180","0.0-2.0-17.3-2.3","battery-v0.2","","""event"",""trial"",""time""
""fullscreenenter"",""1"",""2321""
","
","
","""event"",""trial"",""time""
""fullscreenenter"",""1"",""2321""
","
","","","344.5","","","12","9604","4448","&#9789;","elianto","#f73b6a7A"," "," ","1","0","[662,1201.6999999999534]","2","0","4","","","","","","","",""
"pit-trial","99","713837","0.0-2.0-17.3-3.3","battery-v0.2","","""event"",""trial"",""time""
""fullscreenenter"",""1"",""2321""
","
","
","""event"",""trial"",""time""
""fullscreenenter"",""1"",""2321""
","
","","","795.2999999999302","","","12","9604","4448","&#9789;","elianto","#f73b6a7A"," "," ","1","-10","[1648.1999999999534]","1","0","4","","","","","","","",""
"pit-trial","100","717300","0.0-2.0-17.3-4.3","battery-v0.2","","""event"",""trial"",""time""
""fullscreenenter"",""1"",""2321""
","
","
","""event"",""trial"",""time""
""fullscreenenter"",""1"",""2321""
","
","","","603.8000000000466","","","12","9604","4448","&#9789;","elianto","#f73b6a7A"," "," ","1","0","[1455.9000000000233]","1","0","4","","","","","","","",""
"call-function","101","717300","0.0-2.0-18.0","battery-v0.2","","""event"",""trial"",""time""
""fullscreenenter"",""1"",""2321""
","
","
","""event"",""trial"",""time""
""fullscreenenter"",""1"",""2321""
","
","","","","","","","","","","","","","","","","","","","","","","","","","","",""
"pit-instructions","102","788972","0.0-2.0-19.0","battery-v0.2","","""event"",""trial"",""time""
""fullscreenenter"",""1"",""2321""
","
","
","""event"",""trial"",""time""
""fullscreenenter"",""1"",""2321""
","
","","[{""page_index"":0,""viewing_time"":6805.100000000093},{""page_index"":1,""viewing_time"":6716.800000000047},{""page_index"":2,""viewing_time"":12330.09999999986},{""page_index"":3,""viewing_time"":7774.199999999953},{""page_index"":4,""viewing_time"":8944.300000000047},{""page_index"":5,""viewing_time"":8122.90000000014},{""page_index"":6,""viewing_time"":8201.59999999986},{""page_index"":7,""viewing_time"":7537.699999999953},{""page_index"":8,""viewing_time"":5231.5}]","71664.40000000014","","","","","","","","","","","","","","","","","","","","","","","",""
"pit-comprehension","103","793440","0.0-2.0-20.0-0.0","battery-v0.2","","""event"",""trial"",""time""
""fullscreenenter"",""1"",""2321""
","
","
","""event"",""trial"",""time""
""fullscreenenter"",""1"",""2321""
","
","","","4465","[""SPACE""]","0","12","9604","4448","","","","","","","","","","","","","","","","","","",""
"pit-instructions","104","796229","0.0-2.0-20.0-1.0","battery-v0.2","","""event"",""trial"",""time""
""fullscreenenter"",""1"",""2321""
","
","
","""event"",""trial"",""time""
""fullscreenenter"",""1"",""2321""
","
","","[{""page_index"":0,""viewing_time"":2762.600000000093}]","2762.8000000000466","","","","","","","","","","","","","","","","","","","","","","","",""
"pit-comprehension","105","802901","0.0-2.0-21.0-0.0","battery-v0.2","","""event"",""trial"",""time""
""fullscreenenter"",""1"",""2321""
","
","
","""event"",""trial"",""time""
""fullscreenenter"",""1"",""2321""
","
","","","6669.699999999953","[""10""]","0","12","9604","4448","","","","","","","","","","","","","","","","","","",""
"pit-instructions","106","805759","0.0-2.0-21.0-1.0","battery-v0.2","","""event"",""trial"",""time""
""fullscreenenter"",""1"",""2321""
","
","
","""event"",""trial"",""time""
""fullscreenenter"",""1"",""2321""
","
","","[{""page_index"":0,""viewing_time"":2827.100000000093}]","2827.3000000000466","","","","","","","","","","","","","","","","","","","","","","","",""
"pit-comprehension","107","812262","0.0-2.0-22.0-0.0","battery-v0.2","","""event"",""trial"",""time""
""fullscreenenter"",""1"",""2321""
","
","
","""event"",""trial"",""time""
""fullscreenenter"",""1"",""2321""
","
","","","6500.5","[""0""]","0","12","9604","4448","","","","","","","","","","","","","","","","","","",""
"pit-instructions","108","816570","0.0-2.0-22.0-1.0","battery-v0.2","","""event"",""trial"",""time""
""fullscreenenter"",""1"",""2321""
","
","
","""event"",""trial"",""time""
""fullscreenenter"",""1"",""2321""
","
","","[{""page_index"":0,""viewing_time"":4282.5}]","4282.59999999986","","","","","","","","","","","","","","","","","","","","","","","",""
"pit-comprehension","109","834774","0.0-2.0-23.0-0.0","battery-v0.2","","""event"",""trial"",""time""
""fullscreenenter"",""1"",""2321""
","
","
","""event"",""trial"",""time""
""fullscreenenter"",""1"",""2321""
","
","","","18201.59999999986","[""True""]","0","12","9604","4448","","","","","","","","","","","","","","","","","","",""
"pit-instructions","110","837092","0.0-2.0-23.0-1.0","battery-v0.2","","""event"",""trial"",""time""
""fullscreenenter"",""1"",""2321""
","
","
","""event"",""trial"",""time""
""fullscreenenter"",""1"",""2321""
","
","","[{""page_index"":0,""viewing_time"":2291}]","2291.1999999999534","","","","","","","","","","","","","","","","","","","","","","","",""
"pit-comprehension","111","845856","0.0-2.0-24.0-0.0","battery-v0.2","","""event"",""trial"",""time""
""fullscreenenter"",""1"",""2321""
","
","
","""event"",""trial"",""time""
""fullscreenenter"",""1"",""2321""
","
","","","8761.800000000047","[""True""]","0","12","9604","4448","","","","","","","","","","","","","","","","","","",""
"pit-instructions","112","848128","0.0-2.0-24.0-1.0","battery-v0.2","","""event"",""trial"",""time""
""fullscreenenter"",""1"",""2321""
","
","
","""event"",""trial"",""time""
""fullscreenenter"",""1"",""2321""
","
","","[{""page_index"":0,""viewing_time"":2243.5}]","2243.8000000000466","","","","","","","","","","","","","","","","","","","","","","","",""
"pit-comprehension","113","854687","0.0-2.0-25.0-0.0","battery-v0.2","","""event"",""trial"",""time""
""fullscreenenter"",""1"",""2321""
","
","
","""event"",""trial"",""time""
""fullscreenenter"",""1"",""2321""
","
","","","6557.300000000047","[""True""]","0","12","9604","4448","","","","","","","","","","","","","","","","","","",""
"pit-instructions","114","857354","0.0-2.0-25.0-1.0","battery-v0.2","","""event"",""trial"",""time""
""fullscreenenter"",""1"",""2321""
","
","
","""event"",""trial"",""time""
""fullscreenenter"",""1"",""2321""
","
","","[{""page_index"":0,""viewing_time"":2639.399999999907}]","2639.5999999998603","","","","","","","","","","","","","","","","","","","","","","","",""
"pit-comprehension","115","865567","0.0-2.0-26.0-0.0","battery-v0.2","","""event"",""trial"",""time""
""fullscreenenter"",""1"",""2321""
","
","
","""event"",""trial"",""time""
""fullscreenenter"",""1"",""2321""
","
","","","8210.700000000186","[""False""]","0","12","9604","4448","","","","","","","","","","","","","","","","","","",""
"pit-instructions","116","869369","0.0-2.0-26.0-1.0","battery-v0.2","","""event"",""trial"",""time""
""fullscreenenter"",""1"",""2321""
","
","
","""event"",""trial"",""time""
""fullscreenenter"",""1"",""2321""
","
","","[{""page_index"":0,""viewing_time"":3775.6999999999534}]","3775.9000000001397","","","","","","","","","","","","","","","","","","","","","","","",""
"pit-instructions","117","886942","0.0-3.0","battery-v0.2","","""event"",""trial"",""time""
""fullscreenenter"",""1"",""2321""
","
","
","""event"",""trial"",""time""
""fullscreenenter"",""1"",""2321""
","
","","[{""page_index"":0,""viewing_time"":5421},{""page_index"":1,""viewing_time"":5355.199999999953},{""page_index"":2,""viewing_time"":6795.300000000047}]","17571.799999999814","","","","","","","","","","","","","","","","","","","","","","","",""
"pit-trial","118","890586","0.0-4.0","battery-v0.2","","""event"",""trial"",""time""
""fullscreenenter"",""1"",""2321""
","
","
","""event"",""trial"",""time""
""fullscreenenter"",""1"",""2321""
","
","","","780.1999999999534","","","12","9604","4448","&#9733;","elianto","#3366ff99","-1"," ","0","0","[1637.3000000000466]","1","1","","","9604","1","2","2","win","no-go","0"
"pit-trial","119","894383","0.0-5.0","battery-v0.2","","""event"",""trial"",""time""
""fullscreenenter"",""1"",""2321""
","
","
","""event"",""trial"",""time""
""fullscreenenter"",""1"",""2321""
","
","","","932.2000000001863","","","12","9604","4448","&#9728;","elianto","#f73b6a7A","-1"," ","0","-10","[1786.8000000000466]","1","1","","","9604","2","0","4","lose","no-go","0"
"pit-trial","120","898151","0.0-6.0","battery-v0.2","","""event"",""trial"",""time""
""fullscreenenter"",""1"",""2321""
","
","
","""event"",""trial"",""time""
""fullscreenenter"",""1"",""2321""
","
","","","902.4000000001397","","","12","9604","4448","&#9730;","elianto","#3366ff99"," "," ","1","+10","[1759.2000000001863]","1","1","","","9604","3","1","1","win","go","0"
"pit-trial","121","901874","0.0-7.0","battery-v0.2","","""event"",""trial"",""time""
""fullscreenenter"",""1"",""2321""
","
","
","""event"",""trial"",""time""
""fullscreenenter"",""1"",""2321""
","
","","","857.8000000000466","","","12","9604","4448","&#9752;","elianto","#f73b6a7A"," "," ","1","0","[1714.5]","1","1","","","9604","4","3","3","lose","go","0"
"pit-trial","122","905627","0.0-8.0","battery-v0.2","","""event"",""trial"",""time""
""fullscreenenter"",""1"",""2321""
","
","
","""event"",""trial"",""time""
""fullscreenenter"",""1"",""2321""
","
","","","898","","","12","9604","4448","&#9730;","elianto","#3366ff99"," "," ","1","+10","[1750]","1","1","","","9604","5","1","1","win","go","0"
"pit-trial","123","910495","0.0-9.0","battery-v0.2","","""event"",""trial"",""time""
""fullscreenenter"",""1"",""2321""
","
","
","""event"",""trial"",""time""
""fullscreenenter"",""1"",""2321""
","
","","","-1","","","12","9604","4448","&#9733;","elianto","#3366ff99","-1","-1","1","+10","[]","0","1","","","9604","6","2","2","win","no-go","0"
"pit-trial","124","915363","0.0-10.0","battery-v0.2","","""event"",""trial"",""time""
""fullscreenenter"",""1"",""2321""
","
","
","""event"",""trial"",""time""
""fullscreenenter"",""1"",""2321""
","
","","","-1","","","12","9604","4448","&#9728;","elianto","#f73b6a7A","-1","-1","1","-10","[]","0","1","","","9604","7","0","4","lose","no-go","1"
"pit-trial","125","919068","0.0-11.0","battery-v0.2","","""event"",""trial"",""time""
""fullscreenenter"",""1"",""2321""
","
","
","""event"",""trial"",""time""
""fullscreenenter"",""1"",""2321""
","
","","","842","","","12","9604","4448","&#9752;","elianto","#f73b6a7A"," "," ","1","0","[1694.7999999998137]","1","1","","","9604","8","3","3","lose","go","0"
"pit-trial","126","923933","0.0-12.0","battery-v0.2","","""event"",""trial"",""time""
""fullscreenenter"",""1"",""2321""
","
","
","""event"",""trial"",""time""
""fullscreenenter"",""1"",""2321""
","
","","","-1","","","12","9604","4448","&#9733;","elianto","#3366ff99","-1","-1","1","+10","[]","0","1","","","9604","9","2","2","win","no-go","0"
"pit-trial","127","927725","0.0-13.0","battery-v0.2","","""event"",""trial"",""time""
""fullscreenenter"",""1"",""2321""
","
","
","""event"",""trial"",""time""
""fullscreenenter"",""1"",""2321""
","
","","","935.1999999999534","","","12","9604","4448","&#9752;","elianto","#f73b6a7A"," "," ","1","0","[1786.3999999999069]","1","1","","","9604","10","3","3","lose","go","0"
"pit-trial","128","931365","0.0-14.0","battery-v0.2","","""event"",""trial"",""time""
""fullscreenenter"",""1"",""2321""
","
","
","""event"",""trial"",""time""
""fullscreenenter"",""1"",""2321""
","
","","","775.8000000000466","","","12","9604","4448","&#9730;","elianto","#3366ff99"," "," ","1","0","[1628.5]","1","1","","","9604","11","1","1","win","go","1"
"pit-trial","129","935219","0.0-15.0","battery-v0.2","","""event"",""trial"",""time""
""fullscreenenter"",""1"",""2321""
","
","
","""event"",""trial"",""time""
""fullscreenenter"",""1"",""2321""
","
","","","995.1000000000931","","","12","9604","4448","&#9728;","elianto","#f73b6a7A","-1"," ","0","-10","[1847.5999999998603]","1","1","","","9604","12","0","4","lose","no-go","0"
"pit-trial","130","938853","0.0-16.0","battery-v0.2","","""event"",""trial"",""time""
""fullscreenenter"",""1"",""2321""
","
","
","""event"",""trial"",""time""
""fullscreenenter"",""1"",""2321""
","
","","","775.8000000000466","","","12","9604","4448","&#9730;","elianto","#3366ff99"," "," ","1","+10","[1628.3999999999069]","1","1","","","9604","13","1","1","win","go","0"
"pit-trial","131","943718","0.0-17.0","battery-v0.2","","""event"",""trial"",""time""
""fullscreenenter"",""1"",""2321""
","
","
","""event"",""trial"",""time""
""fullscreenenter"",""1"",""2321""
","
","","","-1","","","12","9604","4448","&#9733;","elianto","#3366ff99","-1","-1","1","0","[]","0","1","","","9604","14","2","2","win","no-go","1"
"pit-trial","132","947439","0.0-18.0","battery-v0.2","","""event"",""trial"",""time""
""fullscreenenter"",""1"",""2321""
","
","
","""event"",""trial"",""time""
""fullscreenenter"",""1"",""2321""
","
","","","860.4000000001397","","","12","9604","4448","&#9752;","elianto","#f73b6a7A"," "," ","1","-10","[1712.6000000000931]","1","1","","","9604","15","3","3","lose","go","1"
"pit-trial","133","952308","0.0-19.0","battery-v0.2","","""event"",""trial"",""time""
""fullscreenenter"",""1"",""2321""
","
","
","""event"",""trial"",""time""
""fullscreenenter"",""1"",""2321""
","
","","","-1","","","12","9604","4448","&#9728;","elianto","#f73b6a7A","-1","-1","1","-10","[]","0","1","","","9604","16","0","4","lose","no-go","1"
"pit-trial","134","955798","0.0-20.0","battery-v0.2","","""event"",""trial"",""time""
""fullscreenenter"",""1"",""2321""
","
","
","""event"",""trial"",""time""
""fullscreenenter"",""1"",""2321""
","
","","","631.1999999999534","","","12","9604","4448","&#9730;","elianto","#3366ff99"," "," ","1","+10","[1482.1999999999534]","1","1","","","9604","17","1","1","win","go","0"
"pit-trial","135","960662","0.0-21.0","battery-v0.2","","""event"",""trial"",""time""
""fullscreenenter"",""1"",""2321""
","
","
","""event"",""trial"",""time""
""fullscreenenter"",""1"",""2321""
","
","","","-1","","","12","9604","4448","&#9733;","elianto","#3366ff99","-1","-1","1","0","[]","0","1","","","9604","18","2","2","win","no-go","1"
"pit-trial","136","964413","0.0-22.0","battery-v0.2","","""event"",""trial"",""time""
""fullscreenenter"",""1"",""2321""
","
","
","""event"",""trial"",""time""
""fullscreenenter"",""1"",""2321""
","
","","","895","","","12","9604","4448","&#9752;","elianto","#f73b6a7A"," "," ","1","0","[1746.3000000000466]","1","1","","","9604","19","3","3","lose","go","0"
"pit-trial","137","969142","0.0-23.0","battery-v0.2","","""event"",""trial"",""time""
""fullscreenenter"",""1"",""2321""
","
","
","""event"",""trial"",""time""
""fullscreenenter"",""1"",""2321""
","
","","","1869.1999999999534","","","12","9604","4448","&#9728;","elianto","#f73b6a7A","-1"," ","0","-10","[2720.5999999998603]","1","1","","","9604","20","0","4","lose","no-go","0"
"pit-instructions","138","982190","0.0-24.0","battery-v0.2","","""event"",""trial"",""time""
""fullscreenenter"",""1"",""2321""
","
","
","""event"",""trial"",""time""
""fullscreenenter"",""1"",""2321""
","
","","[{""page_index"":0,""viewing_time"":5733},{""page_index"":1,""viewing_time"":7313.09999999986}]","13046.300000000047","","","","","","","","","","","","","","","","","","","","","","","",""
"pit-trial","139","986203","0.0-25.0","battery-v0.2","","""event"",""trial"",""time""
""fullscreenenter"",""1"",""2321""
","
","
","""event"",""trial"",""time""
""fullscreenenter"",""1"",""2321""
","
","","","1157.1999999999534","","","12","9604","4448","n","elianto","#f73b6a7A","-1"," ","0","-10","[2009.3999999999069]","1","2","","","9604","21","0","4","lose","no-go","0"
"pit-trial","140","990286","0.0-26.0","battery-v0.2","","""event"",""trial"",""time""
""fullscreenenter"",""1"",""2321""
","
","
","""event"",""trial"",""time""
""fullscreenenter"",""1"",""2321""
","
","","","1218.8000000000466","","","12","9604","4448","t","elianto","#f73b6a7A","-1"," ","0","-10","[2069.8000000000466]","1","2","","","9604","22","2","4","lose","no-go","0"
"pit-trial","141","994013","0.0-27.0","battery-v0.2","","""event"",""trial"",""time""
""fullscreenenter"",""1"",""2321""
","
","
","""event"",""trial"",""time""
""fullscreenenter"",""1"",""2321""
","
","","","871","","","12","9604","4448","f","elianto","#3366ff99"," "," ","1","0","[1722.4000000001397]","1","2","","","9604","23","1","1","win","go","1"
"pit-trial","142","997791","0.0-28.0","battery-v0.2","","""event"",""trial"",""time""
""fullscreenenter"",""1"",""2321""
","
","
","""event"",""trial"",""time""
""fullscreenenter"",""1"",""2321""
","
","","","910.6000000000931","","","12","9604","4448","b","elianto","#f73b6a7A"," "," ","1","-10","[1764]","1","2","","","9604","24","3","3","lose","go","1"
"pit-trial","143","1002656","0.0-29.0","battery-v0.2","","""event"",""trial"",""time""
""fullscreenenter"",""1"",""2321""
","
","
","""event"",""trial"",""time""
""fullscreenenter"",""1"",""2321""
","
","","","-1","","","12","9604","4448","t","elianto","#f73b6a7A","-1","-1","1","0","[]","0","2","","","9604","25","2","4","lose","no-go","0"
"pit-trial","144","1007527","0.0-30.0","battery-v0.2","","""event"",""trial"",""time""
""fullscreenenter"",""1"",""2321""
","
","
","""event"",""trial"",""time""
""fullscreenenter"",""1"",""2321""
","
","","","-1","","","12","9604","4448","f","elianto","#3366ff99"," ","-1","0","0","[]","0","2","","","9604","26","1","1","win","go","0"
"pit-trial","145","1012392","0.0-31.0","battery-v0.2","","""event"",""trial"",""time""
""fullscreenenter"",""1"",""2321""
","
","
","""event"",""trial"",""time""
""fullscreenenter"",""1"",""2321""
","
","","","-1","","","12","9604","4448","b","elianto","#f73b6a7A"," ","-1","0","-10","[]","0","2","","","9604","27","3","3","lose","go","0"
"pit-trial","146","1017262","0.0-32.0","battery-v0.2","","""event"",""trial"",""time""
""fullscreenenter"",""1"",""2321""
","
","
","""event"",""trial"",""time""
""fullscreenenter"",""1"",""2321""
","
","","","-1","","","12","9604","4448","n","elianto","#f73b6a7A","-1","-1","1","0","[]","0","2","","","9604","28","0","4","lose","no-go","0"
"pit-trial","147","1022127","0.0-33.0","battery-v0.2","","""event"",""trial"",""time""
""fullscreenenter"",""1"",""2321""
","
","
","""event"",""trial"",""time""
""fullscreenenter"",""1"",""2321""
","
","","","-1","","","12","9604","4448","n","elianto","#f73b6a7A","-1","-1","1","0","[]","0","2","","","9604","29","0","4","lose","no-go","0"
"pit-trial","148","1026910","0.0-34.0","battery-v0.2","","""event"",""trial"",""time""
""fullscreenenter"",""1"",""2321""
","
","
","""event"",""trial"",""time""
""fullscreenenter"",""1"",""2321""
","
","","","1923.6999999999534","","","12","9604","4448","b","elianto","#f73b6a7A"," "," ","1","0","[2777.5]","1","2","","","9604","30","3","3","lose","go","0"
"pit-trial","149","1031775","0.0-35.0","battery-v0.2","","""event"",""trial"",""time""
""fullscreenenter"",""1"",""2321""
","
","
","""event"",""trial"",""time""
""fullscreenenter"",""1"",""2321""
","
","","","-1","","","12","9604","4448","t","elianto","#f73b6a7A","-1","-1","1","0","[]","0","2","","","9604","31","2","4","lose","no-go","0"
"pit-trial","150","1036636","0.0-36.0","battery-v0.2","","""event"",""trial"",""time""
""fullscreenenter"",""1"",""2321""
","
","
","""event"",""trial"",""time""
""fullscreenenter"",""1"",""2321""
","
","","","-1","","","12","9604","4448","f","elianto","#3366ff99"," ","-1","0","0","[2872.5]","1","2","","","9604","32","1","1","win","go","0"
"pit-trial","151","1040256","0.0-37.0","battery-v0.2","","""event"",""trial"",""time""
""fullscreenenter"",""1"",""2321""
","
","
","""event"",""trial"",""time""
""fullscreenenter"",""1"",""2321""
","
","","","761.1999999999534","","","12","9604","4448","f","elianto","#3366ff99"," "," ","1","+10","[1611.6999999999534]","1","2","","","9604","33","1","1","win","go","0"
"pit-trial","152","1045126","0.0-38.0","battery-v0.2","","""event"",""trial"",""time""
""fullscreenenter"",""1"",""2321""
","
","
","""event"",""trial"",""time""
""fullscreenenter"",""1"",""2321""
","
","","","-1","","","12","9604","4448","t","elianto","#f73b6a7A","-1","-1","1","0","[]","0","2","","","9604","34","2","4","lose","no-go","0"
"pit-trial","153","1049990","0.0-39.0","battery-v0.2","","""event"",""trial"",""time""
""fullscreenenter"",""1"",""2321""
","
","
","""event"",""trial"",""time""
""fullscreenenter"",""1"",""2321""
","
","","","-1","","","12","9604","4448","n","elianto","#f73b6a7A","-1","-1","1","0","[]","0","2","","","9604","35","0","4","lose","no-go","0"
"pit-trial","154","1053950","0.0-40.0","battery-v0.2","","""event"",""trial"",""time""
""fullscreenenter"",""1"",""2321""
","
","
","""event"",""trial"",""time""
""fullscreenenter"",""1"",""2321""
","
","","","1099.2000000001863","","","12","9604","4448","b","elianto","#f73b6a7A"," "," ","1","0","[1949.5]","1","2","","","9604","36","3","3","lose","go","0"
"pit-trial","155","1058813","0.0-41.0","battery-v0.2","","""event"",""trial"",""time""
""fullscreenenter"",""1"",""2321""
","
","
","""event"",""trial"",""time""
""fullscreenenter"",""1"",""2321""
","
","","","-1","","","12","9604","4448","t","elianto","#f73b6a7A","-1","-1","1","0","[]","0","2","","","9604","37","2","4","lose","no-go","0"
"pit-trial","156","1062340","0.0-42.0","battery-v0.2","","""event"",""trial"",""time""
""fullscreenenter"",""1"",""2321""
","
","
","""event"",""trial"",""time""
""fullscreenenter"",""1"",""2321""
","
","","","666.5","","","12","9604","4448","b","elianto","#f73b6a7A"," "," ","1","0","[1518.8999999999069]","1","2","","","9604","38","3","3","lose","go","0"
"pit-trial","157","1067203","0.0-43.0","battery-v0.2","","""event"",""trial"",""time""
""fullscreenenter"",""1"",""2321""
","
","
","""event"",""trial"",""time""
""fullscreenenter"",""1"",""2321""
","
","","","-1","","","12","9604","4448","n","elianto","#f73b6a7A","-1","-1","1","-10","[]","0","2","","","9604","39","0","4","lose","no-go","1"
"pit-trial","158","1071088","0.0-44.0","battery-v0.2","","""event"",""trial"",""time""
""fullscreenenter"",""1"",""2321""
","
","
","""event"",""trial"",""time""
""fullscreenenter"",""1"",""2321""
","
","","","1014","","","12","9604","4448","f","elianto","#3366ff99"," "," ","1","+10","[1870.7000000001863]","1","2","","","9604","40","1","1","win","go","0"
"pit-trial","159","1075956","0.0-45.0","battery-v0.2","","""event"",""trial"",""time""
""fullscreenenter"",""1"",""2321""
","
","
","""event"",""trial"",""time""
""fullscreenenter"",""1"",""2321""
","
","","","-1","","","12","9604","4448","t","elianto","#f73b6a7A","-1","-1","1","-10","[]","0","2","","","9604","41","2","4","lose","no-go","1"
"pit-trial","160","1079782","0.0-46.0","battery-v0.2","","""event"",""trial"",""time""
""fullscreenenter"",""1"",""2321""
","
","
","""event"",""trial"",""time""
""fullscreenenter"",""1"",""2321""
","
","","","958.5","","","12","9604","4448","b","elianto","#f73b6a7A"," "," ","1","0","[1814.4000000003725]","1","2","","","9604","42","3","3","lose","go","0"
"pit-trial","161","1084647","0.0-47.0","battery-v0.2","","""event"",""trial"",""time""
""fullscreenenter"",""1"",""2321""
","
","
","""event"",""trial"",""time""
""fullscreenenter"",""1"",""2321""
","
","","","-1","","","12","9604","4448","n","elianto","#f73b6a7A","-1","-1","1","0","[]","0","2","","","9604","43","0","4","lose","no-go","0"
"pit-trial","162","1088676","0.0-48.0","battery-v0.2","","""event"",""trial"",""time""
""fullscreenenter"",""1"",""2321""
","
","
","""event"",""trial"",""time""
""fullscreenenter"",""1"",""2321""
","
","","","1171.1999999997206","","","12","9604","4448","f","elianto","#3366ff99"," "," ","1","+10","[2023.0999999996275]","1","2","","","9604","44","1","1","win","go","0"
"pit-trial","163","1093540","0.0-49.0","battery-v0.2","","""event"",""trial"",""time""
""fullscreenenter"",""1"",""2321""
","
","
","""event"",""trial"",""time""
""fullscreenenter"",""1"",""2321""
","
","","","-1","","","12","9604","4448","n","elianto","#f73b6a7A","-1","-1","1","-10","[]","0","2","","","9604","45","0","4","lose","no-go","1"
"pit-trial","164","1097151","0.0-50.0","battery-v0.2","","""event"",""trial"",""time""
""fullscreenenter"",""1"",""2321""
","
","
","""event"",""trial"",""time""
""fullscreenenter"",""1"",""2321""
","
","","","746.1999999997206","","","12","9604","4448","b","elianto","#f73b6a7A"," "," ","1","-10","[1601.7999999998137]","1","2","","","9604","46","3","3","lose","go","1"
"pit-trial","165","1102016","0.0-51.0","battery-v0.2","","""event"",""trial"",""time""
""fullscreenenter"",""1"",""2321""
","
","
","""event"",""trial"",""time""
""fullscreenenter"",""1"",""2321""
","
","","","-1","","","12","9604","4448","t","elianto","#f73b6a7A","-1","-1","1","0","[]","0","2","","","9604","47","2","4","lose","no-go","0"
"pit-trial","166","1106590","0.0-52.0","battery-v0.2","","""event"",""trial"",""time""
""fullscreenenter"",""1"",""2321""
","
","
","""event"",""trial"",""time""
""fullscreenenter"",""1"",""2321""
","
","","","1714","","","12","9604","4448","c","elianto","#3366ff99","-1"," ","0","0","[2565.4000000003725]","1","2","","","9604","48","4","2","win","no-go","0"
"pit-trial","167","1110352","0.0-53.0","battery-v0.2","","""event"",""trial"",""time""
""fullscreenenter"",""1"",""2321""
","
","
","""event"",""trial"",""time""
""fullscreenenter"",""1"",""2321""
","
","","","898","","","12","9604","4448","b","elianto","#f73b6a7A"," "," ","1","-10","[1748.5]","1","2","","","9604","49","3","3","lose","go","1"
"pit-trial","168","1114758","0.0-54.0","battery-v0.2","","""event"",""trial"",""time""
""fullscreenenter"",""1"",""2321""
","
","
","""event"",""trial"",""time""
""fullscreenenter"",""1"",""2321""
","
","","","1546","","","12","9604","4448","f","elianto","#3366ff99"," "," ","1","+10","[2397.100000000093]","1","2","","","9604","50","1","1","win","go","0"
"pit-trial","169","1119622","0.0-55.0","battery-v0.2","","""event"",""trial"",""time""
""fullscreenenter"",""1"",""2321""
","
","
","""event"",""trial"",""time""
""fullscreenenter"",""1"",""2321""
","
","","","-1","","","12","9604","4448","c","elianto","#3366ff99","-1","-1","1","+10","[]","0","2","","","9604","51","4","2","win","no-go","0"
"pit-trial","170","1124487","0.0-56.0","battery-v0.2","","""event"",""trial"",""time""
""fullscreenenter"",""1"",""2321""
","
","
","""event"",""trial"",""time""
""fullscreenenter"",""1"",""2321""
","
","","","-1","","","12","9604","4448","n","elianto","#f73b6a7A","-1","-1","1","0","[]","0","2","","","9604","52","0","4","lose","no-go","0"
"pit-trial","171","1128388","0.0-57.0","battery-v0.2","","""event"",""trial"",""time""
""fullscreenenter"",""1"",""2321""
","
","
","""event"",""trial"",""time""
""fullscreenenter"",""1"",""2321""
","
","","","1045.1000000000931","","","12","9604","4448","f","elianto","#3366ff99"," "," ","1","+10","[1897.5]","1","2","","","9604","53","1","1","win","go","0"
"pit-trial","172","1133252","0.0-58.0","battery-v0.2","","""event"",""trial"",""time""
""fullscreenenter"",""1"",""2321""
","
","
","""event"",""trial"",""time""
""fullscreenenter"",""1"",""2321""
","
","","","-1","","","12","9604","4448","t","elianto","#f73b6a7A","-1","-1","1","0","[]","0","2","","","9604","54","2","4","lose","no-go","0"
"pit-trial","173","1138117","0.0-59.0","battery-v0.2","","""event"",""trial"",""time""
""fullscreenenter"",""1"",""2321""
","
","
","""event"",""trial"",""time""
""fullscreenenter"",""1"",""2321""
","
","","","-1","","","12","9604","4448","n","elianto","#f73b6a7A","-1","-1","1","0","[]","0","2","","","9604","55","0","4","lose","no-go","0"
"pit-trial","174","1142982","0.0-60.0","battery-v0.2","","""event"",""trial"",""time""
""fullscreenenter"",""1"",""2321""
","
","
","""event"",""trial"",""time""
""fullscreenenter"",""1"",""2321""
","
","","","-1","","","12","9604","4448","c","elianto","#3366ff99","-1","-1","1","+10","[]","0","2","","","9604","56","4","2","win","no-go","0"
"pit-trial","175","1146884","0.0-61.0","battery-v0.2","","""event"",""trial"",""time""
""fullscreenenter"",""1"",""2321""
","
","
","""event"",""trial"",""time""
""fullscreenenter"",""1"",""2321""
","
","","","1046.6000000000931","","","12","9604","4448","b","elianto","#f73b6a7A"," "," ","1","0","[1899]","1","2","","","9604","57","3","3","lose","go","0"
"pit-trial","176","1151120","0.0-62.0","battery-v0.2","","""event"",""trial"",""time""
""fullscreenenter"",""1"",""2321""
","
","
","""event"",""trial"",""time""
""fullscreenenter"",""1"",""2321""
","
","","","1374.8000000002794","","","12","9604","4448","f","elianto","#3366ff99"," "," ","1","0","[2226.100000000093]","1","2","","","9604","58","1","1","win","go","1"
"pit-trial","177","1155991","0.0-63.0","battery-v0.2","","""event"",""trial"",""time""
""fullscreenenter"",""1"",""2321""
","
","
","""event"",""trial"",""time""
""fullscreenenter"",""1"",""2321""
","
","","","-1","","","12","9604","4448","n","elianto","#f73b6a7A","-1","-1","1","0","[]","0","2","","","9604","59","0","4","lose","no-go","0"
"pit-trial","178","1160855","0.0-64.0","battery-v0.2","","""event"",""trial"",""time""
""fullscreenenter"",""1"",""2321""
","
","
","""event"",""trial"",""time""
""fullscreenenter"",""1"",""2321""
","
","","","-1","","","12","9604","4448","c","elianto","#3366ff99","-1","-1","1","+10","[]","0","2","","","9604","60","4","2","win","no-go","0"
"pit-trial","179","1165720","0.0-65.0","battery-v0.2","","""event"",""trial"",""time""
""fullscreenenter"",""1"",""2321""
","
","
","""event"",""trial"",""time""
""fullscreenenter"",""1"",""2321""
","
","","","-1","","","12","9604","4448","t","elianto","#f73b6a7A","-1","-1","1","-10","[]","0","2","","","9604","61","2","4","lose","no-go","1"
"pit-trial","180","1169749","0.0-66.0","battery-v0.2","","""event"",""trial"",""time""
""fullscreenenter"",""1"",""2321""
","
","
","""event"",""trial"",""time""
""fullscreenenter"",""1"",""2321""
","
","","","1163.8999999999069","","","12","9604","4448","b","elianto","#f73b6a7A"," "," ","1","0","[2021.1000000000931]","1","2","","","9604","62","3","3","lose","go","0"
"pit-trial","181","1174613","0.0-67.0","battery-v0.2","","""event"",""trial"",""time""
""fullscreenenter"",""1"",""2321""
","
","
","""event"",""trial"",""time""
""fullscreenenter"",""1"",""2321""
","
","","","-1","","","12","9604","4448","c","elianto","#3366ff99","-1","-1","1","+10","[]","0","2","","","9604","63","4","2","win","no-go","0"
"pit-trial","182","1178741","0.0-68.0","battery-v0.2","","""event"",""trial"",""time""
""fullscreenenter"",""1"",""2321""
","
","
","""event"",""trial"",""time""
""fullscreenenter"",""1"",""2321""
","
","","","1266.4000000003725","","","12","9604","4448","f","elianto","#3366ff99"," "," ","1","+10","[2117.4000000003725]","1","2","","","9604","64","1","1","win","go","0"
"pit-trial","183","1183118","0.0-69.0","battery-v0.2","","""event"",""trial"",""time""
""fullscreenenter"",""1"",""2321""
","
","
","""event"",""trial"",""time""
""fullscreenenter"",""1"",""2321""
","
","","","1510.6000000000931","","","12","9604","4448","b","elianto","#f73b6a7A"," "," ","1","-10","[2366.8000000002794]","1","2","","","9604","65","3","3","lose","go","1"
"pit-trial","184","1186908","0.0-70.0","battery-v0.2","","""event"",""trial"",""time""
""fullscreenenter"",""1"",""2321""
","
","
","""event"",""trial"",""time""
""fullscreenenter"",""1"",""2321""
","
","","","927","","","12","9604","4448","f","elianto","#3366ff99"," "," ","1","+10","[1780.6000000000931]","1","2","","","9604","66","1","1","win","go","0"
"pit-trial","185","1191773","0.0-71.0","battery-v0.2","","""event"",""trial"",""time""
""fullscreenenter"",""1"",""2321""
","
","
","""event"",""trial"",""time""
""fullscreenenter"",""1"",""2321""
","
","","","-1","","","12","9604","4448","t","elianto","#f73b6a7A","-1","-1","1","0","[]","0","2","","","9604","67","2","4","lose","no-go","0"
"pit-trial","186","1196637","0.0-72.0","battery-v0.2","","""event"",""trial"",""time""
""fullscreenenter"",""1"",""2321""
","
","
","""event"",""trial"",""time""
""fullscreenenter"",""1"",""2321""
","
","","","-1","","","12","9604","4448","c","elianto","#3366ff99","-1","-1","1","+10","[]","0","2","","","9604","68","4","2","win","no-go","0"
"pit-trial","187","1200789","0.0-73.0","battery-v0.2","","""event"",""trial"",""time""
""fullscreenenter"",""1"",""2321""
","
","
","""event"",""trial"",""time""
""fullscreenenter"",""1"",""2321""
","
","","","1294.0999999996275","","","12","9604","4448","f","elianto","#3366ff99"," "," ","1","+10","[2145.0999999996275]","1","2","","","9604","69","1","1","win","go","0"
"pit-trial","188","1204892","0.0-74.0","battery-v0.2","","""event"",""trial"",""time""
""fullscreenenter"",""1"",""2321""
","
","
","""event"",""trial"",""time""
""fullscreenenter"",""1"",""2321""
","
","","","1249","","","12","9604","4448","z","elianto","#3366ff99"," "," ","1","+10","[2099]","1","2","","","9604","70","5","1","win","go","0"
"pit-trial","189","1209256","0.0-75.0","battery-v0.2","","""event"",""trial"",""time""
""fullscreenenter"",""1"",""2321""
","
","
","""event"",""trial"",""time""
""fullscreenenter"",""1"",""2321""
","
","","","1494.1999999997206","","","12","9604","4448","b","elianto","#f73b6a7A"," "," ","1","0","[2350]","1","2","","","9604","71","3","3","lose","go","0"
"pit-trial","190","1214117","0.0-76.0","battery-v0.2","","""event"",""trial"",""time""
""fullscreenenter"",""1"",""2321""
","
","
","""event"",""trial"",""time""
""fullscreenenter"",""1"",""2321""
","
","","","-1","","","12","9604","4448","c","elianto","#3366ff99","-1","-1","1","+10","[]","0","2","","","9604","72","4","2","win","no-go","0"
"pit-trial","191","1217709","0.0-77.0","battery-v0.2","","""event"",""trial"",""time""
""fullscreenenter"",""1"",""2321""
","
","
","""event"",""trial"",""time""
""fullscreenenter"",""1"",""2321""
","
","","","729.1999999997206","","","12","9604","4448","z","elianto","#3366ff99"," "," ","1","+10","[1585.8999999999069]","1","2","","","9604","73","5","1","win","go","0"
"pit-trial","192","1221390","0.0-78.0","battery-v0.2","","""event"",""trial"",""time""
""fullscreenenter"",""1"",""2321""
","
","
","""event"",""trial"",""time""
""fullscreenenter"",""1"",""2321""
","
","","","822","","","12","9604","4448","f","elianto","#3366ff99"," "," ","1","+10","[1673.2000000001863]","1","2","","","9604","74","1","1","win","go","0"
"pit-trial","193","1225105","0.0-79.0","battery-v0.2","","""event"",""trial"",""time""
""fullscreenenter"",""1"",""2321""
","
","
","""event"",""trial"",""time""
""fullscreenenter"",""1"",""2321""
","
","","","851.7999999998137","","","12","9604","4448","b","elianto","#f73b6a7A"," "," ","1","0","[1704.3999999999069]","1","2","","","9604","75","3","3","lose","go","0"
"pit-trial","194","1229974","0.0-80.0","battery-v0.2","","""event"",""trial"",""time""
""fullscreenenter"",""1"",""2321""
","
","
","""event"",""trial"",""time""
""fullscreenenter"",""1"",""2321""
","
","","","-1","","","12","9604","4448","c","elianto","#3366ff99","-1","-1","1","+10","[]","0","2","","","9604","76","4","2","win","no-go","0"
"pit-trial","195","1234839","0.0-81.0","battery-v0.2","","""event"",""trial"",""time""
""fullscreenenter"",""1"",""2321""
","
","
","""event"",""trial"",""time""
""fullscreenenter"",""1"",""2321""
","
","","","-1","","","12","9604","4448","c","elianto","#3366ff99","-1","-1","1","+10","[]","0","2","","","9604","77","4","2","win","no-go","0"
"pit-trial","196","1238805","0.0-82.0","battery-v0.2","","""event"",""trial"",""time""
""fullscreenenter"",""1"",""2321""
","
","
","""event"",""trial"",""time""
""fullscreenenter"",""1"",""2321""
","
","","","1106.4000000003725","","","12","9604","4448","b","elianto","#f73b6a7A"," "," ","1","0","[1958.9000000003725]","1","2","","","9604","78","3","3","lose","go","0"
"pit-trial","197","1242526","0.0-83.0","battery-v0.2","","""event"",""trial"",""time""
""fullscreenenter"",""1"",""2321""
","
","
","""event"",""trial"",""time""
""fullscreenenter"",""1"",""2321""
","
","","","861.3999999999069","","","12","9604","4448","z","elianto","#3366ff99"," "," ","1","+10","[1716.8000000002794]","1","2","","","9604","79","5","1","win","go","0"
"pit-trial","198","1246776","0.0-84.0","battery-v0.2","","""event"",""trial"",""time""
""fullscreenenter"",""1"",""2321""
","
","
","""event"",""trial"",""time""
""fullscreenenter"",""1"",""2321""
","
","","","1382.7999999998137","","","12","9604","4448","h","elianto","#f73b6a7A","-1"," ","0","-10","[2236.5]","1","2","","","9604","80","6","4","lose","no-go","0"
"pit-trial","199","1250433","0.0-85.0","battery-v0.2","","""event"",""trial"",""time""
""fullscreenenter"",""1"",""2321""
","
","
","""event"",""trial"",""time""
""fullscreenenter"",""1"",""2321""
","
","","","790.8999999999069","","","12","9604","4448","z","elianto","#3366ff99"," "," ","1","+10","[1643.3999999999069]","1","2","","","9604","81","5","1","win","go","0"
"pit-trial","200","1255300","0.0-86.0","battery-v0.2","","""event"",""trial"",""time""
""fullscreenenter"",""1"",""2321""
","
","
","""event"",""trial"",""time""
""fullscreenenter"",""1"",""2321""
","
","","","-1","","","12","9604","4448","h","elianto","#f73b6a7A","-1","-1","1","0","[]","0","2","","","9604","82","6","4","lose","no-go","0"
"pit-trial","201","1260168","0.0-87.0","battery-v0.2","","""event"",""trial"",""time""
""fullscreenenter"",""1"",""2321""
","
","
","""event"",""trial"",""time""
""fullscreenenter"",""1"",""2321""
","
","","","-1","","","12","9604","4448","c","elianto","#3366ff99","-1","-1","1","+10","[]","0","2","","","9604","83","4","2","win","no-go","0"
"pit-trial","202","1264098","0.0-88.0","battery-v0.2","","""event"",""trial"",""time""
""fullscreenenter"",""1"",""2321""
","
","
","""event"",""trial"",""time""
""fullscreenenter"",""1"",""2321""
","
","","","1068.8999999999069","","","12","9604","4448","y","elianto","#f73b6a7A"," "," ","1","-10","[1921.3999999999069]","1","2","","","9604","84","7","3","lose","go","1"
"pit-trial","203","1268968","0.0-89.0","battery-v0.2","","""event"",""trial"",""time""
""fullscreenenter"",""1"",""2321""
","
","
","""event"",""trial"",""time""
""fullscreenenter"",""1"",""2321""
","
","","","-1","","","12","9604","4448","c","elianto","#3366ff99","-1","-1","1","+10","[]","0","2","","","9604","85","4","2","win","no-go","0"
"pit-trial","204","1273833","0.0-90.0","battery-v0.2","","""event"",""trial"",""time""
""fullscreenenter"",""1"",""2321""
","
","
","""event"",""trial"",""time""
""fullscreenenter"",""1"",""2321""
","
","","","-1","","","12","9604","4448","y","elianto","#f73b6a7A"," ","-1","0","-10","[]","0","2","","","9604","86","7","3","lose","go","0"
"pit-trial","205","1278129","0.0-91.0","battery-v0.2","","""event"",""trial"",""time""
""fullscreenenter"",""1"",""2321""
","
","
","""event"",""trial"",""time""
""fullscreenenter"",""1"",""2321""
","
","","","1433.2999999998137","","","12","9604","4448","z","elianto","#3366ff99"," "," ","1","0","[2284.6999999997206]","1","2","","","9604","87","5","1","win","go","1"
"pit-trial","206","1282993","0.0-92.0","battery-v0.2","","""event"",""trial"",""time""
""fullscreenenter"",""1"",""2321""
","
","
","""event"",""trial"",""time""
""fullscreenenter"",""1"",""2321""
","
","","","-1","","","12","9604","4448","h","elianto","#f73b6a7A","-1","-1","1","0","[3524.5]","1","2","","","9604","88","6","4","lose","no-go","0"
"pit-trial","207","1287861","0.0-93.0","battery-v0.2","","""event"",""trial"",""time""
""fullscreenenter"",""1"",""2321""
","
","
","""event"",""trial"",""time""
""fullscreenenter"",""1"",""2321""
","
","","","-1","","","12","9604","4448","h","elianto","#f73b6a7A","-1","-1","1","0","[]","0","2","","","9604","89","6","4","lose","no-go","0"
"pit-trial","208","1291858","0.0-94.0","battery-v0.2","","""event"",""trial"",""time""
""fullscreenenter"",""1"",""2321""
","
","
","""event"",""trial"",""time""
""fullscreenenter"",""1"",""2321""
","
","","","1131","","","12","9604","4448","c","elianto","#3366ff99","-1"," ","0","0","[1982.5]","1","2","","","9604","90","4","2","win","no-go","0"
"pit-trial","209","1296728","0.0-95.0","battery-v0.2","","""event"",""trial"",""time""
""fullscreenenter"",""1"",""2321""
","
","
","""event"",""trial"",""time""
""fullscreenenter"",""1"",""2321""
","
","","","-1","","","12","9604","4448","y","elianto","#f73b6a7A"," ","-1","0","0","[]","0","2","","","9604","91","7","3","lose","go","1"
"pit-trial","210","1300751","0.0-96.0","battery-v0.2","","""event"",""trial"",""time""
""fullscreenenter"",""1"",""2321""
","
","
","""event"",""trial"",""time""
""fullscreenenter"",""1"",""2321""
","
","","","1160.3000000002794","","","12","9604","4448","z","elianto","#3366ff99"," "," ","1","+10","[2014.9000000003725]","1","2","","","9604","92","5","1","win","go","0"
"pit-trial","211","1305615","0.0-97.0","battery-v0.2","","""event"",""trial"",""time""
""fullscreenenter"",""1"",""2321""
","
","
","""event"",""trial"",""time""
""fullscreenenter"",""1"",""2321""
","
","","","-1","","","12","9604","4448","y","elianto","#f73b6a7A"," ","-1","0","-10","[]","0","2","","","9604","93","7","3","lose","go","0"
"pit-trial","212","1309830","0.0-98.0","battery-v0.2","","""event"",""trial"",""time""
""fullscreenenter"",""1"",""2321""
","
","
","""event"",""trial"",""time""
""fullscreenenter"",""1"",""2321""
","
","","","1354.1999999997206","","","12","9604","4448","r","elianto","#3366ff99","-1"," ","0","0","[2206.7999999998137]","1","2","","","9604","94","8","2","win","no-go","0"
"pit-trial","213","1314039","0.0-99.0","battery-v0.2","","""event"",""trial"",""time""
""fullscreenenter"",""1"",""2321""
","
","
","""event"",""trial"",""time""
""fullscreenenter"",""1"",""2321""
","
","","","1342.3999999999069","","","12","9604","4448","z","elianto","#3366ff99"," "," ","1","+10","[2199.7999999998137]","1","2","","","9604","95","5","1","win","go","0"
"pit-trial","214","1318903","0.0-100.0","battery-v0.2","","""event"",""trial"",""time""
""fullscreenenter"",""1"",""2321""
","
","
","""event"",""trial"",""time""
""fullscreenenter"",""1"",""2321""
","
","","","-1","","","12","9604","4448","h","elianto","#f73b6a7A","-1","-1","1","0","[]","0","2","","","9604","96","6","4","lose","no-go","0"
"pit-trial","215","1323768","0.0-101.0","battery-v0.2","","""event"",""trial"",""time""
""fullscreenenter"",""1"",""2321""
","
","
","""event"",""trial"",""time""
""fullscreenenter"",""1"",""2321""
","
","","","-1","","","12","9604","4448","r","elianto","#3366ff99","-1","-1","1","+10","[]","0","2","","","9604","97","8","2","win","no-go","0"
"pit-trial","216","1328632","0.0-102.0","battery-v0.2","","""event"",""trial"",""time""
""fullscreenenter"",""1"",""2321""
","
","
","""event"",""trial"",""time""
""fullscreenenter"",""1"",""2321""
","
","","","-1","","","12","9604","4448","h","elianto","#f73b6a7A","-1","-1","1","0","[]","0","2","","","9604","98","6","4","lose","no-go","0"
"pit-trial","217","1333497","0.0-103.0","battery-v0.2","","""event"",""trial"",""time""
""fullscreenenter"",""1"",""2321""
","
","
","""event"",""trial"",""time""
""fullscreenenter"",""1"",""2321""
","
","","","-1","","","12","9604","4448","y","elianto","#f73b6a7A"," ","-1","0","0","[]","0","2","","","9604","99","7","3","lose","go","1"
"pit-trial","218","1337352","0.0-104.0","battery-v0.2","","""event"",""trial"",""time""
""fullscreenenter"",""1"",""2321""
","
","
","""event"",""trial"",""time""
""fullscreenenter"",""1"",""2321""
","
","","","993.3999999999069","","","12","9604","4448","z","elianto","#3366ff99"," "," ","1","+10","[1844.3999999999069]","1","2","","","9604","100","5","1","win","go","0"
"pit-trial","219","1341502","0.0-105.0","battery-v0.2","","""event"",""trial"",""time""
""fullscreenenter"",""1"",""2321""
","
","
","""event"",""trial"",""time""
""fullscreenenter"",""1"",""2321""
","
","","","1287.7999999998137","","","12","9604","4448","m","elianto","#3366ff99","-1"," ","0","0","[2140.600000000093]","1","2","","","9604","101","9","2","win","no-go","0"
"pit-trial","220","1346367","0.0-106.0","battery-v0.2","","""event"",""trial"",""time""
""fullscreenenter"",""1"",""2321""
","
","
","""event"",""trial"",""time""
""fullscreenenter"",""1"",""2321""
","
","","","-1","","","12","9604","4448","h","elianto","#f73b6a7A","-1","-1","1","0","[]","0","2","","","9604","102","6","4","lose","no-go","0"
"pit-trial","221","1350999","0.0-107.0","battery-v0.2","","""event"",""trial"",""time""
""fullscreenenter"",""1"",""2321""
","
","
","""event"",""trial"",""time""
""fullscreenenter"",""1"",""2321""
","
","","","1770.2000000001863","","","12","9604","4448","z","elianto","#3366ff99"," "," ","1","+10","[2621]","1","2","","","9604","103","5","1","win","go","0"
"pit-trial","222","1355864","0.0-108.0","battery-v0.2","","""event"",""trial"",""time""
""fullscreenenter"",""1"",""2321""
","
","
","""event"",""trial"",""time""
""fullscreenenter"",""1"",""2321""
","
","","","-1","","","12","9604","4448","r","elianto","#3366ff99","-1","-1","1","+10","[]","0","2","","","9604","104","8","2","win","no-go","0"
"pit-trial","223","1360728","0.0-109.0","battery-v0.2","","""event"",""trial"",""time""
""fullscreenenter"",""1"",""2321""
","
","
","""event"",""trial"",""time""
""fullscreenenter"",""1"",""2321""
","
","","","-1","","","12","9604","4448","r","elianto","#3366ff99","-1","-1","1","+10","[]","0","2","","","9604","105","8","2","win","no-go","0"
"pit-trial","224","1364624","0.0-110.0","battery-v0.2","","""event"",""trial"",""time""
""fullscreenenter"",""1"",""2321""
","
","
","""event"",""trial"",""time""
""fullscreenenter"",""1"",""2321""
","
","","","1031.5","","","12","9604","4448","z","elianto","#3366ff99"," "," ","1","+10","[1884.0999999996275]","1","2","","","9604","106","5","1","win","go","0"
"pit-trial","225","1369488","0.0-111.0","battery-v0.2","","""event"",""trial"",""time""
""fullscreenenter"",""1"",""2321""
","
","
","""event"",""trial"",""time""
""fullscreenenter"",""1"",""2321""
","
","","","-1","","","12","9604","4448","h","elianto","#f73b6a7A","-1","-1","1","0","[]","0","2","","","9604","107","6","4","lose","no-go","0"
"pit-trial","226","1374354","0.0-112.0","battery-v0.2","","""event"",""trial"",""time""
""fullscreenenter"",""1"",""2321""
","
","
","""event"",""trial"",""time""
""fullscreenenter"",""1"",""2321""
","
","","","-1","","","12","9604","4448","m","elianto","#3366ff99","-1","-1","1","+10","[]","0","2","","","9604","108","9","2","win","no-go","0"
"pit-trial","227","1378805","0.0-113.0","battery-v0.2","","""event"",""trial"",""time""
""fullscreenenter"",""1"",""2321""
","
","
","""event"",""trial"",""time""
""fullscreenenter"",""1"",""2321""
","
","","","1590","","","12","9604","4448","z","elianto","#3366ff99"," "," ","1","+10","[2445.100000000093]","1","2","","","9604","109","5","1","win","go","0"
"pit-trial","228","1383670","0.0-114.0","battery-v0.2","","""event"",""trial"",""time""
""fullscreenenter"",""1"",""2321""
","
","
","""event"",""trial"",""time""
""fullscreenenter"",""1"",""2321""
","
","","","-1","","","12","9604","4448","r","elianto","#3366ff99","-1","-1","1","0","[]","0","2","","","9604","110","8","2","win","no-go","1"
"pit-trial","229","1388535","0.0-115.0","battery-v0.2","","""event"",""trial"",""time""
""fullscreenenter"",""1"",""2321""
","
","
","""event"",""trial"",""time""
""fullscreenenter"",""1"",""2321""
","
","","","-1","","","12","9604","4448","h","elianto","#f73b6a7A","-1","-1","1","-10","[]","0","2","","","9604","111","6","4","lose","no-go","1"
"pit-trial","230","1393398","0.0-116.0","battery-v0.2","","""event"",""trial"",""time""
""fullscreenenter"",""1"",""2321""
","
","
","""event"",""trial"",""time""
""fullscreenenter"",""1"",""2321""
","
","","","-1","","","12","9604","4448","m","elianto","#3366ff99","-1","-1","1","+10","[]","0","2","","","9604","112","9","2","win","no-go","0"
"pit-trial","231","1397638","0.0-117.0","battery-v0.2","","""event"",""trial"",""time""
""fullscreenenter"",""1"",""2321""
","
","
","""event"",""trial"",""time""
""fullscreenenter"",""1"",""2321""
","
","","","1380.2999999998137","","","12","9604","4448","y","elianto","#f73b6a7A"," "," ","1","0","[2234.7999999998137]","1","2","","","9604","113","7","3","lose","go","0"
"pit-trial","232","1402502","0.0-118.0","battery-v0.2","","""event"",""trial"",""time""
""fullscreenenter"",""1"",""2321""
","
","
","""event"",""trial"",""time""
""fullscreenenter"",""1"",""2321""
","
","","","-1","","","12","9604","4448","m","elianto","#3366ff99","-1","-1","1","0","[]","0","2","","","9604","114","9","2","win","no-go","1"
"pit-trial","233","1406214","0.0-119.0","battery-v0.2","","""event"",""trial"",""time""
""fullscreenenter"",""1"",""2321""
","
","
","""event"",""trial"",""time""
""fullscreenenter"",""1"",""2321""
","
","","","853.2999999998137","","","12","9604","4448","z","elianto","#3366ff99"," "," ","1","+10","[1703.6000000000931]","1","2","","","9604","115","5","1","win","go","0"
"pit-trial","234","1411080","0.0-120.0","battery-v0.2","","""event"",""trial"",""time""
""fullscreenenter"",""1"",""2321""
","
","
","""event"",""trial"",""time""
""fullscreenenter"",""1"",""2321""
","
","","","-1","","","12","9604","4448","r","elianto","#3366ff99","-1","-1","1","+10","[]","0","2","","","9604","116","8","2","win","no-go","0"
"pit-trial","235","1415946","0.0-121.0","battery-v0.2","","""event"",""trial"",""time""
""fullscreenenter"",""1"",""2321""
","
","
","""event"",""trial"",""time""
""fullscreenenter"",""1"",""2321""
","
","","","-1","","","12","9604","4448","r","elianto","#3366ff99","-1","-1","1","+10","[]","0","2","","","9604","117","8","2","win","no-go","0"
"pit-trial","236","1419574","0.0-122.0","battery-v0.2","","""event"",""trial"",""time""
""fullscreenenter"",""1"",""2321""
","
","
","""event"",""trial"",""time""
""fullscreenenter"",""1"",""2321""
","
","","","765.2999999998137","","","12","9604","4448","z","elianto","#3366ff99"," "," ","1","+10","[1625.3999999999069]","1","2","","","9604","118","5","1","win","go","0"
"pit-trial","237","1424439","0.0-123.0","battery-v0.2","","""event"",""trial"",""time""
""fullscreenenter"",""1"",""2321""
","
","
","""event"",""trial"",""time""
""fullscreenenter"",""1"",""2321""
","
","","","-1","","","12","9604","4448","h","elianto","#f73b6a7A","-1","-1","1","0","[]","0","2","","","9604","119","6","4","lose","no-go","0"
"pit-trial","238","1429303","0.0-124.0","battery-v0.2","","""event"",""trial"",""time""
""fullscreenenter"",""1"",""2321""
","
","
","""event"",""trial"",""time""
""fullscreenenter"",""1"",""2321""
","
","","","-1","","","12","9604","4448","m","elianto","#3366ff99","-1","-1","1","+10","[]","0","2","","","9604","120","9","2","win","no-go","0"
"pit-trial","239","1434168","0.0-125.0","battery-v0.2","","""event"",""trial"",""time""
""fullscreenenter"",""1"",""2321""
","
","
","""event"",""trial"",""time""
""fullscreenenter"",""1"",""2321""
","
","","","-1","","","12","9604","4448","y","elianto","#f73b6a7A"," ","-1","0","0","[]","0","2","","","9604","121","7","3","lose","go","1"
"pit-trial","240","1437906","0.0-126.0","battery-v0.2","","""event"",""trial"",""time""
""fullscreenenter"",""1"",""2321""
","
","
","""event"",""trial"",""time""
""fullscreenenter"",""1"",""2321""
","
","","","876.6999999997206","","","12","9604","4448","z","elianto","#3366ff99"," "," ","1","0","[1730.5999999996275]","1","2","","","9604","122","5","1","win","go","1"
"pit-trial","241","1442770","0.0-127.0","battery-v0.2","","""event"",""trial"",""time""
""fullscreenenter"",""1"",""2321""
","
","
","""event"",""trial"",""time""
""fullscreenenter"",""1"",""2321""
","
","","","-1","","","12","9604","4448","m","elianto","#3366ff99","-1","-1","1","+10","[]","0","2","","","9604","123","9","2","win","no-go","0"
"pit-trial","242","1447633","0.0-128.0","battery-v0.2","","""event"",""trial"",""time""
""fullscreenenter"",""1"",""2321""
","
","
","""event"",""trial"",""time""
""fullscreenenter"",""1"",""2321""
","
","","","-1","","","12","9604","4448","r","elianto","#3366ff99","-1","-1","1","+10","[]","0","2","","","9604","124","8","2","win","no-go","0"
"pit-trial","243","1451328","0.0-129.0","battery-v0.2","","""event"",""trial"",""time""
""fullscreenenter"",""1"",""2321""
","
","
","""event"",""trial"",""time""
""fullscreenenter"",""1"",""2321""
","
","","","837.2000000001863","","","12","9604","4448","y","elianto","#f73b6a7A"," "," ","1","-10","[1687.6000000000931]","1","2","","","9604","125","7","3","lose","go","1"
"pit-trial","244","1456192","0.0-130.0","battery-v0.2","","""event"",""trial"",""time""
""fullscreenenter"",""1"",""2321""
","
","
","""event"",""trial"",""time""
""fullscreenenter"",""1"",""2321""
","
","","","-1","","","12","9604","4448","h","elianto","#f73b6a7A","-1","-1","1","0","[]","0","2","","","9604","126","6","4","lose","no-go","0"
"pit-trial","245","1461057","0.0-131.0","battery-v0.2","","""event"",""trial"",""time""
""fullscreenenter"",""1"",""2321""
","
","
","""event"",""trial"",""time""
""fullscreenenter"",""1"",""2321""
","
","","","-1","","","12","9604","4448","m","elianto","#3366ff99","-1","-1","1","+10","[]","0","2","","","9604","127","9","2","win","no-go","0"
"pit-trial","246","1465921","0.0-132.0","battery-v0.2","","""event"",""trial"",""time""
""fullscreenenter"",""1"",""2321""
","
","
","""event"",""trial"",""time""
""fullscreenenter"",""1"",""2321""
","
","","","-1","","","12","9604","4448","r","elianto","#3366ff99","-1","-1","1","+10","[]","0","2","","","9604","128","8","2","win","no-go","0"
"pit-trial","247","1470786","0.0-133.0","battery-v0.2","","""event"",""trial"",""time""
""fullscreenenter"",""1"",""2321""
","
","
","""event"",""trial"",""time""
""fullscreenenter"",""1"",""2321""
","
","","","-1","","","12","9604","4448","h","elianto","#f73b6a7A","-1","-1","1","0","[]","0","2","","","9604","129","6","4","lose","no-go","0"
"pit-trial","248","1475651","0.0-134.0","battery-v0.2","","""event"",""trial"",""time""
""fullscreenenter"",""1"",""2321""
","
","
","""event"",""trial"",""time""
""fullscreenenter"",""1"",""2321""
","
","","","-1","","","12","9604","4448","r","elianto","#3366ff99","-1","-1","1","+10","[]","0","2","","","9604","130","8","2","win","no-go","0"
"pit-trial","249","1480521","0.0-135.0","battery-v0.2","","""event"",""trial"",""time""
""fullscreenenter"",""1"",""2321""
","
","
","""event"",""trial"",""time""
""fullscreenenter"",""1"",""2321""
","
","","","-1","","","12","9604","4448","m","elianto","#3366ff99","-1","-1","1","+10","[]","0","2","","","9604","131","9","2","win","no-go","0"
"pit-trial","250","1485386","0.0-136.0","battery-v0.2","","""event"",""trial"",""time""
""fullscreenenter"",""1"",""2321""
","
","
","""event"",""trial"",""time""
""fullscreenenter"",""1"",""2321""
","
","","","-1","","","12","9604","4448","y","elianto","#f73b6a7A"," ","-1","0","0","[]","0","2","","","9604","132","7","3","lose","go","1"
"pit-trial","251","1490250","0.0-137.0","battery-v0.2","","""event"",""trial"",""time""
""fullscreenenter"",""1"",""2321""
","
","
","""event"",""trial"",""time""
""fullscreenenter"",""1"",""2321""
","
","","","-1","","","12","9604","4448","y","elianto","#f73b6a7A"," ","-1","0","-10","[]","0","2","","","9604","133","7","3","lose","go","0"
"pit-trial","252","1495115","0.0-138.0","battery-v0.2","","""event"",""trial"",""time""
""fullscreenenter"",""1"",""2321""
","
","
","""event"",""trial"",""time""
""fullscreenenter"",""1"",""2321""
","
","","","-1","","","12","9604","4448","r","elianto","#3366ff99","-1","-1","1","+10","[]","0","2","","","9604","134","8","2","win","no-go","0"
"pit-trial","253","1499984","0.0-139.0","battery-v0.2","","""event"",""trial"",""time""
""fullscreenenter"",""1"",""2321""
","
","
","""event"",""trial"",""time""
""fullscreenenter"",""1"",""2321""
","
","","","-1","","","12","9604","4448","m","elianto","#3366ff99","-1","-1","1","+10","[]","0","2","","","9604","135","9","2","win","no-go","0"
"pit-trial","254","1504851","0.0-140.0","battery-v0.2","","""event"",""trial"",""time""
""fullscreenenter"",""1"",""2321""
","
","
","""event"",""trial"",""time""
""fullscreenenter"",""1"",""2321""
","
","","","-1","","","12","9604","4448","h","elianto","#f73b6a7A","-1","-1","1","0","[]","0","2","","","9604","136","6","4","lose","no-go","0"
"pit-trial","255","1509720","0.0-141.0","battery-v0.2","","""event"",""trial"",""time""
""fullscreenenter"",""1"",""2321""
","
","
","""event"",""trial"",""time""
""fullscreenenter"",""1"",""2321""
","
","","","-1","","","12","9604","4448","h","elianto","#f73b6a7A","-1","-1","1","0","[]","0","2","","","9604","137","6","4","lose","no-go","0"
"pit-trial","256","1514010","0.0-142.0","battery-v0.2","","""event"",""trial"",""time""
""fullscreenenter"",""1"",""2321""
","
","
","""event"",""trial"",""time""
""fullscreenenter"",""1"",""2321""
","
","","","1427.2999999998137","","","12","9604","4448","y","elianto","#f73b6a7A"," "," ","1","0","[2278.2000000001863]","1","2","","","9604","138","7","3","lose","go","0"
"pit-trial","257","1518875","0.0-143.0","battery-v0.2","","""event"",""trial"",""time""
""fullscreenenter"",""1"",""2321""
","
","
","""event"",""trial"",""time""
""fullscreenenter"",""1"",""2321""
","
","","","-1","","","12","9604","4448","m","elianto","#3366ff99","-1","-1","1","+10","[]","0","2","","","9604","139","9","2","win","no-go","0"
"pit-trial","258","1523745","0.0-144.0","battery-v0.2","","""event"",""trial"",""time""
""fullscreenenter"",""1"",""2321""
","
","
","""event"",""trial"",""time""
""fullscreenenter"",""1"",""2321""
","
","","","-1","","","12","9604","4448","r","elianto","#3366ff99","-1","-1","1","+10","[]","0","2","","","9604","140","8","2","win","no-go","0"
"pit-instructions","259","1545572","0.0-145.0","battery-v0.2","","""event"",""trial"",""time""
""fullscreenenter"",""1"",""2321""
","
","
","""event"",""trial"",""time""
""fullscreenenter"",""1"",""2321""
","
","","[{""page_index"":0,""viewing_time"":13433},{""page_index"":1,""viewing_time"":8392.700000000186}]","21825.899999999907","","","","","","","","","","","","","","","","","","","","","","","",""
"pit-trial","260","1550393","0.0-146.0","battery-v0.2","","""event"",""trial"",""time""
""fullscreenenter"",""1"",""2321""
","
","
","""event"",""trial"",""time""
""fullscreenenter"",""1"",""2321""
","
","","","1950.2999999998137","","","12","9604","4448","u","elianto","#f73b6a7A"," "," ","1","0","[2807.5]","1","3","","","9604","141","0","3","lose","go","0"
"pit-trial","261","1554530","0.0-147.0","battery-v0.2","","""event"",""trial"",""time""
""fullscreenenter"",""1"",""2321""
","
","
","""event"",""trial"",""time""
""fullscreenenter"",""1"",""2321""
","
","","","1274.7999999998137","","","12","9604","4448","a","elianto","#f73b6a7A"," "," ","1","0","[2128.7999999998137]","1","3","","","9604","142","2","3","lose","go","0"
"pit-trial","262","1558540","0.0-148.0","battery-v0.2","","""event"",""trial"",""time""
""fullscreenenter"",""1"",""2321""
","
","
","""event"",""trial"",""time""
""fullscreenenter"",""1"",""2321""
","
","","","1143.1000000000931","","","12","9604","4448","l","elianto","#3366ff99","-1"," ","0","0","[1997.1999999997206]","1","3","","","9604","143","1","2","win","no-go","0"
"pit-trial","263","1562440","0.0-149.0","battery-v0.2","","""event"",""trial"",""time""
""fullscreenenter"",""1"",""2321""
","
","
","""event"",""trial"",""time""
""fullscreenenter"",""1"",""2321""
","
","","","1030.8000000002794","","","12","9604","4448","g","elianto","#f73b6a7A","-1"," ","0","-10","[1891.3000000002794]","1","3","","","9604","144","3","4","lose","no-go","0"
"pit-trial","264","1567305","0.0-150.0","battery-v0.2","","""event"",""trial"",""time""
""fullscreenenter"",""1"",""2321""
","
","
","""event"",""trial"",""time""
""fullscreenenter"",""1"",""2321""
","
","","","-1","","","12","9604","4448","l","elianto","#3366ff99","-1","-1","1","+10","[]","0","3","","","9604","145","1","2","win","no-go","0"
"pit-trial","265","1571530","0.0-151.0","battery-v0.2","","""event"",""trial"",""time""
""fullscreenenter"",""1"",""2321""
","
","
","""event"",""trial"",""time""
""fullscreenenter"",""1"",""2321""
","
","","","1366.7000000001863","","","12","9604","4448","u","elianto","#f73b6a7A"," "," ","1","0","[2217.100000000093]","1","3","","","9604","146","0","3","lose","go","0"
"pit-trial","266","1575288","0.0-152.0","battery-v0.2","","""event"",""trial"",""time""
""fullscreenenter"",""1"",""2321""
","
","
","""event"",""trial"",""time""
""fullscreenenter"",""1"",""2321""
","
","","","897","","","12","9604","4448","a","elianto","#f73b6a7A"," "," ","1","0","[1748.6999999997206]","1","3","","","9604","147","2","3","lose","go","0"
"pit-trial","267","1580152","0.0-153.0","battery-v0.2","","""event"",""trial"",""time""
""fullscreenenter"",""1"",""2321""
","
","
","""event"",""trial"",""time""
""fullscreenenter"",""1"",""2321""
","
