"trial_type","trial_index","time_elapsed","internal_node_id","task_version","subject_id","interactions","blur_events","focus_events","fullscreenenter_events","fullscreenexit_events","success","view_history","rt","responses","num_errors","age","subject","participantId","rune","rune_set","hex","correct","choice","accuracy","outcome","keys","total_keys","block","practice","value","sub","trial","stimulus","robot","valence","action","sham"
"pavlovia","0","10","0.0-0.0","battery-v0.2","","""event"",""trial"",""time""
""focus"",""0"",""1""
""fullscreenenter"",""1"",""4565""
","
","""event"",""trial"",""time""
""focus"",""0"",""1""
","""event"",""trial"",""time""
""fullscreenenter"",""1"",""4565""
","
","","","","","","","","","","","","","","","","","","","","","","","","","","",""
"fullscreen","1","5342","0.0-1.0","battery-v0.2","","""event"",""trial"",""time""
""focus"",""0"",""1""
""fullscreenenter"",""1"",""4565""
","
","""event"",""trial"",""time""
""focus"",""0"",""1""
","""event"",""trial"",""time""
""fullscreenenter"",""1"",""4565""
","
","true","","","","","","","","","","","","","","","","","","","","","","","","","",""
"pit-instructions","2","9637","0.0-2.0-0.0","battery-v0.2","","""event"",""trial"",""time""
""focus"",""0"",""1""
""fullscreenenter"",""1"",""4565""
","
","""event"",""trial"",""time""
""focus"",""0"",""1""
","""event"",""trial"",""time""
""fullscreenenter"",""1"",""4565""
","
","","[{""page_index"":0,""viewing_time"":4291}]","4291","","","","","","","","","","","","","","","","","","","","","","","",""
"pit-comprehension","3","12788","0.0-2.0-1.0-0.0","battery-v0.2","","""event"",""trial"",""time""
""focus"",""0"",""1""
""fullscreenenter"",""1"",""4565""
","
","""event"",""trial"",""time""
""focus"",""0"",""1""
","""event"",""trial"",""time""
""fullscreenenter"",""1"",""4565""
","
","","","3147","[""shark""]","0","21","3755","2709","","","","","","","","","","","","","","","","","","",""
"pit-instructions","4","15991","0.0-2.0-1.0-1.0","battery-v0.2","","""event"",""trial"",""time""
""focus"",""0"",""1""
""fullscreenenter"",""1"",""4565""
","
","""event"",""trial"",""time""
""focus"",""0"",""1""
","""event"",""trial"",""time""
""fullscreenenter"",""1"",""4565""
","
","","[{""page_index"":0,""viewing_time"":3196}]","3196","","","","","","","","","","","","","","","","","","","","","","","",""
"pit-comprehension","5","18445","0.0-2.0-2.0-0.0","battery-v0.2","","""event"",""trial"",""time""
""focus"",""0"",""1""
""fullscreenenter"",""1"",""4565""
","
","""event"",""trial"",""time""
""focus"",""0"",""1""
","""event"",""trial"",""time""
""fullscreenenter"",""1"",""4565""
","
","","","2450","[""tiger""]","0","21","3755","2709","","","","","","","","","","","","","","","","","","",""
"pit-instructions","6","20401","0.0-2.0-2.0-1.0","battery-v0.2","","""event"",""trial"",""time""
""focus"",""0"",""1""
""fullscreenenter"",""1"",""4565""
","
","""event"",""trial"",""time""
""focus"",""0"",""1""
","""event"",""trial"",""time""
""fullscreenenter"",""1"",""4565""
","
","","[{""page_index"":0,""viewing_time"":1953}]","1954","","","","","","","","","","","","","","","","","","","","","","","",""
"pit-instructions","7","174165","0.0-2.0-3.0","battery-v0.2","","""event"",""trial"",""time""
""focus"",""0"",""1""
""fullscreenenter"",""1"",""4565""
","
","""event"",""trial"",""time""
""focus"",""0"",""1""
","""event"",""trial"",""time""
""fullscreenenter"",""1"",""4565""
","
","","[{""page_index"":0,""viewing_time"":23994},{""page_index"":1,""viewing_time"":9705},{""page_index"":2,""viewing_time"":8019},{""page_index"":3,""viewing_time"":5750},{""page_index"":4,""viewing_time"":6651},{""page_index"":5,""viewing_time"":7596},{""page_index"":6,""viewing_time"":6334},{""page_index"":7,""viewing_time"":10737},{""page_index"":8,""viewing_time"":6452},{""page_index"":9,""viewing_time"":17043},{""page_index"":10,""viewing_time"":9333},{""page_index"":11,""viewing_time"":30493},{""page_index"":12,""viewing_time"":6606},{""page_index"":13,""viewing_time"":5047}]","153760","","","","","","","","","","","","","","","","","","","","","","","",""
"pit-trial","8","177555","0.0-2.0-4.0-0.0","battery-v0.2","","""event"",""trial"",""time""
""focus"",""0"",""1""
""fullscreenenter"",""1"",""4565""
","
","""event"",""trial"",""time""
""focus"",""0"",""1""
","""event"",""trial"",""time""
""fullscreenenter"",""1"",""4565""
","
","","","521","","","21","3755","2709","&#9784;","elianto","#FFFFF080"," "," ","1","&#10004","[1371]","1","0","0","","","","","","","",""
"pit-trial","9","180933","0.0-2.0-4.1-0.1","battery-v0.2","","""event"",""trial"",""time""
""focus"",""0"",""1""
""fullscreenenter"",""1"",""4565""
","
","""event"",""trial"",""time""
""focus"",""0"",""1""
","""event"",""trial"",""time""
""fullscreenenter"",""1"",""4565""
","
","","","502","","","21","3755","2709","&#9784;","elianto","#FFFFF080"," "," ","1","&#10004","[1366]","1","0","0","","","","","","","",""
"pit-trial","10","184314","0.0-2.0-4.2-0.2","battery-v0.2","","""event"",""trial"",""time""
""focus"",""0"",""1""
""fullscreenenter"",""1"",""4565""
","
","""event"",""trial"",""time""
""focus"",""0"",""1""
","""event"",""trial"",""time""
""fullscreenenter"",""1"",""4565""
","
","","","513","","","21","3755","2709","&#9784;","elianto","#FFFFF080"," "," ","1","&#10004","[1378]","1","0","0","","","","","","","",""
"pit-trial","11","187735","0.0-2.0-4.3-0.3","battery-v0.2","","""event"",""trial"",""time""
""focus"",""0"",""1""
""fullscreenenter"",""1"",""4565""
","
","""event"",""trial"",""time""
""focus"",""0"",""1""
","""event"",""trial"",""time""
""fullscreenenter"",""1"",""4565""
","
","","","565","","","21","3755","2709","&#9784;","elianto","#FFFFF080"," "," ","1","&#10004","[1420]","1","0","0","","","","","","","",""
"pit-trial","12","191241","0.0-2.0-4.4-0.4","battery-v0.2","","""event"",""trial"",""time""
""focus"",""0"",""1""
""fullscreenenter"",""1"",""4565""
","
","""event"",""trial"",""time""
""focus"",""0"",""1""
","""event"",""trial"",""time""
""fullscreenenter"",""1"",""4565""
","
","","","629","","","21","3755","2709","&#9784;","elianto","#FFFFF080"," "," ","1","&#10004","[1493]","1","0","0","","","","","","","",""
"pit-instructions","13","237662","0.0-2.0-5.0","battery-v0.2","","""event"",""trial"",""time""
""focus"",""0"",""1""
""fullscreenenter"",""1"",""4565""
","
","""event"",""trial"",""time""
""focus"",""0"",""1""
","""event"",""trial"",""time""
""fullscreenenter"",""1"",""4565""
","
","","[{""page_index"":0,""viewing_time"":17308},{""page_index"":1,""viewing_time"":16379},{""page_index"":2,""viewing_time"":5019},{""page_index"":3,""viewing_time"":7713}]","46419","","","","","","","","","","","","","","","","","","","","","","","",""
"pit-trial","14","242519","0.0-2.0-6.0-0.0","battery-v0.2","","""event"",""trial"",""time""
""focus"",""0"",""1""
""fullscreenenter"",""1"",""4565""
","
","""event"",""trial"",""time""
""focus"",""0"",""1""
","""event"",""trial"",""time""
""fullscreenenter"",""1"",""4565""
","
","","","-1","","","21","3755","2709","&#9854;","elianto","#FFFFF080","-1","-1","1","&#10004","[]","0","0","1","","","","","","","",""
"pit-trial","15","247389","0.0-2.0-6.1-0.1","battery-v0.2","","""event"",""trial"",""time""
""focus"",""0"",""1""
""fullscreenenter"",""1"",""4565""
","
","""event"",""trial"",""time""
""focus"",""0"",""1""
","""event"",""trial"",""time""
""fullscreenenter"",""1"",""4565""
","
","","","-1","","","21","3755","2709","&#9854;","elianto","#FFFFF080","-1","-1","1","&#10004","[]","0","0","1","","","","","","","",""
"pit-trial","16","252251","0.0-2.0-6.2-0.2","battery-v0.2","","""event"",""trial"",""time""
""focus"",""0"",""1""
""fullscreenenter"",""1"",""4565""
","
","""event"",""trial"",""time""
""focus"",""0"",""1""
","""event"",""trial"",""time""
""fullscreenenter"",""1"",""4565""
","
","","","-1","","","21","3755","2709","&#9854;","elianto","#FFFFF080","-1","-1","1","&#10004","[]","0","0","1","","","","","","","",""
"pit-trial","17","257111","0.0-2.0-6.3-0.3","battery-v0.2","","""event"",""trial"",""time""
""focus"",""0"",""1""
""fullscreenenter"",""1"",""4565""
","
","""event"",""trial"",""time""
""focus"",""0"",""1""
","""event"",""trial"",""time""
""fullscreenenter"",""1"",""4565""
","
","","","-1","","","21","3755","2709","&#9854;","elianto","#FFFFF080","-1","-1","1","&#10004","[]","0","0","1","","","","","","","",""
"pit-trial","18","261977","0.0-2.0-6.4-0.4","battery-v0.2","","""event"",""trial"",""time""
""focus"",""0"",""1""
""fullscreenenter"",""1"",""4565""
","
","""event"",""trial"",""time""
""focus"",""0"",""1""
","""event"",""trial"",""time""
""fullscreenenter"",""1"",""4565""
","
","","","-1","","","21","3755","2709","&#9854;","elianto","#FFFFF080","-1","-1","1","&#10004","[]","0","0","1","","","","","","","",""
"pit-instructions","19","487572","0.0-2.0-7.0","battery-v0.2","","""event"",""trial"",""time""
""focus"",""0"",""1""
""fullscreenenter"",""1"",""4565""
","
","""event"",""trial"",""time""
""focus"",""0"",""1""
","""event"",""trial"",""time""
""fullscreenenter"",""1"",""4565""
","
","","[{""page_index"":0,""viewing_time"":8733},{""page_index"":1,""viewing_time"":7395},{""page_index"":2,""viewing_time"":8785},{""page_index"":3,""viewing_time"":31060},{""page_index"":4,""viewing_time"":22932},{""page_index"":5,""viewing_time"":8460},{""page_index"":6,""viewing_time"":6509},{""page_index"":7,""viewing_time"":9996},{""page_index"":8,""viewing_time"":6879},{""page_index"":9,""viewing_time"":9119},{""page_index"":10,""viewing_time"":18467},{""page_index"":11,""viewing_time"":11372},{""page_index"":12,""viewing_time"":38198},{""page_index"":13,""viewing_time"":6852},{""page_index"":14,""viewing_time"":6752},{""page_index"":15,""viewing_time"":7342},{""page_index"":16,""viewing_time"":7461},{""page_index"":17,""viewing_time"":9279}]","225591","","","","","","","","","","","","","","","","","","","","","","","",""
"pit-trial","20","491828","0.0-2.0-8.0-0.0","battery-v0.2","","""event"",""trial"",""time""
""focus"",""0"",""1""
""fullscreenenter"",""1"",""4565""
","
","""event"",""trial"",""time""
""focus"",""0"",""1""
","""event"",""trial"",""time""
""fullscreenenter"",""1"",""4565""
","
","","","1386","","","21","3755","2709","&#9776;","elianto","#3366ff99"," "," ","1","+10","[2239]","1","0","1","","","","","","","",""
"pit-trial","21","495574","0.0-2.0-8.0-1.0","battery-v0.2","","""event"",""trial"",""time""
""focus"",""0"",""1""
""fullscreenenter"",""1"",""4565""
","
","""event"",""trial"",""time""
""focus"",""0"",""1""
","""event"",""trial"",""time""
""fullscreenenter"",""1"",""4565""
","
","","","893","","","21","3755","2709","&#9776;","elianto","#3366ff99"," "," ","1","+10","[1742]","1","0","1","","","","","","","",""
"pit-trial","22","499368","0.0-2.0-8.0-2.0","battery-v0.2","","""event"",""trial"",""time""
""focus"",""0"",""1""
""fullscreenenter"",""1"",""4565""
","
","""event"",""trial"",""time""
""focus"",""0"",""1""
","""event"",""trial"",""time""
""fullscreenenter"",""1"",""4565""
","
","","","934","","","21","3755","2709","&#9776;","elianto","#3366ff99"," "," ","1","+10","[1789]","1","0","1","","","","","","","",""
"pit-trial","23","503027","0.0-2.0-8.0-3.0","battery-v0.2","","""event"",""trial"",""time""
""focus"",""0"",""1""
""fullscreenenter"",""1"",""4565""
","
","""event"",""trial"",""time""
""focus"",""0"",""1""
","""event"",""trial"",""time""
""fullscreenenter"",""1"",""4565""
","
","","","789","","","21","3755","2709","&#9776;","elianto","#3366ff99"," "," ","1","0","[1647]","1","0","1","","","","","","","",""
"pit-trial","24","506460","0.0-2.0-8.0-4.0","battery-v0.2","","""event"",""trial"",""time""
""focus"",""0"",""1""
""fullscreenenter"",""1"",""4565""
","
","""event"",""trial"",""time""
""focus"",""0"",""1""
","""event"",""trial"",""time""
""fullscreenenter"",""1"",""4565""
","
","","","568","","","21","3755","2709","&#9776;","elianto","#3366ff99"," "," ","1","+10","[1421]","1","0","1","","","","","","","",""
"pit-trial","25","509818","0.0-2.0-8.1-0.1","battery-v0.2","","""event"",""trial"",""time""
""focus"",""0"",""1""
""fullscreenenter"",""1"",""4565""
","
","""event"",""trial"",""time""
""focus"",""0"",""1""
","""event"",""trial"",""time""
""fullscreenenter"",""1"",""4565""
","
","","","489","","","21","3755","2709","&#9776;","elianto","#3366ff99"," "," ","1","+10","[1352]","1","0","1","","","","","","","",""
"pit-trial","26","513090","0.0-2.0-8.1-1.1","battery-v0.2","","""event"",""trial"",""time""
""focus"",""0"",""1""
""fullscreenenter"",""1"",""4565""
","
","""event"",""trial"",""time""
""focus"",""0"",""1""
","""event"",""trial"",""time""
""fullscreenenter"",""1"",""4565""
","
","","","404","","","21","3755","2709","&#9776;","elianto","#3366ff99"," "," ","1","+10","[1268]","1","0","1","","","","","","","",""
"pit-trial","27","517952","0.0-2.0-8.1-2.1","battery-v0.2","","""event"",""trial"",""time""
""focus"",""0"",""1""
""fullscreenenter"",""1"",""4565""
","
","""event"",""trial"",""time""
""focus"",""0"",""1""
","""event"",""trial"",""time""
""fullscreenenter"",""1"",""4565""
","
","","","-1","","","21","3755","2709","&#9776;","elianto","#3366ff99"," ","-1","0","0","[]","0","0","1","","","","","","","",""
"pit-trial","28","521212","0.0-2.0-8.1-3.1","battery-v0.2","","""event"",""trial"",""time""
""focus"",""0"",""1""
""fullscreenenter"",""1"",""4565""
","
","""event"",""trial"",""time""
""focus"",""0"",""1""
","""event"",""trial"",""time""
""fullscreenenter"",""1"",""4565""
","
","","","401","","","21","3755","2709","&#9776;","elianto","#3366ff99"," "," ","1","0","[1253]","1","0","1","","","","","","","",""
"pit-trial","29","524497","0.0-2.0-8.1-4.1","battery-v0.2","","""event"",""trial"",""time""
""focus"",""0"",""1""
""fullscreenenter"",""1"",""4565""
","
","""event"",""trial"",""time""
""focus"",""0"",""1""
","""event"",""trial"",""time""
""fullscreenenter"",""1"",""4565""
","
","","","408","","","21","3755","2709","&#9776;","elianto","#3366ff99"," "," ","1","+10","[1270]","1","0","1","","","","","","","",""
"pit-trial","30","528067","0.0-2.0-8.2-0.2","battery-v0.2","","""event"",""trial"",""time""
""focus"",""0"",""1""
""fullscreenenter"",""1"",""4565""
","
","""event"",""trial"",""time""
""focus"",""0"",""1""
","""event"",""trial"",""time""
""fullscreenenter"",""1"",""4565""
","
","","","698","","","21","3755","2709","&#9776;","elianto","#3366ff99"," "," ","1","+10","[1559]","1","0","1","","","","","","","",""
"pit-trial","31","532487","0.0-2.0-8.2-1.2","battery-v0.2","","""event"",""trial"",""time""
""focus"",""0"",""1""
""fullscreenenter"",""1"",""4565""
","
","""event"",""trial"",""time""
""focus"",""0"",""1""
","""event"",""trial"",""time""
""fullscreenenter"",""1"",""4565""
","
","","","1555","","","21","3755","2709","&#9776;","elianto","#3366ff99"," "," ","1","+10","[2406]","1","0","1","","","","","","","",""
"pit-trial","32","537355","0.0-2.0-8.2-2.2","battery-v0.2","","""event"",""trial"",""time""
""focus"",""0"",""1""
""fullscreenenter"",""1"",""4565""
","
","""event"",""trial"",""time""
""focus"",""0"",""1""
","""event"",""trial"",""time""
""fullscreenenter"",""1"",""4565""
","
","","","-1","","","21","3755","2709","&#9776;","elianto","#3366ff99"," ","-1","0","0","[3249]","1","0","1","","","","","","","",""
"pit-trial","33","540613","0.0-2.0-8.2-3.2","battery-v0.2","","""event"",""trial"",""time""
""focus"",""0"",""1""
""fullscreenenter"",""1"",""4565""
","
","""event"",""trial"",""time""
""focus"",""0"",""1""
","""event"",""trial"",""time""
""fullscreenenter"",""1"",""4565""
","
","","","390","","","21","3755","2709","&#9776;","elianto","#3366ff99"," "," ","1","0","[1251]","1","0","1","","","","","","","",""
"pit-trial","34","543780","0.0-2.0-8.2-4.2","battery-v0.2","","""event"",""trial"",""time""
""focus"",""0"",""1""
""fullscreenenter"",""1"",""4565""
","
","""event"",""trial"",""time""
""focus"",""0"",""1""
","""event"",""trial"",""time""
""fullscreenenter"",""1"",""4565""
","
","","","301","","","21","3755","2709","&#9776;","elianto","#3366ff99"," "," ","1","+10","[1163]","1","0","1","","","","","","","",""
"call-function","35","543781","0.0-2.0-9.0","battery-v0.2","","""event"",""trial"",""time""
""focus"",""0"",""1""
""fullscreenenter"",""1"",""4565""
","
","""event"",""trial"",""time""
""focus"",""0"",""1""
","""event"",""trial"",""time""
""fullscreenenter"",""1"",""4565""
","
","","","","","","","","","","","","","","","","","","","","","","","","","","",""
"pit-instructions","36","586570","0.0-2.0-10.0","battery-v0.2","","""event"",""trial"",""time""
""focus"",""0"",""1""
""fullscreenenter"",""1"",""4565""
","
","""event"",""trial"",""time""
""focus"",""0"",""1""
","""event"",""trial"",""time""
""fullscreenenter"",""1"",""4565""
","
","","[{""page_index"":0,""viewing_time"":5399},{""page_index"":1,""viewing_time"":6766},{""page_index"":2,""viewing_time"":9131},{""page_index"":3,""viewing_time"":13194},{""page_index"":4,""viewing_time"":8298}]","42788","","","","","","","","","","","","","","","","","","","","","","","",""
"pit-trial","37","590032","0.0-2.0-11.0-0.0","battery-v0.2","","""event"",""trial"",""time""
""focus"",""0"",""1""
""fullscreenenter"",""1"",""4565""
","
","""event"",""trial"",""time""
""focus"",""0"",""1""
","""event"",""trial"",""time""
""fullscreenenter"",""1"",""4565""
","
","","","588","","","21","3755","2709","&#9761;","elianto","#3366ff99","-1"," ","0","0","[1453]","1","0","2","","","","","","","",""
"pit-trial","38","593316","0.0-2.0-11.0-1.0","battery-v0.2","","""event"",""trial"",""time""
""focus"",""0"",""1""
""fullscreenenter"",""1"",""4565""
","
","""event"",""trial"",""time""
""focus"",""0"",""1""
","""event"",""trial"",""time""
""fullscreenenter"",""1"",""4565""
","
","","","414","","","21","3755","2709","&#9761;","elianto","#3366ff99","-1"," ","0","0","[1268]","1","0","2","","","","","","","",""
"pit-trial","39","596604","0.0-2.0-11.0-2.0","battery-v0.2","","""event"",""trial"",""time""
""focus"",""0"",""1""
""fullscreenenter"",""1"",""4565""
","
","""event"",""trial"",""time""
""focus"",""0"",""1""
","""event"",""trial"",""time""
""fullscreenenter"",""1"",""4565""
","
","","","431","","","21","3755","2709","&#9761;","elianto","#3366ff99","-1"," ","0","0","[1283]","1","0","2","","","","","","","",""
"pit-trial","40","601466","0.0-2.0-11.0-3.0","battery-v0.2","","""event"",""trial"",""time""
""focus"",""0"",""1""
""fullscreenenter"",""1"",""4565""
","
","""event"",""trial"",""time""
""focus"",""0"",""1""
","""event"",""trial"",""time""
""fullscreenenter"",""1"",""4565""
","
","","","-1","","","21","3755","2709","&#9761;","elianto","#3366ff99","-1","-1","1","0","[]","0","0","2","","","","","","","",""
"pit-trial","41","606326","0.0-2.0-11.0-4.0","battery-v0.2","","""event"",""trial"",""time""
""focus"",""0"",""1""
""fullscreenenter"",""1"",""4565""
","
","""event"",""trial"",""time""
""focus"",""0"",""1""
","""event"",""trial"",""time""
""fullscreenenter"",""1"",""4565""
","
","","","-1","","","21","3755","2709","&#9761;","elianto","#3366ff99","-1","-1","1","+10","[]","0","0","2","","","","","","","",""
"pit-trial","42","611188","0.0-2.0-11.1-0.1","battery-v0.2","","""event"",""trial"",""time""
""focus"",""0"",""1""
""fullscreenenter"",""1"",""4565""
","
","""event"",""trial"",""time""
""focus"",""0"",""1""
","""event"",""trial"",""time""
""fullscreenenter"",""1"",""4565""
","
","","","-1","","","21","3755","2709","&#9761;","elianto","#3366ff99","-1","-1","1","+10","[]","0","0","2","","","","","","","",""
"pit-trial","43","616050","0.0-2.0-11.1-1.1","battery-v0.2","","""event"",""trial"",""time""
""focus"",""0"",""1""
""fullscreenenter"",""1"",""4565""
","
","""event"",""trial"",""time""
""focus"",""0"",""1""
","""event"",""trial"",""time""
""fullscreenenter"",""1"",""4565""
","
","","","-1","","","21","3755","2709","&#9761;","elianto","#3366ff99","-1","-1","1","+10","[]","0","0","2","","","","","","","",""
"pit-trial","44","620917","0.0-2.0-11.1-2.1","battery-v0.2","","""event"",""trial"",""time""
""focus"",""0"",""1""
""fullscreenenter"",""1"",""4565""
","
","""event"",""trial"",""time""
""focus"",""0"",""1""
","""event"",""trial"",""time""
""fullscreenenter"",""1"",""4565""
","
","","","-1","","","21","3755","2709","&#9761;","elianto","#3366ff99","-1","-1","1","+10","[]","0","0","2","","","","","","","",""
"pit-trial","45","625779","0.0-2.0-11.1-3.1","battery-v0.2","","""event"",""trial"",""time""
""focus"",""0"",""1""
""fullscreenenter"",""1"",""4565""
","
","""event"",""trial"",""time""
""focus"",""0"",""1""
","""event"",""trial"",""time""
""fullscreenenter"",""1"",""4565""
","
","","","-1","","","21","3755","2709","&#9761;","elianto","#3366ff99","-1","-1","1","0","[]","0","0","2","","","","","","","",""
"pit-trial","46","630648","0.0-2.0-11.1-4.1","battery-v0.2","","""event"",""trial"",""time""
""focus"",""0"",""1""
""fullscreenenter"",""1"",""4565""
","
","""event"",""trial"",""time""
""focus"",""0"",""1""
","""event"",""trial"",""time""
""fullscreenenter"",""1"",""4565""
","
","","","-1","","","21","3755","2709","&#9761;","elianto","#3366ff99","-1","-1","1","+10","[]","0","0","2","","","","","","","",""
"pit-trial","47","635512","0.0-2.0-11.2-0.2","battery-v0.2","","""event"",""trial"",""time""
""focus"",""0"",""1""
""fullscreenenter"",""1"",""4565""
","
","""event"",""trial"",""time""
""focus"",""0"",""1""
","""event"",""trial"",""time""
""fullscreenenter"",""1"",""4565""
","
","","","-1","","","21","3755","2709","&#9761;","elianto","#3366ff99","-1","-1","1","+10","[]","0","0","2","","","","","","","",""
"pit-trial","48","640383","0.0-2.0-11.2-1.2","battery-v0.2","","""event"",""trial"",""time""
""focus"",""0"",""1""
""fullscreenenter"",""1"",""4565""
","
","""event"",""trial"",""time""
""focus"",""0"",""1""
","""event"",""trial"",""time""
""fullscreenenter"",""1"",""4565""
","
","","","-1","","","21","3755","2709","&#9761;","elianto","#3366ff99","-1","-1","1","+10","[]","0","0","2","","","","","","","",""
"pit-trial","49","645247","0.0-2.0-11.2-2.2","battery-v0.2","","""event"",""trial"",""time""
""focus"",""0"",""1""
""fullscreenenter"",""1"",""4565""
","
","""event"",""trial"",""time""
""focus"",""0"",""1""
","""event"",""trial"",""time""
""fullscreenenter"",""1"",""4565""
","
","","","-1","","","21","3755","2709","&#9761;","elianto","#3366ff99","-1","-1","1","+10","[]","0","0","2","","","","","","","",""
"pit-trial","50","650110","0.0-2.0-11.2-3.2","battery-v0.2","","""event"",""trial"",""time""
""focus"",""0"",""1""
""fullscreenenter"",""1"",""4565""
","
","""event"",""trial"",""time""
""focus"",""0"",""1""
","""event"",""trial"",""time""
""fullscreenenter"",""1"",""4565""
","
","","","-1","","","21","3755","2709","&#9761;","elianto","#3366ff99","-1","-1","1","0","[]","0","0","2","","","","","","","",""
"pit-trial","51","654969","0.0-2.0-11.2-4.2","battery-v0.2","","""event"",""trial"",""time""
""focus"",""0"",""1""
""fullscreenenter"",""1"",""4565""
","
","""event"",""trial"",""time""
""focus"",""0"",""1""
","""event"",""trial"",""time""
""fullscreenenter"",""1"",""4565""
","
","","","-1","","","21","3755","2709","&#9761;","elianto","#3366ff99","-1","-1","1","+10","[]","0","0","2","","","","","","","",""
"pit-trial","52","659826","0.0-2.0-11.3-0.3","battery-v0.2","","""event"",""trial"",""time""
""focus"",""0"",""1""
""fullscreenenter"",""1"",""4565""
","
","""event"",""trial"",""time""
""focus"",""0"",""1""
","""event"",""trial"",""time""
""fullscreenenter"",""1"",""4565""
","
","","","-1","","","21","3755","2709","&#9761;","elianto","#3366ff99","-1","-1","1","+10","[]","0","0","2","","","","","","","",""
"pit-trial","53","664688","0.0-2.0-11.3-1.3","battery-v0.2","","""event"",""trial"",""time""
""focus"",""0"",""1""
""fullscreenenter"",""1"",""4565""
","
","""event"",""trial"",""time""
""focus"",""0"",""1""
","""event"",""trial"",""time""
""fullscreenenter"",""1"",""4565""
","
","","","-1","","","21","3755","2709","&#9761;","elianto","#3366ff99","-1","-1","1","+10","[]","0","0","2","","","","","","","",""
"pit-trial","54","669549","0.0-2.0-11.3-2.3","battery-v0.2","","""event"",""trial"",""time""
""focus"",""0"",""1""
""fullscreenenter"",""1"",""4565""
","
","""event"",""trial"",""time""
""focus"",""0"",""1""
","""event"",""trial"",""time""
""fullscreenenter"",""1"",""4565""
","
","","","-1","","","21","3755","2709","&#9761;","elianto","#3366ff99","-1","-1","1","+10","[]","0","0","2","","","","","","","",""
"pit-trial","55","674421","0.0-2.0-11.3-3.3","battery-v0.2","","""event"",""trial"",""time""
""focus"",""0"",""1""
""fullscreenenter"",""1"",""4565""
","
","""event"",""trial"",""time""
""focus"",""0"",""1""
","""event"",""trial"",""time""
""fullscreenenter"",""1"",""4565""
","
","","","-1","","","21","3755","2709","&#9761;","elianto","#3366ff99","-1","-1","1","0","[]","0","0","2","","","","","","","",""
"pit-trial","56","679284","0.0-2.0-11.3-4.3","battery-v0.2","","""event"",""trial"",""time""
""focus"",""0"",""1""
""fullscreenenter"",""1"",""4565""
","
","""event"",""trial"",""time""
""focus"",""0"",""1""
","""event"",""trial"",""time""
""fullscreenenter"",""1"",""4565""
","
","","","-1","","","21","3755","2709","&#9761;","elianto","#3366ff99","-1","-1","1","+10","[]","0","0","2","","","","","","","",""
"call-function","57","679285","0.0-2.0-12.0","battery-v0.2","","""event"",""trial"",""time""
""focus"",""0"",""1""
""fullscreenenter"",""1"",""4565""
","
","""event"",""trial"",""time""
""focus"",""0"",""1""
","""event"",""trial"",""time""
""fullscreenenter"",""1"",""4565""
","
","","","","","","","","","","","","","","","","","","","","","","","","","","",""
"pit-instructions","58","722156","0.0-2.0-13.0","battery-v0.2","","""event"",""trial"",""time""
""focus"",""0"",""1""
""fullscreenenter"",""1"",""4565""
","
","""event"",""trial"",""time""
""focus"",""0"",""1""
","""event"",""trial"",""time""
""fullscreenenter"",""1"",""4565""
","
","","[{""page_index"":0,""viewing_time"":16468},{""page_index"":1,""viewing_time"":7174},{""page_index"":2,""viewing_time"":3337},{""page_index"":3,""viewing_time"":11008},{""page_index"":4,""viewing_time"":4882}]","42869","","","","","","","","","","","","","","","","","","","","","","","",""
"pit-trial","59","725694","0.0-2.0-14.0-0.0","battery-v0.2","","""event"",""trial"",""time""
""focus"",""0"",""1""
""fullscreenenter"",""1"",""4565""
","
","""event"",""trial"",""time""
""focus"",""0"",""1""
","""event"",""trial"",""time""
""fullscreenenter"",""1"",""4565""
","
","","","662","","","21","3755","2709","&#9826;","elianto","#f73b6a7A","-1"," ","0","-10","[1526]","1","0","3","","","","","","","",""
"pit-trial","60","730573","0.0-2.0-14.0-1.0","battery-v0.2","","""event"",""trial"",""time""
""focus"",""0"",""1""
""fullscreenenter"",""1"",""4565""
","
","""event"",""trial"",""time""
""focus"",""0"",""1""
","""event"",""trial"",""time""
""fullscreenenter"",""1"",""4565""
","
","","","-1","","","21","3755","2709","&#9826;","elianto","#f73b6a7A","-1","-1","1","0","[]","0","0","3","","","","","","","",""
"pit-trial","61","735441","0.0-2.0-14.0-2.0","battery-v0.2","","""event"",""trial"",""time""
""focus"",""0"",""1""
""fullscreenenter"",""1"",""4565""
","
","""event"",""trial"",""time""
""focus"",""0"",""1""
","""event"",""trial"",""time""
""fullscreenenter"",""1"",""4565""
","
","","","-1","","","21","3755","2709","&#9826;","elianto","#f73b6a7A","-1","-1","1","0","[]","0","0","3","","","","","","","",""
"pit-trial","62","740306","0.0-2.0-14.0-3.0","battery-v0.2","","""event"",""trial"",""time""
""focus"",""0"",""1""
""fullscreenenter"",""1"",""4565""
","
","""event"",""trial"",""time""
""focus"",""0"",""1""
","""event"",""trial"",""time""
""fullscreenenter"",""1"",""4565""
","
","","","-1","","","21","3755","2709","&#9826;","elianto","#f73b6a7A","-1","-1","1","-10","[]","0","0","3","","","","","","","",""
"pit-trial","63","745177","0.0-2.0-14.0-4.0","battery-v0.2","","""event"",""trial"",""time""
""focus"",""0"",""1""
""fullscreenenter"",""1"",""4565""
","
","""event"",""trial"",""time""
""focus"",""0"",""1""
","""event"",""trial"",""time""
""fullscreenenter"",""1"",""4565""
","
","","","-1","","","21","3755","2709","&#9826;","elianto","#f73b6a7A","-1","-1","1","0","[]","0","0","3","","","","","","","",""
"pit-trial","64","750043","0.0-2.0-14.1-0.1","battery-v0.2","","""event"",""trial"",""time""
""focus"",""0"",""1""
""fullscreenenter"",""1"",""4565""
","
","""event"",""trial"",""time""
""focus"",""0"",""1""
","""event"",""trial"",""time""
""fullscreenenter"",""1"",""4565""
","
","","","-1","","","21","3755","2709","&#9826;","elianto","#f73b6a7A","-1","-1","1","0","[]","0","0","3","","","","","","","",""
"pit-trial","65","754907","0.0-2.0-14.1-1.1","battery-v0.2","","""event"",""trial"",""time""
""focus"",""0"",""1""
""fullscreenenter"",""1"",""4565""
","
","""event"",""trial"",""time""
""focus"",""0"",""1""
","""event"",""trial"",""time""
""fullscreenenter"",""1"",""4565""
","
","","","-1","","","21","3755","2709","&#9826;","elianto","#f73b6a7A","-1","-1","1","0","[]","0","0","3","","","","","","","",""
"pit-trial","66","759776","0.0-2.0-14.1-2.1","battery-v0.2","","""event"",""trial"",""time""
""focus"",""0"",""1""
""fullscreenenter"",""1"",""4565""
","
","""event"",""trial"",""time""
""focus"",""0"",""1""
","""event"",""trial"",""time""
""fullscreenenter"",""1"",""4565""
","
","","","-1","","","21","3755","2709","&#9826;","elianto","#f73b6a7A","-1","-1","1","0","[]","0","0","3","","","","","","","",""
"pit-trial","67","764641","0.0-2.0-14.1-3.1","battery-v0.2","","""event"",""trial"",""time""
""focus"",""0"",""1""
""fullscreenenter"",""1"",""4565""
","
","""event"",""trial"",""time""
""focus"",""0"",""1""
","""event"",""trial"",""time""
""fullscreenenter"",""1"",""4565""
","
","","","-1","","","21","3755","2709","&#9826;","elianto","#f73b6a7A","-1","-1","1","-10","[]","0","0","3","","","","","","","",""
"pit-trial","68","769514","0.0-2.0-14.1-4.1","battery-v0.2","","""event"",""trial"",""time""
""focus"",""0"",""1""
""fullscreenenter"",""1"",""4565""
","
","""event"",""trial"",""time""
""focus"",""0"",""1""
","""event"",""trial"",""time""
""fullscreenenter"",""1"",""4565""
","
","","","-1","","","21","3755","2709","&#9826;","elianto","#f73b6a7A","-1","-1","1","0","[]","0","0","3","","","","","","","",""
"pit-trial","69","774374","0.0-2.0-14.2-0.2","battery-v0.2","","""event"",""trial"",""time""
""focus"",""0"",""1""
""fullscreenenter"",""1"",""4565""
","
","""event"",""trial"",""time""
""focus"",""0"",""1""
","""event"",""trial"",""time""
""fullscreenenter"",""1"",""4565""
","
","","","-1","","","21","3755","2709","&#9826;","elianto","#f73b6a7A","-1","-1","1","0","[]","0","0","3","","","","","","","",""
"pit-trial","70","779232","0.0-2.0-14.2-1.2","battery-v0.2","","""event"",""trial"",""time""
""focus"",""0"",""1""
""fullscreenenter"",""1"",""4565""
","
","""event"",""trial"",""time""
""focus"",""0"",""1""
","""event"",""trial"",""time""
""fullscreenenter"",""1"",""4565""
","
","","","-1","","","21","3755","2709","&#9826;","elianto","#f73b6a7A","-1","-1","1","0","[]","0","0","3","","","","","","","",""
"pit-trial","71","784099","0.0-2.0-14.2-2.2","battery-v0.2","","""event"",""trial"",""time""
""focus"",""0"",""1""
""fullscreenenter"",""1"",""4565""
","
","""event"",""trial"",""time""
""focus"",""0"",""1""
","""event"",""trial"",""time""
""fullscreenenter"",""1"",""4565""
","
","","","-1","","","21","3755","2709","&#9826;","elianto","#f73b6a7A","-1","-1","1","0","[]","0","0","3","","","","","","","",""
"pit-trial","72","788965","0.0-2.0-14.2-3.2","battery-v0.2","","""event"",""trial"",""time""
""focus"",""0"",""1""
""fullscreenenter"",""1"",""4565""
","
","""event"",""trial"",""time""
""focus"",""0"",""1""
","""event"",""trial"",""time""
""fullscreenenter"",""1"",""4565""
","
","","","-1","","","21","3755","2709","&#9826;","elianto","#f73b6a7A","-1","-1","1","-10","[]","0","0","3","","","","","","","",""
"pit-trial","73","793829","0.0-2.0-14.2-4.2","battery-v0.2","","""event"",""trial"",""time""
""focus"",""0"",""1""
""fullscreenenter"",""1"",""4565""
","
","""event"",""trial"",""time""
""focus"",""0"",""1""
","""event"",""trial"",""time""
""fullscreenenter"",""1"",""4565""
","
","","","-1","","","21","3755","2709","&#9826;","elianto","#f73b6a7A","-1","-1","1","0","[]","0","0","3","","","","","","","",""
"pit-trial","74","798689","0.0-2.0-14.3-0.3","battery-v0.2","","""event"",""trial"",""time""
""focus"",""0"",""1""
""fullscreenenter"",""1"",""4565""
","
","""event"",""trial"",""time""
""focus"",""0"",""1""
","""event"",""trial"",""time""
""fullscreenenter"",""1"",""4565""
","
","","","-1","","","21","3755","2709","&#9826;","elianto","#f73b6a7A","-1","-1","1","0","[]","0","0","3","","","","","","","",""
"pit-trial","75","803554","0.0-2.0-14.3-1.3","battery-v0.2","","""event"",""trial"",""time""
""focus"",""0"",""1""
""fullscreenenter"",""1"",""4565""
","
","""event"",""trial"",""time""
""focus"",""0"",""1""
","""event"",""trial"",""time""
""fullscreenenter"",""1"",""4565""
","
","","","-1","","","21","3755","2709","&#9826;","elianto","#f73b6a7A","-1","-1","1","0","[]","0","0","3","","","","","","","",""
"pit-trial","76","808423","0.0-2.0-14.3-2.3","battery-v0.2","","""event"",""trial"",""time""
""focus"",""0"",""1""
""fullscreenenter"",""1"",""4565""
","
","""event"",""trial"",""time""
""focus"",""0"",""1""
","""event"",""trial"",""time""
""fullscreenenter"",""1"",""4565""
","
","","","-1","","","21","3755","2709","&#9826;","elianto","#f73b6a7A","-1","-1","1","0","[]","0","0","3","","","","","","","",""
"pit-trial","77","813292","0.0-2.0-14.3-3.3","battery-v0.2","","""event"",""trial"",""time""
""focus"",""0"",""1""
""fullscreenenter"",""1"",""4565""
","
","""event"",""trial"",""time""
""focus"",""0"",""1""
","""event"",""trial"",""time""
""fullscreenenter"",""1"",""4565""
","
","","","-1","","","21","3755","2709","&#9826;","elianto","#f73b6a7A","-1","-1","1","-10","[]","0","0","3","","","","","","","",""
"pit-trial","78","818159","0.0-2.0-14.3-4.3","battery-v0.2","","""event"",""trial"",""time""
""focus"",""0"",""1""
""fullscreenenter"",""1"",""4565""
","
","""event"",""trial"",""time""
""focus"",""0"",""1""
","""event"",""trial"",""time""
""fullscreenenter"",""1"",""4565""
","
","","","-1","","","21","3755","2709","&#9826;","elianto","#f73b6a7A","-1","-1","1","0","[]","0","0","3","","","","","","","",""
"call-function","79","818160","0.0-2.0-15.0","battery-v0.2","","""event"",""trial"",""time""
""focus"",""0"",""1""
""fullscreenenter"",""1"",""4565""
","
","""event"",""trial"",""time""
""focus"",""0"",""1""
","""event"",""trial"",""time""
""fullscreenenter"",""1"",""4565""
","
","","","","","","","","","","","","","","","","","","","","","","","","","","",""
"pit-instructions","80","852079","0.0-2.0-16.0","battery-v0.2","","""event"",""trial"",""time""
""focus"",""0"",""1""
""fullscreenenter"",""1"",""4565""
","
","""event"",""trial"",""time""
""focus"",""0"",""1""
","""event"",""trial"",""time""
""fullscreenenter"",""1"",""4565""
","
","","[{""page_index"":0,""viewing_time"":7781},{""page_index"":1,""viewing_time"":10440},{""page_index"":2,""viewing_time"":7479},{""page_index"":3,""viewing_time"":8218}]","33918","","","","","","","","","","","","","","","","","","","","","","","",""
"pit-trial","81","855342","0.0-2.0-17.0-0.0","battery-v0.2","","""event"",""trial"",""time""
""focus"",""0"",""1""
""fullscreenenter"",""1"",""4565""
","
","""event"",""trial"",""time""
""focus"",""0"",""1""
","""event"",""trial"",""time""
""fullscreenenter"",""1"",""4565""
","
","","","392","","","21","3755","2709","&#9789;","elianto","#f73b6a7A"," "," ","1","0","[1255]","1","0","4","","","","","","","",""
"pit-trial","82","858358","0.0-2.0-17.0-1.0","battery-v0.2","","""event"",""trial"",""time""
""focus"",""0"",""1""
""fullscreenenter"",""1"",""4565""
","
","""event"",""trial"",""time""
""focus"",""0"",""1""
","""event"",""trial"",""time""
""fullscreenenter"",""1"",""4565""
","
","","","146","","","21","3755","2709","&#9789;","elianto","#f73b6a7A"," "," ","1","0","[1002]","1","0","4","","","","","","","",""
"pit-trial","83","861452","0.0-2.0-17.0-2.0","battery-v0.2","","""event"",""trial"",""time""
""focus"",""0"",""1""
""fullscreenenter"",""1"",""4565""
","
","""event"",""trial"",""time""
""focus"",""0"",""1""
","""event"",""trial"",""time""
""fullscreenenter"",""1"",""4565""
","
","","","240","","","21","3755","2709","&#9789;","elianto","#f73b6a7A"," "," ","1","0","[1092]","1","0","4","","","","","","","",""
"pit-trial","84","864482","0.0-2.0-17.0-3.0","battery-v0.2","","""event"",""trial"",""time""
""focus"",""0"",""1""
""fullscreenenter"",""1"",""4565""
","
","""event"",""trial"",""time""
""focus"",""0"",""1""
","""event"",""trial"",""time""
""fullscreenenter"",""1"",""4565""
","
","","","174","","","21","3755","2709","&#9789;","elianto","#f73b6a7A"," "," ","1","-10","[1025]","1","0","4","","","","","","","",""
"pit-trial","85","867583","0.0-2.0-17.0-4.0","battery-v0.2","","""event"",""trial"",""time""
""focus"",""0"",""1""
""fullscreenenter"",""1"",""4565""
","
","""event"",""trial"",""time""
""focus"",""0"",""1""
","""event"",""trial"",""time""
""fullscreenenter"",""1"",""4565""
","
","","","238","","","21","3755","2709","&#9789;","elianto","#f73b6a7A"," "," ","1","0","[1090]","1","0","4","","","","","","","",""
"pit-trial","86","871743","0.0-2.0-17.1-0.1","battery-v0.2","","""event"",""trial"",""time""
""focus"",""0"",""1""
""fullscreenenter"",""1"",""4565""
","
","""event"",""trial"",""time""
""focus"",""0"",""1""
","""event"",""trial"",""time""
""fullscreenenter"",""1"",""4565""
","
","","","1286","","","21","3755","2709","&#9789;","elianto","#f73b6a7A"," "," ","1","0","[2152]","1","0","4","","","","","","","",""
"pit-trial","87","875569","0.0-2.0-17.1-1.1","battery-v0.2","","""event"",""trial"",""time""
""focus"",""0"",""1""
""fullscreenenter"",""1"",""4565""
","
","""event"",""trial"",""time""
""focus"",""0"",""1""
","""event"",""trial"",""time""
""fullscreenenter"",""1"",""4565""
","
","","","962","","","21","3755","2709","&#9789;","elianto","#f73b6a7A"," "," ","1","0","[1817]","1","0","4","","","","","","","",""
"pit-trial","88","878977","0.0-2.0-17.1-2.1","battery-v0.2","","""event"",""trial"",""time""
""focus"",""0"",""1""
""fullscreenenter"",""1"",""4565""
","
","""event"",""trial"",""time""
""focus"",""0"",""1""
","""event"",""trial"",""time""
""fullscreenenter"",""1"",""4565""
","
","","","546","","","21","3755","2709","&#9789;","elianto","#f73b6a7A"," "," ","1","0","[1400]","1","0","4","","","","","","","",""
"pit-trial","89","882441","0.0-2.0-17.1-3.1","battery-v0.2","","""event"",""trial"",""time""
""focus"",""0"",""1""
""fullscreenenter"",""1"",""4565""
","
","""event"",""trial"",""time""
""focus"",""0"",""1""
","""event"",""trial"",""time""
""fullscreenenter"",""1"",""4565""
","
","","","595","","","21","3755","2709","&#9789;","elianto","#f73b6a7A"," "," ","1","-10","[1448]","1","0","4","","","","","","","",""
"pit-trial","90","885393","0.0-2.0-17.1-4.1","battery-v0.2","","""event"",""trial"",""time""
""focus"",""0"",""1""
""fullscreenenter"",""1"",""4565""
","
","""event"",""trial"",""time""
""focus"",""0"",""1""
","""event"",""trial"",""time""
""fullscreenenter"",""1"",""4565""
","
","","","89","","","21","3755","2709","&#9789;","elianto","#f73b6a7A"," "," ","1","0","[945]","1","0","4","","","","","","","",""
"pit-trial","91","888560","0.0-2.0-17.2-0.2","battery-v0.2","","""event"",""trial"",""time""
""focus"",""0"",""1""
""fullscreenenter"",""1"",""4565""
","
","""event"",""trial"",""time""
""focus"",""0"",""1""
","""event"",""trial"",""time""
""fullscreenenter"",""1"",""4565""
","
","","","308","","","21","3755","2709","&#9789;","elianto","#f73b6a7A"," "," ","1","0","[1157]","1","0","4","","","","","","","",""
"pit-trial","92","892336","0.0-2.0-17.2-1.2","battery-v0.2","","""event"",""trial"",""time""
""focus"",""0"",""1""
""fullscreenenter"",""1"",""4565""
","
","""event"",""trial"",""time""
""focus"",""0"",""1""
","""event"",""trial"",""time""
""fullscreenenter"",""1"",""4565""
","
","","","920","","","21","3755","2709","&#9789;","elianto","#f73b6a7A"," "," ","1","0","[1771]","1","0","4","","","","","","","",""
"pit-trial","93","895850","0.0-2.0-17.2-2.2","battery-v0.2","","""event"",""trial"",""time""
""focus"",""0"",""1""
""fullscreenenter"",""1"",""4565""
","
","""event"",""trial"",""time""
""focus"",""0"",""1""
","""event"",""trial"",""time""
""fullscreenenter"",""1"",""4565""
","
","","","662","","","21","3755","2709","&#9789;","elianto","#f73b6a7A"," "," ","1","0","[1514]","1","0","4","","","","","","","",""
"pit-trial","94","899623","0.0-2.0-17.2-3.2","battery-v0.2","","""event"",""trial"",""time""
""focus"",""0"",""1""
""fullscreenenter"",""1"",""4565""
","
","""event"",""trial"",""time""
""focus"",""0"",""1""
","""event"",""trial"",""time""
""fullscreenenter"",""1"",""4565""
","
","","","916","","","21","3755","2709","&#9789;","elianto","#f73b6a7A"," "," ","1","-10","[1768]","1","0","4","","","","","","","",""
"pit-trial","95","903184","0.0-2.0-17.2-4.2","battery-v0.2","","""event"",""trial"",""time""
""focus"",""0"",""1""
""fullscreenenter"",""1"",""4565""
","
","""event"",""trial"",""time""
""focus"",""0"",""1""
","""event"",""trial"",""time""
""fullscreenenter"",""1"",""4565""
","
","","","698","","","21","3755","2709","&#9789;","elianto","#f73b6a7A"," "," ","1","0","[1549]","1","0","4","","","","","","","",""
"pit-trial","96","906387","0.0-2.0-17.3-0.3","battery-v0.2","","""event"",""trial"",""time""
""focus"",""0"",""1""
""fullscreenenter"",""1"",""4565""
","
","""event"",""trial"",""time""
""focus"",""0"",""1""
","""event"",""trial"",""time""
""fullscreenenter"",""1"",""4565""
","
","","","338","","","21","3755","2709","&#9789;","elianto","#f73b6a7A"," "," ","1","0","[1191]","1","0","4","","","","","","","",""
"pit-trial","97","909616","0.0-2.0-17.3-1.3","battery-v0.2","","""event"",""trial"",""time""
""focus"",""0"",""1""
""fullscreenenter"",""1"",""4565""
","
","""event"",""trial"",""time""
""focus"",""0"",""1""
","""event"",""trial"",""time""
""fullscreenenter"",""1"",""4565""
","
","","","364","","","21","3755","2709","&#9789;","elianto","#f73b6a7A"," "," ","1","0","[1218]","1","0","4","","","","","","","",""
"pit-trial","98","912726","0.0-2.0-17.3-2.3","battery-v0.2","","""event"",""trial"",""time""
""focus"",""0"",""1""
""fullscreenenter"",""1"",""4565""
","
","""event"",""trial"",""time""
""focus"",""0"",""1""
","""event"",""trial"",""time""
""fullscreenenter"",""1"",""4565""
","
","","","254","","","21","3755","2709","&#9789;","elianto","#f73b6a7A"," "," ","1","0","[1109]","1","0","4","","","","","","","",""
"pit-trial","99","915855","0.0-2.0-17.3-3.3","battery-v0.2","","""event"",""trial"",""time""
""focus"",""0"",""1""
""fullscreenenter"",""1"",""4565""
","
","""event"",""trial"",""time""
""focus"",""0"",""1""
","""event"",""trial"",""time""
""fullscreenenter"",""1"",""4565""
","
","","","265","","","21","3755","2709","&#9789;","elianto","#f73b6a7A"," "," ","1","-10","[1120]","1","0","4","","","","","","","",""
"pit-trial","100","918855","0.0-2.0-17.3-4.3","battery-v0.2","","""event"",""trial"",""time""
""focus"",""0"",""1""
""fullscreenenter"",""1"",""4565""
","
","""event"",""trial"",""time""
""focus"",""0"",""1""
","""event"",""trial"",""time""
""fullscreenenter"",""1"",""4565""
","
","","","135","","","21","3755","2709","&#9789;","elianto","#f73b6a7A"," "," ","1","0","[991]","1","0","4","","","","","","","",""
"call-function","101","918856","0.0-2.0-18.0","battery-v0.2","","""event"",""trial"",""time""
""focus"",""0"",""1""
""fullscreenenter"",""1"",""4565""
","
","""event"",""trial"",""time""
""focus"",""0"",""1""
","""event"",""trial"",""time""
""fullscreenenter"",""1"",""4565""
","
","","","","","","","","","","","","","","","","","","","","","","","","","","",""
"pit-instructions","102","1040619","0.0-2.0-19.0","battery-v0.2","","""event"",""trial"",""time""
""focus"",""0"",""1""
""fullscreenenter"",""1"",""4565""
","
","""event"",""trial"",""time""
""focus"",""0"",""1""
","""event"",""trial"",""time""
""fullscreenenter"",""1"",""4565""
","
","","[{""page_index"":0,""viewing_time"":8867},{""page_index"":1,""viewing_time"":14051},{""page_index"":2,""viewing_time"":23302},{""page_index"":3,""viewing_time"":22101},{""page_index"":4,""viewing_time"":18462},{""page_index"":5,""viewing_time"":8259},{""page_index"":6,""viewing_time"":8510},{""page_index"":7,""viewing_time"":14251},{""page_index"":8,""viewing_time"":3959}]","121762","","","","","","","","","","","","","","","","","","","","","","","",""
"pit-comprehension","103","1045030","0.0-2.0-20.0-0.0","battery-v0.2","","""event"",""trial"",""time""
""focus"",""0"",""1""
""fullscreenenter"",""1"",""4565""
","
","""event"",""trial"",""time""
""focus"",""0"",""1""
","""event"",""trial"",""time""
""fullscreenenter"",""1"",""4565""
","
","","","4409","[""SPACE""]","0","21","3755","2709","","","","","","","","","","","","","","","","","","",""
"pit-instructions","104","1047836","0.0-2.0-20.0-1.0","battery-v0.2","","""event"",""trial"",""time""
""focus"",""0"",""1""
""fullscreenenter"",""1"",""4565""
","
","""event"",""trial"",""time""
""focus"",""0"",""1""
","""event"",""trial"",""time""
""fullscreenenter"",""1"",""4565""
","
","","[{""page_index"":0,""viewing_time"":2776}]","2777","","","","","","","","","","","","","","","","","","","","","","","",""
"pit-comprehension","105","1052533","0.0-2.0-21.0-0.0","battery-v0.2","","""event"",""trial"",""time""
""focus"",""0"",""1""
""fullscreenenter"",""1"",""4565""
","
","""event"",""trial"",""time""
""focus"",""0"",""1""
","""event"",""trial"",""time""
""fullscreenenter"",""1"",""4565""
","
","","","4694","[""10""]","0","21","3755","2709","","","","","","","","","","","","","","","","","","",""
"pit-instructions","106","1056756","0.0-2.0-21.0-1.0","battery-v0.2","","""event"",""trial"",""time""
""focus"",""0"",""1""
""fullscreenenter"",""1"",""4565""
","
","""event"",""trial"",""time""
""focus"",""0"",""1""
","""event"",""trial"",""time""
""fullscreenenter"",""1"",""4565""
","
","","[{""page_index"":0,""viewing_time"":4195}]","4195","","","","","","","","","","","","","","","","","","","","","","","",""
"pit-comprehension","107","1064076","0.0-2.0-22.0-0.0","battery-v0.2","","""event"",""trial"",""time""
""focus"",""0"",""1""
""fullscreenenter"",""1"",""4565""
","
","""event"",""trial"",""time""
""focus"",""0"",""1""
","""event"",""trial"",""time""
""fullscreenenter"",""1"",""4565""
","
","","","7316","[""0""]","0","21","3755","2709","","","","","","","","","","","","","","","","","","",""
"pit-instructions","108","1066608","0.0-2.0-22.0-1.0","battery-v0.2","","""event"",""trial"",""time""
""focus"",""0"",""1""
""fullscreenenter"",""1"",""4565""
","
","""event"",""trial"",""time""
""focus"",""0"",""1""
","""event"",""trial"",""time""
""fullscreenenter"",""1"",""4565""
","
","","[{""page_index"":0,""viewing_time"":2505}]","2506","","","","","","","","","","","","","","","","","","","","","","","",""
"pit-comprehension","109","1075966","0.0-2.0-23.0-0.0","battery-v0.2","","""event"",""trial"",""time""
""focus"",""0"",""1""
""fullscreenenter"",""1"",""4565""
","
","""event"",""trial"",""time""
""focus"",""0"",""1""
","""event"",""trial"",""time""
""fullscreenenter"",""1"",""4565""
","
","","","9355","[""True""]","0","21","3755","2709","","","","","","","","","","","","","","","","","","",""
"pit-instructions","110","1077737","0.0-2.0-23.0-1.0","battery-v0.2","","""event"",""trial"",""time""
""focus"",""0"",""1""
""fullscreenenter"",""1"",""4565""
","
","""event"",""trial"",""time""
""focus"",""0"",""1""
","""event"",""trial"",""time""
""fullscreenenter"",""1"",""4565""
","
","","[{""page_index"":0,""viewing_time"":1742}]","1742","","","","","","","","","","","","","","","","","","","","","","","",""
"pit-comprehension","111","1085307","0.0-2.0-24.0-0.0","battery-v0.2","","""event"",""trial"",""time""
""focus"",""0"",""1""
""fullscreenenter"",""1"",""4565""
","
","""event"",""trial"",""time""
""focus"",""0"",""1""
","""event"",""trial"",""time""
""fullscreenenter"",""1"",""4565""
","
","","","7568","[""True""]","0","21","3755","2709","","","","","","","","","","","","","","","","","","",""
"pit-instructions","112","1087089","0.0-2.0-24.0-1.0","battery-v0.2","","""event"",""trial"",""time""
""focus"",""0"",""1""
""fullscreenenter"",""1"",""4565""
","
","""event"",""trial"",""time""
""focus"",""0"",""1""
","""event"",""trial"",""time""
""fullscreenenter"",""1"",""4565""
","
","","[{""page_index"":0,""viewing_time"":1753}]","1753","","","","","","","","","","","","","","","","","","","","","","","",""
"pit-comprehension","113","1093641","0.0-2.0-25.0-0.0","battery-v0.2","","""event"",""trial"",""time""
""focus"",""0"",""1""
""fullscreenenter"",""1"",""4565""
","
","""event"",""trial"",""time""
""focus"",""0"",""1""
","""event"",""trial"",""time""
""fullscreenenter"",""1"",""4565""
","
","","","6549","[""True""]","0","21","3755","2709","","","","","","","","","","","","","","","","","","",""
"pit-instructions","114","1095749","0.0-2.0-25.0-1.0","battery-v0.2","","""event"",""trial"",""time""
""focus"",""0"",""1""
""fullscreenenter"",""1"",""4565""
","
","""event"",""trial"",""time""
""focus"",""0"",""1""
","""event"",""trial"",""time""
""fullscreenenter"",""1"",""4565""
","
","","[{""page_index"":0,""viewing_time"":2078}]","2078","","","","","","","","","","","","","","","","","","","","","","","",""
"pit-comprehension","115","1100351","0.0-2.0-26.0-0.0","battery-v0.2","","""event"",""trial"",""time""
""focus"",""0"",""1""
""fullscreenenter"",""1"",""4565""
","
","""event"",""trial"",""time""
""focus"",""0"",""1""
","""event"",""trial"",""time""
""fullscreenenter"",""1"",""4565""
","
","","","4599","[""False""]","0","21","3755","2709","","","","","","","","","","","","","","","","","","",""
"pit-instructions","116","1101899","0.0-2.0-26.0-1.0","battery-v0.2","","""event"",""trial"",""time""
""focus"",""0"",""1""
""fullscreenenter"",""1"",""4565""
","
","""event"",""trial"",""time""
""focus"",""0"",""1""
","""event"",""trial"",""time""
""fullscreenenter"",""1"",""4565""
","
","","[{""page_index"":0,""viewing_time"":1517}]","1518","","","","","","","","","","","","","","","","","","","","","","","",""
"pit-instructions","117","1120737","0.0-3.0","battery-v0.2","","""event"",""trial"",""time""
""focus"",""0"",""1""
""fullscreenenter"",""1"",""4565""
","
","""event"",""trial"",""time""
""focus"",""0"",""1""
","""event"",""trial"",""time""
""fullscreenenter"",""1"",""4565""
","
","","[{""page_index"":0,""viewing_time"":4776},{""page_index"":1,""viewing_time"":7904},{""page_index"":2,""viewing_time"":6154}]","18835","","","","","","","","","","","","","","","","","","","","","","","",""
"pit-trial","118","1124767","0.0-4.0","battery-v0.2","","""event"",""trial"",""time""
""focus"",""0"",""1""
""fullscreenenter"",""1"",""4565""
","
","""event"",""trial"",""time""
""focus"",""0"",""1""
","""event"",""trial"",""time""
""fullscreenenter"",""1"",""4565""
","
","","","1167","","","21","3755","2709","&#9728;","elianto","#f73b6a7A","-1"," ","0","-10","[2020]","1","1","","","3755","1","0","4","lose","no-go","0"
"pit-trial","119","1128452","0.0-5.0","battery-v0.2","","""event"",""trial"",""time""
""focus"",""0"",""1""
""fullscreenenter"",""1"",""4565""
","
","""event"",""trial"",""time""
""focus"",""0"",""1""
","""event"",""trial"",""time""
""fullscreenenter"",""1"",""4565""
","
","","","809","","","21","3755","2709","&#9730;","elianto","#3366ff99"," "," ","1","+10","[1672]","1","1","","","3755","2","1","1","win","go","0"
"pit-trial","120","1132676","0.0-6.0","battery-v0.2","","""event"",""trial"",""time""
""focus"",""0"",""1""
""fullscreenenter"",""1"",""4565""
","
","""event"",""trial"",""time""
""focus"",""0"",""1""
","""event"",""trial"",""time""
""fullscreenenter"",""1"",""4565""
","
","","","1355","","","21","3755","2709","&#9733;","elianto","#3366ff99","-1"," ","0","0","[2219]","1","1","","","3755","3","2","2","win","no-go","0"
"pit-trial","121","1137543","0.0-7.0","battery-v0.2","","""event"",""trial"",""time""
""focus"",""0"",""1""
""fullscreenenter"",""1"",""4565""
","
","""event"",""trial"",""time""
""focus"",""0"",""1""
","""event"",""trial"",""time""
""fullscreenenter"",""1"",""4565""
","
","","","-1","","","21","3755","2709","&#9752;","elianto","#f73b6a7A"," ","-1","0","-10","[]","0","1","","","3755","4","3","3","lose","go","0"
"pit-trial","122","1141143","0.0-8.0","battery-v0.2","","""event"",""trial"",""time""
""focus"",""0"",""1""
""fullscreenenter"",""1"",""4565""
","
","""event"",""trial"",""time""
""focus"",""0"",""1""
","""event"",""trial"",""time""
""fullscreenenter"",""1"",""4565""
","
","","","739","","","21","3755","2709","&#9752;","elianto","#f73b6a7A"," "," ","1","0","[1591]","1","1","","","3755","5","3","3","lose","go","0"
"pit-trial","123","1145186","0.0-9.0","battery-v0.2","","""event"",""trial"",""time""
""focus"",""0"",""1""
""fullscreenenter"",""1"",""4565""
","
","""event"",""trial"",""time""
""focus"",""0"",""1""
","""event"",""trial"",""time""
""fullscreenenter"",""1"",""4565""
","
","","","1186","","","21","3755","2709","&#9733;","elianto","#3366ff99","-1"," ","0","0","[2039]","1","1","","","3755","6","2","2","win","no-go","0"
"pit-trial","124","1149253","0.0-10.0","battery-v0.2","","""event"",""trial"",""time""
""focus"",""0"",""1""
""fullscreenenter"",""1"",""4565""
","
","""event"",""trial"",""time""
""focus"",""0"",""1""
","""event"",""trial"",""time""
""fullscreenenter"",""1"",""4565""
","
","","","1210","","","21","3755","2709","&#9728;","elianto","#f73b6a7A","-1"," ","0","-10","[2063]","1","1","","","3755","7","0","4","lose","no-go","0"
"pit-trial","125","1152832","0.0-11.0","battery-v0.2","","""event"",""trial"",""time""
""focus"",""0"",""1""
""fullscreenenter"",""1"",""4565""
","
","""event"",""trial"",""time""
""focus"",""0"",""1""
","""event"",""trial"",""time""
""fullscreenenter"",""1"",""4565""
","
","","","712","","","21","3755","2709","&#9730;","elianto","#3366ff99"," "," ","1","+10","[1574]","1","1","","","3755","8","1","1","win","go","0"
"pit-trial","126","1156528","0.0-12.0","battery-v0.2","","""event"",""trial"",""time""
""focus"",""0"",""1""
""fullscreenenter"",""1"",""4565""
","
","""event"",""trial"",""time""
""focus"",""0"",""1""
","""event"",""trial"",""time""
""fullscreenenter"",""1"",""4565""
","
","","","839","","","21","3755","2709","&#9730;","elianto","#3366ff99"," "," ","1","+10","[1689]","1","1","","","3755","9","1","1","win","go","0"
"pit-trial","127","1161407","0.0-13.0","battery-v0.2","","""event"",""trial"",""time""
""focus"",""0"",""1""
""fullscreenenter"",""1"",""4565""
","
","""event"",""trial"",""time""
""focus"",""0"",""1""
","""event"",""trial"",""time""
""fullscreenenter"",""1"",""4565""
","
","","","-1","","","21","3755","2709","&#9733;","elianto","#3366ff99","-1","-1","1","+10","[]","0","1","","","3755","10","2","2","win","no-go","0"
"pit-trial","128","1165212","0.0-14.0","battery-v0.2","","""event"",""trial"",""time""
""focus"",""0"",""1""
""fullscreenenter"",""1"",""4565""
","
","""event"",""trial"",""time""
""focus"",""0"",""1""
","""event"",""trial"",""time""
""fullscreenenter"",""1"",""4565""
","
","","","948","","","21","3755","2709","&#9728;","elianto","#f73b6a7A","-1"," ","0","-10","[1800]","1","1","","","3755","11","0","4","lose","no-go","0"
"pit-trial","129","1168956","0.0-15.0","battery-v0.2","","""event"",""trial"",""time""
""focus"",""0"",""1""
""fullscreenenter"",""1"",""4565""
","
","""event"",""trial"",""time""
""focus"",""0"",""1""
","""event"",""trial"",""time""
""fullscreenenter"",""1"",""4565""
","
","","","884","","","21","3755","2709","&#9752;","elianto","#f73b6a7A"," "," ","1","0","[1737]","1","1","","","3755","12","3","3","lose","go","0"
"pit-trial","130","1172392","0.0-16.0","battery-v0.2","","""event"",""trial"",""time""
""focus"",""0"",""1""
""fullscreenenter"",""1"",""4565""
","
","""event"",""trial"",""time""
""focus"",""0"",""1""
","""event"",""trial"",""time""
""fullscreenenter"",""1"",""4565""
","
","","","577","","","21","3755","2709","&#9752;","elianto","#f73b6a7A"," "," ","1","0","[1430]","1","1","","","3755","13","3","3","lose","go","0"
"pit-trial","131","1176178","0.0-17.0","battery-v0.2","","""event"",""trial"",""time""
""focus"",""0"",""1""
""fullscreenenter"",""1"",""4565""
","
","""event"",""trial"",""time""
""focus"",""0"",""1""
","""event"",""trial"",""time""
""fullscreenenter"",""1"",""4565""
","
","","","928","","","21","3755","2709","&#9728;","elianto","#f73b6a7A","-1"," ","0","0","[1780,2056]","2","1","","","3755","14","0","4","lose","no-go","1"
"pit-trial","132","1181039","0.0-18.0","battery-v0.2","","""event"",""trial"",""time""
""focus"",""0"",""1""
""fullscreenenter"",""1"",""4565""
","
","""event"",""trial"",""time""
""focus"",""0"",""1""
","""event"",""trial"",""time""
""fullscreenenter"",""1"",""4565""
","
","","","-1","","","21","3755","2709","&#9733;","elianto","#3366ff99","-1","-1","1","0","[]","0","1","","","3755","15","2","2","win","no-go","1"
"pit-trial","133","1184422","0.0-19.0","battery-v0.2","","""event"",""trial"",""time""
""focus"",""0"",""1""
""fullscreenenter"",""1"",""4565""
","
","""event"",""trial"",""time""
""focus"",""0"",""1""
","""event"",""trial"",""time""
""fullscreenenter"",""1"",""4565""
","
","","","513","","","21","3755","2709","&#9730;","elianto","#3366ff99"," "," ","1","+10","[1375]","1","1","","","3755","16","1","1","win","go","0"
"pit-trial","134","1187880","0.0-20.0","battery-v0.2","","""event"",""trial"",""time""
""focus"",""0"",""1""
""fullscreenenter"",""1"",""4565""
","
","""event"",""trial"",""time""
""focus"",""0"",""1""
","""event"",""trial"",""time""
""fullscreenenter"",""1"",""4565""
","
","","","593","","","21","3755","2709","&#9730;","elianto","#3366ff99"," "," ","1","0","[1456]","1","1","","","3755","17","1","1","win","go","1"
"pit-trial","135","1192746","0.0-21.0","battery-v0.2","","""event"",""trial"",""time""
""focus"",""0"",""1""
""fullscreenenter"",""1"",""4565""
","
","""event"",""trial"",""time""
""focus"",""0"",""1""
","""event"",""trial"",""time""
""fullscreenenter"",""1"",""4565""
","
","","","-1","","","21","3755","2709","&#9728;","elianto","#f73b6a7A","-1","-1","1","0","[]","0","1","","","3755","18","0","4","lose","no-go","0"
"pit-trial","136","1196801","0.0-22.0","battery-v0.2","","""event"",""trial"",""time""
""focus"",""0"",""1""
""fullscreenenter"",""1"",""4565""
","
","""event"",""trial"",""time""
""focus"",""0"",""1""
","""event"",""trial"",""time""
""fullscreenenter"",""1"",""4565""
","
","","","1187","","","21","3755","2709","&#9752;","elianto","#f73b6a7A"," "," ","1","0","[2051]","1","1","","","3755","19","3","3","lose","go","0"
"pit-trial","137","1201664","0.0-23.0","battery-v0.2","","""event"",""trial"",""time""
""focus"",""0"",""1""
""fullscreenenter"",""1"",""4565""
","
","""event"",""trial"",""time""
""focus"",""0"",""1""
","""event"",""trial"",""time""
""fullscreenenter"",""1"",""4565""
","
","","","-1","","","21","3755","2709","&#9733;","elianto","#3366ff99","-1","-1","1","+10","[]","0","1","","","3755","20","2","2","win","no-go","0"
"pit-instructions","138","1213874","0.0-24.0","battery-v0.2","","""event"",""trial"",""time""
""focus"",""0"",""1""
""fullscreenenter"",""1"",""4565""
","
","""event"",""trial"",""time""
""focus"",""0"",""1""
","""event"",""trial"",""time""
""fullscreenenter"",""1"",""4565""
","
","","[{""page_index"":0,""viewing_time"":5249},{""page_index"":1,""viewing_time"":6959}]","12208","","","","","","","","","","","","","","","","","","","","","","","",""
"pit-trial","139","1218738","0.0-25.0","battery-v0.2","","""event"",""trial"",""time""
""focus"",""0"",""1""
""fullscreenenter"",""1"",""4565""
","
","""event"",""trial"",""time""
""focus"",""0"",""1""
","""event"",""trial"",""time""
""fullscreenenter"",""1"",""4565""
","
","","","-1","","","21","3755","2709","e","elianto","#f73b6a7A"," ","-1","0","-10","[]","0","2","","","3755","21","2","3","lose","go","0"
"pit-trial","140","1222551","0.0-26.0","battery-v0.2","","""event"",""trial"",""time""
""focus"",""0"",""1""
""fullscreenenter"",""1"",""4565""
","
","""event"",""trial"",""time""
""focus"",""0"",""1""
","""event"",""trial"",""time""
""fullscreenenter"",""1"",""4565""
","
","","","948","","","21","3755","2709","d","elianto","#3366ff99","-1"," ","0","0","[1799]","1","2","","","3755","22","1","2","win","no-go","0"
"pit-trial","141","1226325","0.0-27.0","battery-v0.2","","""event"",""trial"",""time""
""focus"",""0"",""1""
""fullscreenenter"",""1"",""4565""
","
","""event"",""trial"",""time""
""focus"",""0"",""1""
","""event"",""trial"",""time""
""fullscreenenter"",""1"",""4565""
","
","","","911","","","21","3755","2709","w","elianto","#f73b6a7A","-1"," ","0","0","[1766]","1","2","","","3755","23","3","4","lose","no-go","1"
"pit-trial","142","1229852","0.0-28.0","battery-v0.2","","""event"",""trial"",""time""
""focus"",""0"",""1""
""fullscreenenter"",""1"",""4565""
","
","""event"",""trial"",""time""
""focus"",""0"",""1""
","""event"",""trial"",""time""
""fullscreenenter"",""1"",""4565""
","
","","","648","","","21","3755","2709","j","elianto","#f73b6a7A"," "," ","1","0","[1513]","1","2","","","3755","24","0","3","lose","go","0"
"pit-trial","143","1233356","0.0-29.0","battery-v0.2","","""event"",""trial"",""time""
""focus"",""0"",""1""
""fullscreenenter"",""1"",""4565""
","
","""event"",""trial"",""time""
""focus"",""0"",""1""
","""event"",""trial"",""time""
""fullscreenenter"",""1"",""4565""
","
","","","635","","","21","3755","2709","d","elianto","#3366ff99","-1"," ","0","+10","[1489]","1","2","","","3755","25","1","2","win","no-go","1"
"pit-trial","144","1237410","0.0-30.0","battery-v0.2","","""event"",""trial"",""time""
""focus"",""0"",""1""
""fullscreenenter"",""1"",""4565""
","
","""event"",""trial"",""time""
""focus"",""0"",""1""
","""event"",""trial"",""time""
""fullscreenenter"",""1"",""4565""
","
","","","1198","","","21","3755","2709","e","elianto","#f73b6a7A"," "," ","1","0","[2049]","1","2","","","3755","26","2","3","lose","go","0"
"pit-trial","145","1242272","0.0-31.0","battery-v0.2","","""event"",""trial"",""time""
""focus"",""0"",""1""
""fullscreenenter"",""1"",""4565""
","
","""event"",""trial"",""time""
""focus"",""0"",""1""
","""event"",""trial"",""time""
""fullscreenenter"",""1"",""4565""
","
","","","-1","","","21","3755","2709","j","elianto","#f73b6a7A"," ","-1","0","-10","[]","0","2","","","3755","27","0","3","lose","go","0"
"pit-trial","146","1247142","0.0-32.0","battery-v0.2","","""event"",""trial"",""time""
""focus"",""0"",""1""
""fullscreenenter"",""1"",""4565""
","
","""event"",""trial"",""time""
""focus"",""0"",""1""
","""event"",""trial"",""time""
""fullscreenenter"",""1"",""4565""
","
","","","-1","","","21","3755","2709","w","elianto","#f73b6a7A","-1","-1","1","0","[]","0","2","","","3755","28","3","4","lose","no-go","0"
"pit-trial","147","1252008","0.0-33.0","battery-v0.2","","""event"",""trial"",""time""
""focus"",""0"",""1""
""fullscreenenter"",""1"",""4565""
","
","""event"",""trial"",""time""
""focus"",""0"",""1""
","""event"",""trial"",""time""
""fullscreenenter"",""1"",""4565""
","
","","","-1","","","21","3755","2709","w","elianto","#f73b6a7A","-1","-1","1","0","[]","0","2","","","3755","29","3","4","lose","no-go","0"
"pit-trial","148","1255619","0.0-34.0","battery-v0.2","","""event"",""trial"",""time""
""focus"",""0"",""1""
""fullscreenenter"",""1"",""4565""
","
","""event"",""trial"",""time""
""focus"",""0"",""1""
","""event"",""trial"",""time""
""fullscreenenter"",""1"",""4565""
","
","","","758","","","21","3755","2709","d","elianto","#3366ff99","-1"," ","0","0","[1608]","1","2","","","3755","30","1","2","win","no-go","0"
"pit-trial","149","1259722","0.0-35.0","battery-v0.2","","""event"",""trial"",""time""
""focus"",""0"",""1""
""fullscreenenter"",""1"",""4565""
","
","""event"",""trial"",""time""
""focus"",""0"",""1""
","""event"",""trial"",""time""
""fullscreenenter"",""1"",""4565""
","
","","","1244","","","21","3755","2709","j","elianto","#f73b6a7A"," "," ","1","0","[2094]","1","2","","","3755","31","0","3","lose","go","0"
"pit-trial","150","1263140","0.0-36.0","battery-v0.2","","""event"",""trial"",""time""
""focus"",""0"",""1""
""fullscreenenter"",""1"",""4565""
","
","""event"",""trial"",""time""
""focus"",""0"",""1""
","""event"",""trial"",""time""
""fullscreenenter"",""1"",""4565""
","
","","","553","","","21","3755","2709","e","elianto","#f73b6a7A"," "," ","1","0","[1405]","1","2","","","3755","32","2","3","lose","go","0"
"pit-trial","151","1268006","0.0-37.0","battery-v0.2","","""event"",""trial"",""time""
""focus"",""0"",""1""
""fullscreenenter"",""1"",""4565""
","
","""event"",""trial"",""time""
""focus"",""0"",""1""
","""event"",""trial"",""time""
""fullscreenenter"",""1"",""4565""
","
","","","-1","","","21","3755","2709","w","elianto","#f73b6a7A","-1","-1","1","0","[]","0","2","","","3755","33","3","4","lose","no-go","0"
"pit-trial","152","1271722","0.0-38.0","battery-v0.2","","""event"",""trial"",""time""
""focus"",""0"",""1""
""fullscreenenter"",""1"",""4565""
","
","""event"",""trial"",""time""
""focus"",""0"",""1""
","""event"",""trial"",""time""
""fullscreenenter"",""1"",""4565""
","
","","","855","","","21","3755","2709","j","elianto","#f73b6a7A"," "," ","1","0","[1706]","1","2","","","3755","34","0","3","lose","go","0"
"pit-trial","153","1275263","0.0-39.0","battery-v0.2","","""event"",""trial"",""time""
""focus"",""0"",""1""
""fullscreenenter"",""1"",""4565""
","
","""event"",""trial"",""time""
""focus"",""0"",""1""
","""event"",""trial"",""time""
""fullscreenenter"",""1"",""4565""
","
","","","682","","","21","3755","2709","d","elianto","#3366ff99","-1"," ","0","0","[1534]","1","2","","","3755","35","1","2","win","no-go","0"
"pit-trial","154","1279505","0.0-40.0","battery-v0.2","","""event"",""trial"",""time""
""focus"",""0"",""1""
""fullscreenenter"",""1"",""4565""
","
","""event"",""trial"",""time""
""focus"",""0"",""1""
","""event"",""trial"",""time""
""fullscreenenter"",""1"",""4565""
","
","","","1386","","","21","3755","2709","e","elianto","#f73b6a7A"," "," ","1","0","[2239]","1","2","","","3755","36","2","3","lose","go","0"
"pit-trial","155","1283675","0.0-41.0","battery-v0.2","","""event"",""trial"",""time""
""focus"",""0"",""1""
""fullscreenenter"",""1"",""4565""
","
","""event"",""trial"",""time""
""focus"",""0"",""1""
","""event"",""trial"",""time""
""fullscreenenter"",""1"",""4565""
","
","","","1317","","","21","3755","2709","e","elianto","#f73b6a7A"," "," ","1","0","[2169]","1","2","","","3755","37","2","3","lose","go","0"
"pit-trial","156","1287901","0.0-42.0","battery-v0.2","","""event"",""trial"",""time""
""focus"",""0"",""1""
""fullscreenenter"",""1"",""4565""
","
","""event"",""trial"",""time""
""focus"",""0"",""1""
","""event"",""trial"",""time""
""fullscreenenter"",""1"",""4565""
","
","","","1369","","","21","3755","2709","j","elianto","#f73b6a7A"," "," ","1","-10","[2221]","1","2","","","3755","38","0","3","lose","go","1"
"pit-trial","157","1291815","0.0-43.0","battery-v0.2","","""event"",""trial"",""time""
""focus"",""0"",""1""
""fullscreenenter"",""1"",""4565""
","
","""event"",""trial"",""time""
""focus"",""0"",""1""
","""event"",""trial"",""time""
""fullscreenenter"",""1"",""4565""
","
","","","1062","","","21","3755","2709","d","elianto","#3366ff99","-1"," ","0","0","[1913]","1","2","","","3755","39","1","2","win","no-go","0"
"pit-trial","158","1296678","0.0-44.0","battery-v0.2","","""event"",""trial"",""time""
""focus"",""0"",""1""
""fullscreenenter"",""1"",""4565""
","
","""event"",""trial"",""time""
""focus"",""0"",""1""
","""event"",""trial"",""time""
""fullscreenenter"",""1"",""4565""
","
","","","-1","","","21","3755","2709","w","elianto","#f73b6a7A","-1","-1","1","0","[]","0","2","","","3755","40","3","4","lose","no-go","0"
"pit-trial","159","1301544","0.0-45.0","battery-v0.2","","""event"",""trial"",""time""
""focus"",""0"",""1""
""fullscreenenter"",""1"",""4565""
","
","""event"",""trial"",""time""
""focus"",""0"",""1""
","""event"",""trial"",""time""
""fullscreenenter"",""1"",""4565""
","
","","","-1","","","21","3755","2709","d","elianto","#3366ff99","-1","-1","1","+10","[]","0","2","","","3755","41","1","2","win","no-go","0"
"pit-trial","160","1305567","0.0-46.0","battery-v0.2","","""event"",""trial"",""time""
""focus"",""0"",""1""
""fullscreenenter"",""1"",""4565""
","
","""event"",""trial"",""time""
""focus"",""0"",""1""
","""event"",""trial"",""time""
""fullscreenenter"",""1"",""4565""
","
","","","1155","","","21","3755","2709","e","elianto","#f73b6a7A"," "," ","1","0","[2008]","1","2","","","3755","42","2","3","lose","go","0"
"pit-trial","161","1310435","0.0-47.0","battery-v0.2","","""event"",""trial"",""time""
""focus"",""0"",""1""
""fullscreenenter"",""1"",""4565""
","
","""event"",""trial"",""time""
""focus"",""0"",""1""
","""event"",""trial"",""time""
""fullscreenenter"",""1"",""4565""
","
","","","-1","","","21","3755","2709","j","elianto","#f73b6a7A"," ","-1","0","-10","[]","0","2","","","3755","43","0","3","lose","go","0"
"pit-trial","162","1315299","0.0-48.0","battery-v0.2","","""event"",""trial"",""time""
""focus"",""0"",""1""
""fullscreenenter"",""1"",""4565""
","
","""event"",""trial"",""time""
""focus"",""0"",""1""
","""event"",""trial"",""time""
""fullscreenenter"",""1"",""4565""
","
","","","-1","","","21","3755","2709","w","elianto","#f73b6a7A","-1","-1","1","-10","[]","0","2","","","3755","44","3","4","lose","no-go","1"
"pit-trial","163","1320170","0.0-49.0","battery-v0.2","","""event"",""trial"",""time""
""focus"",""0"",""1""
""fullscreenenter"",""1"",""4565""
","
","""event"",""trial"",""time""
""focus"",""0"",""1""
","""event"",""trial"",""time""
""fullscreenenter"",""1"",""4565""
","
","","","-1","","","21","3755","2709","w","elianto","#f73b6a7A","-1","-1","1","-10","[]","0","2","","","3755","45","3","4","lose","no-go","1"
"pit-trial","164","1323896","0.0-50.0","battery-v0.2","","""event"",""trial"",""time""
""focus"",""0"",""1""
""fullscreenenter"",""1"",""4565""
","
","""event"",""trial"",""time""
""focus"",""0"",""1""
","""event"",""trial"",""time""
""fullscreenenter"",""1"",""4565""
","
","","","859","","","21","3755","2709","d","elianto","#3366ff99","-1"," ","0","0","[1715]","1","2","","","3755","46","1","2","win","no-go","0"
"pit-trial","165","1327972","0.0-51.0","battery-v0.2","","""event"",""trial"",""time""
""focus"",""0"",""1""
""fullscreenenter"",""1"",""4565""
","
","""event"",""trial"",""time""
""focus"",""0"",""1""
","""event"",""trial"",""time""
""fullscreenenter"",""1"",""4565""
","
","","","1220","","","21","3755","2709","e","elianto","#f73b6a7A"," "," ","1","0","[2071]","1","2","","","3755","47","2","3","lose","go","0"
"pit-trial","166","1332043","0.0-52.0","battery-v0.2","","""event"",""trial"",""time""
""focus"",""0"",""1""
""fullscreenenter"",""1"",""4565""
","
","""event"",""trial"",""time""
""focus"",""0"",""1""
","""event"",""trial"",""time""
""fullscreenenter"",""1"",""4565""
","
","","","1204","","","21","3755","2709","j","elianto","#f73b6a7A"," "," ","1","0","[2068]","1","2","","","3755","48","0","3","lose","go","0"
"pit-trial","167","1335685","0.0-53.0","battery-v0.2","","""event"",""trial"",""time""
""focus"",""0"",""1""
""fullscreenenter"",""1"",""4565""
","
","""event"",""trial"",""time""
""focus"",""0"",""1""
","""event"",""trial"",""time""
""fullscreenenter"",""1"",""4565""
","
","","","767","","","21","3755","2709","j","elianto","#f73b6a7A"," "," ","1","0","[1628]","1","2","","","3755","49","0","3","lose","go","0"
"pit-trial","168","1339925","0.0-54.0","battery-v0.2","","""event"",""trial"",""time""
""focus"",""0"",""1""
""fullscreenenter"",""1"",""4565""
","
","""event"",""trial"",""time""
""focus"",""0"",""1""
","""event"",""trial"",""time""
""fullscreenenter"",""1"",""4565""
","
","","","1370","","","21","3755","2709","d","elianto","#3366ff99","-1"," ","0","0","[2223]","1","2","","","3755","50","1","2","win","no-go","0"
"pit-trial","169","1343765","0.0-55.0","battery-v0.2","","""event"",""trial"",""time""
""focus"",""0"",""1""
""fullscreenenter"",""1"",""4565""
","
","""event"",""trial"",""time""
""focus"",""0"",""1""
","""event"",""trial"",""time""
""fullscreenenter"",""1"",""4565""
","
","","","977","","","21","3755","2709","e","elianto","#f73b6a7A"," "," ","1","0","[1829]","1","2","","","3755","51","2","3","lose","go","0"
"pit-trial","170","1347960","0.0-56.0","battery-v0.2","","""event"",""trial"",""time""
""focus"",""0"",""1""
""fullscreenenter"",""1"",""4565""
","
","""event"",""trial"",""time""
""focus"",""0"",""1""
","""event"",""trial"",""time""
""fullscreenenter"",""1"",""4565""
","
","","","1332","","","21","3755","2709","w","elianto","#f73b6a7A","-1"," ","0","-10","[2186]","1","2","","","3755","52","3","4","lose","no-go","0"
"pit-trial","171","1351694","0.0-57.0","battery-v0.2","","""event"",""trial"",""time""
""focus"",""0"",""1""
""fullscreenenter"",""1"",""4565""
","
","""event"",""trial"",""time""
""focus"",""0"",""1""
","""event"",""trial"",""time""
""fullscreenenter"",""1"",""4565""
","
","","","877","","","21","3755","2709","j","elianto","#f73b6a7A"," "," ","1","0","[1730]","1","2","","","3755","53","0","3","lose","go","0"
"pit-trial","172","1356567","0.0-58.0","battery-v0.2","","""event"",""trial"",""time""
""focus"",""0"",""1""
""fullscreenenter"",""1"",""4565""
","
","""event"",""trial"",""time""
""focus"",""0"",""1""
","""event"",""trial"",""time""
""fullscreenenter"",""1"",""4565""
","
","","","-1","","","21","3755","2709","d","elianto","#3366ff99","-1","-1","1","+10","[]","0","2","","","3755","54","1","2","win","no-go","0"
"pit-trial","173","1361432","0.0-59.0","battery-v0.2","","""event"",""trial"",""time""
""focus"",""0"",""1""
""fullscreenenter"",""1"",""4565""
","
","""event"",""trial"",""time""
""focus"",""0"",""1""
","""event"",""trial"",""time""
""fullscreenenter"",""1"",""4565""
","
","","","-1","","","21","3755","2709","w","elianto","#f73b6a7A","-1","-1","1","0","[]","0","2","","","3755","55","3","4","lose","no-go","0"
"pit-trial","174","1365318","0.0-60.0","battery-v0.2","","""event"",""trial"",""time""
""focus"",""0"",""1""
""fullscreenenter"",""1"",""4565""
","
","""event"",""trial"",""time""
""focus"",""0"",""1""
","""event"",""trial"",""time""
""fullscreenenter"",""1"",""4565""
","
","","","1016","","","21","3755","2709","e","elianto","#f73b6a7A"," "," ","1","0","[1868]","1","2","","","3755","56","2","3","lose","go","0"
"pit-trial","175","1369823","0.0-61.0","battery-v0.2","","""event"",""trial"",""time""
""focus"",""0"",""1""
""fullscreenenter"",""1"",""4565""
","
","""event"",""trial"",""time""
""focus"",""0"",""1""
","""event"",""trial"",""time""
""fullscreenenter"",""1"",""4565""
","
","","","1649","","","21","3755","2709","s","elianto","#3366ff99"," "," ","1","0","[2500]","1","2","","","3755","57","4","1","win","go","1"
"pit-trial","176","1374618","0.0-62.0","battery-v0.2","","""event"",""trial"",""time""
""focus"",""0"",""1""
""fullscreenenter"",""1"",""4565""
","
","""event"",""trial"",""time""
""focus"",""0"",""1""
","""event"",""trial"",""time""
""fullscreenenter"",""1"",""4565""
","
","","","1930","","","21","3755","2709","j","elianto","#f73b6a7A"," "," ","1","0","[2781]","1","2","","","3755","58","0","3","lose","go","0"
"pit-trial","177","1379482","0.0-63.0","battery-v0.2","","""event"",""trial"",""time""
""focus"",""0"",""1""
""fullscreenenter"",""1"",""4565""
","
","""event"",""trial"",""time""
""focus"",""0"",""1""
","""event"",""trial"",""time""
""fullscreenenter"",""1"",""4565""
","
","","","-1","","","21","3755","2709","w","elianto","#f73b6a7A","-1","-1","1","0","[]","0","2","","","3755","59","3","4","lose","no-go","0"
"pit-trial","178","1383431","0.0-64.0","battery-v0.2","","""event"",""trial"",""time""
""focus"",""0"",""1""
""fullscreenenter"",""1"",""4565""
","
","""event"",""trial"",""time""
""focus"",""0"",""1""
","""event"",""trial"",""time""
""fullscreenenter"",""1"",""4565""
","
","","","1082","","","21","3755","2709","e","elianto","#f73b6a7A"," "," ","1","-10","[1934]","1","2","","","3755","60","2","3","lose","go","1"
"pit-trial","179","1388300","0.0-65.0","battery-v0.2","","""event"",""trial"",""time""
""focus"",""0"",""1""
""fullscreenenter"",""1"",""4565""
","
","""event"",""trial"",""time""
""focus"",""0"",""1""
","""event"",""trial"",""time""
""fullscreenenter"",""1"",""4565""
","
","","","-1","","","21","3755","2709","s","elianto","#3366ff99"," ","-1","0","0","[]","0","2","","","3755","61","4","1","win","go","0"
"pit-trial","180","1393170","0.0-66.0","battery-v0.2","","""event"",""trial"",""time""
""focus"",""0"",""1""
""fullscreenenter"",""1"",""4565""
","
","""event"",""trial"",""time""
""focus"",""0"",""1""
","""event"",""trial"",""time""
""fullscreenenter"",""1"",""4565""
","
","","","-1","","","21","3755","2709","d","elianto","#3366ff99","-1","-1","1","+10","[]","0","2","","","3755","62","1","2","win","no-go","0"
"pit-trial","181","1397116","0.0-67.0","battery-v0.2","","""event"",""trial"",""time""
""focus"",""0"",""1""
""fullscreenenter"",""1"",""4565""
","
","""event"",""trial"",""time""
""focus"",""0"",""1""
","""event"",""trial"",""time""
""fullscreenenter"",""1"",""4565""
","
","","","1092","","","21","3755","2709","e","elianto","#f73b6a7A"," "," ","1","0","[1943]","1","2","","","3755","63","2","3","lose","go","0"
"pit-trial","182","1401987","0.0-68.0","battery-v0.2","","""event"",""trial"",""time""
""focus"",""0"",""1""
""fullscreenenter"",""1"",""4565""
","
","""event"",""trial"",""time""
""focus"",""0"",""1""
","""event"",""trial"",""time""
""fullscreenenter"",""1"",""4565""
","
","","","-1","","","21","3755","2709","w","elianto","#f73b6a7A","-1","-1","1","0","[]","0","2","","","3755","64","3","4","lose","no-go","0"
"pit-trial","183","1406859","0.0-69.0","battery-v0.2","","""event"",""trial"",""time""
""focus"",""0"",""1""
""fullscreenenter"",""1"",""4565""
","
","""event"",""trial"",""time""
""focus"",""0"",""1""
","""event"",""trial"",""time""
""fullscreenenter"",""1"",""4565""
","
","","","-1","","","21","3755","2709","p","elianto","#3366ff99","-1","-1","1","+10","[]","0","2","","","3755","65","5","2","win","no-go","0"
"pit-trial","184","1411731","0.0-70.0","battery-v0.2","","""event"",""trial"",""time""
""focus"",""0"",""1""
""fullscreenenter"",""1"",""4565""
","
","""event"",""trial"",""time""
""focus"",""0"",""1""
","""event"",""trial"",""time""
""fullscreenenter"",""1"",""4565""
","
","","","-1","","","21","3755","2709","d","elianto","#3366ff99","-1","-1","1","+10","[]","0","2","","","3755","66","1","2","win","no-go","0"
"pit-trial","185","1416588","0.0-71.0","battery-v0.2","","""event"",""trial"",""time""
""focus"",""0"",""1""
""fullscreenenter"",""1"",""4565""
","
","""event"",""trial"",""time""
""focus"",""0"",""1""
","""event"",""trial"",""time""
""fullscreenenter"",""1"",""4565""
","
","","","-1","","","21","3755","2709","s","elianto","#3366ff99"," ","-1","0","0","[]","0","2","","","3755","67","4","1","win","go","0"
"pit-trial","186","1421453","0.0-72.0","battery-v0.2","","""event"",""trial"",""time""
""focus"",""0"",""1""
""fullscreenenter"",""1"",""4565""
","
","""event"",""trial"",""time""
""focus"",""0"",""1""
","""event"",""trial"",""time""
""fullscreenenter"",""1"",""4565""
","
","","","-1","","","21","3755","2709","w","elianto","#f73b6a7A","-1","-1","1","0","[]","0","2","","","3755","68","3","4","lose","no-go","0"
"pit-trial","187","1425438","0.0-73.0","battery-v0.2","","""event"",""trial"",""time""
""focus"",""0"",""1""
""fullscreenenter"",""1"",""4565""
","
","""event"",""trial"",""time""
""focus"",""0"",""1""
","""event"",""trial"",""time""
""fullscreenenter"",""1"",""4565""
","
","","","1111","","","21","3755","2709","e","elianto","#f73b6a7A"," "," ","1","-10","[1974]","1","2","","","3755","69","2","3","lose","go","1"
"pit-trial","188","1430308","0.0-74.0","battery-v0.2","","""event"",""trial"",""time""
""focus"",""0"",""1""
""fullscreenenter"",""1"",""4565""
","
","""event"",""trial"",""time""
""focus"",""0"",""1""
","""event"",""trial"",""time""
""fullscreenenter"",""1"",""4565""
","
","","","-1","","","21","3755","2709","p","elianto","#3366ff99","-1","-1","1","0","[]","0","2","","","3755","70","5","2","win","no-go","1"
"pit-trial","189","1433985","0.0-75.0","battery-v0.2","","""event"",""trial"",""time""
""focus"",""0"",""1""
""fullscreenenter"",""1"",""4565""
","
","""event"",""trial"",""time""
""focus"",""0"",""1""
","""event"",""trial"",""time""
""fullscreenenter"",""1"",""4565""
","
","","","799","","","21","3755","2709","s","elianto","#3366ff99"," "," ","1","0","[1662]","1","2","","","3755","71","4","1","win","go","1"
"pit-trial","190","1438851","0.0-76.0","battery-v0.2","","""event"",""trial"",""time""
""focus"",""0"",""1""
""fullscreenenter"",""1"",""4565""
","
","""event"",""trial"",""time""
""focus"",""0"",""1""
","""event"",""trial"",""time""
""fullscreenenter"",""1"",""4565""
","
","","","-1","","","21","3755","2709","d","elianto","#3366ff99","-1","-1","1","+10","[]","0","2","","","3755","72","1","2","win","no-go","0"
"pit-trial","191","1443410","0.0-77.0","battery-v0.2","","""event"",""trial"",""time""
""focus"",""0"",""1""
""fullscreenenter"",""1"",""4565""
","
","""event"",""trial"",""time""
""focus"",""0"",""1""
","""event"",""trial"",""time""
""fullscreenenter"",""1"",""4565""
","
","","","1694","","","21","3755","2709","d","elianto","#3366ff99","-1"," ","0","0","[2548]","1","2","","","3755","73","1","2","win","no-go","0"
"pit-trial","192","1447864","0.0-78.0","battery-v0.2","","""event"",""trial"",""time""
""focus"",""0"",""1""
""fullscreenenter"",""1"",""4565""
","
","""event"",""trial"",""time""
""focus"",""0"",""1""
","""event"",""trial"",""time""
""fullscreenenter"",""1"",""4565""
","
","","","1593","","","21","3755","2709","p","elianto","#3366ff99","-1"," ","0","0","[2447]","1","2","","","3755","74","5","2","win","no-go","0"
"pit-trial","193","1452732","0.0-79.0","battery-v0.2","","""event"",""trial"",""time""
""focus"",""0"",""1""
""fullscreenenter"",""1"",""4565""
","
","""event"",""trial"",""time""
""focus"",""0"",""1""
","""event"",""trial"",""time""
""fullscreenenter"",""1"",""4565""
","
","","","-1","","","21","3755","2709","w","elianto","#f73b6a7A","-1","-1","1","-10","[]","0","2","","","3755","75","3","4","lose","no-go","1"
"pit-trial","194","1457600","0.0-80.0","battery-v0.2","","""event"",""trial"",""time""
""focus"",""0"",""1""
""fullscreenenter"",""1"",""4565""
","
","""event"",""trial"",""time""
""focus"",""0"",""1""
","""event"",""trial"",""time""
""fullscreenenter"",""1"",""4565""
","
","","","-1","","","21","3755","2709","s","elianto","#3366ff99"," ","-1","0","0","[]","0","2","","","3755","76","4","1","win","go","0"
"pit-trial","195","1462459","0.0-81.0","battery-v0.2","","""event"",""trial"",""time""
""focus"",""0"",""1""
""fullscreenenter"",""1"",""4565""
","
","""event"",""trial"",""time""
""focus"",""0"",""1""
","""event"",""trial"",""time""
""fullscreenenter"",""1"",""4565""
","
","","","-1","","","21","3755","2709","w","elianto","#f73b6a7A","-1","-1","1","0","[]","0","2","","","3755","77","3","4","lose","no-go","0"
"pit-trial","196","1466477","0.0-82.0","battery-v0.2","","""event"",""trial"",""time""
""focus"",""0"",""1""
""fullscreenenter"",""1"",""4565""
","
","""event"",""trial"",""time""
""focus"",""0"",""1""
","""event"",""trial"",""time""
""fullscreenenter"",""1"",""4565""
","
","","","1151","","","21","3755","2709","p","elianto","#3366ff99","-1"," ","0","+10","[2008]","1","2","","","3755","78","5","2","win","no-go","1"
"pit-trial","197","1470199","0.0-83.0","battery-v0.2","","""event"",""trial"",""time""
""focus"",""0"",""1""
""fullscreenenter"",""1"",""4565""
","
","""event"",""trial"",""time""
""focus"",""0"",""1""
","""event"",""trial"",""time""
""fullscreenenter"",""1"",""4565""
","
","","","861","","","21","3755","2709","s","elianto","#3366ff99"," "," ","1","+10","[1714]","1","2","","","3755","79","4","1","win","go","0"
"pit-trial","198","1473766","0.0-84.0","battery-v0.2","","""event"",""trial"",""time""
""focus"",""0"",""1""
""fullscreenenter"",""1"",""4565""
","
","""event"",""trial"",""time""
""focus"",""0"",""1""
","""event"",""trial"",""time""
""fullscreenenter"",""1"",""4565""
","
","","","694","","","21","3755","2709","s","elianto","#3366ff99"," "," ","1","+10","[1558]","1","2","","","3755","80","4","1","win","go","0"
"pit-trial","199","1478625","0.0-85.0","battery-v0.2","","""event"",""trial"",""time""
""focus"",""0"",""1""
""fullscreenenter"",""1"",""4565""
","
","""event"",""trial"",""time""
""focus"",""0"",""1""
","""event"",""trial"",""time""
""fullscreenenter"",""1"",""4565""
","
","","","-1","","","21","3755","2709","w","elianto","#f73b6a7A","-1","-1","1","0","[]","0","2","","","3755","81","3","4","lose","no-go","0"
"pit-trial","200","1482662","0.0-86.0","battery-v0.2","","""event"",""trial"",""time""
""focus"",""0"",""1""
""fullscreenenter"",""1"",""4565""
","
","""event"",""trial"",""time""
""focus"",""0"",""1""
","""event"",""trial"",""time""
""fullscreenenter"",""1"",""4565""
","
","","","1184","","","21","3755","2709","a","elianto","#f73b6a7A","-1"," ","0","-10","[2035]","1","2","","","3755","82","7","4","lose","no-go","0"
"pit-trial","201","1486462","0.0-87.0","battery-v0.2","","""event"",""trial"",""time""
""focus"",""0"",""1""
""fullscreenenter"",""1"",""4565""
","
","""event"",""trial"",""time""
""focus"",""0"",""1""
","""event"",""trial"",""time""
""fullscreenenter"",""1"",""4565""
","
","","","926","","","21","3755","2709","s","elianto","#3366ff99"," "," ","1","0","[1784]","1","2","","","3755","83","4","1","win","go","1"
"pit-trial","202","1489992","0.0-88.0","battery-v0.2","","""event"",""trial"",""time""
""focus"",""0"",""1""
""fullscreenenter"",""1"",""4565""
","
","""event"",""trial"",""time""
""focus"",""0"",""1""
","""event"",""trial"",""time""
""fullscreenenter"",""1"",""4565""
","
","","","662","","","21","3755","2709","p","elianto","#3366ff99","-1"," ","0","0","[1527]","1","2","","","3755","84","5","2","win","no-go","0"
"pit-trial","203","1493486","0.0-89.0","battery-v0.2","","""event"",""trial"",""time""
""focus"",""0"",""1""
""fullscreenenter"",""1"",""4565""
","
","""event"",""trial"",""time""
""focus"",""0"",""1""
","""event"",""trial"",""time""
""fullscreenenter"",""1"",""4565""
","
","","","639","","","21","3755","2709","s","elianto","#3366ff99"," "," ","1","0","[1491]","1","2","","","3755","85","4","1","win","go","1"
"pit-trial","204","1497085","0.0-90.0","battery-v0.2","","""event"",""trial"",""time""
""focus"",""0"",""1""
""fullscreenenter"",""1"",""4565""
","
","""event"",""trial"",""time""
""focus"",""0"",""1""
","""event"",""trial"",""time""
""fullscreenenter"",""1"",""4565""
","
","","","729","","","21","3755","2709","p","elianto","#3366ff99","-1"," ","0","0","[1594]","1","2","","","3755","86","5","2","win","no-go","0"
"pit-trial","205","1501373","0.0-91.0","battery-v0.2","","""event"",""trial"",""time""
""focus"",""0"",""1""
""fullscreenenter"",""1"",""4565""
","
","""event"",""trial"",""time""
""focus"",""0"",""1""
","""event"",""trial"",""time""
""fullscreenenter"",""1"",""4565""
","
","","","1431","","","21","3755","2709","a","elianto","#f73b6a7A","-1"," ","0","0","[2283]","1","2","","","3755","87","7","4","lose","no-go","1"
"pit-trial","206","1505400","0.0-92.0","battery-v0.2","","""event"",""trial"",""time""
""focus"",""0"",""1""
""fullscreenenter"",""1"",""4565""
","
","""event"",""trial"",""time""
""focus"",""0"",""1""
","""event"",""trial"",""time""
""fullscreenenter"",""1"",""4565""
","
","","","1162","","","21","3755","2709","g","elianto","#f73b6a7A"," "," ","1","0","[2016]","1","2","","","3755","88","6","3","lose","go","0"
"pit-trial","207","1509111","0.0-93.0","battery-v0.2","","""event"",""trial"",""time""
""focus"",""0"",""1""
""fullscreenenter"",""1"",""4565""
","
","""event"",""trial"",""time""
""focus"",""0"",""1""
","""event"",""trial"",""time""
""fullscreenenter"",""1"",""4565""
","
","","","839","","","21","3755","2709","g","elianto","#f73b6a7A"," "," ","1","-10","[1693]","1","2","","","3755","89","6","3","lose","go","1"
"pit-trial","208","1512830","0.0-94.0","battery-v0.2","","""event"",""trial"",""time""
""focus"",""0"",""1""
""fullscreenenter"",""1"",""4565""
","
","""event"",""trial"",""time""
""focus"",""0"",""1""
","""event"",""trial"",""time""
""fullscreenenter"",""1"",""4565""
","
","","","865","","","21","3755","2709","p","elianto","#3366ff99","-1"," ","0","0","[1716]","1","2","","","3755","90","5","2","win","no-go","0"
"pit-trial","209","1517691","0.0-95.0","battery-v0.2","","""event"",""trial"",""time""
""focus"",""0"",""1""
""fullscreenenter"",""1"",""4565""
","
","""event"",""trial"",""time""
""focus"",""0"",""1""
","""event"",""trial"",""time""
""fullscreenenter"",""1"",""4565""
","
","","","-1","","","21","3755","2709","s","elianto","#3366ff99"," ","-1","0","0","[]","0","2","","","3755","91","4","1","win","go","0"
"pit-trial","210","1521993","0.0-96.0","battery-v0.2","","""event"",""trial"",""time""
""focus"",""0"",""1""
""fullscreenenter"",""1"",""4565""
","
","""event"",""trial"",""time""
""focus"",""0"",""1""
","""event"",""trial"",""time""
""fullscreenenter"",""1"",""4565""
","
","","","1428","","","21","3755","2709","a","elianto","#f73b6a7A","-1"," ","0","0","[2293]","1","2","","","3755","92","7","4","lose","no-go","1"
"pit-trial","211","1526205","0.0-97.0","battery-v0.2","","""event"",""trial"",""time""
""focus"",""0"",""1""
""fullscreenenter"",""1"",""4565""
","
","""event"",""trial"",""time""
""focus"",""0"",""1""
","""event"",""trial"",""time""
""fullscreenenter"",""1"",""4565""
","
","","","1343","","","21","3755","2709","l","elianto","#3366ff99"," "," ","1","0","[2195]","1","2","","","3755","93","8","1","win","go","1"
"pit-trial","212","1530270","0.0-98.0","battery-v0.2","","""event"",""trial"",""time""
""focus"",""0"",""1""
""fullscreenenter"",""1"",""4565""
","
","""event"",""trial"",""time""
""focus"",""0"",""1""
","""event"",""trial"",""time""
""fullscreenenter"",""1"",""4565""
","
","","","1207","","","21","3755","2709","p","elianto","#3366ff99","-1"," ","0","0","[2061]","1","2","","","3755","94","5","2","win","no-go","0"
"pit-trial","213","1534197","0.0-99.0","battery-v0.2","","""event"",""trial"",""time""
""focus"",""0"",""1""
""fullscreenenter"",""1"",""4565""
","
","""event"",""trial"",""time""
""focus"",""0"",""1""
","""event"",""trial"",""time""
""fullscreenenter"",""1"",""4565""
","
","","","1052","","","21","3755","2709","a","elianto","#f73b6a7A","-1"," ","0","-10","[1916]","1","2","","","3755","95","7","4","lose","no-go","0"
"pit-trial","214","1539055","0.0-100.0","battery-v0.2","","""event"",""trial"",""time""
""focus"",""0"",""1""
""fullscreenenter"",""1"",""4565""
","
","""event"",""trial"",""time""
""focus"",""0"",""1""
","""event"",""trial"",""time""
""fullscreenenter"",""1"",""4565""
","
","","","-1","","","21","3755","2709","g","elianto","#f73b6a7A"," ","-1","0","-10","[]","0","2","","","3755","96","6","3","lose","go","0"
"pit-trial","215","1542632","0.0-101.0","battery-v0.2","","""event"",""trial"",""time""
""focus"",""0"",""1""
""fullscreenenter"",""1"",""4565""
","
","""event"",""trial"",""time""
""focus"",""0"",""1""
","""event"",""trial"",""time""
""fullscreenenter"",""1"",""4565""
","
","","","723","","","21","3755","2709","g","elianto","#f73b6a7A"," "," ","1","0","[1573]","1","2","","","3755","97","6","3","lose","go","0"
"pit-trial","216","1546995","0.0-102.0","battery-v0.2","","""event"",""trial"",""time""
""focus"",""0"",""1""
""fullscreenenter"",""1"",""4565""
","
","""event"",""trial"",""time""
""focus"",""0"",""1""
","""event"",""trial"",""time""
""fullscreenenter"",""1"",""4565""
","
","","","1483","","","21","3755","2709","l","elianto","#3366ff99"," "," ","1","0","[2348]","1","2","","","3755","98","8","1","win","go","1"
"pit-trial","217","1551860","0.0-103.0","battery-v0.2","","""event"",""trial"",""time""
""focus"",""0"",""1""
""fullscreenenter"",""1"",""4565""
","
","""event"",""trial"",""time""
""focus"",""0"",""1""
","""event"",""trial"",""time""
""fullscreenenter"",""1"",""4565""
","
","","","-1","","","21","3755","2709","a","elianto","#f73b6a7A","-1","-1","1","0","[]","0","2","","","3755","99","7","4","lose","no-go","0"
"pit-trial","218","1556723","0.0-104.0","battery-v0.2","","""event"",""trial"",""time""
""focus"",""0"",""1""
""fullscreenenter"",""1"",""4565""
","
","""event"",""trial"",""time""
""focus"",""0"",""1""
","""event"",""trial"",""time""
""fullscreenenter"",""1"",""4565""
","
","","","-1","","","21","3755","2709","p","elianto","#3366ff99","-1","-1","1","+10","[]","0","2","","","3755","100","5","2","win","no-go","0"
"pit-trial","219","1561590","0.0-105.0","battery-v0.2","","""event"",""trial"",""time""
""focus"",""0"",""1""
""fullscreenenter"",""1"",""4565""
","
","""event"",""trial"",""time""
""focus"",""0"",""1""
","""event"",""trial"",""time""
""fullscreenenter"",""1"",""4565""
","
","","","-1","","","21","3755","2709","a","elianto","#f73b6a7A","-1","-1","1","-10","[]","0","2","","","3755","101","7","4","lose","no-go","1"
"pit-trial","220","1566458","0.0-106.0","battery-v0.2","","""event"",""trial"",""time""
""focus"",""0"",""1""
""fullscreenenter"",""1"",""4565""
","
","""event"",""trial"",""time""
""focus"",""0"",""1""
","""event"",""trial"",""time""
""fullscreenenter"",""1"",""4565""
","
","","","-1","","","21","3755","2709","u","elianto","#3366ff99"," ","-1","0","0","[]","0","2","","","3755","102","9","1","win","go","0"
"pit-trial","221","1571333","0.0-107.0","battery-v0.2","","""event"",""trial"",""time""
""focus"",""0"",""1""
""fullscreenenter"",""1"",""4565""
","
","""event"",""trial"",""time""
""focus"",""0"",""1""
","""event"",""trial"",""time""
""fullscreenenter"",""1"",""4565""
","
","","","-1","","","21","3755","2709","p","elianto","#3366ff99","-1","-1","1","+10","[]","0","2","","","3755","103","5","2","win","no-go","0"
"pit-trial","222","1576191","0.0-108.0","battery-v0.2","","""event"",""trial"",""time""
""focus"",""0"",""1""
""fullscreenenter"",""1"",""4565""
","
","""event"",""trial"",""time""
""focus"",""0"",""1""
","""event"",""trial"",""time""
""fullscreenenter"",""1"",""4565""
","
","","","-1","","","21","3755","2709","l","elianto","#3366ff99"," ","-1","0","0","[]","0","2","","","3755","104","8","1","win","go","0"
"pit-trial","223","1579717","0.0-109.0","battery-v0.2","","""event"",""trial"",""time""
""focus"",""0"",""1""
""fullscreenenter"",""1"",""4565""
","
","""event"",""trial"",""time""
""focus"",""0"",""1""
","""event"",""trial"",""time""
""fullscreenenter"",""1"",""4565""
","
","","","663","","","21","3755","2709","l","elianto","#3366ff99"," "," ","1","+10","[1513]","1","2","","","3755","105","8","1","win","go","0"
"pit-trial","224","1583946","0.0-110.0","battery-v0.2","","""event"",""trial"",""time""
""focus"",""0"",""1""
""fullscreenenter"",""1"",""4565""
","
","""event"",""trial"",""time""
""focus"",""0"",""1""
","""event"",""trial"",""time""
""fullscreenenter"",""1"",""4565""
","
","","","1369","","","21","3755","2709","u","elianto","#3366ff99"," "," ","1","+10","[2221]","1","2","","","3755","106","9","1","win","go","0"
"pit-trial","225","1587470","0.0-111.0","battery-v0.2","","""event"",""trial"",""time""
""focus"",""0"",""1""
""fullscreenenter"",""1"",""4565""
","
","""event"",""trial"",""time""
""focus"",""0"",""1""
","""event"",""trial"",""time""
""fullscreenenter"",""1"",""4565""
","
","","","648","","","21","3755","2709","s","elianto","#3366ff99"," "," ","1","0","[1510]","1","2","","","3755","107","4","1","win","go","1"
"pit-trial","226","1591337","0.0-112.0","battery-v0.2","","""event"",""trial"",""time""
""focus"",""0"",""1""
""fullscreenenter"",""1"",""4565""
","
","""event"",""trial"",""time""
""focus"",""0"",""1""
","""event"",""trial"",""time""
""fullscreenenter"",""1"",""4565""
","
","","","997","","","21","3755","2709","g","elianto","#f73b6a7A"," "," ","1","0","[1851]","1","2","","","3755","108","6","3","lose","go","0"
"pit-trial","227","1594977","0.0-113.0","battery-v0.2","","""event"",""trial"",""time""
""focus"",""0"",""1""
""fullscreenenter"",""1"",""4565""
","
","""event"",""trial"",""time""
""focus"",""0"",""1""
","""event"",""trial"",""time""
""fullscreenenter"",""1"",""4565""
","
","","","772","","","21","3755","2709","l","elianto","#3366ff99"," "," ","1","+10","[1630]","1","2","","","3755","109","8","1","win","go","0"
"pit-trial","228","1598565","0.0-114.0","battery-v0.2","","""event"",""trial"",""time""
""focus"",""0"",""1""
""fullscreenenter"",""1"",""4565""
","
","""event"",""trial"",""time""
""focus"",""0"",""1""
","""event"",""trial"",""time""
""fullscreenenter"",""1"",""4565""
","
","","","724","","","21","3755","2709","g","elianto","#f73b6a7A"," "," ","1","0","[1576]","1","2","","","3755","110","6","3","lose","go","0"
"pit-trial","229","1603440","0.0-115.0","battery-v0.2","","""event"",""trial"",""time""
""focus"",""0"",""1""
""fullscreenenter"",""1"",""4565""
","
","""event"",""trial"",""time""
""focus"",""0"",""1""
","""event"",""trial"",""time""
""fullscreenenter"",""1"",""4565""
","
","","","-1","","","21","3755","2709","p","elianto","#3366ff99","-1","-1","1","+10","[]","0","2","","","3755","111","5","2","win","no-go","0"
"pit-trial","230","1607225","0.0-116.0","battery-v0.2","","""event"",""trial"",""time""
""focus"",""0"",""1""
""fullscreenenter"",""1"",""4565""
","
","""event"",""trial"",""time""
""focus"",""0"",""1""
","""event"",""trial"",""time""
""fullscreenenter"",""1"",""4565""
","
