"trial_type","trial_index","time_elapsed","internal_node_id","task_version","subject_id","interactions","blur_events","focus_events","fullscreenenter_events","fullscreenexit_events","success","view_history","rt","responses","num_errors","age","subject","participantId","rune","rune_set","hex","correct","choice","accuracy","outcome","keys","total_keys","block","practice","value","sub","trial","stimulus","robot","valence","action","sham"
"pavlovia","0","9","0.0-0.0","battery-v0.2","","""event"",""trial"",""time""
""fullscreenenter"",""1"",""2710""
","
","
","""event"",""trial"",""time""
""fullscreenenter"",""1"",""2710""
","
","","","","","","","","","","","","","","","","","","","","","","","","","","",""
"fullscreen","1","3676","0.0-1.0","battery-v0.2","","""event"",""trial"",""time""
""fullscreenenter"",""1"",""2710""
","
","
","""event"",""trial"",""time""
""fullscreenenter"",""1"",""2710""
","
","true","","","","","","","","","","","","","","","","","","","","","","","","","",""
"pit-instructions","2","15455","0.0-2.0-0.0","battery-v0.2","","""event"",""trial"",""time""
""fullscreenenter"",""1"",""2710""
","
","
","""event"",""trial"",""time""
""fullscreenenter"",""1"",""2710""
","
","","[{""page_index"":0,""viewing_time"":11777.100000000093}]","11777.30000000028","","","","","","","","","","","","","","","","","","","","","","","",""
"pit-comprehension","3","20316","0.0-2.0-1.0-0.0","battery-v0.2","","""event"",""trial"",""time""
""fullscreenenter"",""1"",""2710""
","
","
","""event"",""trial"",""time""
""fullscreenenter"",""1"",""2710""
","
","","","4859","[""shark""]","0","12","16469","6430","","","","","","","","","","","","","","","","","","",""
"pit-instructions","4","21439","0.0-2.0-1.0-1.0","battery-v0.2","","""event"",""trial"",""time""
""fullscreenenter"",""1"",""2710""
","
","
","""event"",""trial"",""time""
""fullscreenenter"",""1"",""2710""
","
","","[{""page_index"":0,""viewing_time"":1110.6000000000931}]","1110.8000000002794","","","","","","","","","","","","","","","","","","","","","","","",""
"pit-comprehension","5","24579","0.0-2.0-2.0-0.0","battery-v0.2","","""event"",""trial"",""time""
""fullscreenenter"",""1"",""2710""
","
","
","""event"",""trial"",""time""
""fullscreenenter"",""1"",""2710""
","
","","","3138.100000000093","[""tiger""]","0","12","16469","6430","","","","","","","","","","","","","","","","","","",""
"pit-instructions","6","25872","0.0-2.0-2.0-1.0","battery-v0.2","","""event"",""trial"",""time""
""fullscreenenter"",""1"",""2710""
","
","
","""event"",""trial"",""time""
""fullscreenenter"",""1"",""2710""
","
","","[{""page_index"":0,""viewing_time"":1291.7999999998137}]","1291.8999999999069","","","","","","","","","","","","","","","","","","","","","","","",""
"pit-instructions","7","133726","0.0-2.0-3.0","battery-v0.2","","""event"",""trial"",""time""
""fullscreenenter"",""1"",""2710""
","
","
","""event"",""trial"",""time""
""fullscreenenter"",""1"",""2710""
","
","","[{""page_index"":0,""viewing_time"":9979.200000000186},{""page_index"":1,""viewing_time"":7003.799999999814},{""page_index"":2,""viewing_time"":6251.800000000279},{""page_index"":3,""viewing_time"":5196.0999999996275},{""page_index"":4,""viewing_time"":5901.4000000003725},{""page_index"":5,""viewing_time"":5884.5},{""page_index"":6,""viewing_time"":5706.199999999721},{""page_index"":7,""viewing_time"":6183.5},{""page_index"":8,""viewing_time"":6331.600000000093},{""page_index"":9,""viewing_time"":21449.600000000093},{""page_index"":10,""viewing_time"":9240.299999999814},{""page_index"":11,""viewing_time"":7028.800000000279},{""page_index"":12,""viewing_time"":6868.299999999814},{""page_index"":13,""viewing_time"":4826.200000000186}]","107851.8999999999","","","","","","","","","","","","","","","","","","","","","","","",""
"pit-trial","8","137335","0.0-2.0-4.0-0.0","battery-v0.2","","""event"",""trial"",""time""
""fullscreenenter"",""1"",""2710""
","
","
","""event"",""trial"",""time""
""fullscreenenter"",""1"",""2710""
","
","","","741.1000000000931","","","12","16469","6430","&#9784;","elianto","#FFFFF080"," "," ","1","&#10004","[1596.8999999999069]","1","0","0","","","","","","","",""
"pit-trial","9","141090","0.0-2.0-4.1-0.1","battery-v0.2","","""event"",""trial"",""time""
""fullscreenenter"",""1"",""2710""
","
","
","""event"",""trial"",""time""
""fullscreenenter"",""1"",""2710""
","
","","","895.1000000000931","","","12","16469","6430","&#9784;","elianto","#FFFFF080"," "," ","1","&#10004","[1749.5]","1","0","0","","","","","","","",""
"pit-trial","10","145517","0.0-2.0-4.2-0.2","battery-v0.2","","""event"",""trial"",""time""
""fullscreenenter"",""1"",""2710""
","
","
","""event"",""trial"",""time""
""fullscreenenter"",""1"",""2710""
","
","","","1563.1000000000931","","","12","16469","6430","&#9784;","elianto","#FFFFF080"," "," ","1","&#10004","[2413.5999999996275]","1","0","0","","","","","","","",""
"pit-trial","11","149826","0.0-2.0-4.3-0.3","battery-v0.2","","""event"",""trial"",""time""
""fullscreenenter"",""1"",""2710""
","
","
","""event"",""trial"",""time""
""fullscreenenter"",""1"",""2710""
","
","","","1447","","","12","16469","6430","&#9784;","elianto","#FFFFF080"," "," ","1","&#10004","[2299.5999999996275]","1","0","0","","","","","","","",""
"pit-trial","12","154461","0.0-2.0-4.4-0.4","battery-v0.2","","""event"",""trial"",""time""
""fullscreenenter"",""1"",""2710""
","
","
","""event"",""trial"",""time""
""fullscreenenter"",""1"",""2710""
","
","","","1777.6000000000931","","","12","16469","6430","&#9784;","elianto","#FFFFF080"," "," ","1","&#10004","[2628.3000000002794]","1","0","0","","","","","","","",""
"pit-instructions","13","185284","0.0-2.0-5.0","battery-v0.2","","""event"",""trial"",""time""
""fullscreenenter"",""1"",""2710""
","
","
","""event"",""trial"",""time""
""fullscreenenter"",""1"",""2710""
","
","","[{""page_index"":0,""viewing_time"":11686.899999999907},{""page_index"":1,""viewing_time"":7080.100000000093},{""page_index"":2,""viewing_time"":6563.600000000093},{""page_index"":3,""viewing_time"":5487.699999999721}]","30818.5","","","","","","","","","","","","","","","","","","","","","","","",""
"pit-trial","14","190164","0.0-2.0-6.0-0.0","battery-v0.2","","""event"",""trial"",""time""
""fullscreenenter"",""1"",""2710""
","
","
","""event"",""trial"",""time""
""fullscreenenter"",""1"",""2710""
","
","","","-1","","","12","16469","6430","&#9854;","elianto","#FFFFF080","-1","-1","1","&#10004","[]","0","0","1","","","","","","","",""
"pit-trial","15","195041","0.0-2.0-6.1-0.1","battery-v0.2","","""event"",""trial"",""time""
""fullscreenenter"",""1"",""2710""
","
","
","""event"",""trial"",""time""
""fullscreenenter"",""1"",""2710""
","
","","","-1","","","12","16469","6430","&#9854;","elianto","#FFFFF080","-1","-1","1","&#10004","[]","0","0","1","","","","","","","",""
"pit-trial","16","199898","0.0-2.0-6.2-0.2","battery-v0.2","","""event"",""trial"",""time""
""fullscreenenter"",""1"",""2710""
","
","
","""event"",""trial"",""time""
""fullscreenenter"",""1"",""2710""
","
","","","-1","","","12","16469","6430","&#9854;","elianto","#FFFFF080","-1","-1","1","&#10004","[]","0","0","1","","","","","","","",""
"pit-trial","17","204773","0.0-2.0-6.3-0.3","battery-v0.2","","""event"",""trial"",""time""
""fullscreenenter"",""1"",""2710""
","
","
","""event"",""trial"",""time""
""fullscreenenter"",""1"",""2710""
","
","","","-1","","","12","16469","6430","&#9854;","elianto","#FFFFF080","-1","-1","1","&#10004","[]","0","0","1","","","","","","","",""
"pit-trial","18","209640","0.0-2.0-6.4-0.4","battery-v0.2","","""event"",""trial"",""time""
""fullscreenenter"",""1"",""2710""
","
","
","""event"",""trial"",""time""
""fullscreenenter"",""1"",""2710""
","
","","","-1","","","12","16469","6430","&#9854;","elianto","#FFFFF080","-1","-1","1","&#10004","[]","0","0","1","","","","","","","",""
"pit-instructions","19","329015","0.0-2.0-7.0","battery-v0.2","","""event"",""trial"",""time""
""fullscreenenter"",""1"",""2710""
","
","
","""event"",""trial"",""time""
""fullscreenenter"",""1"",""2710""
","
","","[{""page_index"":0,""viewing_time"":5583.200000000186},{""page_index"":1,""viewing_time"":6847.399999999907},{""page_index"":2,""viewing_time"":6726.299999999814},{""page_index"":3,""viewing_time"":7168.399999999907},{""page_index"":4,""viewing_time"":6393.700000000186},{""page_index"":5,""viewing_time"":5401.700000000186},{""page_index"":6,""viewing_time"":4680.199999999721},{""page_index"":7,""viewing_time"":8708},{""page_index"":8,""viewing_time"":8361.700000000186},{""page_index"":9,""viewing_time"":6094.600000000093},{""page_index"":10,""viewing_time"":6161.399999999907},{""page_index"":11,""viewing_time"":5728.199999999721},{""page_index"":12,""viewing_time"":6344.100000000093},{""page_index"":13,""viewing_time"":8458.100000000093},{""page_index"":14,""viewing_time"":7299.299999999814},{""page_index"":15,""viewing_time"":6226.4000000003725},{""page_index"":16,""viewing_time"":6011.899999999907},{""page_index"":17,""viewing_time"":7175.899999999907}]","119370.79999999981","","","","","","","","","","","","","","","","","","","","","","","",""
"pit-trial","20","333348","0.0-2.0-8.0-0.0","battery-v0.2","","""event"",""trial"",""time""
""fullscreenenter"",""1"",""2710""
","
","
","""event"",""trial"",""time""
""fullscreenenter"",""1"",""2710""
","
","","","1456.9000000003725","","","12","16469","6430","&#9776;","elianto","#3366ff99"," "," ","1","+10","[2318]","1","0","1","","","","","","","",""
"pit-trial","21","337253","0.0-2.0-8.0-1.0","battery-v0.2","","""event"",""trial"",""time""
""fullscreenenter"",""1"",""2710""
","
","
","""event"",""trial"",""time""
""fullscreenenter"",""1"",""2710""
","
","","","1033.2000000001863","","","12","16469","6430","&#9776;","elianto","#3366ff99"," "," ","1","+10","[1887.1000000000931]","1","0","1","","","","","","","",""
"pit-trial","22","340914","0.0-2.0-8.0-2.0","battery-v0.2","","""event"",""trial"",""time""
""fullscreenenter"",""1"",""2710""
","
","
","""event"",""trial"",""time""
""fullscreenenter"",""1"",""2710""
","
","","","803.8000000002794","","","12","16469","6430","&#9776;","elianto","#3366ff99"," "," ","1","+10","[1654.2000000001863]","1","0","1","","","","","","","",""
"pit-trial","23","344372","0.0-2.0-8.0-3.0","battery-v0.2","","""event"",""trial"",""time""
""fullscreenenter"",""1"",""2710""
","
","
","""event"",""trial"",""time""
""fullscreenenter"",""1"",""2710""
","
","","","587.8000000002794","","","12","16469","6430","&#9776;","elianto","#3366ff99"," "," ","1","0","[1444.6000000000931]","1","0","1","","","","","","","",""
"pit-trial","24","347838","0.0-2.0-8.0-4.0","battery-v0.2","","""event"",""trial"",""time""
""fullscreenenter"",""1"",""2710""
","
","
","""event"",""trial"",""time""
""fullscreenenter"",""1"",""2710""
","
","","","599.1000000000931","","","12","16469","6430","&#9776;","elianto","#3366ff99"," "," ","1","+10","[1451.7000000001863]","1","0","1","","","","","","","",""
"pit-trial","25","351368","0.0-2.0-8.1-0.1","battery-v0.2","","""event"",""trial"",""time""
""fullscreenenter"",""1"",""2710""
","
","
","""event"",""trial"",""time""
""fullscreenenter"",""1"",""2710""
","
","","","669.8999999999069","","","12","16469","6430","&#9776;","elianto","#3366ff99"," "," ","1","+10","[1521.5999999996275]","1","0","1","","","","","","","",""
"pit-trial","26","356240","0.0-2.0-8.1-1.1","battery-v0.2","","""event"",""trial"",""time""
""fullscreenenter"",""1"",""2710""
","
","
","""event"",""trial"",""time""
""fullscreenenter"",""1"",""2710""
","
","","","-1","","","12","16469","6430","&#9776;","elianto","#3366ff99"," ","-1","0","0","[3372.399999999907]","1","0","1","","","","","","","",""
"pit-trial","27","361093","0.0-2.0-8.1-2.1","battery-v0.2","","""event"",""trial"",""time""
""fullscreenenter"",""1"",""2710""
","
","
","""event"",""trial"",""time""
""fullscreenenter"",""1"",""2710""
","
","","","-1","","","12","16469","6430","&#9776;","elianto","#3366ff99"," ","-1","0","0","[4407]","1","0","1","","","","","","","",""
"pit-trial","28","365945","0.0-2.0-8.1-3.1","battery-v0.2","","""event"",""trial"",""time""
""fullscreenenter"",""1"",""2710""
","
","
","""event"",""trial"",""time""
""fullscreenenter"",""1"",""2710""
","
","","","-1","","","12","16469","6430","&#9776;","elianto","#3366ff99"," ","-1","0","+10","[]","0","0","1","","","","","","","",""
"pit-trial","29","370801","0.0-2.0-8.1-4.1","battery-v0.2","","""event"",""trial"",""time""
""fullscreenenter"",""1"",""2710""
","
","
","""event"",""trial"",""time""
""fullscreenenter"",""1"",""2710""
","
","","","-1","","","12","16469","6430","&#9776;","elianto","#3366ff99"," ","-1","0","0","[4162.200000000186]","1","0","1","","","","","","","",""
"pit-trial","30","374823","0.0-2.0-8.2-0.2","battery-v0.2","","""event"",""trial"",""time""
""fullscreenenter"",""1"",""2710""
","
","
","""event"",""trial"",""time""
""fullscreenenter"",""1"",""2710""
","
","","","1167.4000000003725","","","12","16469","6430","&#9776;","elianto","#3366ff99"," "," ","1","+10","[2018.2000000001863]","1","0","1","","","","","","","",""
"pit-trial","31","378353","0.0-2.0-8.2-1.2","battery-v0.2","","""event"",""trial"",""time""
""fullscreenenter"",""1"",""2710""
","
","
","""event"",""trial"",""time""
""fullscreenenter"",""1"",""2710""
","
","","","675.8999999999069","","","12","16469","6430","&#9776;","elianto","#3366ff99"," "," ","1","+10","[1527.2999999998137]","1","0","1","","","","","","","",""
"pit-trial","32","381610","0.0-2.0-8.2-2.2","battery-v0.2","","""event"",""trial"",""time""
""fullscreenenter"",""1"",""2710""
","
","
","""event"",""trial"",""time""
""fullscreenenter"",""1"",""2710""
","
","","","404.10000000009313","","","12","16469","6430","&#9776;","elianto","#3366ff99"," "," ","1","+10","[1255.2999999998137,1528.8999999999069,1787.8999999999069,2388.399999999907,2528.399999999907,2645.899999999907,2817.899999999907,2937.5999999996275,3072.2999999998137,3193.5999999996275]","10","0","1","","","","","","","",""
"pit-trial","33","384590","0.0-2.0-8.2-3.2","battery-v0.2","","""event"",""trial"",""time""
""fullscreenenter"",""1"",""2710""
","
","
","""event"",""trial"",""time""
""fullscreenenter"",""1"",""2710""
","
","","","125.3000000002794","","","12","16469","6430","&#9776;","elianto","#3366ff99"," "," ","1","0","[199.79999999981374,504.29999999981374,680.5999999996275,772.3999999999069,975.7999999998137,1110.0999999996275,1413.2999999998137,1521.3999999999069,1797.1999999997206,1924.8999999999069,2077.2999999998137,2199.5,2402.899999999907,2490.1999999997206,2658.6999999997206,2810.1999999997206]","16","0","1","","","","","","","",""
"pit-trial","34","388048","0.0-2.0-8.2-4.2","battery-v0.2","","""event"",""trial"",""time""
""fullscreenenter"",""1"",""2710""
","
","
","""event"",""trial"",""time""
""fullscreenenter"",""1"",""2710""
","
","","","603.6999999997206","","","12","16469","6430","&#9776;","elianto","#3366ff99"," "," ","1","+10","[1454.0999999996275]","1","0","1","","","","","","","",""
"call-function","35","388051","0.0-2.0-9.0","battery-v0.2","","""event"",""trial"",""time""
""fullscreenenter"",""1"",""2710""
","
","
","""event"",""trial"",""time""
""fullscreenenter"",""1"",""2710""
","
","","","","","","","","","","","","","","","","","","","","","","","","","","",""
"pit-instructions","36","445077","0.0-2.0-10.0","battery-v0.2","","""event"",""trial"",""time""
""fullscreenenter"",""1"",""2710""
","
","
","""event"",""trial"",""time""
""fullscreenenter"",""1"",""2710""
","
","","[{""page_index"":0,""viewing_time"":9147.899999999907},{""page_index"":1,""viewing_time"":6816.299999999814},{""page_index"":2,""viewing_time"":9082.200000000186},{""page_index"":3,""viewing_time"":24355.899999999907},{""page_index"":4,""viewing_time"":7623}]","57025.39999999991","","","","","","","","","","","","","","","","","","","","","","","",""
"pit-trial","37","449942","0.0-2.0-11.0-0.0","battery-v0.2","","""event"",""trial"",""time""
""fullscreenenter"",""1"",""2710""
","
","
","""event"",""trial"",""time""
""fullscreenenter"",""1"",""2710""
","
","","","-1","","","12","16469","6430","&#9761;","elianto","#3366ff99","-1","-1","1","+10","[]","0","0","2","","","","","","","",""
"pit-trial","38","454817","0.0-2.0-11.0-1.0","battery-v0.2","","""event"",""trial"",""time""
""fullscreenenter"",""1"",""2710""
","
","
","""event"",""trial"",""time""
""fullscreenenter"",""1"",""2710""
","
","","","-1","","","12","16469","6430","&#9761;","elianto","#3366ff99","-1","-1","1","+10","[]","0","0","2","","","","","","","",""
"pit-trial","39","459685","0.0-2.0-11.0-2.0","battery-v0.2","","""event"",""trial"",""time""
""fullscreenenter"",""1"",""2710""
","
","
","""event"",""trial"",""time""
""fullscreenenter"",""1"",""2710""
","
","","","-1","","","12","16469","6430","&#9761;","elianto","#3366ff99","-1","-1","1","+10","[]","0","0","2","","","","","","","",""
"pit-trial","40","464554","0.0-2.0-11.0-3.0","battery-v0.2","","""event"",""trial"",""time""
""fullscreenenter"",""1"",""2710""
","
","
","""event"",""trial"",""time""
""fullscreenenter"",""1"",""2710""
","
","","","-1","","","12","16469","6430","&#9761;","elianto","#3366ff99","-1","-1","1","0","[]","0","0","2","","","","","","","",""
"pit-trial","41","469424","0.0-2.0-11.0-4.0","battery-v0.2","","""event"",""trial"",""time""
""fullscreenenter"",""1"",""2710""
","
","
","""event"",""trial"",""time""
""fullscreenenter"",""1"",""2710""
","
","","","-1","","","12","16469","6430","&#9761;","elianto","#3366ff99","-1","-1","1","+10","[]","0","0","2","","","","","","","",""
"pit-trial","42","474294","0.0-2.0-11.1-0.1","battery-v0.2","","""event"",""trial"",""time""
""fullscreenenter"",""1"",""2710""
","
","
","""event"",""trial"",""time""
""fullscreenenter"",""1"",""2710""
","
","","","-1","","","12","16469","6430","&#9761;","elianto","#3366ff99","-1","-1","1","+10","[]","0","0","2","","","","","","","",""
"pit-trial","43","479147","0.0-2.0-11.1-1.1","battery-v0.2","","""event"",""trial"",""time""
""fullscreenenter"",""1"",""2710""
","
","
","""event"",""trial"",""time""
""fullscreenenter"",""1"",""2710""
","
","","","-1","","","12","16469","6430","&#9761;","elianto","#3366ff99","-1","-1","1","+10","[]","0","0","2","","","","","","","",""
"pit-trial","44","484001","0.0-2.0-11.1-2.1","battery-v0.2","","""event"",""trial"",""time""
""fullscreenenter"",""1"",""2710""
","
","
","""event"",""trial"",""time""
""fullscreenenter"",""1"",""2710""
","
","","","-1","","","12","16469","6430","&#9761;","elianto","#3366ff99","-1","-1","1","+10","[]","0","0","2","","","","","","","",""
"pit-trial","45","488854","0.0-2.0-11.1-3.1","battery-v0.2","","""event"",""trial"",""time""
""fullscreenenter"",""1"",""2710""
","
","
","""event"",""trial"",""time""
""fullscreenenter"",""1"",""2710""
","
","","","-1","","","12","16469","6430","&#9761;","elianto","#3366ff99","-1","-1","1","0","[]","0","0","2","","","","","","","",""
"pit-trial","46","493707","0.0-2.0-11.1-4.1","battery-v0.2","","""event"",""trial"",""time""
""fullscreenenter"",""1"",""2710""
","
","
","""event"",""trial"",""time""
""fullscreenenter"",""1"",""2710""
","
","","","-1","","","12","16469","6430","&#9761;","elianto","#3366ff99","-1","-1","1","+10","[]","0","0","2","","","","","","","",""
"pit-trial","47","498561","0.0-2.0-11.2-0.2","battery-v0.2","","""event"",""trial"",""time""
""fullscreenenter"",""1"",""2710""
","
","
","""event"",""trial"",""time""
""fullscreenenter"",""1"",""2710""
","
","","","-1","","","12","16469","6430","&#9761;","elianto","#3366ff99","-1","-1","1","+10","[]","0","0","2","","","","","","","",""
"pit-trial","48","503415","0.0-2.0-11.2-1.2","battery-v0.2","","""event"",""trial"",""time""
""fullscreenenter"",""1"",""2710""
","
","
","""event"",""trial"",""time""
""fullscreenenter"",""1"",""2710""
","
","","","-1","","","12","16469","6430","&#9761;","elianto","#3366ff99","-1","-1","1","+10","[]","0","0","2","","","","","","","",""
"pit-trial","49","508269","0.0-2.0-11.2-2.2","battery-v0.2","","""event"",""trial"",""time""
""fullscreenenter"",""1"",""2710""
","
","
","""event"",""trial"",""time""
""fullscreenenter"",""1"",""2710""
","
","","","-1","","","12","16469","6430","&#9761;","elianto","#3366ff99","-1","-1","1","+10","[]","0","0","2","","","","","","","",""
"pit-trial","50","513123","0.0-2.0-11.2-3.2","battery-v0.2","","""event"",""trial"",""time""
""fullscreenenter"",""1"",""2710""
","
","
","""event"",""trial"",""time""
""fullscreenenter"",""1"",""2710""
","
","","","-1","","","12","16469","6430","&#9761;","elianto","#3366ff99","-1","-1","1","0","[]","0","0","2","","","","","","","",""
"pit-trial","51","517977","0.0-2.0-11.2-4.2","battery-v0.2","","""event"",""trial"",""time""
""fullscreenenter"",""1"",""2710""
","
","
","""event"",""trial"",""time""
""fullscreenenter"",""1"",""2710""
","
","","","-1","","","12","16469","6430","&#9761;","elianto","#3366ff99","-1","-1","1","+10","[]","0","0","2","","","","","","","",""
"pit-trial","52","522830","0.0-2.0-11.3-0.3","battery-v0.2","","""event"",""trial"",""time""
""fullscreenenter"",""1"",""2710""
","
","
","""event"",""trial"",""time""
""fullscreenenter"",""1"",""2710""
","
","","","-1","","","12","16469","6430","&#9761;","elianto","#3366ff99","-1","-1","1","+10","[]","0","0","2","","","","","","","",""
"pit-trial","53","527682","0.0-2.0-11.3-1.3","battery-v0.2","","""event"",""trial"",""time""
""fullscreenenter"",""1"",""2710""
","
","
","""event"",""trial"",""time""
""fullscreenenter"",""1"",""2710""
","
","","","-1","","","12","16469","6430","&#9761;","elianto","#3366ff99","-1","-1","1","+10","[]","0","0","2","","","","","","","",""
"pit-trial","54","532536","0.0-2.0-11.3-2.3","battery-v0.2","","""event"",""trial"",""time""
""fullscreenenter"",""1"",""2710""
","
","
","""event"",""trial"",""time""
""fullscreenenter"",""1"",""2710""
","
","","","-1","","","12","16469","6430","&#9761;","elianto","#3366ff99","-1","-1","1","+10","[]","0","0","2","","","","","","","",""
"pit-trial","55","537389","0.0-2.0-11.3-3.3","battery-v0.2","","""event"",""trial"",""time""
""fullscreenenter"",""1"",""2710""
","
","
","""event"",""trial"",""time""
""fullscreenenter"",""1"",""2710""
","
","","","-1","","","12","16469","6430","&#9761;","elianto","#3366ff99","-1","-1","1","0","[]","0","0","2","","","","","","","",""
"pit-trial","56","542242","0.0-2.0-11.3-4.3","battery-v0.2","","""event"",""trial"",""time""
""fullscreenenter"",""1"",""2710""
","
","
","""event"",""trial"",""time""
""fullscreenenter"",""1"",""2710""
","
","","","-1","","","12","16469","6430","&#9761;","elianto","#3366ff99","-1","-1","1","+10","[3110.5]","1","0","2","","","","","","","",""
"call-function","57","542244","0.0-2.0-12.0","battery-v0.2","","""event"",""trial"",""time""
""fullscreenenter"",""1"",""2710""
","
","
","""event"",""trial"",""time""
""fullscreenenter"",""1"",""2710""
","
","","","","","","","","","","","","","","","","","","","","","","","","","","",""
"pit-instructions","58","579551","0.0-2.0-13.0","battery-v0.2","","""event"",""trial"",""time""
""fullscreenenter"",""1"",""2710""
","
","
","""event"",""trial"",""time""
""fullscreenenter"",""1"",""2710""
","
","","[{""page_index"":0,""viewing_time"":5574.899999999907},{""page_index"":1,""viewing_time"":10657.899999999907},{""page_index"":2,""viewing_time"":5464.100000000093},{""page_index"":3,""viewing_time"":11485.700000000186},{""page_index"":4,""viewing_time"":4124.299999999814}]","37307.10000000009","","","","","","","","","","","","","","","","","","","","","","","",""
"pit-trial","59","583637","0.0-2.0-14.0-0.0","battery-v0.2","","""event"",""trial"",""time""
""fullscreenenter"",""1"",""2710""
","
","
","""event"",""trial"",""time""
""fullscreenenter"",""1"",""2710""
","
","","","1220.2000000001863","","","12","16469","6430","&#9826;","elianto","#f73b6a7A","-1"," ","0","-10","[2077.600000000093,3419.7000000001863,3762.8000000002794,3845.8000000002794,3957.5]","5","0","3","","","","","","","",""
"pit-trial","60","586648","0.0-2.0-14.0-1.0","battery-v0.2","","""event"",""trial"",""time""
""fullscreenenter"",""1"",""2710""
","
","
","""event"",""trial"",""time""
""fullscreenenter"",""1"",""2710""
","
","","","147.39999999990687","","","12","16469","6430","&#9826;","elianto","#f73b6a7A","-1"," ","0","-10","[18.799999999813735,139.10000000009313,267.79999999981374,394.89999999990687,562.2999999998137,683.2999999998137,843.2999999998137,1002.3999999999069,1184.1999999997206,1274.7999999998137,1407.1999999997206,1600.5,1688,1954.8999999999069,2090.5,2222.1999999997206,2391.5,2490.5,2641.7999999998137,2762.899999999907]","20","0","3","","","","","","","",""
"pit-trial","61","591508","0.0-2.0-14.0-2.0","battery-v0.2","","""event"",""trial"",""time""
""fullscreenenter"",""1"",""2710""
","
","
","""event"",""trial"",""time""
""fullscreenenter"",""1"",""2710""
","
","","","-1","","","12","16469","6430","&#9826;","elianto","#f73b6a7A","-1","-1","1","0","[18]","1","0","3","","","","","","","",""
"pit-trial","62","596372","0.0-2.0-14.0-3.0","battery-v0.2","","""event"",""trial"",""time""
""fullscreenenter"",""1"",""2710""
","
","
","""event"",""trial"",""time""
""fullscreenenter"",""1"",""2710""
","
","","","-1","","","12","16469","6430","&#9826;","elianto","#f73b6a7A","-1","-1","1","-10","[]","0","0","3","","","","","","","",""
"pit-trial","63","601245","0.0-2.0-14.0-4.0","battery-v0.2","","""event"",""trial"",""time""
""fullscreenenter"",""1"",""2710""
","
","
","""event"",""trial"",""time""
""fullscreenenter"",""1"",""2710""
","
","","","-1","","","12","16469","6430","&#9826;","elianto","#f73b6a7A","-1","-1","1","0","[3615,3989.100000000093,4189,4446.399999999907,4630.100000000093,4855.700000000186]","6","0","3","","","","","","","",""
"pit-trial","64","604129","0.0-2.0-14.1-0.1","battery-v0.2","","""event"",""trial"",""time""
""fullscreenenter"",""1"",""2710""
","
","
","""event"",""trial"",""time""
""fullscreenenter"",""1"",""2710""
","
","","","16.09999999962747","","","12","16469","6430","&#9826;","elianto","#f73b6a7A","-1"," ","0","-10","[210.29999999981374,401.5,649.3999999999069,874.5999999996275,1106.6999999997206,1340,1618.1999999997206,1822.2999999998137,2032.6999999997206]","9","0","3","","","","","","","",""
"pit-trial","65","607203","0.0-2.0-14.1-1.1","battery-v0.2","","""event"",""trial"",""time""
""fullscreenenter"",""1"",""2710""
","
","
","""event"",""trial"",""time""
""fullscreenenter"",""1"",""2710""
","
","","","209.29999999981374","","","12","16469","6430","&#9826;","elianto","#f73b6a7A","-1"," ","0","-10","[641.4000000003725,827.1000000000931,1065.1000000000931,1234.6000000000931,1505,1705.4000000003725]","6","0","3","","","","","","","",""
"pit-trial","66","610101","0.0-2.0-14.1-2.1","battery-v0.2","","""event"",""trial"",""time""
""fullscreenenter"",""1"",""2710""
","
","
","""event"",""trial"",""time""
""fullscreenenter"",""1"",""2710""
","
","","","35","","","12","16469","6430","&#9826;","elianto","#f73b6a7A","-1"," ","0","-10","[889.5,1353.5,1658.5,2169.7000000001863,2466.8000000002794,2770.8000000002794]","6","0","3","","","","","","","",""
"pit-trial","67","613026","0.0-2.0-14.1-3.1","battery-v0.2","","""event"",""trial"",""time""
""fullscreenenter"",""1"",""2710""
","
","
","""event"",""trial"",""time""
""fullscreenenter"",""1"",""2710""
","
","","","70","","","12","16469","6430","&#9826;","elianto","#f73b6a7A","-1"," ","0","0","[128.60000000009313,383.89999999990687,659.8999999999069,920.6000000000931,1181.3999999999069,1448.5,1727.6000000000931,2009.8000000002794,2322.2000000001863,2600.600000000093,2882.7000000001863]","11","0","3","","","","","","","",""
"pit-trial","68","616132","0.0-2.0-14.1-4.1","battery-v0.2","","""event"",""trial"",""time""
""fullscreenenter"",""1"",""2710""
","
","
","""event"",""trial"",""time""
""fullscreenenter"",""1"",""2710""
","
","","","252.20000000018626","","","12","16469","6430","&#9826;","elianto","#f73b6a7A","-1"," ","0","-10","[251.79999999981374,533.1000000000931,829.1000000000931,1102.6000000000931,1400.1000000000931,1684.8999999999069,2261.6999999997206,2894.5]","8","0","3","","","","","","","",""
"pit-trial","69","619147","0.0-2.0-14.2-0.2","battery-v0.2","","""event"",""trial"",""time""
""fullscreenenter"",""1"",""2710""
","
","
","""event"",""trial"",""time""
""fullscreenenter"",""1"",""2710""
","
","","","160.10000000009313","","","12","16469","6430","&#9826;","elianto","#f73b6a7A","-1"," ","0","-10","[379,1010.7999999998137,1331.6999999997206,1620,1923.5,2229.6999999997206,2548,2803.5]","8","0","3","","","","","","","",""
"pit-trial","70","622157","0.0-2.0-14.2-1.2","battery-v0.2","","""event"",""trial"",""time""
""fullscreenenter"",""1"",""2710""
","
","
","""event"",""trial"",""time""
""fullscreenenter"",""1"",""2710""
","
","","","156.60000000009313","","","12","16469","6430","&#9826;","elianto","#f73b6a7A","-1"," ","0","-10","[112.20000000018626,390,764.1000000000931,1007,1330.2000000001863,1928.3999999999069,2238.600000000093,2518.5,2823.8000000002794]","9","0","3","","","","","","","",""
"pit-trial","71","625445","0.0-2.0-14.2-2.2","battery-v0.2","","""event"",""trial"",""time""
""fullscreenenter"",""1"",""2710""
","
","
","""event"",""trial"",""time""
""fullscreenenter"",""1"",""2710""
","
","","","435.8000000002794","","","12","16469","6430","&#9826;","elianto","#f73b6a7A","-1"," ","0","-10","[110.10000000009313,1286.2000000001863,1680.3999999999069,1919.6000000000931,2288.399999999907,2456.399999999907,2544.2000000001863,2729.100000000093,2991.399999999907,3111.7000000001863,3279.100000000093]","11","0","3","","","","","","","",""
"pit-trial","72","628463","0.0-2.0-14.2-3.2","battery-v0.2","","""event"",""trial"",""time""
""fullscreenenter"",""1"",""2710""
","
","
","""event"",""trial"",""time""
""fullscreenenter"",""1"",""2710""
","
","","","160.20000000018626","","","12","16469","6430","&#9826;","elianto","#f73b6a7A","-1"," ","0","0","[265.40000000037253,408.40000000037253,600.5,708.7000000001863,856,1016.4000000003725,1170.9000000003725,1273.7000000001863,1425.9000000003725,1552.3000000002794,1705.6000000000931,1850.1000000000931,1983.9000000003725,2084.2000000001863,2377,2522.3000000002794,2673.100000000093,2841.3000000002794,2985.100000000093]","19","0","3","","","","","","","",""
"pit-trial","73","631389","0.0-2.0-14.2-4.2","battery-v0.2","","""event"",""trial"",""time""
""fullscreenenter"",""1"",""2710""
","
","
","""event"",""trial"",""time""
""fullscreenenter"",""1"",""2710""
","
","","","72","","","12","16469","6430","&#9826;","elianto","#f73b6a7A","-1"," ","0","-10","[119.20000000018626,392.5,519.8999999999069,648,775.8999999999069,923.3999999999069,1031.3000000002794,1180.1000000000931,1288.2000000001863,1465.7000000001863,1577.6000000000931,1741.5,1864.3000000002794,2120,2331.8000000002794,2457.7000000001863,2632.2000000001863,2784.2000000001863]","18","0","3","","","","","","","",""
"pit-trial","74","634322","0.0-2.0-14.3-0.3","battery-v0.2","","""event"",""trial"",""time""
""fullscreenenter"",""1"",""2710""
","
","
","""event"",""trial"",""time""
""fullscreenenter"",""1"",""2710""
","
","","","79.5","","","12","16469","6430","&#9826;","elianto","#f73b6a7A","-1"," ","0","-10","[145.10000000009313,497.89999999990687,626.1999999997206,762.5,929.6999999997206,1091,1211.6000000000931,1341.1999999997206,1475.1000000000931,2020.6000000000931,2164.5,2339.2999999998137,2419.2999999998137,2571.100000000093,2716.399999999907,2844.2999999998137]","16","0","3","","","","","","","",""
"pit-trial","75","637227","0.0-2.0-14.3-1.3","battery-v0.2","","""event"",""trial"",""time""
""fullscreenenter"",""1"",""2710""
","
","
","""event"",""trial"",""time""
""fullscreenenter"",""1"",""2710""
","
","","","51.6999999997206","","","12","16469","6430","&#9826;","elianto","#f73b6a7A","-1"," ","0","-10","[46.90000000037253,187.20000000018626,488.90000000037253,606.6000000000931,782.6000000000931,903,1036.1000000000931,1169.3000000002794,1322.2000000001863,1460.2000000001863,1632.9000000003725,1767.9000000003725,1898.1000000000931,2057,2175.9000000003725,2297.3000000002794,2457.2000000001863,2609.3000000002794,2739.4000000003725,2887.8000000002794]","20","0","3","","","","","","","",""
"pit-trial","76","640182","0.0-2.0-14.3-2.3","battery-v0.2","","""event"",""trial"",""time""
""fullscreenenter"",""1"",""2710""
","
","
","""event"",""trial"",""time""
""fullscreenenter"",""1"",""2710""
","
","","","101.5","","","12","16469","6430","&#9826;","elianto","#f73b6a7A","-1"," ","0","-10","[87.39999999990687,345.8000000002794,536.1000000000931,674,816.3000000002794,952.5,1115.8000000002794,1248.1000000000931,1377.5,1521.3000000002794,1683.8999999999069,1882.6000000000931,1977.6000000000931,2100.2000000001863,2265.3000000002794,2523.100000000093,2685.2000000001863,2810.7000000001863]","18","0","3","","","","","","","",""
"pit-trial","77","643120","0.0-2.0-14.3-3.3","battery-v0.2","","""event"",""trial"",""time""
""fullscreenenter"",""1"",""2710""
","
","
","""event"",""trial"",""time""
""fullscreenenter"",""1"",""2710""
","
","","","83.70000000018626","","","12","16469","6430","&#9826;","elianto","#f73b6a7A","-1"," ","0","0","[157.39999999990687,317.89999999990687,481.60000000009313,773.5,934.5,1066,1194.3999999999069,1351.8000000002794,1520.3000000002794,1629.5,1799.6000000000931,1936.5,2110.8000000002794,2217.100000000093,2374.399999999907,2502.600000000093,2680]","17","0","3","","","","","","","",""
"pit-trial","78","645984","0.0-2.0-14.3-4.3","battery-v0.2","","""event"",""trial"",""time""
""fullscreenenter"",""1"",""2710""
","
","
","""event"",""trial"",""time""
""fullscreenenter"",""1"",""2710""
","
","","","10.899999999906868","","","12","16469","6430","&#9826;","elianto","#f73b6a7A","-1"," ","0","-10","[3.1999999997206032,156.89999999990687,310.39999999990687,437.79999999981374,582,861.6999999997206,949.7999999998137,1094.2999999998137,1222.3999999999069,1341.8999999999069,1447.1000000000931,1663,1926.7999999998137,2126.7999999998137,2399.899999999907,2606.1999999997206,2798.100000000093]","17","0","3","","","","","","","",""
"call-function","79","645987","0.0-2.0-15.0","battery-v0.2","","""event"",""trial"",""time""
""fullscreenenter"",""1"",""2710""
","
","
","""event"",""trial"",""time""
""fullscreenenter"",""1"",""2710""
","
","","","","","","","","","","","","","","","","","","","","","","","","","","",""
"pit-instructions","80","677270","0.0-2.0-16.0","battery-v0.2","","""event"",""trial"",""time""
""fullscreenenter"",""1"",""2710""
","
","
","""event"",""trial"",""time""
""fullscreenenter"",""1"",""2710""
","
","","[{""page_index"":0,""viewing_time"":13294.399999999907},{""page_index"":1,""viewing_time"":8348.899999999907},{""page_index"":2,""viewing_time"":5590.899999999907},{""page_index"":3,""viewing_time"":4048.3000000002794}]","31283.100000000093","","","","","","","","","","","","","","","","","","","","","","","",""
"pit-trial","81","680192","0.0-2.0-17.0-0.0","battery-v0.2","","""event"",""trial"",""time""
""fullscreenenter"",""1"",""2710""
","
","
","""event"",""trial"",""time""
""fullscreenenter"",""1"",""2710""
","
","","","56.1999999997206","","","12","16469","6430","&#9789;","elianto","#f73b6a7A"," "," ","1","0","[55.60000000009313,216,352.70000000018626,512.2000000001863,639.5,791.8000000002794,908.5,1051.7000000001863,1180.7000000001863,1434.5,1555.5,1681.8000000002794,1816.7000000001863,1984.6000000000931,2304.7000000001863,2562.100000000093,2816.4000000003725]","17","0","4","","","","","","","",""
"pit-trial","82","683621","0.0-2.0-17.0-1.0","battery-v0.2","","""event"",""trial"",""time""
""fullscreenenter"",""1"",""2710""
","
","
","""event"",""trial"",""time""
""fullscreenenter"",""1"",""2710""
","
","","","561.7000000001863","","","12","16469","6430","&#9789;","elianto","#f73b6a7A"," "," ","1","0","[104.8000000002794,337.39999999990687,1413.2000000001863,1530.8000000002794,1686.8000000002794,1823.2000000001863,2041.3000000002794,2244.899999999907,2468.5,2520,2764,3403.2000000001863]","12","0","4","","","","","","","",""
"pit-trial","83","686657","0.0-2.0-17.0-2.0","battery-v0.2","","""event"",""trial"",""time""
""fullscreenenter"",""1"",""2710""
","
","
","""event"",""trial"",""time""
""fullscreenenter"",""1"",""2710""
","
","","","173.5","","","12","16469","6430","&#9789;","elianto","#f73b6a7A"," "," ","1","0","[117.89999999990687,357.29999999981374,533.3999999999069,1025.7999999998137,1813.6000000000931,2447.2999999998137]","6","0","4","","","","","","","",""
"pit-trial","84","689914","0.0-2.0-17.0-3.0","battery-v0.2","","""event"",""trial"",""time""
""fullscreenenter"",""1"",""2710""
","
","
","""event"",""trial"",""time""
""fullscreenenter"",""1"",""2710""
","
","","","393.10000000009313","","","12","16469","6430","&#9789;","elianto","#f73b6a7A"," "," ","1","-10","[476,796.7000000001863,1244.6000000000931,1566.2000000001863,1953.5,2205.600000000093,2503.2000000001863]","7","0","4","","","","","","","",""
"pit-trial","85","692947","0.0-2.0-17.0-4.0","battery-v0.2","","""event"",""trial"",""time""
""fullscreenenter"",""1"",""2710""
","
","
","""event"",""trial"",""time""
""fullscreenenter"",""1"",""2710""
","
","","","161","","","12","16469","6430","&#9789;","elianto","#f73b6a7A"," "," ","1","0","[203.59999999962747,420.6999999997206,731.8999999999069,1020.6999999997206,1292.8999999999069,3014.2999999998137]","6","0","4","","","","","","","",""
"pit-trial","86","696096","0.0-2.0-17.1-0.1","battery-v0.2","","""event"",""trial"",""time""
""fullscreenenter"",""1"",""2710""
","
","
","""event"",""trial"",""time""
""fullscreenenter"",""1"",""2710""
","
","","","291","","","12","16469","6430","&#9789;","elianto","#f73b6a7A"," "," ","1","0","[563.8000000002794,789.5,1146.2000000001863,1438,1678.8999999999069,1885.2000000001863,2180.8000000002794,2486.399999999907,2717.100000000093,2998.100000000093]","10","0","4","","","","","","","",""
"pit-trial","87","699019","0.0-2.0-17.1-1.1","battery-v0.2","","""event"",""trial"",""time""
""fullscreenenter"",""1"",""2710""
","
","
","""event"",""trial"",""time""
""fullscreenenter"",""1"",""2710""
","
","","","52.60000000009313","","","12","16469","6430","&#9789;","elianto","#f73b6a7A"," "," ","1","0","[152.90000000037253,363.5,625.9000000003725,765.8000000002794,909.4000000003725,1184.9000000003725,1475,1634.6000000000931,1790.2000000001863,1922.2000000001863,2083.7000000001863,2197.600000000093,2346.8000000002794,2500.2000000001863,2660.100000000093,2794.3000000002794]","16","0","4","","","","","","","",""
"pit-trial","88","701921","0.0-2.0-17.1-2.1","battery-v0.2","","""event"",""trial"",""time""
""fullscreenenter"",""1"",""2710""
","
","
","""event"",""trial"",""time""
""fullscreenenter"",""1"",""2710""
","
","","","41.60000000009313","","","12","16469","6430","&#9789;","elianto","#f73b6a7A"," "," ","1","0","[24.299999999813735,132.39999999990687,292,440.09999999962747,616.5999999996275,725.8999999999069,896.8999999999069,1106.6999999997206,1352.7999999998137,1594,1921.8999999999069,2178.5,2513.5999999996275,2720.399999999907]","14","0","4","","","","","","","",""
"pit-trial","89","705049","0.0-2.0-17.1-3.1","battery-v0.2","","""event"",""trial"",""time""
""fullscreenenter"",""1"",""2710""
","
","
","""event"",""trial"",""time""
""fullscreenenter"",""1"",""2710""
","
","","","270.6999999997206","","","12","16469","6430","&#9789;","elianto","#f73b6a7A"," "," ","1","-10","[94.89999999990687,427.29999999981374,691.2999999998137,1123,2404.399999999907,2540.5,2772.6999999997206,2963.7999999998137]","8","0","4","","","","","","","",""
"pit-trial","90","708188","0.0-2.0-17.1-4.1","battery-v0.2","","""event"",""trial"",""time""
""fullscreenenter"",""1"",""2710""
","
","
","""event"",""trial"",""time""
""fullscreenenter"",""1"",""2710""
","
","","","268.89999999990687","","","12","16469","6430","&#9789;","elianto","#f73b6a7A"," "," ","1","0","[356.79999999981374,628.3999999999069,1127,1339,1678.8999999999069,1950,2574.7999999998137,2730.1999999997206,2831]","9","0","4","","","","","","","",""
"pit-trial","91","711290","0.0-2.0-17.2-0.2","battery-v0.2","","""event"",""trial"",""time""
""fullscreenenter"",""1"",""2710""
","
","
","""event"",""trial"",""time""
""fullscreenenter"",""1"",""2710""
","
","","","249.70000000018626","","","12","16469","6430","&#9789;","elianto","#f73b6a7A"," "," ","1","0","[20,501.40000000037253,772.7000000001863,1099.9000000003725,1333.9000000003725,1705.1000000000931,2198.100000000093,2671.4000000003725,2966.3000000002794]","9","0","4","","","","","","","",""
"pit-trial","92","714566","0.0-2.0-17.2-1.2","battery-v0.2","","""event"",""trial"",""time""
""fullscreenenter"",""1"",""2710""
","
","
","""event"",""trial"",""time""
""fullscreenenter"",""1"",""2710""
","
","","","422.90000000037253","","","12","16469","6430","&#9789;","elianto","#f73b6a7A"," "," ","1","0","[473,816.6999999997206,1274,1609.6000000000931,1992.2999999998137,2355.899999999907,2681.1999999997206,2865.899999999907,3082.6999999997206,3274.5]","10","0","4","","","","","","","",""
"pit-trial","93","717518","0.0-2.0-17.2-2.2","battery-v0.2","","""event"",""trial"",""time""
""fullscreenenter"",""1"",""2710""
","
","
","""event"",""trial"",""time""
""fullscreenenter"",""1"",""2710""
","
","","","97.89999999990687","","","12","16469","6430","&#9789;","elianto","#f73b6a7A"," "," ","1","0","[189.60000000009313,420.6999999997206,588.6000000000931,780.1999999997206,949,1149,1361.1000000000931,1577.6999999997206,1765.1000000000931,2150.399999999907,2367.100000000093,2534.100000000093,2919]","13","0","4","","","","","","","",""
"pit-trial","94","720472","0.0-2.0-17.2-3.2","battery-v0.2","","""event"",""trial"",""time""
""fullscreenenter"",""1"",""2710""
","
","
","""event"",""trial"",""time""
""fullscreenenter"",""1"",""2710""
","
","","","99.79999999981374","","","12","16469","6430","&#9789;","elianto","#f73b6a7A"," "," ","1","-10","[221.90000000037253,478.40000000037253,950.6000000000931,1246.1000000000931,1375.2000000001863,1630.9000000003725,1740.7000000001863,1883.1000000000931,2166.7000000001863,2271.100000000093,2432.2000000001863,2700.4000000003725,2828.2000000001863]","13","0","4","","","","","","","",""
"pit-trial","95","723425","0.0-2.0-17.2-4.2","battery-v0.2","","""event"",""trial"",""time""
""fullscreenenter"",""1"",""2710""
","
","
","""event"",""trial"",""time""
""fullscreenenter"",""1"",""2710""
","
","","","99.89999999990687","","","12","16469","6430","&#9789;","elianto","#f73b6a7A"," "," ","1","0","[21.5,277.5,404.70000000018626,564.5,820.3999999999069,950.1000000000931,1105.2000000001863,1405.3999999999069,1634.8999999999069,1927.1000000000931,2157.5,2461.5,2717.399999999907]","13","0","4","","","","","","","",""
"pit-trial","96","726489","0.0-2.0-17.3-0.3","battery-v0.2","","""event"",""trial"",""time""
""fullscreenenter"",""1"",""2710""
","
","
","""event"",""trial"",""time""
""fullscreenenter"",""1"",""2710""
","
","","","211.79999999981374","","","12","16469","6430","&#9789;","elianto","#f73b6a7A"," "," ","1","0","[22.299999999813735,231.29999999981374,438.79999999981374,654.8999999999069,846.8999999999069,1062.6999999997206,1278.8999999999069,1488.0999999996275,1712.1999999997206,2018.3999999999069,2233.5999999996275,2432.5999999996275,2640,2895.6999999997206]","14","0","4","","","","","","","",""
"pit-trial","97","729603","0.0-2.0-17.3-1.3","battery-v0.2","","""event"",""trial"",""time""
""fullscreenenter"",""1"",""2710""
","
","
","""event"",""trial"",""time""
""fullscreenenter"",""1"",""2710""
","
","","","261.5","","","12","16469","6430","&#9789;","elianto","#f73b6a7A"," "," ","1","0","[15.5,263.40000000037253,536.3000000002794,1111.5,1336.9000000003725,1504.6000000000931,1839.6000000000931,2089.2000000001863,2320.4000000003725]","9","0","4","","","","","","","",""
"pit-trial","98","733224","0.0-2.0-17.3-2.3","battery-v0.2","","""event"",""trial"",""time""
""fullscreenenter"",""1"",""2710""
","
","
","""event"",""trial"",""time""
""fullscreenenter"",""1"",""2710""
","
","","","765.6000000000931","","","12","16469","6430","&#9789;","elianto","#f73b6a7A"," "," ","1","0","[430.79999999981374,656.5,1616.8999999999069,1833.5999999996275,2031.2999999998137,2265.7999999998137,2447.1999999997206,2711.1999999997206,2903.2999999998137,3135.0999999996275,3303.1999999997206,3544.0999999996275]","12","0","4","","","","","","","",""
"pit-trial","99","736150","0.0-2.0-17.3-3.3","battery-v0.2","","""event"",""trial"",""time""
""fullscreenenter"",""1"",""2710""
","
","
","""event"",""trial"",""time""
""fullscreenenter"",""1"",""2710""
","
","","","74.20000000018626","","","12","16469","6430","&#9789;","elianto","#f73b6a7A"," "," ","1","-10","[173,461.10000000009313,669,924.8999999999069,1156.8999999999069,1380.7999999998137,1620.8999999999069,1997.8999999999069,2182.2000000001863,2429.7000000001863,2765.899999999907]","11","0","4","","","","","","","",""
"pit-trial","100","739624","0.0-2.0-17.3-4.3","battery-v0.2","","""event"",""trial"",""time""
""fullscreenenter"",""1"",""2710""
","
","
","""event"",""trial"",""time""
""fullscreenenter"",""1"",""2710""
","
","","","622.1000000000931","","","12","16469","6430","&#9789;","elianto","#f73b6a7A"," "," ","1","0","[8.100000000093132,199.89999999990687,408.20000000018626,688.1000000000931,1473.1000000000931,2281.100000000093,2729.600000000093,3110.100000000093,3466]","9","0","4","","","","","","","",""
"call-function","101","739625","0.0-2.0-18.0","battery-v0.2","","""event"",""trial"",""time""
""fullscreenenter"",""1"",""2710""
","
","
","""event"",""trial"",""time""
""fullscreenenter"",""1"",""2710""
","
","","","","","","","","","","","","","","","","","","","","","","","","","","",""
"pit-instructions","102","793427","0.0-2.0-19.0","battery-v0.2","","""event"",""trial"",""time""
""fullscreenenter"",""1"",""2710""
","
","
","""event"",""trial"",""time""
""fullscreenenter"",""1"",""2710""
","
","","[{""page_index"":0,""viewing_time"":7574.700000000186},{""page_index"":1,""viewing_time"":4209.5},{""page_index"":2,""viewing_time"":10057.600000000093},{""page_index"":3,""viewing_time"":4050.399999999907},{""page_index"":4,""viewing_time"":6756},{""page_index"":5,""viewing_time"":8686.299999999814},{""page_index"":6,""viewing_time"":5199.700000000186},{""page_index"":7,""viewing_time"":4094.5},{""page_index"":8,""viewing_time"":3172.600000000093}]","53801.60000000009","","","","","","","","","","","","","","","","","","","","","","","",""
"pit-comprehension","103","797921","0.0-2.0-20.0-0.0","battery-v0.2","","""event"",""trial"",""time""
""fullscreenenter"",""1"",""2710""
","
","
","""event"",""trial"",""time""
""fullscreenenter"",""1"",""2710""
","
","","","4491.200000000186","[""SPACE""]","0","12","16469","6430","","","","","","","","","","","","","","","","","","",""
"pit-instructions","104","800670","0.0-2.0-20.0-1.0","battery-v0.2","","""event"",""trial"",""time""
""fullscreenenter"",""1"",""2710""
","
","
","""event"",""trial"",""time""
""fullscreenenter"",""1"",""2710""
","
","","[{""page_index"":0,""viewing_time"":2713.7000000001863}]","2713.899999999907","","","","","","","","","","","","","","","","","","","","","","","",""
"pit-comprehension","105","807627","0.0-2.0-21.0-0.0","battery-v0.2","","""event"",""trial"",""time""
""fullscreenenter"",""1"",""2710""
","
","
","""event"",""trial"",""time""
""fullscreenenter"",""1"",""2710""
","
","","","6954.399999999907","[""10""]","0","12","16469","6430","","","","","","","","","","","","","","","","","","",""
"pit-instructions","106","809036","0.0-2.0-21.0-1.0","battery-v0.2","","""event"",""trial"",""time""
""fullscreenenter"",""1"",""2710""
","
","
","""event"",""trial"",""time""
""fullscreenenter"",""1"",""2710""
","
","","[{""page_index"":0,""viewing_time"":1377.6000000000931}]","1377.7000000001863","","","","","","","","","","","","","","","","","","","","","","","",""
"pit-comprehension","107","815160","0.0-2.0-22.0-0.0","battery-v0.2","","""event"",""trial"",""time""
""fullscreenenter"",""1"",""2710""
","
","
","""event"",""trial"",""time""
""fullscreenenter"",""1"",""2710""
","
","","","6121.700000000186","[""0""]","0","12","16469","6430","","","","","","","","","","","","","","","","","","",""
"pit-instructions","108","816914","0.0-2.0-22.0-1.0","battery-v0.2","","""event"",""trial"",""time""
""fullscreenenter"",""1"",""2710""
","
","
","""event"",""trial"",""time""
""fullscreenenter"",""1"",""2710""
","
","","[{""page_index"":0,""viewing_time"":1724.6000000000931}]","1724.7999999998137","","","","","","","","","","","","","","","","","","","","","","","",""
"pit-comprehension","109","825462","0.0-2.0-23.0-0.0","battery-v0.2","","""event"",""trial"",""time""
""fullscreenenter"",""1"",""2710""
","
","
","""event"",""trial"",""time""
""fullscreenenter"",""1"",""2710""
","
","","","8545.600000000093","[""True""]","0","12","16469","6430","","","","","","","","","","","","","","","","","","",""
"pit-instructions","110","826647","0.0-2.0-23.0-1.0","battery-v0.2","","""event"",""trial"",""time""
""fullscreenenter"",""1"",""2710""
","
","
","""event"",""trial"",""time""
""fullscreenenter"",""1"",""2710""
","
","","[{""page_index"":0,""viewing_time"":1154}]","1154.1000000000931","","","","","","","","","","","","","","","","","","","","","","","",""
"pit-comprehension","111","833831","0.0-2.0-24.0-0.0","battery-v0.2","","""event"",""trial"",""time""
""fullscreenenter"",""1"",""2710""
","
","
","""event"",""trial"",""time""
""fullscreenenter"",""1"",""2710""
","
","","","7182.700000000186","[""True""]","0","12","16469","6430","","","","","","","","","","","","","","","","","","",""
"pit-instructions","112","835034","0.0-2.0-24.0-1.0","battery-v0.2","","""event"",""trial"",""time""
""fullscreenenter"",""1"",""2710""
","
","
","""event"",""trial"",""time""
""fullscreenenter"",""1"",""2710""
","
","","[{""page_index"":0,""viewing_time"":1166.1000000000931}]","1166.1999999997206","","","","","","","","","","","","","","","","","","","","","","","",""
"pit-comprehension","113","841234","0.0-2.0-25.0-0.0","battery-v0.2","","""event"",""trial"",""time""
""fullscreenenter"",""1"",""2710""
","
","
","""event"",""trial"",""time""
""fullscreenenter"",""1"",""2710""
","
","","","6198.199999999721","[""True""]","0","12","16469","6430","","","","","","","","","","","","","","","","","","",""
"pit-instructions","114","844296","0.0-2.0-25.0-1.0","battery-v0.2","","""event"",""trial"",""time""
""fullscreenenter"",""1"",""2710""
","
","
","""event"",""trial"",""time""
""fullscreenenter"",""1"",""2710""
","
","","[{""page_index"":0,""viewing_time"":3024.7000000001863}]","3024.9000000003725","","","","","","","","","","","","","","","","","","","","","","","",""
"pit-comprehension","115","850580","0.0-2.0-26.0-0.0","battery-v0.2","","""event"",""trial"",""time""
""fullscreenenter"",""1"",""2710""
","
","
","""event"",""trial"",""time""
""fullscreenenter"",""1"",""2710""
","
","","","6282.899999999907","[""False""]","0","12","16469","6430","","","","","","","","","","","","","","","","","","",""
"pit-instructions","116","870604","0.0-2.0-26.0-1.0","battery-v0.2","","""event"",""trial"",""time""
""fullscreenenter"",""1"",""2710""
","
","
","""event"",""trial"",""time""
""fullscreenenter"",""1"",""2710""
","
","","[{""page_index"":0,""viewing_time"":19991.19999999972}]","19991.5","","","","","","","","","","","","","","","","","","","","","","","",""
"pit-instructions","117","896490","0.0-3.0","battery-v0.2","","""event"",""trial"",""time""
""fullscreenenter"",""1"",""2710""
","
","
","""event"",""trial"",""time""
""fullscreenenter"",""1"",""2710""
","
","","[{""page_index"":0,""viewing_time"":10794.299999999814},{""page_index"":1,""viewing_time"":7943.800000000279},{""page_index"":2,""viewing_time"":7145.5999999996275}]","25884.399999999907","","","","","","","","","","","","","","","","","","","","","","","",""
"pit-trial","118","900273","0.0-4.0","battery-v0.2","","""event"",""trial"",""time""
""fullscreenenter"",""1"",""2710""
","
","
","""event"",""trial"",""time""
""fullscreenenter"",""1"",""2710""
","
","","","907.8999999999069","","","12","16469","6430","&#9733;","elianto","#3366ff99","-1"," ","0","0","[1768.5]","1","1","","","16469","1","2","2","win","no-go","0"
"pit-trial","119","905127","0.0-5.0","battery-v0.2","","""event"",""trial"",""time""
""fullscreenenter"",""1"",""2710""
","
","
","""event"",""trial"",""time""
""fullscreenenter"",""1"",""2710""
","
","","","-1","","","12","16469","6430","&#9752;","elianto","#f73b6a7A"," ","-1","0","-10","[]","0","1","","","16469","2","3","3","lose","go","0"
"pit-trial","120","910007","0.0-6.0","battery-v0.2","","""event"",""trial"",""time""
""fullscreenenter"",""1"",""2710""
","
","
","""event"",""trial"",""time""
""fullscreenenter"",""1"",""2710""
","
","","","-1","","","12","16469","6430","&#9730;","elianto","#3366ff99"," ","-1","0","0","[]","0","1","","","16469","3","1","1","win","go","0"
"pit-trial","121","914089","0.0-7.0","battery-v0.2","","""event"",""trial"",""time""
""fullscreenenter"",""1"",""2710""
","
","
","""event"",""trial"",""time""
""fullscreenenter"",""1"",""2710""
","
","","","1221.8000000002794","","","12","16469","6430","&#9728;","elianto","#f73b6a7A","-1"," ","0","-10","[2073]","1","1","","","16469","4","0","4","lose","no-go","0"
"pit-trial","122","918945","0.0-8.0","battery-v0.2","","""event"",""trial"",""time""
""fullscreenenter"",""1"",""2710""
","
","
","""event"",""trial"",""time""
""fullscreenenter"",""1"",""2710""
","
","","","-1","","","12","16469","6430","&#9730;","elianto","#3366ff99"," ","-1","0","+10","[]","0","1","","","16469","5","1","1","win","go","1"
"pit-trial","123","923440","0.0-9.0","battery-v0.2","","""event"",""trial"",""time""
""fullscreenenter"",""1"",""2710""
","
","
","""event"",""trial"",""time""
""fullscreenenter"",""1"",""2710""
","
","","","1639.7999999998137","","","12","16469","6430","&#9733;","elianto","#3366ff99","-1"," ","0","0","[2492.7000000001863]","1","1","","","16469","6","2","2","win","no-go","0"
"pit-trial","124","927328","0.0-10.0","battery-v0.2","","""event"",""trial"",""time""
""fullscreenenter"",""1"",""2710""
","
","
","""event"",""trial"",""time""
""fullscreenenter"",""1"",""2710""
","
","","","1033.8999999999069","","","12","16469","6430","&#9728;","elianto","#f73b6a7A","-1"," ","0","-10","[1884.5999999996275]","1","1","","","16469","7","0","4","lose","no-go","0"
"pit-trial","125","931202","0.0-11.0","battery-v0.2","","""event"",""trial"",""time""
""fullscreenenter"",""1"",""2710""
","
","
","""event"",""trial"",""time""
""fullscreenenter"",""1"",""2710""
","
","","","1021.1999999997206","","","12","16469","6430","&#9752;","elianto","#f73b6a7A"," "," ","1","-10","[1871.1999999997206]","1","1","","","16469","8","3","3","lose","go","1"
"pit-trial","126","936056","0.0-12.0","battery-v0.2","","""event"",""trial"",""time""
""fullscreenenter"",""1"",""2710""
","
","
","""event"",""trial"",""time""
""fullscreenenter"",""1"",""2710""
","
","","","-1","","","12","16469","6430","&#9752;","elianto","#f73b6a7A"," ","-1","0","-10","[]","0","1","","","16469","9","3","3","lose","go","0"
"pit-trial","127","940825","0.0-13.0","battery-v0.2","","""event"",""trial"",""time""
""fullscreenenter"",""1"",""2710""
","
","
","""event"",""trial"",""time""
""fullscreenenter"",""1"",""2710""
","
","","","1915.2000000001863","","","12","16469","6430","&#9733;","elianto","#3366ff99","-1"," ","0","+10","[2766.1999999997206]","1","1","","","16469","10","2","2","win","no-go","1"
"pit-trial","128","945677","0.0-14.0","battery-v0.2","","""event"",""trial"",""time""
""fullscreenenter"",""1"",""2710""
","
","
","""event"",""trial"",""time""
""fullscreenenter"",""1"",""2710""
","
","","","-1","","","12","16469","6430","&#9728;","elianto","#f73b6a7A","-1","-1","1","0","[]","0","1","","","16469","11","0","4","lose","no-go","0"
"pit-trial","129","950531","0.0-15.0","battery-v0.2","","""event"",""trial"",""time""
""fullscreenenter"",""1"",""2710""
","
","
","""event"",""trial"",""time""
""fullscreenenter"",""1"",""2710""
","
","","","-1","","","12","16469","6430","&#9730;","elianto","#3366ff99"," ","-1","0","0","[]","0","1","","","16469","12","1","1","win","go","0"
"pit-trial","130","955384","0.0-16.0","battery-v0.2","","""event"",""trial"",""time""
""fullscreenenter"",""1"",""2710""
","
","
","""event"",""trial"",""time""
""fullscreenenter"",""1"",""2710""
","
","","","-1","","","12","16469","6430","&#9752;","elianto","#f73b6a7A"," ","-1","0","0","[]","0","1","","","16469","13","3","3","lose","go","1"
"pit-trial","131","960237","0.0-17.0","battery-v0.2","","""event"",""trial"",""time""
""fullscreenenter"",""1"",""2710""
","
","
","""event"",""trial"",""time""
""fullscreenenter"",""1"",""2710""
","
","","","-1","","","12","16469","6430","&#9730;","elianto","#3366ff99"," ","-1","0","0","[]","0","1","","","16469","14","1","1","win","go","0"
"pit-trial","132","964636","0.0-18.0","battery-v0.2","","""event"",""trial"",""time""
""fullscreenenter"",""1"",""2710""
","
","
","""event"",""trial"",""time""
""fullscreenenter"",""1"",""2710""
","
","","","1545","","","12","16469","6430","&#9728;","elianto","#f73b6a7A","-1"," ","0","0","[2396.600000000093]","1","1","","","16469","15","0","4","lose","no-go","1"
"pit-trial","133","968495","0.0-19.0","battery-v0.2","","""event"",""trial"",""time""
""fullscreenenter"",""1"",""2710""
","
","
","""event"",""trial"",""time""
""fullscreenenter"",""1"",""2710""
","
","","","1006.5","","","12","16469","6430","&#9733;","elianto","#3366ff99","-1"," ","0","0","[1856.8000000002794]","1","1","","","16469","16","2","2","win","no-go","0"
"pit-trial","134","972427","0.0-20.0","battery-v0.2","","""event"",""trial"",""time""
""fullscreenenter"",""1"",""2710""
","
","
","""event"",""trial"",""time""
""fullscreenenter"",""1"",""2710""
","
","","","1078.5","","","12","16469","6430","&#9752;","elianto","#f73b6a7A"," "," ","1","0","[1929.5]","1","1","","","16469","17","3","3","lose","go","0"
"pit-trial","135","975650","0.0-21.0","battery-v0.2","","""event"",""trial"",""time""
""fullscreenenter"",""1"",""2710""
","
","
","""event"",""trial"",""time""
""fullscreenenter"",""1"",""2710""
","
","","","371","","","12","16469","6430","&#9728;","elianto","#f73b6a7A","-1"," ","0","0","[1221.1000000000931]","1","1","","","16469","18","0","4","lose","no-go","1"
"pit-trial","136","978898","0.0-22.0","battery-v0.2","","""event"",""trial"",""time""
""fullscreenenter"",""1"",""2710""
","
","
","""event"",""trial"",""time""
""fullscreenenter"",""1"",""2710""
","
","","","396.6999999997206","","","12","16469","6430","&#9733;","elianto","#3366ff99","-1"," ","0","0","[1246.8999999999069]","1","1","","","16469","19","2","2","win","no-go","0"
"pit-trial","137","982797","0.0-23.0","battery-v0.2","","""event"",""trial"",""time""
""fullscreenenter"",""1"",""2710""
","
","
","""event"",""trial"",""time""
""fullscreenenter"",""1"",""2710""
","
","","","1044.7999999998137","","","12","16469","6430","&#9730;","elianto","#3366ff99"," "," ","1","+10","[1896.6999999997206]","1","1","","","16469","20","1","1","win","go","0"
"pit-instructions","138","1017944","0.0-24.0","battery-v0.2","","""event"",""trial"",""time""
""fullscreenenter"",""1"",""2710""
","
","
","""event"",""trial"",""time""
""fullscreenenter"",""1"",""2710""
","
","","[{""page_index"":0,""viewing_time"":28212.600000000093},{""page_index"":1,""viewing_time"":6932.200000000186}]","35145","","","","","","","","","","","","","","","","","","","","","","","",""
"pit-trial","139","1021812","0.0-25.0","battery-v0.2","","""event"",""trial"",""time""
""fullscreenenter"",""1"",""2710""
","
","
","""event"",""trial"",""time""
""fullscreenenter"",""1"",""2710""
","
","","","999","","","12","16469","6430","g","elianto","#f73b6a7A"," "," ","1","0","[1861.6000000000931]","1","2","","","16469","21","3","3","lose","go","0"
"pit-trial","140","1026688","0.0-26.0","battery-v0.2","","""event"",""trial"",""time""
""fullscreenenter"",""1"",""2710""
","
","
","""event"",""trial"",""time""
""fullscreenenter"",""1"",""2710""
","
","","","-1","","","12","16469","6430","u","elianto","#f73b6a7A","-1","-1","1","0","[]","0","2","","","16469","22","0","4","lose","no-go","0"
"pit-trial","141","1031246","0.0-27.0","battery-v0.2","","""event"",""trial"",""time""
""fullscreenenter"",""1"",""2710""
","
","
","""event"",""trial"",""time""
""fullscreenenter"",""1"",""2710""
","
","","","1694.2000000001863","","","12","16469","6430","l","elianto","#3366ff99"," "," ","1","+10","[2545.5]","1","2","","","16469","23","1","1","win","go","0"
"pit-trial","142","1035873","0.0-28.0","battery-v0.2","","""event"",""trial"",""time""
""fullscreenenter"",""1"",""2710""
","
","
","""event"",""trial"",""time""
""fullscreenenter"",""1"",""2710""
","
","","","1763.3999999999069","","","12","16469","6430","a","elianto","#f73b6a7A","-1"," ","0","-10","[2622.6999999997206]","1","2","","","16469","24","2","4","lose","no-go","0"
"pit-trial","143","1039563","0.0-29.0","battery-v0.2","","""event"",""trial"",""time""
""fullscreenenter"",""1"",""2710""
","
","
","""event"",""trial"",""time""
""fullscreenenter"",""1"",""2710""
","
","","","828.6000000000931","","","12","16469","6430","g","elianto","#f73b6a7A"," "," ","1","0","[1679.2999999998137]","1","2","","","16469","25","3","3","lose","go","0"
"pit-trial","144","1044425","0.0-30.0","battery-v0.2","","""event"",""trial"",""time""
""fullscreenenter"",""1"",""2710""
","
","
","""event"",""trial"",""time""
""fullscreenenter"",""1"",""2710""
","
","","","-1","","","12","16469","6430","a","elianto","#f73b6a7A","-1","-1","1","0","[]","0","2","","","16469","26","2","4","lose","no-go","0"
"pit-trial","145","1048108","0.0-31.0","battery-v0.2","","""event"",""trial"",""time""
""fullscreenenter"",""1"",""2710""
","
","
","""event"",""trial"",""time""
""fullscreenenter"",""1"",""2710""
","
","","","814.7000000001863","","","12","16469","6430","l","elianto","#3366ff99"," "," ","1","+10","[1675.8999999999069]","1","2","","","16469","27","1","1","win","go","0"
"pit-trial","146","1052962","0.0-32.0","battery-v0.2","","""event"",""trial"",""time""
""fullscreenenter"",""1"",""2710""
","
","
","""event"",""trial"",""time""
""fullscreenenter"",""1"",""2710""
","
","","","-1","","","12","16469","6430","u","elianto","#f73b6a7A","-1","-1","1","0","[]","0","2","","","16469","28","0","4","lose","no-go","0"
"pit-trial","147","1057815","0.0-33.0","battery-v0.2","","""event"",""trial"",""time""
""fullscreenenter"",""1"",""2710""
","
","
","""event"",""trial"",""time""
""fullscreenenter"",""1"",""2710""
","
","","","-1","","","12","16469","6430","u","elianto","#f73b6a7A","-1","-1","1","0","[]","0","2","","","16469","29","0","4","lose","no-go","0"
"pit-trial","148","1061367","0.0-34.0","battery-v0.2","","""event"",""trial"",""time""
""fullscreenenter"",""1"",""2710""
","
","
","""event"",""trial"",""time""
""fullscreenenter"",""1"",""2710""
","
","","","696.7000000001863","","","12","16469","6430","l","elianto","#3366ff99"," "," ","1","+10","[1547.8000000002794]","1","2","","","16469","30","1","1","win","go","0"
"pit-trial","149","1065132","0.0-35.0","battery-v0.2","","""event"",""trial"",""time""
""fullscreenenter"",""1"",""2710""
","
","
","""event"",""trial"",""time""
""fullscreenenter"",""1"",""2710""
","
","","","910.5","","","12","16469","6430","g","elianto","#f73b6a7A"," "," ","1","0","[1761.1999999997206]","1","2","","","16469","31","3","3","lose","go","0"
"pit-trial","150","1069984","0.0-36.0","battery-v0.2","","""event"",""trial"",""time""
""fullscreenenter"",""1"",""2710""
","
","
","""event"",""trial"",""time""
""fullscreenenter"",""1"",""2710""
","
","","","-1","","","12","16469","6430","a","elianto","#f73b6a7A","-1","-1","1","0","[]","0","2","","","16469","32","2","4","lose","no-go","0"
"pit-trial","151","1074839","0.0-37.0","battery-v0.2","","""event"",""trial"",""time""
""fullscreenenter"",""1"",""2710""
","
","
","""event"",""trial"",""time""
""fullscreenenter"",""1"",""2710""
","
","","","-1","","","12","16469","6430","u","elianto","#f73b6a7A","-1","-1","1","0","[]","0","2","","","16469","33","0","4","lose","no-go","0"
"pit-trial","152","1079692","0.0-38.0","battery-v0.2","","""event"",""trial"",""time""
""fullscreenenter"",""1"",""2710""
","
","
","""event"",""trial"",""time""
""fullscreenenter"",""1"",""2710""
","
","","","-1","","","12","16469","6430","a","elianto","#f73b6a7A","-1","-1","1","0","[]","0","2","","","16469","34","2","4","lose","no-go","0"
"pit-trial","153","1083153","0.0-39.0","battery-v0.2","","""event"",""trial"",""time""
""fullscreenenter"",""1"",""2710""
","
","
","""event"",""trial"",""time""
""fullscreenenter"",""1"",""2710""
","
","","","608","","","12","16469","6430","g","elianto","#f73b6a7A"," "," ","1","0","[1459.2000000001863]","1","2","","","16469","35","3","3","lose","go","0"
"pit-trial","154","1086616","0.0-40.0","battery-v0.2","","""event"",""trial"",""time""
""fullscreenenter"",""1"",""2710""
","
","
","""event"",""trial"",""time""
""fullscreenenter"",""1"",""2710""
","
","","","607.8000000002794","","","12","16469","6430","l","elianto","#3366ff99"," "," ","1","+10","[1458.8999999999069]","1","2","","","16469","36","1","1","win","go","0"
"pit-trial","155","1090286","0.0-41.0","battery-v0.2","","""event"",""trial"",""time""
""fullscreenenter"",""1"",""2710""
","
","
","""event"",""trial"",""time""
""fullscreenenter"",""1"",""2710""
","
","","","815","","","12","16469","6430","g","elianto","#f73b6a7A"," "," ","1","-10","[1665.5]","1","2","","","16469","37","3","3","lose","go","1"
"pit-trial","156","1095140","0.0-42.0","battery-v0.2","","""event"",""trial"",""time""
""fullscreenenter"",""1"",""2710""
","
","
","""event"",""trial"",""time""
""fullscreenenter"",""1"",""2710""
","
","","","-1","","","12","16469","6430","u","elianto","#f73b6a7A","-1","-1","1","0","[]","0","2","","","16469","38","0","4","lose","no-go","0"
"pit-trial","157","1100001","0.0-43.0","battery-v0.2","","""event"",""trial"",""time""
""fullscreenenter"",""1"",""2710""
","
","
","""event"",""trial"",""time""
""fullscreenenter"",""1"",""2710""
","
","","","-1","","","12","16469","6430","a","elianto","#f73b6a7A","-1","-1","1","0","[]","0","2","","","16469","39","2","4","lose","no-go","0"
"pit-trial","158","1103491","0.0-44.0","battery-v0.2","","""event"",""trial"",""time""
""fullscreenenter"",""1"",""2710""
","
","
","""event"",""trial"",""time""
""fullscreenenter"",""1"",""2710""
","
","","","636.8999999999069","","","12","16469","6430","l","elianto","#3366ff99"," "," ","1","+10","[1488.3000000002794]","1","2","","","16469","40","1","1","win","go","0"
"pit-trial","159","1107012","0.0-45.0","battery-v0.2","","""event"",""trial"",""time""
""fullscreenenter"",""1"",""2710""
","
","
","""event"",""trial"",""time""
""fullscreenenter"",""1"",""2710""
","
","","","667.7000000001863","","","12","16469","6430","g","elianto","#f73b6a7A"," "," ","1","0","[1517.7000000001863]","1","2","","","16469","41","3","3","lose","go","0"
"pit-trial","160","1110446","0.0-46.0","battery-v0.2","","""event"",""trial"",""time""
""fullscreenenter"",""1"",""2710""
","
","
","""event"",""trial"",""time""
""fullscreenenter"",""1"",""2710""
","
","","","580.1000000000931","","","12","16469","6430","l","elianto","#3366ff99"," "," ","1","0","[1431.3999999999069]","1","2","","","16469","42","1","1","win","go","1"
"pit-trial","161","1115300","0.0-47.0","battery-v0.2","","""event"",""trial"",""time""
""fullscreenenter"",""1"",""2710""
","
","
","""event"",""trial"",""time""
""fullscreenenter"",""1"",""2710""
","
","","","-1","","","12","16469","6430","a","elianto","#f73b6a7A","-1","-1","1","0","[]","0","2","","","16469","43","2","4","lose","no-go","0"
"pit-trial","162","1120155","0.0-48.0","battery-v0.2","","""event"",""trial"",""time""
""fullscreenenter"",""1"",""2710""
","
","
","""event"",""trial"",""time""
""fullscreenenter"",""1"",""2710""
","
","","","-1","","","12","16469","6430","u","elianto","#f73b6a7A","-1","-1","1","0","[]","0","2","","","16469","44","0","4","lose","no-go","0"
"pit-trial","163","1125008","0.0-49.0","battery-v0.2","","""event"",""trial"",""time""
""fullscreenenter"",""1"",""2710""
","
","
","""event"",""trial"",""time""
""fullscreenenter"",""1"",""2710""
","
","","","-1","","","12","16469","6430","p","elianto","#3366ff99","-1","-1","1","+10","[]","0","2","","","16469","45","4","2","win","no-go","0"
"pit-trial","164","1129679","0.0-50.0","battery-v0.2","","""event"",""trial"",""time""
""fullscreenenter"",""1"",""2710""
","
","
","""event"",""trial"",""time""
""fullscreenenter"",""1"",""2710""
","
","","","1807.3000000002794","","","12","16469","6430","g","elianto","#f73b6a7A"," "," ","1","-10","[2668.100000000093]","1","2","","","16469","46","3","3","lose","go","1"
"pit-trial","165","1134532","0.0-51.0","battery-v0.2","","""event"",""trial"",""time""
""fullscreenenter"",""1"",""2710""
","
","
","""event"",""trial"",""time""
""fullscreenenter"",""1"",""2710""
","
","","","-1","","","12","16469","6430","u","elianto","#f73b6a7A","-1","-1","1","-10","[]","0","2","","","16469","47","0","4","lose","no-go","1"
"pit-trial","166","1139386","0.0-52.0","battery-v0.2","","""event"",""trial"",""time""
""fullscreenenter"",""1"",""2710""
","
","
","""event"",""trial"",""time""
""fullscreenenter"",""1"",""2710""
","
","","","-1","","","12","16469","6430","a","elianto","#f73b6a7A","-1","-1","1","0","[]","0","2","","","16469","48","2","4","lose","no-go","0"
"pit-trial","167","1144239","0.0-53.0","battery-v0.2","","""event"",""trial"",""time""
""fullscreenenter"",""1"",""2710""
","
","
","""event"",""trial"",""time""
""fullscreenenter"",""1"",""2710""
","
","","","-1","","","12","16469","6430","u","elianto","#f73b6a7A","-1","-1","1","0","[]","0","2","","","16469","49","0","4","lose","no-go","0"
"pit-trial","168","1148200","0.0-54.0","battery-v0.2","","""event"",""trial"",""time""
""fullscreenenter"",""1"",""2710""
","
","
","""event"",""trial"",""time""
""fullscreenenter"",""1"",""2710""
","
","","","1105.3999999999069","","","12","16469","6430","l","elianto","#3366ff99"," "," ","1","+10","[1957.2000000001863]","1","2","","","16469","50","1","1","win","go","0"
"pit-trial","169","1153055","0.0-55.0","battery-v0.2","","""event"",""trial"",""time""
""fullscreenenter"",""1"",""2710""
","
","
","""event"",""trial"",""time""
""fullscreenenter"",""1"",""2710""
","
","","","-1","","","12","16469","6430","g","elianto","#f73b6a7A"," ","-1","0","-10","[3219.2000000001863]","1","2","","","16469","51","3","3","lose","go","0"
"pit-trial","170","1157909","0.0-56.0","battery-v0.2","","""event"",""trial"",""time""
""fullscreenenter"",""1"",""2710""
","
","
","""event"",""trial"",""time""
""fullscreenenter"",""1"",""2710""
","
","","","-1","","","12","16469","6430","p","elianto","#3366ff99","-1","-1","1","+10","[]","0","2","","","16469","52","4","2","win","no-go","0"
"pit-trial","171","1162764","0.0-57.0","battery-v0.2","","""event"",""trial"",""time""
""fullscreenenter"",""1"",""2710""
","
","
","""event"",""trial"",""time""
""fullscreenenter"",""1"",""2710""
","
","","","-1","","","12","16469","6430","u","elianto","#f73b6a7A","-1","-1","1","0","[]","0","2","","","16469","53","0","4","lose","no-go","0"
"pit-trial","172","1167002","0.0-58.0","battery-v0.2","","""event"",""trial"",""time""
""fullscreenenter"",""1"",""2710""
","
","
","""event"",""trial"",""time""
""fullscreenenter"",""1"",""2710""
","
","","","1384.6000000000931","","","12","16469","6430","l","elianto","#3366ff99"," "," ","1","+10","[2235.5]","1","2","","","16469","54","1","1","win","go","0"
"pit-trial","173","1171857","0.0-59.0","battery-v0.2","","""event"",""trial"",""time""
""fullscreenenter"",""1"",""2710""
","
","
","""event"",""trial"",""time""
""fullscreenenter"",""1"",""2710""
","
","","","-1","","","12","16469","6430","p","elianto","#3366ff99","-1","-1","1","+10","[]","0","2","","","16469","55","4","2","win","no-go","0"
"pit-trial","174","1176710","0.0-60.0","battery-v0.2","","""event"",""trial"",""time""
""fullscreenenter"",""1"",""2710""
","
","
","""event"",""trial"",""time""
""fullscreenenter"",""1"",""2710""
","
","","","-1","","","12","16469","6430","a","elianto","#f73b6a7A","-1","-1","1","0","[]","0","2","","","16469","56","2","4","lose","no-go","0"
"pit-trial","175","1180771","0.0-61.0","battery-v0.2","","""event"",""trial"",""time""
""fullscreenenter"",""1"",""2710""
","
","
","""event"",""trial"",""time""
""fullscreenenter"",""1"",""2710""
","
","","","1207.2999999998137","","","12","16469","6430","g","elianto","#f73b6a7A"," "," ","1","-10","[2058.5]","1","2","","","16469","57","3","3","lose","go","1"
"pit-trial","176","1185517","0.0-62.0","battery-v0.2","","""event"",""trial"",""time""
""fullscreenenter"",""1"",""2710""
","
","
","""event"",""trial"",""time""
""fullscreenenter"",""1"",""2710""
","
","","","1891.2999999998137","","","12","16469","6430","l","elianto","#3366ff99"," "," ","1","+10","[2742.100000000093]","1","2","","","16469","58","1","1","win","go","0"
"pit-trial","177","1190370","0.0-63.0","battery-v0.2","","""event"",""trial"",""time""
""fullscreenenter"",""1"",""2710""
","
","
","""event"",""trial"",""time""
""fullscreenenter"",""1"",""2710""
","
","","","-1","","","12","16469","6430","p","elianto","#3366ff99","-1","-1","1","+10","[]","0","2","","","16469","59","4","2","win","no-go","0"
"pit-trial","178","1195224","0.0-64.0","battery-v0.2","","""event"",""trial"",""time""
""fullscreenenter"",""1"",""2710""
","
","
","""event"",""trial"",""time""
""fullscreenenter"",""1"",""2710""
","
","","","-1","","","12","16469","6430","u","elianto","#f73b6a7A","-1","-1","1","0","[]","0","2","","","16469","60","0","4","lose","no-go","0"
"pit-trial","179","1200077","0.0-65.0","battery-v0.2","","""event"",""trial"",""time""
""fullscreenenter"",""1"",""2710""
","
","
","""event"",""trial"",""time""
""fullscreenenter"",""1"",""2710""
","
","","","-1","","","12","16469","6430","p","elianto","#3366ff99","-1","-1","1","+10","[]","0","2","","","16469","61","4","2","win","no-go","0"
"pit-trial","180","1204494","0.0-66.0","battery-v0.2","","""event"",""trial"",""time""
""fullscreenenter"",""1"",""2710""
","
","
","""event"",""trial"",""time""
""fullscreenenter"",""1"",""2710""
","
","","","1560.9000000003725","","","12","16469","6430","g","elianto","#f73b6a7A"," "," ","1","-10","[2412.300000000745]","1","2","","","16469","62","3","3","lose","go","1"
"pit-trial","181","1208538","0.0-67.0","battery-v0.2","","""event"",""trial"",""time""
""fullscreenenter"",""1"",""2710""
","
","
","""event"",""trial"",""time""
""fullscreenenter"",""1"",""2710""
","
","","","1189.0999999996275","","","12","16469","6430","l","elianto","#3366ff99"," "," ","1","0","[2040.0999999996275]","1","2","","","16469","63","1","1","win","go","1"
"pit-trial","182","1213391","0.0-68.0","battery-v0.2","","""event"",""trial"",""time""
""fullscreenenter"",""1"",""2710""
","
","
","""event"",""trial"",""time""
""fullscreenenter"",""1"",""2710""
","
","","","-1","","","12","16469","6430","a","elianto","#f73b6a7A","-1","-1","1","0","[]","0","2","","","16469","64","2","4","lose","no-go","0"
"pit-trial","183","1218243","0.0-69.0","battery-v0.2","","""event"",""trial"",""time""
""fullscreenenter"",""1"",""2710""
","
","
","""event"",""trial"",""time""
""fullscreenenter"",""1"",""2710""
","
","","","-1","","","12","16469","6430","p","elianto","#3366ff99","-1","-1","1","+10","[2964.100000000559]","1","2","","","16469","65","4","2","win","no-go","0"
"pit-trial","184","1223095","0.0-70.0","battery-v0.2","","""event"",""trial"",""time""
""fullscreenenter"",""1"",""2710""
","
","
","""event"",""trial"",""time""
""fullscreenenter"",""1"",""2710""
","
","","","-1","","","12","16469","6430","l","elianto","#3366ff99"," ","-1","0","0","[]","0","2","","","16469","66","1","1","win","go","0"
"pit-trial","185","1227948","0.0-71.0","battery-v0.2","","""event"",""trial"",""time""
""fullscreenenter"",""1"",""2710""
","
","
","""event"",""trial"",""time""
""fullscreenenter"",""1"",""2710""
","
","","","-1","","","12","16469","6430","a","elianto","#f73b6a7A","-1","-1","1","0","[270.20000000018626]","1","2","","","16469","67","2","4","lose","no-go","0"
"pit-trial","186","1231836","0.0-72.0","battery-v0.2","","""event"",""trial"",""time""
""fullscreenenter"",""1"",""2710""
","
","
","""event"",""trial"",""time""
""fullscreenenter"",""1"",""2710""
","
","","","1035.699999999255","","","12","16469","6430","g","elianto","#f73b6a7A"," "," ","1","-10","[1886]","1","2","","","16469","68","3","3","lose","go","1"
"pit-trial","187","1236167","0.0-73.0","battery-v0.2","","""event"",""trial"",""time""
""fullscreenenter"",""1"",""2710""
","
","
","""event"",""trial"",""time""
""fullscreenenter"",""1"",""2710""
","
","","","1476.7999999998137","","","12","16469","6430","p","elianto","#3366ff99","-1"," ","0","+10","[2327.399999999441]","1","2","","","16469","69","4","2","win","no-go","1"
"pit-trial","188","1241024","0.0-74.0","battery-v0.2","","""event"",""trial"",""time""
""fullscreenenter"",""1"",""2710""
","
","
","""event"",""trial"",""time""
""fullscreenenter"",""1"",""2710""
","
","","","-1","","","12","16469","6430","s","elianto","#3366ff99"," ","-1","0","+10","[]","0","2","","","16469","70","5","1","win","go","1"
"pit-trial","189","1245877","0.0-75.0","battery-v0.2","","""event"",""trial"",""time""
""fullscreenenter"",""1"",""2710""
","
","
","""event"",""trial"",""time""
""fullscreenenter"",""1"",""2710""
","
","","","-1","","","12","16469","6430","g","elianto","#f73b6a7A"," ","-1","0","-10","[3337.2999999998137]","1","2","","","16469","71","3","3","lose","go","0"
"pit-trial","190","1250059","0.0-76.0","battery-v0.2","","""event"",""trial"",""time""
""fullscreenenter"",""1"",""2710""
","
","
","""event"",""trial"",""time""
""fullscreenenter"",""1"",""2710""
","
","","","1328","","","12","16469","6430","l","elianto","#3366ff99"," "," ","1","+10","[2180]","1","2","","","16469","72","1","1","win","go","0"
"pit-trial","191","1254030","0.0-77.0","battery-v0.2","","""event"",""trial"",""time""
""fullscreenenter"",""1"",""2710""
","
","
","""event"",""trial"",""time""
""fullscreenenter"",""1"",""2710""
","
","","","1115.9000000003725","","","12","16469","6430","g","elianto","#f73b6a7A"," "," ","1","0","[1967.300000000745]","1","2","","","16469","73","3","3","lose","go","0"
"pit-trial","192","1258609","0.0-78.0","battery-v0.2","","""event"",""trial"",""time""
""fullscreenenter"",""1"",""2710""
","
","
","""event"",""trial"",""time""
""fullscreenenter"",""1"",""2710""
","
","","","1725.7000000001863","","","12","16469","6430","p","elianto","#3366ff99","-1"," ","0","0","[2576]","1","2","","","16469","74","4","2","win","no-go","0"
"pit-trial","193","1263463","0.0-79.0","battery-v0.2","","""event"",""trial"",""time""
""fullscreenenter"",""1"",""2710""
","
","
","""event"",""trial"",""time""
""fullscreenenter"",""1"",""2710""
","
","","","-1","","","12","16469","6430","s","elianto","#3366ff99"," ","-1","0","0","[]","0","2","","","16469","75","5","1","win","go","0"
"pit-trial","194","1267669","0.0-80.0","battery-v0.2","","""event"",""trial"",""time""
""fullscreenenter"",""1"",""2710""
","
","
","""event"",""trial"",""time""
""fullscreenenter"",""1"",""2710""
","
","","","1350.699999999255","","","12","16469","6430","l","elianto","#3366ff99"," "," ","1","+10","[2201.5999999996275]","1","2","","","16469","76","1","1","win","go","0"
"pit-trial","195","1272032","0.0-81.0","battery-v0.2","","""event"",""trial"",""time""
""fullscreenenter"",""1"",""2710""
","
","
","""event"",""trial"",""time""
""fullscreenenter"",""1"",""2710""
","
","","","1509.800000000745","","","12","16469","6430","g","elianto","#f73b6a7A"," "," ","1","-10","[2360.5]","1","2","","","16469","77","3","3","lose","go","1"
"pit-trial","196","1276887","0.0-82.0","battery-v0.2","","""event"",""trial"",""time""
""fullscreenenter"",""1"",""2710""
","
","
","""event"",""trial"",""time""
""fullscreenenter"",""1"",""2710""
","
","","","-1","","","12","16469","6430","s","elianto","#3366ff99"," ","-1","0","+10","[]","0","2","","","16469","78","5","1","win","go","1"
"pit-trial","197","1281646","0.0-83.0","battery-v0.2","","""event"",""trial"",""time""
""fullscreenenter"",""1"",""2710""
","
","
","""event"",""trial"",""time""
""fullscreenenter"",""1"",""2710""
","
","","","1905.3999999994412","","","12","16469","6430","p","elianto","#3366ff99","-1"," ","0","0","[2755.7999999998137]","1","2","","","16469","79","4","2","win","no-go","0"
"pit-trial","198","1286501","0.0-84.0","battery-v0.2","","""event"",""trial"",""time""
""fullscreenenter"",""1"",""2710""
","
","
","""event"",""trial"",""time""
""fullscreenenter"",""1"",""2710""
","
","","","-1","","","12","16469","6430","w","elianto","#f73b6a7A","-1","-1","1","-10","[]","0","2","","","16469","80","6","4","lose","no-go","1"
"pit-trial","199","1290282","0.0-85.0","battery-v0.2","","""event"",""trial"",""time""
""fullscreenenter"",""1"",""2710""
","
","
","""event"",""trial"",""time""
""fullscreenenter"",""1"",""2710""
","
","","","927.7000000001863","","","12","16469","6430","w","elianto","#f73b6a7A","-1"," ","0","-10","[1778.6000000005588]","1","2","","","16469","81","6","4","lose","no-go","0"
"pit-trial","200","1295134","0.0-86.0","battery-v0.2","","""event"",""trial"",""time""
""fullscreenenter"",""1"",""2710""
","
","
","""event"",""trial"",""time""
""fullscreenenter"",""1"",""2710""
","
","","","-1","","","12","16469","6430","s","elianto","#3366ff99"," ","-1","0","0","[3080.2999999998137]","1","2","","","16469","82","5","1","win","go","0"
"pit-trial","201","1299926","0.0-87.0","battery-v0.2","","""event"",""trial"",""time""
""fullscreenenter"",""1"",""2710""
","
","
","""event"",""trial"",""time""
""fullscreenenter"",""1"",""2710""
","
","","","1939.2999999998137","","","12","16469","6430","p","elianto","#3366ff99","-1"," ","0","0","[2790.0999999996275]","1","2","","","16469","83","4","2","win","no-go","0"
"pit-trial","202","1304778","0.0-88.0","battery-v0.2","","""event"",""trial"",""time""
""fullscreenenter"",""1"",""2710""
","
","
","""event"",""trial"",""time""
""fullscreenenter"",""1"",""2710""
","
","","","-1","","","12","16469","6430","e","elianto","#f73b6a7A"," ","-1","0","-10","[]","0","2","","","16469","84","7","3","lose","go","0"
"pit-trial","203","1309044","0.0-89.0","battery-v0.2","","""event"",""trial"",""time""
""fullscreenenter"",""1"",""2710""
","
","
","""event"",""trial"",""time""
""fullscreenenter"",""1"",""2710""
","
","","","1411.6000000005588","","","12","16469","6430","w","elianto","#f73b6a7A","-1"," ","0","-10","[2261.7000000001863]","1","2","","","16469","85","6","4","lose","no-go","0"
"pit-trial","204","1313230","0.0-90.0","battery-v0.2","","""event"",""trial"",""time""
""fullscreenenter"",""1"",""2710""
","
","
","""event"",""trial"",""time""
""fullscreenenter"",""1"",""2710""
","
","","","1332","","","12","16469","6430","e","elianto","#f73b6a7A"," "," ","1","0","[2182.899999999441]","1","2","","","16469","86","7","3","lose","go","0"
"pit-trial","205","1316896","0.0-91.0","battery-v0.2","","""event"",""trial"",""time""
""fullscreenenter"",""1"",""2710""
","
","
","""event"",""trial"",""time""
""fullscreenenter"",""1"",""2710""
","
","","","811.4000000003725","","","12","16469","6430","p","elianto","#3366ff99","-1"," ","0","0","[1663]","1","2","","","16469","87","4","2","win","no-go","0"
"pit-trial","206","1320978","0.0-92.0","battery-v0.2","","""event"",""trial"",""time""
""fullscreenenter"",""1"",""2710""
","
","
","""event"",""trial"",""time""
""fullscreenenter"",""1"",""2710""
","
","","","1227.0999999996275","","","12","16469","6430","s","elianto","#3366ff99"," "," ","1","+10","[2078.100000000559,2477.600000000559]","2","2","","","16469","88","5","1","win","go","0"
"pit-trial","207","1325434","0.0-93.0","battery-v0.2","","""event"",""trial"",""time""
""fullscreenenter"",""1"",""2710""
","
","
","""event"",""trial"",""time""
""fullscreenenter"",""1"",""2710""
","
","","","1602.7000000001863","","","12","16469","6430","e","elianto","#f73b6a7A"," "," ","1","0","[2453]","1","2","","","16469","89","7","3","lose","go","0"
"pit-trial","208","1329558","0.0-94.0","battery-v0.2","","""event"",""trial"",""time""
""fullscreenenter"",""1"",""2710""
","
","
","""event"",""trial"",""time""
""fullscreenenter"",""1"",""2710""
","
","","","1271.2000000001863","","","12","16469","6430","p","elianto","#3366ff99","-1"," ","0","+10","[2121.9000000003725]","1","2","","","16469","90","4","2","win","no-go","1"
"pit-trial","209","1333614","0.0-95.0","battery-v0.2","","""event"",""trial"",""time""
""fullscreenenter"",""1"",""2710""
","
","
","""event"",""trial"",""time""
""fullscreenenter"",""1"",""2710""
","
","","","1202.2999999998137","","","12","16469","6430","s","elianto","#3366ff99"," "," ","1","+10","[2053.5999999996275,3742.899999999441]","2","2","","","16469","91","5","1","win","go","0"
"pit-trial","210","1337193","0.0-96.0","battery-v0.2","","""event"",""trial"",""time""
""fullscreenenter"",""1"",""2710""
","
","
","""event"",""trial"",""time""
""fullscreenenter"",""1"",""2710""
","
","","","726.3000000007451","","","12","16469","6430","w","elianto","#f73b6a7A","-1"," ","0","0","[1576.7999999998137]","1","2","","","16469","92","6","4","lose","no-go","1"
"pit-trial","211","1341610","0.0-97.0","battery-v0.2","","""event"",""trial"",""time""
""fullscreenenter"",""1"",""2710""
","
","
","""event"",""trial"",""time""
""fullscreenenter"",""1"",""2710""
","
","","","1563.7000000001863","","","12","16469","6430","w","elianto","#f73b6a7A","-1"," ","0","-10","[2415.4000000003725]","1","2","","","16469","93","6","4","lose","no-go","0"
"pit-trial","212","1345405","0.0-98.0","battery-v0.2","","""event"",""trial"",""time""
""fullscreenenter"",""1"",""2710""
","
","
","""event"",""trial"",""time""
""fullscreenenter"",""1"",""2710""
","
","","","940.7999999998137","","","12","16469","6430","s","elianto","#3366ff99"," "," ","1","+10","[1791]","1","2","","","16469","94","5","1","win","go","0"
"pit-trial","213","1349952","0.0-99.0","battery-v0.2","","""event"",""trial"",""time""
""fullscreenenter"",""1"",""2710""
","
","
","""event"",""trial"",""time""
""fullscreenenter"",""1"",""2710""
","
","","","1691.7000000001863","","","12","16469","6430","e","elianto","#f73b6a7A"," "," ","1","-10","[2543.5]","1","2","","","16469","95","7","3","lose","go","1"
"pit-trial","214","1354113","0.0-100.0","battery-v0.2","","""event"",""trial"",""time""
""fullscreenenter"",""1"",""2710""
","
","
","""event"",""trial"",""time""
""fullscreenenter"",""1"",""2710""
","
","","","1306.7999999998137","","","12","16469","6430","d","elianto","#3366ff99","-1"," ","0","0","[2158.2000000001863]","1","2","","","16469","96","8","2","win","no-go","0"
"pit-trial","215","1358966","0.0-101.0","battery-v0.2","","""event"",""trial"",""time""
""fullscreenenter"",""1"",""2710""
","
","
","""event"",""trial"",""time""
""fullscreenenter"",""1"",""2710""
","
","","","-1","","","12","16469","6430","e","elianto","#f73b6a7A"," ","-1","0","-10","[]","0","2","","","16469","97","7","3","lose","go","0"
"pit-trial","216","1362886","0.0-102.0","battery-v0.2","","""event"",""trial"",""time""
""fullscreenenter"",""1"",""2710""
","
","
","""event"",""trial"",""time""
""fullscreenenter"",""1"",""2710""
","
","","","1066.4000000003725","","","12","16469","6430","w","elianto","#f73b6a7A","-1"," ","0","-10","[1916.4000000003725]","1","2","","","16469","98","6","4","lose","no-go","0"
"pit-trial","217","1367741","0.0-103.0","battery-v0.2","","""event"",""trial"",""time""
""fullscreenenter"",""1"",""2710""
","
","
","""event"",""trial"",""time""
""fullscreenenter"",""1"",""2710""
","
","","","-1","","","12","16469","6430","d","elianto","#3366ff99","-1","-1","1","+10","[2976.2999999998137]","1","2","","","16469","99","8","2","win","no-go","0"
"pit-trial","218","1372595","0.0-104.0","battery-v0.2","","""event"",""trial"",""time""
""fullscreenenter"",""1"",""2710""
","
","
","""event"",""trial"",""time""
""fullscreenenter"",""1"",""2710""
","
","","","-1","","","12","16469","6430","s","elianto","#3366ff99"," ","-1","0","0","[3787.5999999996275]","1","2","","","16469","100","5","1","win","go","0"
"pit-trial","219","1376822","0.0-105.0","battery-v0.2","","""event"",""trial"",""time""
""fullscreenenter"",""1"",""2710""
","
","
","""event"",""trial"",""time""
""fullscreenenter"",""1"",""2710""
","
","","","1373.199999999255","","","12","16469","6430","d","elianto","#3366ff99","-1"," ","0","0","[2223.399999999441]","1","2","","","16469","101","8","2","win","no-go","0"
"pit-trial","220","1381152","0.0-106.0","battery-v0.2","","""event"",""trial"",""time""
""fullscreenenter"",""1"",""2710""
","
","
","""event"",""trial"",""time""
""fullscreenenter"",""1"",""2710""
","
","","","1476.7000000001863","","","12","16469","6430","j","elianto","#3366ff99","-1"," ","0","+10","[2327.399999999441]","1","2","","","16469","102","9","2","win","no-go","1"
"pit-trial","221","1386007","0.0-107.0","battery-v0.2","","""event"",""trial"",""time""
""fullscreenenter"",""1"",""2710""
","
","
","""event"",""trial"",""time""
""fullscreenenter"",""1"",""2710""
","
","","","-1","","","12","16469","6430","w","elianto","#f73b6a7A","-1","-1","1","0","[3560.2999999998137,4431.9000000003725]","2","2","","","16469","103","6","4","lose","no-go","0"
"pit-trial","222","1390357","0.0-108.0","battery-v0.2","","""event"",""trial"",""time""
""fullscreenenter"",""1"",""2710""
","
","
","""event"",""trial"",""time""
""fullscreenenter"",""1"",""2710""
","
","","","1495.9000000003725","","","12","16469","6430","s","elianto","#3366ff99"," "," ","1","0","[2346.2999999998137]","1","2","","","16469","104","5","1","win","go","1"
"pit-trial","223","1394906","0.0-109.0","battery-v0.2","","""event"",""trial"",""time""
""fullscreenenter"",""1"",""2710""
","
","
","""event"",""trial"",""time""
""fullscreenenter"",""1"",""2710""
","
","","","1696.2000000001863","","","12","16469","6430","j","elianto","#3366ff99","-1"," ","0","0","[2547.2999999998137]","1","2","","","16469","105","9","2","win","no-go","0"
"pit-trial","224","1399760","0.0-110.0","battery-v0.2","","""event"",""trial"",""time""
""fullscreenenter"",""1"",""2710""
","
","
","""event"",""trial"",""time""
""fullscreenenter"",""1"",""2710""
","
","","","-1","","","12","16469","6430","s","elianto","#3366ff99"," ","-1","0","0","[2883.9000000003725]","1","2","","","16469","106","5","1","win","go","0"
"pit-trial","225","1404236","0.0-111.0","battery-v0.2","","""event"",""trial"",""time""
""fullscreenenter"",""1"",""2710""
","
","
","""event"",""trial"",""time""
""fullscreenenter"",""1"",""2710""
","
","","","1621.9000000003725","","","12","16469","6430","w","elianto","#f73b6a7A","-1"," ","0","-10","[2473.100000000559]","1","2","","","16469","107","6","4","lose","no-go","0"
"pit-trial","226","1408080","0.0-112.0","battery-v0.2","","""event"",""trial"",""time""
""fullscreenenter"",""1"",""2710""
","
","
","""event"",""trial"",""time""
""fullscreenenter"",""1"",""2710""
","
","","","992.1999999992549","","","12","16469","6430","d","elianto","#3366ff99","-1"," ","0","0","[1842.5999999996275]","1","2","","","16469","108","8","2","win","no-go","0"
"pit-trial","227","1412934","0.0-113.0","battery-v0.2","","""event"",""trial"",""time""
""fullscreenenter"",""1"",""2710""
","
","
","""event"",""trial"",""time""
""fullscreenenter"",""1"",""2710""
","
","","","-1","","","12","16469","6430","s","elianto","#3366ff99"," ","-1","0","0","[3277.2000000001863]","1","2","","","16469","109","5","1","win","go","0"
"pit-trial","228","1417787","0.0-114.0","battery-v0.2","","""event"",""trial"",""time""
""fullscreenenter"",""1"",""2710""
","
","
","""event"",""trial"",""time""
""fullscreenenter"",""1"",""2710""
","
","","","-1","","","12","16469","6430","d","elianto","#3366ff99","-1","-1","1","+10","[3251.7999999998137]","1","2","","","16469","110","8","2","win","no-go","0"
"pit-trial","229","1421362","0.0-115.0","battery-v0.2","","""event"",""trial"",""time""
""fullscreenenter"",""1"",""2710""
","
","
","""event"",""trial"",""time""
""fullscreenenter"",""1"",""2710""
","
","","","722.1999999992549","","","12","16469","6430","w","elianto","#f73b6a7A","-1"," ","0","-10","[1573.3999999994412]","1","2","","","16469","111","6","4","lose","no-go","0"
"pit-trial","230","1425573","0.0-116.0","battery-v0.2","","""event"",""trial"",""time""
""fullscreenenter"",""1"",""2710""
","
","
","""event"",""trial"",""time""
""fullscreenenter"",""1"",""2710""
","
","","","1358.2999999998137","","","12","16469","6430","j","elianto","#3366ff99","-1"," ","0","0","[2208.7000000001863,2466.300000000745]","2","2","","","16469","112","9","2","win","no-go","0"
"pit-trial","231","1429096","0.0-117.0","battery-v0.2","","""event"",""trial"",""time""
""fullscreenenter"",""1"",""2710""
","
","
","""event"",""trial"",""time""
""fullscreenenter"",""1"",""2710""
","
","","","671","","","12","16469","6430","d","elianto","#3366ff99","-1"," ","0","0","[1521.5999999996275]","1","2","","","16469","113","8","2","win","no-go","0"
"pit-trial","232","1433154","0.0-118.0","battery-v0.2","","""event"",""trial"",""time""
""fullscreenenter"",""1"",""2710""
","
","
","""event"",""trial"",""time""
""fullscreenenter"",""1"",""2710""
","
","","","1205.2000000001863","","","12","16469","6430","e","elianto","#f73b6a7A"," "," ","1","0","[2055.7000000001863]","1","2","","","16469","114","7","3","lose","go","0"
"pit-trial","233","1436988","0.0-119.0","battery-v0.2","","""event"",""trial"",""time""
""fullscreenenter"",""1"",""2710""
","
","
","""event"",""trial"",""time""
""fullscreenenter"",""1"",""2710""
","
","","","981.5999999996275","","","12","16469","6430","s","elianto","#3366ff99"," "," ","1","+10","[1831.9000000003725]","1","2","","","16469","115","5","1","win","go","0"
"pit-trial","234","1440998","0.0-120.0","battery-v0.2","","""event"",""trial"",""time""
""fullscreenenter"",""1"",""2710""
","
","
","""event"",""trial"",""time""
""fullscreenenter"",""1"",""2710""
","
","","","1157.7000000001863","","","12","16469","6430","j","elianto","#3366ff99","-1"," ","0","0","[2008.2000000001863]","1","2","","","16469","116","9","2","win","no-go","0"
"pit-trial","235","1444767","0.0-121.0","battery-v0.2","","""event"",""trial"",""time""
""fullscreenenter"",""1"",""2710""
","
","
","""event"",""trial"",""time""
""fullscreenenter"",""1"",""2710""
","
","","","914.7000000001863","","","12","16469","6430","d","elianto","#3366ff99","-1"," ","0","0","[1765.7999999998137]","1","2","","","16469","117","8","2","win","no-go","0"
"pit-trial","236","1448978","0.0-122.0","battery-v0.2","","""event"",""trial"",""time""
""fullscreenenter"",""1"",""2710""
","
","
","""event"",""trial"",""time""
""fullscreenenter"",""1"",""2710""
","
","","","1358","","","12","16469","6430","j","elianto","#3366ff99","-1"," ","0","0","[2208.800000000745]","1","2","","","16469","118","9","2","win","no-go","0"
"pit-trial","237","1452428","0.0-123.0","battery-v0.2","","""event"",""trial"",""time""
""fullscreenenter"",""1"",""2710""
","
","
","""event"",""trial"",""time""
""fullscreenenter"",""1"",""2710""
","
","","","595.9000000003725","","","12","16469","6430","s","elianto","#3366ff99"," "," ","1","+10","[1446.0999999996275]","1","2","","","16469","119","5","1","win","go","0"
"pit-trial","238","1456423","0.0-124.0","battery-v0.2","","""event"",""trial"",""time""
""fullscreenenter"",""1"",""2710""
","
","
","""event"",""trial"",""time""
""fullscreenenter"",""1"",""2710""
","
","","","1140.7999999998137","","","12","16469","6430","w","elianto","#f73b6a7A","-1"," ","0","0","[373.40000000037253,1991.7000000001863,2205.2999999998137]","3","2","","","16469","120","6","4","lose","no-go","1"
"pit-trial","239","1460896","0.0-125.0","battery-v0.2","","""event"",""trial"",""time""
""fullscreenenter"",""1"",""2710""
","
","
","""event"",""trial"",""time""
""fullscreenenter"",""1"",""2710""
","
","","","1619","","","12","16469","6430","j","elianto","#3366ff99","-1"," ","0","0","[2469.100000000559]","1","2","","","16469","121","9","2","win","no-go","0"
"pit-trial","240","1464519","0.0-126.0","battery-v0.2","","""event"",""trial"",""time""
""fullscreenenter"",""1"",""2710""
","
","
","""event"",""trial"",""time""
""fullscreenenter"",""1"",""2710""
","
","","","769.2999999998137","","","12","16469","6430","d","elianto","#3366ff99","-1"," ","0","0","[1619.5999999996275]","1","2","","","16469","122","8","2","win","no-go","0"
"pit-trial","241","1469374","0.0-127.0","battery-v0.2","","""event"",""trial"",""time""
""fullscreenenter"",""1"",""2710""
","
","
","""event"",""trial"",""time""
""fullscreenenter"",""1"",""2710""
","
","","","-1","","","12","16469","6430","e","elianto","#f73b6a7A"," ","-1","0","-10","[4345.799999999814]","1","2","","","16469","123","7","3","lose","go","0"
"pit-trial","242","1473176","0.0-128.0","battery-v0.2","","""event"",""trial"",""time""
""fullscreenenter"",""1"",""2710""
","
","
","""event"",""trial"",""time""
""fullscreenenter"",""1"",""2710""
","
","","","949","","","12","16469","6430","s","elianto","#3366ff99"," "," ","1","+10","[1799.5]","1","2","","","16469","124","5","1","win","go","0"
"pit-trial","243","1477129","0.0-129.0","battery-v0.2","","""event"",""trial"",""time""
""fullscreenenter"",""1"",""2710""
","
","
","""event"",""trial"",""time""
""fullscreenenter"",""1"",""2710""
","
","","","1097.7000000001863","","","12","16469","6430","w","elianto","#f73b6a7A","-1"," ","0","0","[1948.5]","1","2","","","16469","125","6","4","lose","no-go","1"
"pit-trial","244","1481046","0.0-130.0","battery-v0.2","","""event"",""trial"",""time""
""fullscreenenter"",""1"",""2710""
","
","
","""event"",""trial"",""time""
""fullscreenenter"",""1"",""2710""
","
","","","1064.7000000001863","","","12","16469","6430","e","elianto","#f73b6a7A"," "," ","1","0","[1915.7000000001863]","1","2","","","16469","126","7","3","lose","go","0"
"pit-trial","245","1484484","0.0-131.0","battery-v0.2","","""event"",""trial"",""time""
""fullscreenenter"",""1"",""2710""
","
","
","""event"",""trial"",""time""
""fullscreenenter"",""1"",""2710""
","
