"trial_type","trial_index","time_elapsed","internal_node_id","task_version","subject_id","interactions","blur_events","focus_events","fullscreenenter_events","fullscreenexit_events","success","view_history","rt","responses","num_errors","age","subject","participantId","rune","rune_set","hex","correct","choice","accuracy","outcome","keys","total_keys","block","practice","value","sub","trial","stimulus","robot","valence","action","sham"
"pavlovia","0","5","0.0-0.0","battery-v0.2","","""event"",""trial"",""time""
""fullscreenenter"",""1"",""1307""
","
","
","""event"",""trial"",""time""
""fullscreenenter"",""1"",""1307""
","
","","","","","","","","","","","","","","","","","","","","","","","","","","",""
"fullscreen","1","2302","0.0-1.0","battery-v0.2","","""event"",""trial"",""time""
""fullscreenenter"",""1"",""1307""
","
","
","""event"",""trial"",""time""
""fullscreenenter"",""1"",""1307""
","
","true","","","","","","","","","","","","","","","","","","","","","","","","","",""
"pit-instructions","2","16180","0.0-2.0-0.0","battery-v0.2","","""event"",""trial"",""time""
""fullscreenenter"",""1"",""1307""
","
","
","""event"",""trial"",""time""
""fullscreenenter"",""1"",""1307""
","
","","[{""page_index"":0,""viewing_time"":13872.400000000373}]","13872.800000000745","","","","","","","","","","","","","","","","","","","","","","","",""
"pit-comprehension","3","18935","0.0-2.0-1.0-0.0","battery-v0.2","","""event"",""trial"",""time""
""fullscreenenter"",""1"",""1307""
","
","
","""event"",""trial"",""time""
""fullscreenenter"",""1"",""1307""
","
","","","2753.5","[""shark""]","0","14","15559","1843","","","","","","","","","","","","","","","","","","",""
"pit-instructions","4","21895","0.0-2.0-1.0-1.0","battery-v0.2","","""event"",""trial"",""time""
""fullscreenenter"",""1"",""1307""
","
","
","""event"",""trial"",""time""
""fullscreenenter"",""1"",""1307""
","
","","[{""page_index"":0,""viewing_time"":2954.5}]","2954.899999999441","","","","","","","","","","","","","","","","","","","","","","","",""
"pit-comprehension","5","24897","0.0-2.0-2.0-0.0","battery-v0.2","","""event"",""trial"",""time""
""fullscreenenter"",""1"",""1307""
","
","
","""event"",""trial"",""time""
""fullscreenenter"",""1"",""1307""
","
","","","2999.2999999998137","[""tiger""]","0","14","15559","1843","","","","","","","","","","","","","","","","","","",""
"pit-instructions","6","26244","0.0-2.0-2.0-1.0","battery-v0.2","","""event"",""trial"",""time""
""fullscreenenter"",""1"",""1307""
","
","
","""event"",""trial"",""time""
""fullscreenenter"",""1"",""1307""
","
","","[{""page_index"":0,""viewing_time"":1345}]","1345.2000000001863","","","","","","","","","","","","","","","","","","","","","","","",""
"pit-instructions","7","115812","0.0-2.0-3.0","battery-v0.2","","""event"",""trial"",""time""
""fullscreenenter"",""1"",""1307""
","
","
","""event"",""trial"",""time""
""fullscreenenter"",""1"",""1307""
","
","","[{""page_index"":0,""viewing_time"":13374.599999999627},{""page_index"":1,""viewing_time"":5142.9000000003725},{""page_index"":2,""viewing_time"":7534},{""page_index"":3,""viewing_time"":5831.299999999814},{""page_index"":4,""viewing_time"":5080.700000000186},{""page_index"":5,""viewing_time"":5802},{""page_index"":6,""viewing_time"":5018.699999999255},{""page_index"":7,""viewing_time"":6126.700000000186},{""page_index"":8,""viewing_time"":6113.200000000186},{""page_index"":9,""viewing_time"":5111.9000000003725},{""page_index"":10,""viewing_time"":7008.799999999814},{""page_index"":11,""viewing_time"":4113.799999999814},{""page_index"":12,""viewing_time"":6113.799999999814},{""page_index"":13,""viewing_time"":7193.4000000003725}]","89566.09999999963","","","","","","","","","","","","","","","","","","","","","","","",""
"pit-trial","8","119303","0.0-2.0-4.0-0.0","battery-v0.2","","""event"",""trial"",""time""
""fullscreenenter"",""1"",""1307""
","
","
","""event"",""trial"",""time""
""fullscreenenter"",""1"",""1307""
","
","","","620.8999999994412","","","14","15559","1843","&#9784;","elianto","#FFFFF080"," "," ","1","&#10004","[1474.6000000005588]","1","0","0","","","","","","","",""
"pit-trial","9","122658","0.0-2.0-4.1-0.1","battery-v0.2","","""event"",""trial"",""time""
""fullscreenenter"",""1"",""1307""
","
","
","""event"",""trial"",""time""
""fullscreenenter"",""1"",""1307""
","
","","","487.40000000037253","","","14","15559","1843","&#9784;","elianto","#FFFFF080"," "," ","1","&#10004","[1339.4000000003725]","1","0","0","","","","","","","",""
"pit-trial","10","126073","0.0-2.0-4.2-0.2","battery-v0.2","","""event"",""trial"",""time""
""fullscreenenter"",""1"",""1307""
","
","
","""event"",""trial"",""time""
""fullscreenenter"",""1"",""1307""
","
","","","555.3000000007451","","","14","15559","1843","&#9784;","elianto","#FFFFF080"," "," ","1","&#10004","[1406.9000000003725]","1","0","0","","","","","","","",""
"pit-trial","11","129513","0.0-2.0-4.3-0.3","battery-v0.2","","""event"",""trial"",""time""
""fullscreenenter"",""1"",""1307""
","
","
","""event"",""trial"",""time""
""fullscreenenter"",""1"",""1307""
","
","","","569.4000000003725","","","14","15559","1843","&#9784;","elianto","#FFFFF080"," "," ","1","&#10004","[1423.5]","1","0","0","","","","","","","",""
"pit-trial","12","132851","0.0-2.0-4.4-0.4","battery-v0.2","","""event"",""trial"",""time""
""fullscreenenter"",""1"",""1307""
","
","
","""event"",""trial"",""time""
""fullscreenenter"",""1"",""1307""
","
","","","466","","","14","15559","1843","&#9784;","elianto","#FFFFF080"," "," ","1","&#10004","[1319]","1","0","0","","","","","","","",""
"pit-instructions","13","155163","0.0-2.0-5.0","battery-v0.2","","""event"",""trial"",""time""
""fullscreenenter"",""1"",""1307""
","
","
","""event"",""trial"",""time""
""fullscreenenter"",""1"",""1307""
","
","","[{""page_index"":0,""viewing_time"":7057.5},{""page_index"":1,""viewing_time"":5917.799999999814},{""page_index"":2,""viewing_time"":4242.4000000003725},{""page_index"":3,""viewing_time"":5089.700000000186}]","22307.700000000186","","","","","","","","","","","","","","","","","","","","","","","",""
"pit-trial","14","160026","0.0-2.0-6.0-0.0","battery-v0.2","","""event"",""trial"",""time""
""fullscreenenter"",""1"",""1307""
","
","
","""event"",""trial"",""time""
""fullscreenenter"",""1"",""1307""
","
","","","-1","","","14","15559","1843","&#9854;","elianto","#FFFFF080","-1","-1","1","&#10004","[]","0","0","1","","","","","","","",""
"pit-trial","15","164883","0.0-2.0-6.1-0.1","battery-v0.2","","""event"",""trial"",""time""
""fullscreenenter"",""1"",""1307""
","
","
","""event"",""trial"",""time""
""fullscreenenter"",""1"",""1307""
","
","","","-1","","","14","15559","1843","&#9854;","elianto","#FFFFF080","-1","-1","1","&#10004","[]","0","0","1","","","","","","","",""
"pit-trial","16","169759","0.0-2.0-6.2-0.2","battery-v0.2","","""event"",""trial"",""time""
""fullscreenenter"",""1"",""1307""
","
","
","""event"",""trial"",""time""
""fullscreenenter"",""1"",""1307""
","
","","","-1","","","14","15559","1843","&#9854;","elianto","#FFFFF080","-1","-1","1","&#10004","[]","0","0","1","","","","","","","",""
"pit-trial","17","174641","0.0-2.0-6.3-0.3","battery-v0.2","","""event"",""trial"",""time""
""fullscreenenter"",""1"",""1307""
","
","
","""event"",""trial"",""time""
""fullscreenenter"",""1"",""1307""
","
","","","-1","","","14","15559","1843","&#9854;","elianto","#FFFFF080","-1","-1","1","&#10004","[]","0","0","1","","","","","","","",""
"pit-trial","18","179513","0.0-2.0-6.4-0.4","battery-v0.2","","""event"",""trial"",""time""
""fullscreenenter"",""1"",""1307""
","
","
","""event"",""trial"",""time""
""fullscreenenter"",""1"",""1307""
","
","","","-1","","","14","15559","1843","&#9854;","elianto","#FFFFF080","-1","-1","1","&#10004","[]","0","0","1","","","","","","","",""
"pit-instructions","19","310506","0.0-2.0-7.0","battery-v0.2","","""event"",""trial"",""time""
""fullscreenenter"",""1"",""1307""
","
","
","""event"",""trial"",""time""
""fullscreenenter"",""1"",""1307""
","
","","[{""page_index"":0,""viewing_time"":9264.200000000186},{""page_index"":1,""viewing_time"":6548.600000000559},{""page_index"":2,""viewing_time"":7089.399999999441},{""page_index"":3,""viewing_time"":9635.5},{""page_index"":4,""viewing_time"":6798.100000000559},{""page_index"":5,""viewing_time"":7339.799999999814},{""page_index"":6,""viewing_time"":5565.299999999814},{""page_index"":7,""viewing_time"":7696.4000000003725},{""page_index"":8,""viewing_time"":7579.399999999441},{""page_index"":9,""viewing_time"":8547.100000000559},{""page_index"":10,""viewing_time"":6934.799999999814},{""page_index"":11,""viewing_time"":8072.799999999814},{""page_index"":12,""viewing_time"":7432.299999999814},{""page_index"":13,""viewing_time"":8084},{""page_index"":14,""viewing_time"":6082.200000000186},{""page_index"":15,""viewing_time"":6105.5},{""page_index"":16,""viewing_time"":6099.200000000186},{""page_index"":17,""viewing_time"":6115.200000000186}]","130990","","","","","","","","","","","","","","","","","","","","","","","",""
"pit-trial","20","314223","0.0-2.0-8.0-0.0","battery-v0.2","","""event"",""trial"",""time""
""fullscreenenter"",""1"",""1307""
","
","
","""event"",""trial"",""time""
""fullscreenenter"",""1"",""1307""
","
","","","853.8000000007451","","","14","15559","1843","&#9776;","elianto","#3366ff99"," "," ","1","+10","[1704.2000000001863]","1","0","1","","","","","","","",""
"pit-trial","21","317731","0.0-2.0-8.0-1.0","battery-v0.2","","""event"",""trial"",""time""
""fullscreenenter"",""1"",""1307""
","
","
","""event"",""trial"",""time""
""fullscreenenter"",""1"",""1307""
","
","","","640.8000000007451","","","14","15559","1843","&#9776;","elianto","#3366ff99"," "," ","1","+10","[1495.5]","1","0","1","","","","","","","",""
"pit-trial","22","321002","0.0-2.0-8.0-2.0","battery-v0.2","","""event"",""trial"",""time""
""fullscreenenter"",""1"",""1307""
","
","
","""event"",""trial"",""time""
""fullscreenenter"",""1"",""1307""
","
","","","414.59999999962747","","","14","15559","1843","&#9776;","elianto","#3366ff99"," "," ","1","+10","[1264.7999999998137]","1","0","1","","","","","","","",""
"pit-trial","23","324322","0.0-2.0-8.0-3.0","battery-v0.2","","""event"",""trial"",""time""
""fullscreenenter"",""1"",""1307""
","
","
","""event"",""trial"",""time""
""fullscreenenter"",""1"",""1307""
","
","","","460.40000000037253","","","14","15559","1843","&#9776;","elianto","#3366ff99"," "," ","1","0","[1315.4000000003725]","1","0","1","","","","","","","",""
"pit-trial","24","327848","0.0-2.0-8.0-4.0","battery-v0.2","","""event"",""trial"",""time""
""fullscreenenter"",""1"",""1307""
","
","
","""event"",""trial"",""time""
""fullscreenenter"",""1"",""1307""
","
","","","660.5","","","14","15559","1843","&#9776;","elianto","#3366ff99"," "," ","1","+10","[1510.6000000005588]","1","0","1","","","","","","","",""
"pit-trial","25","331142","0.0-2.0-8.1-0.1","battery-v0.2","","""event"",""trial"",""time""
""fullscreenenter"",""1"",""1307""
","
","
","""event"",""trial"",""time""
""fullscreenenter"",""1"",""1307""
","
","","","428.5","","","14","15559","1843","&#9776;","elianto","#3366ff99"," "," ","1","+10","[1282.2000000001863]","1","0","1","","","","","","","",""
"pit-trial","26","334513","0.0-2.0-8.1-1.1","battery-v0.2","","""event"",""trial"",""time""
""fullscreenenter"",""1"",""1307""
","
","
","""event"",""trial"",""time""
""fullscreenenter"",""1"",""1307""
","
","","","507.90000000037253","","","14","15559","1843","&#9776;","elianto","#3366ff99"," "," ","1","+10","[1365.5]","1","0","1","","","","","","","",""
"pit-trial","27","337695","0.0-2.0-8.1-2.1","battery-v0.2","","""event"",""trial"",""time""
""fullscreenenter"",""1"",""1307""
","
","
","""event"",""trial"",""time""
""fullscreenenter"",""1"",""1307""
","
","","","313.70000000018626","","","14","15559","1843","&#9776;","elianto","#3366ff99"," "," ","1","+10","[1169.5999999996275,2542.5]","2","0","1","","","","","","","",""
"pit-trial","28","340910","0.0-2.0-8.1-3.1","battery-v0.2","","""event"",""trial"",""time""
""fullscreenenter"",""1"",""1307""
","
","
","""event"",""trial"",""time""
""fullscreenenter"",""1"",""1307""
","
","","","347.5","","","14","15559","1843","&#9776;","elianto","#3366ff99"," "," ","1","0","[1204.2000000001863]","1","0","1","","","","","","","",""
"pit-trial","29","344177","0.0-2.0-8.1-4.1","battery-v0.2","","""event"",""trial"",""time""
""fullscreenenter"",""1"",""1307""
","
","
","""event"",""trial"",""time""
""fullscreenenter"",""1"",""1307""
","
","","","415.20000000018626","","","14","15559","1843","&#9776;","elianto","#3366ff99"," "," ","1","+10","[1265.2999999998137]","1","0","1","","","","","","","",""
"pit-trial","30","347452","0.0-2.0-8.2-0.2","battery-v0.2","","""event"",""trial"",""time""
""fullscreenenter"",""1"",""1307""
","
","
","""event"",""trial"",""time""
""fullscreenenter"",""1"",""1307""
","
","","","419.30000000074506","","","14","15559","1843","&#9776;","elianto","#3366ff99"," "," ","1","+10","[1270.2000000001863]","1","0","1","","","","","","","",""
"pit-trial","31","350536","0.0-2.0-8.2-1.2","battery-v0.2","","""event"",""trial"",""time""
""fullscreenenter"",""1"",""1307""
","
","
","""event"",""trial"",""time""
""fullscreenenter"",""1"",""1307""
","
","","","229.19999999925494","","","14","15559","1843","&#9776;","elianto","#3366ff99"," "," ","1","+10","[1080.0999999996275]","1","0","1","","","","","","","",""
"pit-trial","32","353676","0.0-2.0-8.2-2.2","battery-v0.2","","""event"",""trial"",""time""
""fullscreenenter"",""1"",""1307""
","
","
","""event"",""trial"",""time""
""fullscreenenter"",""1"",""1307""
","
","","","285.70000000018626","","","14","15559","1843","&#9776;","elianto","#3366ff99"," "," ","1","+10","[1136.8999999994412]","1","0","1","","","","","","","",""
"pit-trial","33","356978","0.0-2.0-8.2-3.2","battery-v0.2","","""event"",""trial"",""time""
""fullscreenenter"",""1"",""1307""
","
","
","""event"",""trial"",""time""
""fullscreenenter"",""1"",""1307""
","
","","","446.70000000018626","","","14","15559","1843","&#9776;","elianto","#3366ff99"," "," ","1","0","[1298.4000000003725]","1","0","1","","","","","","","",""
"pit-trial","34","360252","0.0-2.0-8.2-4.2","battery-v0.2","","""event"",""trial"",""time""
""fullscreenenter"",""1"",""1307""
","
","
","""event"",""trial"",""time""
""fullscreenenter"",""1"",""1307""
","
","","","421.20000000018626","","","14","15559","1843","&#9776;","elianto","#3366ff99"," "," ","1","+10","[1271.199999999255]","1","0","1","","","","","","","",""
"call-function","35","360255","0.0-2.0-9.0","battery-v0.2","","""event"",""trial"",""time""
""fullscreenenter"",""1"",""1307""
","
","
","""event"",""trial"",""time""
""fullscreenenter"",""1"",""1307""
","
","","","","","","","","","","","","","","","","","","","","","","","","","","",""
"pit-instructions","36","402630","0.0-2.0-10.0","battery-v0.2","","""event"",""trial"",""time""
""fullscreenenter"",""1"",""1307""
","
","
","""event"",""trial"",""time""
""fullscreenenter"",""1"",""1307""
","
","","[{""page_index"":0,""viewing_time"":5975.199999999255},{""page_index"":1,""viewing_time"":8577.900000000373},{""page_index"":2,""viewing_time"":9246.5},{""page_index"":3,""viewing_time"":11380},{""page_index"":4,""viewing_time"":7194.299999999814}]","42374.59999999963","","","","","","","","","","","","","","","","","","","","","","","",""
"pit-trial","37","407497","0.0-2.0-11.0-0.0","battery-v0.2","","""event"",""trial"",""time""
""fullscreenenter"",""1"",""1307""
","
","
","""event"",""trial"",""time""
""fullscreenenter"",""1"",""1307""
","
","","","-1","","","14","15559","1843","&#9761;","elianto","#3366ff99","-1","-1","1","+10","[]","0","0","2","","","","","","","",""
"pit-trial","38","412367","0.0-2.0-11.0-1.0","battery-v0.2","","""event"",""trial"",""time""
""fullscreenenter"",""1"",""1307""
","
","
","""event"",""trial"",""time""
""fullscreenenter"",""1"",""1307""
","
","","","-1","","","14","15559","1843","&#9761;","elianto","#3366ff99","-1","-1","1","+10","[]","0","0","2","","","","","","","",""
"pit-trial","39","417234","0.0-2.0-11.0-2.0","battery-v0.2","","""event"",""trial"",""time""
""fullscreenenter"",""1"",""1307""
","
","
","""event"",""trial"",""time""
""fullscreenenter"",""1"",""1307""
","
","","","-1","","","14","15559","1843","&#9761;","elianto","#3366ff99","-1","-1","1","+10","[]","0","0","2","","","","","","","",""
"pit-trial","40","422100","0.0-2.0-11.0-3.0","battery-v0.2","","""event"",""trial"",""time""
""fullscreenenter"",""1"",""1307""
","
","
","""event"",""trial"",""time""
""fullscreenenter"",""1"",""1307""
","
","","","-1","","","14","15559","1843","&#9761;","elianto","#3366ff99","-1","-1","1","0","[]","0","0","2","","","","","","","",""
"pit-trial","41","426959","0.0-2.0-11.0-4.0","battery-v0.2","","""event"",""trial"",""time""
""fullscreenenter"",""1"",""1307""
","
","
","""event"",""trial"",""time""
""fullscreenenter"",""1"",""1307""
","
","","","-1","","","14","15559","1843","&#9761;","elianto","#3366ff99","-1","-1","1","+10","[]","0","0","2","","","","","","","",""
"pit-trial","42","431843","0.0-2.0-11.1-0.1","battery-v0.2","","""event"",""trial"",""time""
""fullscreenenter"",""1"",""1307""
","
","
","""event"",""trial"",""time""
""fullscreenenter"",""1"",""1307""
","
","","","-1","","","14","15559","1843","&#9761;","elianto","#3366ff99","-1","-1","1","+10","[]","0","0","2","","","","","","","",""
"pit-trial","43","436696","0.0-2.0-11.1-1.1","battery-v0.2","","""event"",""trial"",""time""
""fullscreenenter"",""1"",""1307""
","
","
","""event"",""trial"",""time""
""fullscreenenter"",""1"",""1307""
","
","","","-1","","","14","15559","1843","&#9761;","elianto","#3366ff99","-1","-1","1","+10","[]","0","0","2","","","","","","","",""
"pit-trial","44","441551","0.0-2.0-11.1-2.1","battery-v0.2","","""event"",""trial"",""time""
""fullscreenenter"",""1"",""1307""
","
","
","""event"",""trial"",""time""
""fullscreenenter"",""1"",""1307""
","
","","","-1","","","14","15559","1843","&#9761;","elianto","#3366ff99","-1","-1","1","+10","[]","0","0","2","","","","","","","",""
"pit-trial","45","446405","0.0-2.0-11.1-3.1","battery-v0.2","","""event"",""trial"",""time""
""fullscreenenter"",""1"",""1307""
","
","
","""event"",""trial"",""time""
""fullscreenenter"",""1"",""1307""
","
","","","-1","","","14","15559","1843","&#9761;","elianto","#3366ff99","-1","-1","1","0","[]","0","0","2","","","","","","","",""
"pit-trial","46","451261","0.0-2.0-11.1-4.1","battery-v0.2","","""event"",""trial"",""time""
""fullscreenenter"",""1"",""1307""
","
","
","""event"",""trial"",""time""
""fullscreenenter"",""1"",""1307""
","
","","","-1","","","14","15559","1843","&#9761;","elianto","#3366ff99","-1","-1","1","+10","[]","0","0","2","","","","","","","",""
"pit-trial","47","456116","0.0-2.0-11.2-0.2","battery-v0.2","","""event"",""trial"",""time""
""fullscreenenter"",""1"",""1307""
","
","
","""event"",""trial"",""time""
""fullscreenenter"",""1"",""1307""
","
","","","-1","","","14","15559","1843","&#9761;","elianto","#3366ff99","-1","-1","1","+10","[]","0","0","2","","","","","","","",""
"pit-trial","48","460971","0.0-2.0-11.2-1.2","battery-v0.2","","""event"",""trial"",""time""
""fullscreenenter"",""1"",""1307""
","
","
","""event"",""trial"",""time""
""fullscreenenter"",""1"",""1307""
","
","","","-1","","","14","15559","1843","&#9761;","elianto","#3366ff99","-1","-1","1","+10","[]","0","0","2","","","","","","","",""
"pit-trial","49","465843","0.0-2.0-11.2-2.2","battery-v0.2","","""event"",""trial"",""time""
""fullscreenenter"",""1"",""1307""
","
","
","""event"",""trial"",""time""
""fullscreenenter"",""1"",""1307""
","
","","","-1","","","14","15559","1843","&#9761;","elianto","#3366ff99","-1","-1","1","+10","[]","0","0","2","","","","","","","",""
"pit-trial","50","470710","0.0-2.0-11.2-3.2","battery-v0.2","","""event"",""trial"",""time""
""fullscreenenter"",""1"",""1307""
","
","
","""event"",""trial"",""time""
""fullscreenenter"",""1"",""1307""
","
","","","-1","","","14","15559","1843","&#9761;","elianto","#3366ff99","-1","-1","1","0","[]","0","0","2","","","","","","","",""
"pit-trial","51","475579","0.0-2.0-11.2-4.2","battery-v0.2","","""event"",""trial"",""time""
""fullscreenenter"",""1"",""1307""
","
","
","""event"",""trial"",""time""
""fullscreenenter"",""1"",""1307""
","
","","","-1","","","14","15559","1843","&#9761;","elianto","#3366ff99","-1","-1","1","+10","[]","0","0","2","","","","","","","",""
"pit-trial","52","480435","0.0-2.0-11.3-0.3","battery-v0.2","","""event"",""trial"",""time""
""fullscreenenter"",""1"",""1307""
","
","
","""event"",""trial"",""time""
""fullscreenenter"",""1"",""1307""
","
","","","-1","","","14","15559","1843","&#9761;","elianto","#3366ff99","-1","-1","1","+10","[]","0","0","2","","","","","","","",""
"pit-trial","53","485291","0.0-2.0-11.3-1.3","battery-v0.2","","""event"",""trial"",""time""
""fullscreenenter"",""1"",""1307""
","
","
","""event"",""trial"",""time""
""fullscreenenter"",""1"",""1307""
","
","","","-1","","","14","15559","1843","&#9761;","elianto","#3366ff99","-1","-1","1","+10","[]","0","0","2","","","","","","","",""
"pit-trial","54","490145","0.0-2.0-11.3-2.3","battery-v0.2","","""event"",""trial"",""time""
""fullscreenenter"",""1"",""1307""
","
","
","""event"",""trial"",""time""
""fullscreenenter"",""1"",""1307""
","
","","","-1","","","14","15559","1843","&#9761;","elianto","#3366ff99","-1","-1","1","+10","[]","0","0","2","","","","","","","",""
"pit-trial","55","494999","0.0-2.0-11.3-3.3","battery-v0.2","","""event"",""trial"",""time""
""fullscreenenter"",""1"",""1307""
","
","
","""event"",""trial"",""time""
""fullscreenenter"",""1"",""1307""
","
","","","-1","","","14","15559","1843","&#9761;","elianto","#3366ff99","-1","-1","1","0","[]","0","0","2","","","","","","","",""
"pit-trial","56","499854","0.0-2.0-11.3-4.3","battery-v0.2","","""event"",""trial"",""time""
""fullscreenenter"",""1"",""1307""
","
","
","""event"",""trial"",""time""
""fullscreenenter"",""1"",""1307""
","
","","","-1","","","14","15559","1843","&#9761;","elianto","#3366ff99","-1","-1","1","+10","[]","0","0","2","","","","","","","",""
"call-function","57","499856","0.0-2.0-12.0","battery-v0.2","","""event"",""trial"",""time""
""fullscreenenter"",""1"",""1307""
","
","
","""event"",""trial"",""time""
""fullscreenenter"",""1"",""1307""
","
","","","","","","","","","","","","","","","","","","","","","","","","","","",""
"pit-instructions","58","528081","0.0-2.0-13.0","battery-v0.2","","""event"",""trial"",""time""
""fullscreenenter"",""1"",""1307""
","
","
","""event"",""trial"",""time""
""fullscreenenter"",""1"",""1307""
","
","","[{""page_index"":0,""viewing_time"":4613.200000000186},{""page_index"":1,""viewing_time"":6017},{""page_index"":2,""viewing_time"":3437.899999999441},{""page_index"":3,""viewing_time"":10024.700000000186},{""page_index"":4,""viewing_time"":4130.700000000186}]","28223.700000000186","","","","","","","","","","","","","","","","","","","","","","","",""
"pit-trial","59","532947","0.0-2.0-14.0-0.0","battery-v0.2","","""event"",""trial"",""time""
""fullscreenenter"",""1"",""1307""
","
","
","""event"",""trial"",""time""
""fullscreenenter"",""1"",""1307""
","
","","","-1","","","14","15559","1843","&#9826;","elianto","#f73b6a7A","-1","-1","1","0","[4695.899999999441]","1","0","3","","","","","","","",""
"pit-trial","60","535993","0.0-2.0-14.0-1.0","battery-v0.2","","""event"",""trial"",""time""
""fullscreenenter"",""1"",""1307""
","
","
","""event"",""trial"",""time""
""fullscreenenter"",""1"",""1307""
","
","","","186.79999999981374","","","14","15559","1843","&#9826;","elianto","#f73b6a7A","-1"," ","0","-10","[1041.5999999996275,1200.699999999255,1459.699999999255]","3","0","3","","","","","","","",""
"pit-trial","61","540869","0.0-2.0-14.0-2.0","battery-v0.2","","""event"",""trial"",""time""
""fullscreenenter"",""1"",""1307""
","
","
","""event"",""trial"",""time""
""fullscreenenter"",""1"",""1307""
","
","","","-1","","","14","15559","1843","&#9826;","elianto","#f73b6a7A","-1","-1","1","0","[]","0","0","3","","","","","","","",""
"pit-trial","62","545749","0.0-2.0-14.0-3.0","battery-v0.2","","""event"",""trial"",""time""
""fullscreenenter"",""1"",""1307""
","
","
","""event"",""trial"",""time""
""fullscreenenter"",""1"",""1307""
","
","","","-1","","","14","15559","1843","&#9826;","elianto","#f73b6a7A","-1","-1","1","-10","[]","0","0","3","","","","","","","",""
"pit-trial","63","550621","0.0-2.0-14.0-4.0","battery-v0.2","","""event"",""trial"",""time""
""fullscreenenter"",""1"",""1307""
","
","
","""event"",""trial"",""time""
""fullscreenenter"",""1"",""1307""
","
","","","-1","","","14","15559","1843","&#9826;","elianto","#f73b6a7A","-1","-1","1","0","[]","0","0","3","","","","","","","",""
"pit-trial","64","555495","0.0-2.0-14.1-0.1","battery-v0.2","","""event"",""trial"",""time""
""fullscreenenter"",""1"",""1307""
","
","
","""event"",""trial"",""time""
""fullscreenenter"",""1"",""1307""
","
","","","-1","","","14","15559","1843","&#9826;","elianto","#f73b6a7A","-1","-1","1","0","[]","0","0","3","","","","","","","",""
"pit-trial","65","560353","0.0-2.0-14.1-1.1","battery-v0.2","","""event"",""trial"",""time""
""fullscreenenter"",""1"",""1307""
","
","
","""event"",""trial"",""time""
""fullscreenenter"",""1"",""1307""
","
","","","-1","","","14","15559","1843","&#9826;","elianto","#f73b6a7A","-1","-1","1","0","[]","0","0","3","","","","","","","",""
"pit-trial","66","565208","0.0-2.0-14.1-2.1","battery-v0.2","","""event"",""trial"",""time""
""fullscreenenter"",""1"",""1307""
","
","
","""event"",""trial"",""time""
""fullscreenenter"",""1"",""1307""
","
","","","-1","","","14","15559","1843","&#9826;","elianto","#f73b6a7A","-1","-1","1","0","[]","0","0","3","","","","","","","",""
"pit-trial","67","570062","0.0-2.0-14.1-3.1","battery-v0.2","","""event"",""trial"",""time""
""fullscreenenter"",""1"",""1307""
","
","
","""event"",""trial"",""time""
""fullscreenenter"",""1"",""1307""
","
","","","-1","","","14","15559","1843","&#9826;","elianto","#f73b6a7A","-1","-1","1","-10","[]","0","0","3","","","","","","","",""
"pit-trial","68","574917","0.0-2.0-14.1-4.1","battery-v0.2","","""event"",""trial"",""time""
""fullscreenenter"",""1"",""1307""
","
","
","""event"",""trial"",""time""
""fullscreenenter"",""1"",""1307""
","
","","","-1","","","14","15559","1843","&#9826;","elianto","#f73b6a7A","-1","-1","1","0","[]","0","0","3","","","","","","","",""
"pit-trial","69","579773","0.0-2.0-14.2-0.2","battery-v0.2","","""event"",""trial"",""time""
""fullscreenenter"",""1"",""1307""
","
","
","""event"",""trial"",""time""
""fullscreenenter"",""1"",""1307""
","
","","","-1","","","14","15559","1843","&#9826;","elianto","#f73b6a7A","-1","-1","1","0","[]","0","0","3","","","","","","","",""
"pit-trial","70","584627","0.0-2.0-14.2-1.2","battery-v0.2","","""event"",""trial"",""time""
""fullscreenenter"",""1"",""1307""
","
","
","""event"",""trial"",""time""
""fullscreenenter"",""1"",""1307""
","
","","","-1","","","14","15559","1843","&#9826;","elianto","#f73b6a7A","-1","-1","1","0","[]","0","0","3","","","","","","","",""
"pit-trial","71","589479","0.0-2.0-14.2-2.2","battery-v0.2","","""event"",""trial"",""time""
""fullscreenenter"",""1"",""1307""
","
","
","""event"",""trial"",""time""
""fullscreenenter"",""1"",""1307""
","
","","","-1","","","14","15559","1843","&#9826;","elianto","#f73b6a7A","-1","-1","1","0","[]","0","0","3","","","","","","","",""
"pit-trial","72","594332","0.0-2.0-14.2-3.2","battery-v0.2","","""event"",""trial"",""time""
""fullscreenenter"",""1"",""1307""
","
","
","""event"",""trial"",""time""
""fullscreenenter"",""1"",""1307""
","
","","","-1","","","14","15559","1843","&#9826;","elianto","#f73b6a7A","-1","-1","1","-10","[]","0","0","3","","","","","","","",""
"pit-trial","73","599188","0.0-2.0-14.2-4.2","battery-v0.2","","""event"",""trial"",""time""
""fullscreenenter"",""1"",""1307""
","
","
","""event"",""trial"",""time""
""fullscreenenter"",""1"",""1307""
","
","","","-1","","","14","15559","1843","&#9826;","elianto","#f73b6a7A","-1","-1","1","0","[]","0","0","3","","","","","","","",""
"pit-trial","74","604043","0.0-2.0-14.3-0.3","battery-v0.2","","""event"",""trial"",""time""
""fullscreenenter"",""1"",""1307""
","
","
","""event"",""trial"",""time""
""fullscreenenter"",""1"",""1307""
","
","","","-1","","","14","15559","1843","&#9826;","elianto","#f73b6a7A","-1","-1","1","0","[]","0","0","3","","","","","","","",""
"pit-trial","75","608898","0.0-2.0-14.3-1.3","battery-v0.2","","""event"",""trial"",""time""
""fullscreenenter"",""1"",""1307""
","
","
","""event"",""trial"",""time""
""fullscreenenter"",""1"",""1307""
","
","","","-1","","","14","15559","1843","&#9826;","elianto","#f73b6a7A","-1","-1","1","0","[]","0","0","3","","","","","","","",""
"pit-trial","76","613753","0.0-2.0-14.3-2.3","battery-v0.2","","""event"",""trial"",""time""
""fullscreenenter"",""1"",""1307""
","
","
","""event"",""trial"",""time""
""fullscreenenter"",""1"",""1307""
","
","","","-1","","","14","15559","1843","&#9826;","elianto","#f73b6a7A","-1","-1","1","0","[]","0","0","3","","","","","","","",""
"pit-trial","77","618607","0.0-2.0-14.3-3.3","battery-v0.2","","""event"",""trial"",""time""
""fullscreenenter"",""1"",""1307""
","
","
","""event"",""trial"",""time""
""fullscreenenter"",""1"",""1307""
","
","","","-1","","","14","15559","1843","&#9826;","elianto","#f73b6a7A","-1","-1","1","-10","[]","0","0","3","","","","","","","",""
"pit-trial","78","623461","0.0-2.0-14.3-4.3","battery-v0.2","","""event"",""trial"",""time""
""fullscreenenter"",""1"",""1307""
","
","
","""event"",""trial"",""time""
""fullscreenenter"",""1"",""1307""
","
","","","-1","","","14","15559","1843","&#9826;","elianto","#f73b6a7A","-1","-1","1","0","[]","0","0","3","","","","","","","",""
"call-function","79","623462","0.0-2.0-15.0","battery-v0.2","","""event"",""trial"",""time""
""fullscreenenter"",""1"",""1307""
","
","
","""event"",""trial"",""time""
""fullscreenenter"",""1"",""1307""
","
","","","","","","","","","","","","","","","","","","","","","","","","","","",""
"pit-instructions","80","648584","0.0-2.0-16.0","battery-v0.2","","""event"",""trial"",""time""
""fullscreenenter"",""1"",""1307""
","
","
","""event"",""trial"",""time""
""fullscreenenter"",""1"",""1307""
","
","","[{""page_index"":0,""viewing_time"":8755.599999999627},{""page_index"":1,""viewing_time"":8130.200000000186},{""page_index"":2,""viewing_time"":4113.5999999996275},{""page_index"":3,""viewing_time"":4121.4000000003725}]","25121","","","","","","","","","","","","","","","","","","","","","","","",""
"pit-trial","81","653451","0.0-2.0-17.0-0.0","battery-v0.2","","""event"",""trial"",""time""
""fullscreenenter"",""1"",""1307""
","
","
","""event"",""trial"",""time""
""fullscreenenter"",""1"",""1307""
","
","","","-1","","","14","15559","1843","&#9789;","elianto","#f73b6a7A"," ","-1","0","-10","[3736.0999999996275,3986.2000000001863,4194.299999999814,4687.0999999996275]","4","0","4","","","","","","","",""
"pit-trial","82","656779","0.0-2.0-17.0-1.0","battery-v0.2","","""event"",""trial"",""time""
""fullscreenenter"",""1"",""1307""
","
","
","""event"",""trial"",""time""
""fullscreenenter"",""1"",""1307""
","
","","","475.09999999962747","","","14","15559","1843","&#9789;","elianto","#f73b6a7A"," "," ","1","0","[6.900000000372529,203.1000000005588,360.30000000074506,1325.4000000003725,1548.800000000745,1708.800000000745,1892.800000000745,2074.100000000559,2265.5,2455.9000000003725,2634.600000000559,2825.9000000003725,2996.2000000001863,3153.800000000745,3316.4000000003725]","15","0","4","","","","","","","",""
"pit-trial","83","660161","0.0-2.0-17.0-2.0","battery-v0.2","","""event"",""trial"",""time""
""fullscreenenter"",""1"",""1307""
","
","
","""event"",""trial"",""time""
""fullscreenenter"",""1"",""1307""
","
","","","513.2000000001863","","","14","15559","1843","&#9789;","elianto","#f73b6a7A"," "," ","1","0","[195.40000000037253,575.7000000001863,1366.9000000003725,2118.5,2593.5999999996275,2878.5,3096.7000000001863,3322.2999999998137]","8","0","4","","","","","","","",""
"pit-trial","84","663204","0.0-2.0-17.0-3.0","battery-v0.2","","""event"",""trial"",""time""
""fullscreenenter"",""1"",""1307""
","
","
","""event"",""trial"",""time""
""fullscreenenter"",""1"",""1307""
","
","","","177.30000000074506","","","14","15559","1843","&#9789;","elianto","#f73b6a7A"," "," ","1","-10","[181.1000000005588,385.70000000018626,625.6000000005588,831.1000000005588,1027.300000000745,1240.800000000745,1402.6000000005588,1594.4000000003725,1776.1000000005588,1942.800000000745,2115.800000000745,2294.300000000745]","12","0","4","","","","","","","",""
"pit-trial","85","666138","0.0-2.0-17.0-4.0","battery-v0.2","","""event"",""trial"",""time""
""fullscreenenter"",""1"",""1307""
","
","
","""event"",""trial"",""time""
""fullscreenenter"",""1"",""1307""
","
","","","77.20000000018626","","","14","15559","1843","&#9789;","elianto","#f73b6a7A"," "," ","1","0","[11.799999999813735,211.5,415.5,553.7000000001863,729.8999999994412,929.7000000001863,1107.2000000001863,1295.7000000001863,1479.2000000001863,1659.7000000001863,2579,2810.5999999996275]","12","0","4","","","","","","","",""
"pit-trial","86","669172","0.0-2.0-17.1-0.1","battery-v0.2","","""event"",""trial"",""time""
""fullscreenenter"",""1"",""1307""
","
","
","""event"",""trial"",""time""
""fullscreenenter"",""1"",""1307""
","
","","","173.79999999981374","","","14","15559","1843","&#9789;","elianto","#f73b6a7A"," "," ","1","0","[28.799999999813735,238.3999999994412,425.69999999925494,600.2999999998137,817.0999999996275,1024.3999999994412,1222.699999999255,1403.5999999996275,1610.7999999998137,1808.699999999255,2346.899999999441,2817]","12","0","4","","","","","","","",""
"pit-trial","87","672189","0.0-2.0-17.1-1.1","battery-v0.2","","""event"",""trial"",""time""
""fullscreenenter"",""1"",""1307""
","
","
","""event"",""trial"",""time""
""fullscreenenter"",""1"",""1307""
","
","","","152.59999999962747","","","14","15559","1843","&#9789;","elianto","#f73b6a7A"," "," ","1","0","[118.5,786.5,1009.7000000001863,1228.9000000003725,1470.300000000745,1909.800000000745,2191.2000000001863,2492.300000000745,2776.600000000559]","9","0","4","","","","","","","",""
"pit-trial","88","675187","0.0-2.0-17.1-2.1","battery-v0.2","","""event"",""trial"",""time""
""fullscreenenter"",""1"",""1307""
","
","
","""event"",""trial"",""time""
""fullscreenenter"",""1"",""1307""
","
","","","132.70000000018626","","","14","15559","1843","&#9789;","elianto","#f73b6a7A"," "," ","1","0","[53.5,301.20000000018626,543,749.2000000001863,987.9000000003725,1241.4000000003725,1463.4000000003725,1729.6000000005588,1973.2000000001863,2239.600000000559,2524.2000000001863,2801.300000000745]","12","0","4","","","","","","","",""
"pit-trial","89","678368","0.0-2.0-17.1-3.1","battery-v0.2","","""event"",""trial"",""time""
""fullscreenenter"",""1"",""1307""
","
","
","""event"",""trial"",""time""
""fullscreenenter"",""1"",""1307""
","
","","","310.20000000018626","","","14","15559","1843","&#9789;","elianto","#f73b6a7A"," "," ","1","-10","[139.19999999925494,544.8999999994412,845,1163.0999999996275,1489.3999999994412,1792.8999999994412,2121.399999999441,2422.5999999996275,2765,3025.899999999441]","10","0","4","","","","","","","",""
"pit-trial","90","681230","0.0-2.0-17.1-4.1","battery-v0.2","","""event"",""trial"",""time""
""fullscreenenter"",""1"",""1307""
","
","
","""event"",""trial"",""time""
""fullscreenenter"",""1"",""1307""
","
","","","8.900000000372529","","","14","15559","1843","&#9789;","elianto","#f73b6a7A"," "," ","1","0","[101.79999999981374,340,617.0999999996275,859.7000000001863,1114.8999999994412,1364.5,1652.7999999998137,1931.5999999996275,2182.5,2434.2999999998137,2725.7999999998137]","11","0","4","","","","","","","",""
"pit-trial","91","684166","0.0-2.0-17.2-0.2","battery-v0.2","","""event"",""trial"",""time""
""fullscreenenter"",""1"",""1307""
","
","
","""event"",""trial"",""time""
""fullscreenenter"",""1"",""1307""
","
","","","82.40000000037253","","","14","15559","1843","&#9789;","elianto","#f73b6a7A"," "," ","1","0","[206.20000000018626,585.0999999996275,932.9000000003725,1282.2999999998137,1563.0999999996275,1868.5999999996275,2197.7999999998137,2471.7000000001863,2738.9000000003725]","9","0","4","","","","","","","",""
"pit-trial","92","687120","0.0-2.0-17.2-1.2","battery-v0.2","","""event"",""trial"",""time""
""fullscreenenter"",""1"",""1307""
","
","
","""event"",""trial"",""time""
""fullscreenenter"",""1"",""1307""
","
","","","101.1000000005588","","","14","15559","1843","&#9789;","elianto","#f73b6a7A"," "," ","1","0","[78.69999999925494,301.3999999994412,635.1999999992549,951.2999999998137,1300.2999999998137,1580.5999999996275,1809.5,2086,2373.0999999996275,2668.5999999996275]","10","0","4","","","","","","","",""
"pit-trial","93","690168","0.0-2.0-17.2-2.2","battery-v0.2","","""event"",""trial"",""time""
""fullscreenenter"",""1"",""1307""
","
","
","""event"",""trial"",""time""
""fullscreenenter"",""1"",""1307""
","
","","","192.59999999962747","","","14","15559","1843","&#9789;","elianto","#f73b6a7A"," "," ","1","0","[20,251.79999999981374,491.20000000018626,758.7000000001863,1044.2000000001863,1306.7999999998137,1546.2000000001863,1808.7999999998137,2072.7999999998137,2345.2000000001863,2632.600000000559,2922.100000000559]","12","0","4","","","","","","","",""
"pit-trial","94","693212","0.0-2.0-17.2-3.2","battery-v0.2","","""event"",""trial"",""time""
""fullscreenenter"",""1"",""1307""
","
","
","""event"",""trial"",""time""
""fullscreenenter"",""1"",""1307""
","
","","","190.6000000005588","","","14","15559","1843","&#9789;","elianto","#f73b6a7A"," "," ","1","-10","[158.90000000037253,442.59999999962747,758.7000000001863,1040.7000000001863,1311.9000000003725,1567.4000000003725,1781.7000000001863,2035.2000000001863,2274.5999999996275,2773.9000000003725,2982.9000000003725]","11","0","4","","","","","","","",""
"pit-trial","95","696188","0.0-2.0-17.2-4.2","battery-v0.2","","""event"",""trial"",""time""
""fullscreenenter"",""1"",""1307""
","
","
","""event"",""trial"",""time""
""fullscreenenter"",""1"",""1307""
","
","","","122.70000000018626","","","14","15559","1843","&#9789;","elianto","#f73b6a7A"," "," ","1","0","[250,520.7999999998137,743.3999999994412,972.8999999994412,1198.3999999994412,1416.0999999996275,1652.2000000001863,1950.7999999998137,2192.5,2437,2668,2900.5999999996275]","12","0","4","","","","","","","",""
"pit-trial","96","699181","0.0-2.0-17.3-0.3","battery-v0.2","","""event"",""trial"",""time""
""fullscreenenter"",""1"",""1307""
","
","
","""event"",""trial"",""time""
""fullscreenenter"",""1"",""1307""
","
","","","140.40000000037253","","","14","15559","1843","&#9789;","elianto","#f73b6a7A"," "," ","1","0","[166.8999999994412,525.5,790.7999999998137,990.5,1215.0999999996275,1467.2999999998137,1740.8999999994412,2086.7999999998137,2546.899999999441,2767.199999999255,2981]","11","0","4","","","","","","","",""
"pit-trial","97","702410","0.0-2.0-17.3-1.3","battery-v0.2","","""event"",""trial"",""time""
""fullscreenenter"",""1"",""1307""
","
","
","""event"",""trial"",""time""
""fullscreenenter"",""1"",""1307""
","
","","","374","","","14","15559","1843","&#9789;","elianto","#f73b6a7A"," "," ","1","0","[236.1000000005588,499.40000000037253,695.1000000005588,1224.7999999998137,1457.2000000001863,1686.6000000005588,2067.100000000559,2400.4000000003725,2717.5,3022.5]","10","0","4","","","","","","","",""
"pit-trial","98","705298","0.0-2.0-17.3-2.3","battery-v0.2","","""event"",""trial"",""time""
""fullscreenenter"",""1"",""1307""
","
","
","""event"",""trial"",""time""
""fullscreenenter"",""1"",""1307""
","
","","","23.299999999813735","","","14","15559","1843","&#9789;","elianto","#f73b6a7A"," "," ","1","0","[81.59999999962747,338.59999999962747,605.5,874.5999999996275,1158.0999999996275,1422.5,1873.0999999996275,2386.9000000003725,2687.2999999998137]","9","0","4","","","","","","","",""
"pit-trial","99","708228","0.0-2.0-17.3-3.3","battery-v0.2","","""event"",""trial"",""time""
""fullscreenenter"",""1"",""1307""
","
","
","""event"",""trial"",""time""
""fullscreenenter"",""1"",""1307""
","
","","","74.80000000074506","","","14","15559","1843","&#9789;","elianto","#f73b6a7A"," "," ","1","-10","[147.59999999962747,634.0999999996275,925.7000000001863,1314.2999999998137,1602.2000000001863,1892.5999999996275,2152.899999999441,2422.5999999996275,2692]","9","0","4","","","","","","","",""
"pit-trial","100","711226","0.0-2.0-17.3-4.3","battery-v0.2","","""event"",""trial"",""time""
""fullscreenenter"",""1"",""1307""
","
","
","""event"",""trial"",""time""
""fullscreenenter"",""1"",""1307""
","
","","","144.20000000018626","","","14","15559","1843","&#9789;","elianto","#f73b6a7A"," "," ","1","0","[29.90000000037253,406.29999999981374,719.5,995.2999999998137,1229.5,1486.5,1778.5,2117.2000000001863,2463.9000000003725,2819.5]","10","0","4","","","","","","","",""
"call-function","101","711228","0.0-2.0-18.0","battery-v0.2","","""event"",""trial"",""time""
""fullscreenenter"",""1"",""1307""
","
","
","""event"",""trial"",""time""
""fullscreenenter"",""1"",""1307""
","
","","","","","","","","","","","","","","","","","","","","","","","","","","",""
"pit-instructions","102","762319","0.0-2.0-19.0","battery-v0.2","","""event"",""trial"",""time""
""fullscreenenter"",""1"",""1307""
","
","
","""event"",""trial"",""time""
""fullscreenenter"",""1"",""1307""
","
","","[{""page_index"":0,""viewing_time"":6118.100000000559},{""page_index"":1,""viewing_time"":4125.0999999996275},{""page_index"":2,""viewing_time"":8114.299999999814},{""page_index"":3,""viewing_time"":4117.5},{""page_index"":4,""viewing_time"":6109.299999999814},{""page_index"":5,""viewing_time"":8123.5},{""page_index"":6,""viewing_time"":4117.4000000003725},{""page_index"":7,""viewing_time"":7141.5999999996275},{""page_index"":8,""viewing_time"":3123.5}]","51090.60000000056","","","","","","","","","","","","","","","","","","","","","","","",""
"pit-comprehension","103","766424","0.0-2.0-20.0-0.0","battery-v0.2","","""event"",""trial"",""time""
""fullscreenenter"",""1"",""1307""
","
","
","""event"",""trial"",""time""
""fullscreenenter"",""1"",""1307""
","
","","","4103.200000000186","[""SPACE""]","0","14","15559","1843","","","","","","","","","","","","","","","","","","",""
"pit-instructions","104","770414","0.0-2.0-20.0-1.0","battery-v0.2","","""event"",""trial"",""time""
""fullscreenenter"",""1"",""1307""
","
","
","""event"",""trial"",""time""
""fullscreenenter"",""1"",""1307""
","
","","[{""page_index"":0,""viewing_time"":3973.800000000745}]","3974.100000000559","","","","","","","","","","","","","","","","","","","","","","","",""
"pit-comprehension","105","775995","0.0-2.0-21.0-0.0","battery-v0.2","","""event"",""trial"",""time""
""fullscreenenter"",""1"",""1307""
","
","
","""event"",""trial"",""time""
""fullscreenenter"",""1"",""1307""
","
","","","5577.9000000003725","[""10""]","0","14","15559","1843","","","","","","","","","","","","","","","","","","",""
"pit-instructions","106","778265","0.0-2.0-21.0-1.0","battery-v0.2","","""event"",""trial"",""time""
""fullscreenenter"",""1"",""1307""
","
","
","""event"",""trial"",""time""
""fullscreenenter"",""1"",""1307""
","
","","[{""page_index"":0,""viewing_time"":2253.0999999996275}]","2253.5","","","","","","","","","","","","","","","","","","","","","","","",""
"pit-comprehension","107","784415","0.0-2.0-22.0-0.0","battery-v0.2","","""event"",""trial"",""time""
""fullscreenenter"",""1"",""1307""
","
","
","""event"",""trial"",""time""
""fullscreenenter"",""1"",""1307""
","
","","","6147","[""0""]","0","14","15559","1843","","","","","","","","","","","","","","","","","","",""
"pit-instructions","108","786010","0.0-2.0-22.0-1.0","battery-v0.2","","""event"",""trial"",""time""
""fullscreenenter"",""1"",""1307""
","
","
","""event"",""trial"",""time""
""fullscreenenter"",""1"",""1307""
","
","","[{""page_index"":0,""viewing_time"":1579.5}]","1579.699999999255","","","","","","","","","","","","","","","","","","","","","","","",""
"pit-comprehension","109","795912","0.0-2.0-23.0-0.0","battery-v0.2","","""event"",""trial"",""time""
""fullscreenenter"",""1"",""1307""
","
","
","""event"",""trial"",""time""
""fullscreenenter"",""1"",""1307""
","
","","","9899.800000000745","[""False""]","1","14","15559","1843","","","","","","","","","","","","","","","","","","",""
"pit-instructions","110","799844","0.0-2.0-23.0-1.0","battery-v0.2","","""event"",""trial"",""time""
""fullscreenenter"",""1"",""1307""
","
","
","""event"",""trial"",""time""
""fullscreenenter"",""1"",""1307""
","
","","[{""page_index"":0,""viewing_time"":3913.7000000001863}]","3914","","","","","","","","","","","","","","","","","","","","","","","",""
"pit-instructions","111","800482","0.0-2.0-23.0-2.0-0.0","battery-v0.2","","""event"",""trial"",""time""
""fullscreenenter"",""1"",""1307""
","
","
","""event"",""trial"",""time""
""fullscreenenter"",""1"",""1307""
","
","","[{""page_index"":0,""viewing_time"":636.7000000001863}]","636.8999999994412","","","","","","","","","","","","","","","","","","","","","","","",""
"pit-comprehension","112","809510","0.0-2.0-23.1-0.1","battery-v0.2","","""event"",""trial"",""time""
""fullscreenenter"",""1"",""1307""
","
","
","""event"",""trial"",""time""
""fullscreenenter"",""1"",""1307""
","
","","","9026","[""True""]","0","14","15559","1843","","","","","","","","","","","","","","","","","","",""
"pit-instructions","113","813405","0.0-2.0-23.1-1.1","battery-v0.2","","""event"",""trial"",""time""
""fullscreenenter"",""1"",""1307""
","
","
","""event"",""trial"",""time""
""fullscreenenter"",""1"",""1307""
","
","","[{""page_index"":0,""viewing_time"":3877.2000000001863}]","3877.5","","","","","","","","","","","","","","","","","","","","","","","",""
"pit-comprehension","114","820539","0.0-2.0-24.0-0.0","battery-v0.2","","""event"",""trial"",""time""
""fullscreenenter"",""1"",""1307""
","
","
","""event"",""trial"",""time""
""fullscreenenter"",""1"",""1307""
","
","","","7131.0999999996275","[""True""]","0","14","15559","1843","","","","","","","","","","","","","","","","","","",""
"pit-instructions","115","826310","0.0-2.0-24.0-1.0","battery-v0.2","","""event"",""trial"",""time""
""fullscreenenter"",""1"",""1307""
","
","
","""event"",""trial"",""time""
""fullscreenenter"",""1"",""1307""
","
","","[{""page_index"":0,""viewing_time"":5754.4000000003725}]","5754.5999999996275","","","","","","","","","","","","","","","","","","","","","","","",""
"pit-comprehension","116","832558","0.0-2.0-25.0-0.0","battery-v0.2","","""event"",""trial"",""time""
""fullscreenenter"",""1"",""1307""
","
","
","""event"",""trial"",""time""
""fullscreenenter"",""1"",""1307""
","
","","","6245.299999999814","[""True""]","0","14","15559","1843","","","","","","","","","","","","","","","","","","",""
"pit-instructions","117","834316","0.0-2.0-25.0-1.0","battery-v0.2","","""event"",""trial"",""time""
""fullscreenenter"",""1"",""1307""
","
","
","""event"",""trial"",""time""
""fullscreenenter"",""1"",""1307""
","
","","[{""page_index"":0,""viewing_time"":1740.7000000001863}]","1740.9000000003725","","","","","","","","","","","","","","","","","","","","","","","",""
"pit-comprehension","118","838496","0.0-2.0-26.0-0.0","battery-v0.2","","""event"",""trial"",""time""
""fullscreenenter"",""1"",""1307""
","
","
","""event"",""trial"",""time""
""fullscreenenter"",""1"",""1307""
","
","","","4178","[""False""]","0","14","15559","1843","","","","","","","","","","","","","","","","","","",""
"pit-instructions","119","840243","0.0-2.0-26.0-1.0","battery-v0.2","","""event"",""trial"",""time""
""fullscreenenter"",""1"",""1307""
","
","
","""event"",""trial"",""time""
""fullscreenenter"",""1"",""1307""
","
","","[{""page_index"":0,""viewing_time"":1729.5999999996275}]","1729.9000000003725","","","","","","","","","","","","","","","","","","","","","","","",""
"pit-instructions","120","855516","0.0-3.0","battery-v0.2","","""event"",""trial"",""time""
""fullscreenenter"",""1"",""1307""
","
","
","""event"",""trial"",""time""
""fullscreenenter"",""1"",""1307""
","
","","[{""page_index"":0,""viewing_time"":4016.9000000003725},{""page_index"":1,""viewing_time"":5219.700000000186},{""page_index"":2,""viewing_time"":6035.299999999814}]","15272.100000000559","","","","","","","","","","","","","","","","","","","","","","","",""
"pit-trial","121","859032","0.0-4.0","battery-v0.2","","""event"",""trial"",""time""
""fullscreenenter"",""1"",""1307""
","
","
","""event"",""trial"",""time""
""fullscreenenter"",""1"",""1307""
","
","","","658","","","14","15559","1843","&#9733;","elianto","#3366ff99","-1"," ","0","+10","[1509.5999999996275]","1","1","","","15559","1","2","2","win","no-go","1"
"pit-trial","122","862473","0.0-5.0","battery-v0.2","","""event"",""trial"",""time""
""fullscreenenter"",""1"",""1307""
","
","
","""event"",""trial"",""time""
""fullscreenenter"",""1"",""1307""
","
","","","587.8000000007451","","","14","15559","1843","&#9730;","elianto","#3366ff99"," "," ","1","+10","[1438.1000000005588]","1","1","","","15559","2","1","1","win","go","0"
"pit-trial","123","866250","0.0-6.0","battery-v0.2","","""event"",""trial"",""time""
""fullscreenenter"",""1"",""1307""
","
","
","""event"",""trial"",""time""
""fullscreenenter"",""1"",""1307""
","
","","","918.5999999996275","","","14","15559","1843","&#9728;","elianto","#f73b6a7A","-1"," ","0","-10","[1768.8999999994412]","1","1","","","15559","3","0","4","lose","no-go","0"
"pit-trial","124","869817","0.0-7.0","battery-v0.2","","""event"",""trial"",""time""
""fullscreenenter"",""1"",""1307""
","
","
","""event"",""trial"",""time""
""fullscreenenter"",""1"",""1307""
","
","","","707","","","14","15559","1843","&#9752;","elianto","#f73b6a7A"," "," ","1","0","[1559.8999999994412]","1","1","","","15559","4","3","3","lose","go","0"
"pit-trial","125","873502","0.0-8.0","battery-v0.2","","""event"",""trial"",""time""
""fullscreenenter"",""1"",""1307""
","
","
","""event"",""trial"",""time""
""fullscreenenter"",""1"",""1307""
","
","","","825.6000000005588","","","14","15559","1843","&#9730;","elianto","#3366ff99"," "," ","1","0","[1679.4000000003725]","1","1","","","15559","5","1","1","win","go","1"
"pit-trial","126","877653","0.0-9.0","battery-v0.2","","""event"",""trial"",""time""
""fullscreenenter"",""1"",""1307""
","
","
","""event"",""trial"",""time""
""fullscreenenter"",""1"",""1307""
","
","","","1285.0999999996275","","","14","15559","1843","&#9752;","elianto","#f73b6a7A"," "," ","1","0","[2141.300000000745]","1","1","","","15559","6","3","3","lose","go","0"
"pit-trial","127","882517","0.0-10.0","battery-v0.2","","""event"",""trial"",""time""
""fullscreenenter"",""1"",""1307""
","
","
","""event"",""trial"",""time""
""fullscreenenter"",""1"",""1307""
","
","","","-1","","","14","15559","1843","&#9728;","elianto","#f73b6a7A","-1","-1","1","0","[]","0","1","","","15559","7","0","4","lose","no-go","0"
"pit-trial","128","886336","0.0-11.0","battery-v0.2","","""event"",""trial"",""time""
""fullscreenenter"",""1"",""1307""
","
","
","""event"",""trial"",""time""
""fullscreenenter"",""1"",""1307""
","
","","","948.0999999996275","","","14","15559","1843","&#9733;","elianto","#3366ff99","-1"," ","0","0","[1802.7000000001863]","1","1","","","15559","8","2","2","win","no-go","0"
"pit-trial","129","890606","0.0-12.0","battery-v0.2","","""event"",""trial"",""time""
""fullscreenenter"",""1"",""1307""
","
","
","""event"",""trial"",""time""
""fullscreenenter"",""1"",""1307""
","
","","","1409.7999999998137","","","14","15559","1843","&#9752;","elianto","#f73b6a7A"," "," ","1","0","[2265.800000000745]","1","1","","","15559","9","3","3","lose","go","0"
"pit-trial","130","895468","0.0-13.0","battery-v0.2","","""event"",""trial"",""time""
""fullscreenenter"",""1"",""1307""
","
","
","""event"",""trial"",""time""
""fullscreenenter"",""1"",""1307""
","
","","","-1","","","14","15559","1843","&#9728;","elianto","#f73b6a7A","-1","-1","1","0","[]","0","1","","","15559","10","0","4","lose","no-go","0"
"pit-trial","131","899219","0.0-14.0","battery-v0.2","","""event"",""trial"",""time""
""fullscreenenter"",""1"",""1307""
","
","
","""event"",""trial"",""time""
""fullscreenenter"",""1"",""1307""
","
","","","895.5","","","14","15559","1843","&#9730;","elianto","#3366ff99"," "," ","1","0","[1747.2000000001863]","1","1","","","15559","11","1","1","win","go","1"
"pit-trial","132","904073","0.0-15.0","battery-v0.2","","""event"",""trial"",""time""
""fullscreenenter"",""1"",""1307""
","
","
","""event"",""trial"",""time""
""fullscreenenter"",""1"",""1307""
","
","","","-1","","","14","15559","1843","&#9733;","elianto","#3366ff99","-1","-1","1","0","[4012.9000000003725,4277.5999999996275,4486.299999999814,4721.5999999996275]","4","1","","","15559","12","2","2","win","no-go","1"
"pit-trial","133","908290","0.0-16.0","battery-v0.2","","""event"",""trial"",""time""
""fullscreenenter"",""1"",""1307""
","
","
","""event"",""trial"",""time""
""fullscreenenter"",""1"",""1307""
","
","","","1363.800000000745","","","14","15559","1843","&#9733;","elianto","#3366ff99","-1"," ","0","0","[78.20000000018626,319.29999999981374,553.7999999998137,2214.4000000003725,2838.9000000003725,3046.7000000001863,3255.7000000001863,3462.2000000001863,3665.2999999998137,4128.799999999814]","10","1","","","15559","13","2","2","win","no-go","0"
"pit-trial","134","911794","0.0-17.0","battery-v0.2","","""event"",""trial"",""time""
""fullscreenenter"",""1"",""1307""
","
","
","""event"",""trial"",""time""
""fullscreenenter"",""1"",""1307""
","
","","","649.9000000003725","","","14","15559","1843","&#9730;","elianto","#3366ff99"," "," ","1","0","[76.70000000018626,259.20000000018626,1500.2999999998137]","3","1","","","15559","14","1","1","win","go","1"
"pit-trial","135","915673","0.0-18.0","battery-v0.2","","""event"",""trial"",""time""
""fullscreenenter"",""1"",""1307""
","
","
","""event"",""trial"",""time""
""fullscreenenter"",""1"",""1307""
","
","","","1022.7000000001863","","","14","15559","1843","&#9752;","elianto","#f73b6a7A"," "," ","1","-10","[1874]","1","1","","","15559","15","3","3","lose","go","1"
"pit-trial","136","920527","0.0-19.0","battery-v0.2","","""event"",""trial"",""time""
""fullscreenenter"",""1"",""1307""
","
","
","""event"",""trial"",""time""
""fullscreenenter"",""1"",""1307""
","
","","","-1","","","14","15559","1843","&#9728;","elianto","#f73b6a7A","-1","-1","1","-10","[]","0","1","","","15559","16","0","4","lose","no-go","1"
"pit-trial","137","923811","0.0-20.0","battery-v0.2","","""event"",""trial"",""time""
""fullscreenenter"",""1"",""1307""
","
","
","""event"",""trial"",""time""
""fullscreenenter"",""1"",""1307""
","
","","","431.09999999962747","","","14","15559","1843","&#9730;","elianto","#3366ff99"," "," ","1","+10","[1281]","1","1","","","15559","17","1","1","win","go","0"
"pit-trial","138","928306","0.0-21.0","battery-v0.2","","""event"",""trial"",""time""
""fullscreenenter"",""1"",""1307""
","
","
","""event"",""trial"",""time""
""fullscreenenter"",""1"",""1307""
","
","","","1640.7000000001863","","","14","15559","1843","&#9728;","elianto","#f73b6a7A","-1"," ","0","-10","[2491.2000000001863]","1","1","","","15559","18","0","4","lose","no-go","0"
"pit-trial","139","931976","0.0-22.0","battery-v0.2","","""event"",""trial"",""time""
""fullscreenenter"",""1"",""1307""
","
","
","""event"",""trial"",""time""
""fullscreenenter"",""1"",""1307""
","
","","","814.0999999996275","","","14","15559","1843","&#9752;","elianto","#f73b6a7A"," "," ","1","0","[1665.7000000001863]","1","1","","","15559","19","3","3","lose","go","0"
"pit-trial","140","936832","0.0-23.0","battery-v0.2","","""event"",""trial"",""time""
""fullscreenenter"",""1"",""1307""
","
","
","""event"",""trial"",""time""
""fullscreenenter"",""1"",""1307""
","
","","","-1","","","14","15559","1843","&#9733;","elianto","#3366ff99","-1","-1","1","0","[3495.7999999998137,4089.7000000001863,4337.600000000559,4571.5,4780.700000000186]","5","1","","","15559","20","2","2","win","no-go","1"
"pit-instructions","141","948042","0.0-24.0","battery-v0.2","","""event"",""trial"",""time""
""fullscreenenter"",""1"",""1307""
","
","
","""event"",""trial"",""time""
""fullscreenenter"",""1"",""1307""
","
","","[{""page_index"":0,""viewing_time"":5193.700000000186},{""page_index"":1,""viewing_time"":6014.200000000186}]","11208.099999999627","","","","","","","","","","","","","","","","","","","","","","","",""
"pit-trial","142","951448","0.0-25.0","battery-v0.2","","""event"",""trial"",""time""
""fullscreenenter"",""1"",""1307""
","
","
","""event"",""trial"",""time""
""fullscreenenter"",""1"",""1307""
","
","","","550.2999999998137","","","14","15559","1843","u","elianto","#f73b6a7A"," "," ","1","0","[1404.1000000005588]","1","2","","","15559","21","0","3","lose","go","0"
"pit-trial","143","956321","0.0-26.0","battery-v0.2","","""event"",""trial"",""time""
""fullscreenenter"",""1"",""1307""
","
","
","""event"",""trial"",""time""
""fullscreenenter"",""1"",""1307""
","
","","","-1","","","14","15559","1843","a","elianto","#f73b6a7A"," ","-1","0","-10","[3519.100000000559]","1","2","","","15559","22","2","3","lose","go","0"
"pit-trial","144","960268","0.0-27.0","battery-v0.2","","""event"",""trial"",""time""
""fullscreenenter"",""1"",""1307""
","
","
","""event"",""trial"",""time""
""fullscreenenter"",""1"",""1307""
","
","","","1077.800000000745","","","14","15559","1843","l","elianto","#3366ff99","-1"," ","0","0","[1930.9000000003725]","1","2","","","15559","23","1","2","win","no-go","0"
"pit-trial","145","964547","0.0-28.0","battery-v0.2","","""event"",""trial"",""time""
""fullscreenenter"",""1"",""1307""
","
","
","""event"",""trial"",""time""
""fullscreenenter"",""1"",""1307""
","
","","","1412.7000000001863","","","14","15559","1843","g","elianto","#f73b6a7A","-1"," ","0","0","[2268.699999999255]","1","2","","","15559","24","3","4","lose","no-go","1"
"pit-trial","146","969402","0.0-29.0","battery-v0.2","","""event"",""trial"",""time""
""fullscreenenter"",""1"",""1307""
","
","
","""event"",""trial"",""time""
""fullscreenenter"",""1"",""1307""
","
","","","-1","","","14","15559","1843","a","elianto","#f73b6a7A"," ","-1","0","-10","[3518.899999999441]","1","2","","","15559","25","2","3","lose","go","0"
"pit-trial","147","974277","0.0-30.0","battery-v0.2","","""event"",""trial"",""time""
""fullscreenenter"",""1"",""1307""
","
","
","""event"",""trial"",""time""
""fullscreenenter"",""1"",""1307""
","
","","","-1","","","14","15559","1843","l","elianto","#3366ff99","-1","-1","1","+10","[]","0","2","","","15559","26","1","2","win","no-go","0"
"pit-trial","148","978330","0.0-31.0","battery-v0.2","","""event"",""trial"",""time""
""fullscreenenter"",""1"",""1307""
","
","
","""event"",""trial"",""time""
""fullscreenenter"",""1"",""1307""
","
","","","1188.7000000001863","","","14","15559","1843","u","elianto","#f73b6a7A"," "," ","1","0","[2040.7000000001863]","1","2","","","15559","27","0","3","lose","go","0"
"pit-trial","149","983184","0.0-32.0","battery-v0.2","","""event"",""trial"",""time""
""fullscreenenter"",""1"",""1307""
","
","
","""event"",""trial"",""time""
""fullscreenenter"",""1"",""1307""
","
","","","-1","","","14","15559","1843","g","elianto","#f73b6a7A","-1","-1","1","0","[]","0","2","","","15559","28","3","4","lose","no-go","0"
"pit-trial","150","987959","0.0-33.0","battery-v0.2","","""event"",""trial"",""time""
""fullscreenenter"",""1"",""1307""
","
","
","""event"",""trial"",""time""
""fullscreenenter"",""1"",""1307""
","
","","","1921.5999999996275","","","14","15559","1843","a","elianto","#f73b6a7A"," "," ","1","0","[2772.5]","1","2","","","15559","29","2","3","lose","go","0"
"pit-trial","151","992824","0.0-34.0","battery-v0.2","","""event"",""trial"",""time""
""fullscreenenter"",""1"",""1307""
","
","
","""event"",""trial"",""time""
""fullscreenenter"",""1"",""1307""
","
","","","-1","","","14","15559","1843","g","elianto","#f73b6a7A","-1","-1","1","0","[]","0","2","","","15559","30","3","4","lose","no-go","0"
"pit-trial","152","997112","0.0-35.0","battery-v0.2","","""event"",""trial"",""time""
""fullscreenenter"",""1"",""1307""
","
","
","""event"",""trial"",""time""
""fullscreenenter"",""1"",""1307""
","
","","","1433","","","14","15559","1843","l","elianto","#3366ff99","-1"," ","0","0","[2283.7000000001863]","1","2","","","15559","31","1","2","win","no-go","0"
"pit-trial","153","1001967","0.0-36.0","battery-v0.2","","""event"",""trial"",""time""
""fullscreenenter"",""1"",""1307""
","
","
","""event"",""trial"",""time""
""fullscreenenter"",""1"",""1307""
","
","","","-1","","","14","15559","1843","u","elianto","#f73b6a7A"," ","-1","0","-10","[3618.7000000001863,4008.5999999996275,4245.0999999996275,4462.200000000186,4670.200000000186]","5","2","","","15559","32","0","3","lose","go","0"
"pit-trial","154","1005294","0.0-37.0","battery-v0.2","","""event"",""trial"",""time""
""fullscreenenter"",""1"",""1307""
","
","
","""event"",""trial"",""time""
""fullscreenenter"",""1"",""1307""
","
","","","473.6000000005588","","","14","15559","1843","u","elianto","#f73b6a7A"," "," ","1","0","[9.099999999627471,200.19999999925494,367.8999999994412,1323.699999999255]","4","2","","","15559","33","0","3","lose","go","0"
"pit-trial","155","1009777","0.0-38.0","battery-v0.2","","""event"",""trial"",""time""
""fullscreenenter"",""1"",""1307""
","
","
","""event"",""trial"",""time""
""fullscreenenter"",""1"",""1307""
","
","","","1629.4000000003725","","","14","15559","1843","a","elianto","#f73b6a7A"," "," ","1","0","[2480.600000000559]","1","2","","","15559","34","2","3","lose","go","0"
"pit-trial","156","1014631","0.0-39.0","battery-v0.2","","""event"",""trial"",""time""
""fullscreenenter"",""1"",""1307""
","
","
","""event"",""trial"",""time""
""fullscreenenter"",""1"",""1307""
","
","","","-1","","","14","15559","1843","l","elianto","#3366ff99","-1","-1","1","+10","[]","0","2","","","15559","35","1","2","win","no-go","0"
"pit-trial","157","1019486","0.0-40.0","battery-v0.2","","""event"",""trial"",""time""
""fullscreenenter"",""1"",""1307""
","
","
","""event"",""trial"",""time""
""fullscreenenter"",""1"",""1307""
","
","","","-1","","","14","15559","1843","g","elianto","#f73b6a7A","-1","-1","1","0","[3334]","1","2","","","15559","36","3","4","lose","no-go","0"
"pit-trial","158","1024340","0.0-41.0","battery-v0.2","","""event"",""trial"",""time""
""fullscreenenter"",""1"",""1307""
","
","
","""event"",""trial"",""time""
""fullscreenenter"",""1"",""1307""
","
","","","-1","","","14","15559","1843","u","elianto","#f73b6a7A"," ","-1","0","-10","[3104.5,4120.300000000745,4349.600000000559]","3","2","","","15559","37","0","3","lose","go","0"
"pit-trial","159","1027830","0.0-42.0","battery-v0.2","","""event"",""trial"",""time""
""fullscreenenter"",""1"",""1307""
","
","
","""event"",""trial"",""time""
""fullscreenenter"",""1"",""1307""
","
","","","635.9000000003725","","","14","15559","1843","g","elianto","#f73b6a7A","-1"," ","0","-10","[1486.2000000001863]","1","2","","","15559","38","3","4","lose","no-go","0"
"pit-trial","160","1031397","0.0-43.0","battery-v0.2","","""event"",""trial"",""time""
""fullscreenenter"",""1"",""1307""
","
","
","""event"",""trial"",""time""
""fullscreenenter"",""1"",""1307""
","
","","","713.0999999996275","","","14","15559","1843","a","elianto","#f73b6a7A"," "," ","1","0","[1564.5999999996275]","1","2","","","15559","39","2","3","lose","go","0"
"pit-trial","161","1036252","0.0-44.0","battery-v0.2","","""event"",""trial"",""time""
""fullscreenenter"",""1"",""1307""
","
","
","""event"",""trial"",""time""
""fullscreenenter"",""1"",""1307""
","
","","","-1","","","14","15559","1843","l","elianto","#3366ff99","-1","-1","1","+10","[]","0","2","","","15559","40","1","2","win","no-go","0"
"pit-trial","162","1041106","0.0-45.0","battery-v0.2","","""event"",""trial"",""time""
""fullscreenenter"",""1"",""1307""
","
","
","""event"",""trial"",""time""
""fullscreenenter"",""1"",""1307""
","
","","","-1","","","14","15559","1843","l","elianto","#3366ff99","-1","-1","1","+10","[]","0","2","","","15559","41","1","2","win","no-go","0"
"pit-trial","163","1045241","0.0-46.0","battery-v0.2","","""event"",""trial"",""time""
""fullscreenenter"",""1"",""1307""
","
","
","""event"",""trial"",""time""
""fullscreenenter"",""1"",""1307""
","
","","","1278.7000000001863","","","14","15559","1843","u","elianto","#f73b6a7A"," "," ","1","-10","[2129.7000000001863]","1","2","","","15559","42","0","3","lose","go","1"
"pit-trial","164","1049300","0.0-47.0","battery-v0.2","","""event"",""trial"",""time""
""fullscreenenter"",""1"",""1307""
","
","
","""event"",""trial"",""time""
""fullscreenenter"",""1"",""1307""
","
","","","1205.0999999996275","","","14","15559","1843","a","elianto","#f73b6a7A"," "," ","1","0","[2056.2000000001863]","1","2","","","15559","43","2","3","lose","go","0"
"pit-trial","165","1054090","0.0-48.0","battery-v0.2","","""event"",""trial"",""time""
""fullscreenenter"",""1"",""1307""
","
","
","""event"",""trial"",""time""
""fullscreenenter"",""1"",""1307""
","
","","","1934.699999999255","","","14","15559","1843","g","elianto","#f73b6a7A","-1"," ","0","-10","[2785.699999999255,3830.5999999996275,4091.199999999255,4323.899999999441,4517.399999999441,4715.199999999255]","6","2","","","15559","44","3","4","lose","no-go","0"
"pit-trial","166","1057623","0.0-49.0","battery-v0.2","","""event"",""trial"",""time""
""fullscreenenter"",""1"",""1307""
","
","
","""event"",""trial"",""time""
""fullscreenenter"",""1"",""1307""
","
","","","679","","","14","15559","1843","a","elianto","#f73b6a7A"," "," ","1","-10","[129.5,306.09999999962747,496.40000000037253,715,1529.7000000001863,2294.4000000003725,2534,2919.7000000001863]","8","2","","","15559","45","2","3","lose","go","1"
"pit-trial","167","1061370","0.0-50.0","battery-v0.2","","""event"",""trial"",""time""
""fullscreenenter"",""1"",""1307""
","
","
","""event"",""trial"",""time""
""fullscreenenter"",""1"",""1307""
","
","","","893.5","","","14","15559","1843","u","elianto","#f73b6a7A"," "," ","1","0","[1743.8999999994412]","1","2","","","15559","46","0","3","lose","go","0"
"pit-trial","168","1066225","0.0-51.0","battery-v0.2","","""event"",""trial"",""time""
""fullscreenenter"",""1"",""1307""
","
","
","""event"",""trial"",""time""
""fullscreenenter"",""1"",""1307""
","
","","","-1","","","14","15559","1843","g","elianto","#f73b6a7A","-1","-1","1","0","[]","0","2","","","15559","47","3","4","lose","no-go","0"
"pit-trial","169","1071078","0.0-52.0","battery-v0.2","","""event"",""trial"",""time""
""fullscreenenter"",""1"",""1307""
","
","
","""event"",""trial"",""time""
""fullscreenenter"",""1"",""1307""
","
","","","-1","","","14","15559","1843","l","elianto","#3366ff99","-1","-1","1","+10","[]","0","2","","","15559","48","1","2","win","no-go","0"
"pit-trial","170","1075933","0.0-53.0","battery-v0.2","","""event"",""trial"",""time""
""fullscreenenter"",""1"",""1307""
","
","
","""event"",""trial"",""time""
""fullscreenenter"",""1"",""1307""
","
","","","-1","","","14","15559","1843","a","elianto","#f73b6a7A"," ","-1","0","-10","[3576.7999999998137]","1","2","","","15559","49","2","3","lose","go","0"
"pit-trial","171","1080788","0.0-54.0","battery-v0.2","","""event"",""trial"",""time""
""fullscreenenter"",""1"",""1307""
","
","
","""event"",""trial"",""time""
""fullscreenenter"",""1"",""1307""
","
","","","-1","","","14","15559","1843","u","elianto","#f73b6a7A"," ","-1","0","-10","[3758,4243.700000000186,4461.800000000745,4669.300000000745]","4","2","","","15559","50","0","3","lose","go","0"
"pit-trial","172","1085641","0.0-55.0","battery-v0.2","","""event"",""trial"",""time""
""fullscreenenter"",""1"",""1307""
","
","
","""event"",""trial"",""time""
""fullscreenenter"",""1"",""1307""
","
","","","-1","","","14","15559","1843","l","elianto","#3366ff99","-1","-1","1","+10","[23.799999999813735,233.59999999962747,453.8999999994412]","3","2","","","15559","51","1","2","win","no-go","0"
"pit-trial","173","1090496","0.0-56.0","battery-v0.2","","""event"",""trial"",""time""
""fullscreenenter"",""1"",""1307""
","
","
","""event"",""trial"",""time""
""fullscreenenter"",""1"",""1307""
","
","","","-1","","","14","15559","1843","g","elianto","#f73b6a7A","-1","-1","1","-10","[]","0","2","","","15559","52","3","4","lose","no-go","1"
"pit-trial","174","1094084","0.0-57.0","battery-v0.2","","""event"",""trial"",""time""
""fullscreenenter"",""1"",""1307""
","
","
","""event"",""trial"",""time""
""fullscreenenter"",""1"",""1307""
","
","","","737","","","14","15559","1843","u","elianto","#f73b6a7A"," "," ","1","0","[1587]","1","2","","","15559","53","0","3","lose","go","0"
"pit-trial","175","1097740","0.0-58.0","battery-v0.2","","""event"",""trial"",""time""
""fullscreenenter"",""1"",""1307""
","
","
","""event"",""trial"",""time""
""fullscreenenter"",""1"",""1307""
","
","","","803.0999999996275","","","14","15559","1843","g","elianto","#f73b6a7A","-1"," ","0","-10","[1653.2000000001863,2481.2999999998137,2668.7999999998137,2875.7000000001863,3057,3292.0999999996275,3465.4000000003725]","7","2","","","15559","54","3","4","lose","no-go","0"
"pit-trial","176","1102409","0.0-59.0","battery-v0.2","","""event"",""trial"",""time""
""fullscreenenter"",""1"",""1307""
","
","
","""event"",""trial"",""time""
""fullscreenenter"",""1"",""1307""
","
","","","1815.5","","","14","15559","1843","a","elianto","#f73b6a7A"," "," ","1","0","[0.09999999962747097,188.59999999962747,393.09999999962747,572.8999999994412,2665.7999999998137]","5","2","","","15559","55","2","3","lose","go","0"
"pit-trial","177","1107262","0.0-60.0","battery-v0.2","","""event"",""trial"",""time""
""fullscreenenter"",""1"",""1307""
","
","
","""event"",""trial"",""time""
""fullscreenenter"",""1"",""1307""
","
","","","-1","","","14","15559","1843","l","elianto","#3366ff99","-1","-1","1","+10","[]","0","2","","","15559","56","1","2","win","no-go","0"
"pit-trial","178","1111545","0.0-61.0","battery-v0.2","","""event"",""trial"",""time""
""fullscreenenter"",""1"",""1307""
","
","
","""event"",""trial"",""time""
""fullscreenenter"",""1"",""1307""
","
","","","1430.2000000001863","","","14","15559","1843","p","elianto","#3366ff99"," "," ","1","+10","[2280.5]","1","2","","","15559","57","4","1","win","go","0"
"pit-trial","179","1115502","0.0-62.0","battery-v0.2","","""event"",""trial"",""time""
""fullscreenenter"",""1"",""1307""
","
","
","""event"",""trial"",""time""
""fullscreenenter"",""1"",""1307""
","
","","","1104.8999999994412","","","14","15559","1843","a","elianto","#f73b6a7A"," "," ","1","0","[1955.0999999996275]","1","2","","","15559","58","2","3","lose","go","0"
"pit-trial","180","1119715","0.0-63.0","battery-v0.2","","""event"",""trial"",""time""
""fullscreenenter"",""1"",""1307""
","
","
","""event"",""trial"",""time""
""fullscreenenter"",""1"",""1307""
","
","","","1360.9000000003725","","","14","15559","1843","u","elianto","#f73b6a7A"," "," ","1","-10","[2211.300000000745]","1","2","","","15559","59","0","3","lose","go","1"
"pit-trial","181","1123927","0.0-64.0","battery-v0.2","","""event"",""trial"",""time""
""fullscreenenter"",""1"",""1307""
","
","
","""event"",""trial"",""time""
""fullscreenenter"",""1"",""1307""
","
","","","1358.2000000001863","","","14","15559","1843","g","elianto","#f73b6a7A","-1"," ","0","-10","[2208.5,3036.7000000001863]","2","2","","","15559","60","3","4","lose","no-go","0"
"pit-trial","182","1128778","0.0-65.0","battery-v0.2","","""event"",""trial"",""time""
""fullscreenenter"",""1"",""1307""
","
","
","""event"",""trial"",""time""
""fullscreenenter"",""1"",""1307""
","
","","","-1","","","14","15559","1843","g","elianto","#f73b6a7A","-1","-1","1","0","[]","0","2","","","15559","61","3","4","lose","no-go","0"
"pit-trial","183","1132574","0.0-66.0","battery-v0.2","","""event"",""trial"",""time""
""fullscreenenter"",""1"",""1307""
","
","
","""event"",""trial"",""time""
""fullscreenenter"",""1"",""1307""
","
","","","941.5","","","14","15559","1843","a","elianto","#f73b6a7A"," "," ","1","0","[1792.8999999994412]","1","2","","","15559","62","2","3","lose","go","0"
"pit-trial","184","1137439","0.0-67.0","battery-v0.2","","""event"",""trial"",""time""
""fullscreenenter"",""1"",""1307""
","
","
","""event"",""trial"",""time""
""fullscreenenter"",""1"",""1307""
","
","","","-1","","","14","15559","1843","l","elianto","#3366ff99","-1","-1","1","+10","[]","0","2","","","15559","63","1","2","win","no-go","0"
"pit-trial","185","1141048","0.0-68.0","battery-v0.2","","""event"",""trial"",""time""
""fullscreenenter"",""1"",""1307""
","
","
","""event"",""trial"",""time""
""fullscreenenter"",""1"",""1307""
","
","","","755.5999999996275","","","14","15559","1843","p","elianto","#3366ff99"," "," ","1","+10","[1606.5]","1","2","","","15559","64","4","1","win","go","0"
"pit-trial","186","1145905","0.0-69.0","battery-v0.2","","""event"",""trial"",""time""
""fullscreenenter"",""1"",""1307""
","
","
","""event"",""trial"",""time""
""fullscreenenter"",""1"",""1307""
","
","","","-1","","","14","15559","1843","l","elianto","#3366ff99","-1","-1","1","+10","[]","0","2","","","15559","65","1","2","win","no-go","0"
"pit-trial","187","1150759","0.0-70.0","battery-v0.2","","""event"",""trial"",""time""
""fullscreenenter"",""1"",""1307""
","
","
","""event"",""trial"",""time""
""fullscreenenter"",""1"",""1307""
","
","","","-1","","","14","15559","1843","g","elianto","#f73b6a7A","-1","-1","1","0","[]","0","2","","","15559","66","3","4","lose","no-go","0"
"pit-trial","188","1154414","0.0-71.0","battery-v0.2","","""event"",""trial"",""time""
""fullscreenenter"",""1"",""1307""
","
","
","""event"",""trial"",""time""
""fullscreenenter"",""1"",""1307""
","
","","","800.9000000003725","","","14","15559","1843","s","elianto","#3366ff99","-1"," ","0","0","[1651.2000000001863]","1","2","","","15559","67","5","2","win","no-go","0"
"pit-trial","189","1158165","0.0-72.0","battery-v0.2","","""event"",""trial"",""time""
""fullscreenenter"",""1"",""1307""
","
","
","""event"",""trial"",""time""
""fullscreenenter"",""1"",""1307""
","
","","","895.2000000001863","","","14","15559","1843","p","elianto","#3366ff99"," "," ","1","+10","[1746.5999999996275]","1","2","","","15559","68","4","1","win","go","0"
"pit-trial","190","1162542","0.0-73.0","battery-v0.2","","""event"",""trial"",""time""
""fullscreenenter"",""1"",""1307""
","
","
","""event"",""trial"",""time""
""fullscreenenter"",""1"",""1307""
","
","","","1521.5","","","14","15559","1843","s","elianto","#3366ff99","-1"," ","0","0","[2372.899999999441]","1","2","","","15559","69","5","2","win","no-go","0"
"pit-trial","191","1166100","0.0-74.0","battery-v0.2","","""event"",""trial"",""time""
""fullscreenenter"",""1"",""1307""
","
","
","""event"",""trial"",""time""
""fullscreenenter"",""1"",""1307""
","
","","","702.6000000005588","","","14","15559","1843","l","elianto","#3366ff99","-1"," ","0","0","[1553.5]","1","2","","","15559","70","1","2","win","no-go","0"
"pit-trial","192","1170414","0.0-75.0","battery-v0.2","","""event"",""trial"",""time""
""fullscreenenter"",""1"",""1307""
","
","
","""event"",""trial"",""time""
""fullscreenenter"",""1"",""1307""
","
","","","1459.2999999998137","","","14","15559","1843","a","elianto","#f73b6a7A"," "," ","1","-10","[2310]","1","2","","","15559","71","2","3","lose","go","1"
"pit-trial","193","1175269","0.0-76.0","battery-v0.2","","""event"",""trial"",""time""
""fullscreenenter"",""1"",""1307""
","
","
","""event"",""trial"",""time""
""fullscreenenter"",""1"",""1307""
","
","","","-1","","","14","15559","1843","p","elianto","#3366ff99"," ","-1","0","+10","[3174.5999999996275]","1","2","","","15559","72","4","1","win","go","1"
"pit-trial","194","1178523","0.0-77.0","battery-v0.2","","""event"",""trial"",""time""
""fullscreenenter"",""1"",""1307""
","
","
","""event"",""trial"",""time""
""fullscreenenter"",""1"",""1307""
","
","","","398.40000000037253","","","14","15559","1843","s","elianto","#3366ff99","-1"," ","0","0","[1250.1000000005588]","1","2","","","15559","73","5","2","win","no-go","0"
"pit-trial","195","1183377","0.0-78.0","battery-v0.2","","""event"",""trial"",""time""
""fullscreenenter"",""1"",""1307""
","
","
","""event"",""trial"",""time""
""fullscreenenter"",""1"",""1307""
","
","","","-1","","","14","15559","1843","l","elianto","#3366ff99","-1","-1","1","+10","[]","0","2","","","15559","74","1","2","win","no-go","0"
"pit-trial","196","1186895","0.0-79.0","battery-v0.2","","""event"",""trial"",""time""
""fullscreenenter"",""1"",""1307""
","
","
","""event"",""trial"",""time""
""fullscreenenter"",""1"",""1307""
","
","","","662.8000000007451","","","14","15559","1843","p","elianto","#3366ff99"," "," ","1","+10","[1513.5]","1","2","","","15559","75","4","1","win","go","0"
"pit-trial","197","1191749","0.0-80.0","battery-v0.2","","""event"",""trial"",""time""
""fullscreenenter"",""1"",""1307""
","
","
","""event"",""trial"",""time""
""fullscreenenter"",""1"",""1307""
","
","","","-1","","","14","15559","1843","g","elianto","#f73b6a7A","-1","-1","1","0","[]","0","2","","","15559","76","3","4","lose","no-go","0"
"pit-trial","198","1196601","0.0-81.0","battery-v0.2","","""event"",""trial"",""time""
""fullscreenenter"",""1"",""1307""
","
","
","""event"",""trial"",""time""
""fullscreenenter"",""1"",""1307""
","
","","","-1","","","14","15559","1843","g","elianto","#f73b6a7A","-1","-1","1","0","[]","0","2","","","15559","77","3","4","lose","no-go","0"
"pit-trial","199","1201456","0.0-82.0","battery-v0.2","","""event"",""trial"",""time""
""fullscreenenter"",""1"",""1307""
","
","
","""event"",""trial"",""time""
""fullscreenenter"",""1"",""1307""
","
","","","-1","","","14","15559","1843","p","elianto","#3366ff99"," ","-1","0","0","[]","0","2","","","15559","78","4","1","win","go","0"
"pit-trial","200","1205122","0.0-83.0","battery-v0.2","","""event"",""trial"",""time""
""fullscreenenter"",""1"",""1307""
","
","
","""event"",""trial"",""time""
""fullscreenenter"",""1"",""1307""
","
","","","811.0999999996275","","","14","15559","1843","s","elianto","#3366ff99","-1"," ","0","+10","[1661.5999999996275]","1","2","","","15559","79","5","2","win","no-go","1"
"pit-trial","201","1209364","0.0-84.0","battery-v0.2","","""event"",""trial"",""time""
""fullscreenenter"",""1"",""1307""
","
","
","""event"",""trial"",""time""
""fullscreenenter"",""1"",""1307""
","
","","","1388.8999999994412","","","14","15559","1843","p","elianto","#3366ff99"," "," ","1","+10","[2239.7999999998137]","1","2","","","15559","80","4","1","win","go","0"
"pit-trial","202","1212765","0.0-85.0","battery-v0.2","","""event"",""trial"",""time""
""fullscreenenter"",""1"",""1307""
","
","
","""event"",""trial"",""time""
""fullscreenenter"",""1"",""1307""
","
","","","546.9000000003725","","","14","15559","1843","s","elianto","#3366ff99","-1"," ","0","0","[1397.7999999998137]","1","2","","","15559","81","5","2","win","no-go","0"
"pit-trial","203","1215777","0.0-86.0","battery-v0.2","","""event"",""trial"",""time""
""fullscreenenter"",""1"",""1307""
","
","
","""event"",""trial"",""time""
""fullscreenenter"",""1"",""1307""
","
","","","158.40000000037253","","","14","15559","1843","g","elianto","#f73b6a7A","-1"," ","0","-10","[1009.1000000005588]","1","2","","","15559","82","3","4","lose","no-go","0"
"pit-trial","204","1219532","0.0-87.0","battery-v0.2","","""event"",""trial"",""time""
""fullscreenenter"",""1"",""1307""
","
","
","""event"",""trial"",""time""
""fullscreenenter"",""1"",""1307""
","
","","","899.0999999996275","","","14","15559","1843","p","elianto","#3366ff99"," "," ","1","+10","[1749.8999999994412]","1","2","","","15559","83","4","1","win","go","0"
"pit-trial","205","1222911","0.0-88.0","battery-v0.2","","""event"",""trial"",""time""
""fullscreenenter"",""1"",""1307""
","
","
","""event"",""trial"",""time""
""fullscreenenter"",""1"",""1307""
","
","","","524.2999999998137","","","14","15559","1843","e","elianto","#f73b6a7A","-1"," ","0","0","[1375.5999999996275]","1","2","","","15559","84","7","4","lose","no-go","1"
"pit-trial","206","1226346","0.0-89.0","battery-v0.2","","""event"",""trial"",""time""
""fullscreenenter"",""1"",""1307""
","
","
","""event"",""trial"",""time""
""fullscreenenter"",""1"",""1307""
","
","","","581.2000000001863","","","14","15559","1843","p","elianto","#3366ff99"," "," ","1","+10","[1432.800000000745]","1","2","","","15559","85","4","1","win","go","0"
"pit-trial","207","1229967","0.0-90.0","battery-v0.2","","""event"",""trial"",""time""
""fullscreenenter"",""1"",""1307""
","
","
","""event"",""trial"",""time""
""fullscreenenter"",""1"",""1307""
","
","","","766.5","","","14","15559","1843","w","elianto","#f73b6a7A"," "," ","1","0","[1617.2000000001863]","1","2","","","15559","86","6","3","lose","go","0"
"pit-trial","208","1234344","0.0-91.0","battery-v0.2","","""event"",""trial"",""time""
""fullscreenenter"",""1"",""1307""
","
","
","""event"",""trial"",""time""
""fullscreenenter"",""1"",""1307""
","
","","","1523.7000000001863","","","14","15559","1843","s","elianto","#3366ff99","-1"," ","0","+10","[2374.7000000001863]","1","2","","","15559","87","5","2","win","no-go","1"
"pit-trial","209","1239020","0.0-92.0","battery-v0.2","","""event"",""trial"",""time""
""fullscreenenter"",""1"",""1307""
","
","
","""event"",""trial"",""time""
""fullscreenenter"",""1"",""1307""
","
","","","1821.7000000001863","","","14","15559","1843","e","elianto","#f73b6a7A","-1"," ","0","-10","[2672.300000000745]","1","2","","","15559","88","7","4","lose","no-go","0"
"pit-trial","210","1243704","0.0-93.0","battery-v0.2","","""event"",""trial"",""time""
""fullscreenenter"",""1"",""1307""
","
","
","""event"",""trial"",""time""
""fullscreenenter"",""1"",""1307""
","
","","","1831.2000000001863","","","14","15559","1843","p","elianto","#3366ff99"," "," ","1","+10","[2681.2999999998137]","1","2","","","15559","89","4","1","win","go","0"
"pit-trial","211","1247716","0.0-94.0","battery-v0.2","","""event"",""trial"",""time""
""fullscreenenter"",""1"",""1307""
","
","
","""event"",""trial"",""time""
""fullscreenenter"",""1"",""1307""
","
","","","1155.3999999994412","","","14","15559","1843","s","elianto","#3366ff99","-1"," ","0","0","[2007.2999999998137]","1","2","","","15559","90","5","2","win","no-go","0"
"pit-trial","212","1250897","0.0-95.0","battery-v0.2","","""event"",""trial"",""time""
""fullscreenenter"",""1"",""1307""
","
","
","""event"",""trial"",""time""
""fullscreenenter"",""1"",""1307""
","
","","","326.3999999994412","","","14","15559","1843","e","elianto","#f73b6a7A","-1"," ","0","-10","[1177.7000000001863]","1","2","","","15559","91","7","4","lose","no-go","0"
"pit-trial","213","1254845","0.0-96.0","battery-v0.2","","""event"",""trial"",""time""
""fullscreenenter"",""1"",""1307""
","
","
","""event"",""trial"",""time""
""fullscreenenter"",""1"",""1307""
","
","","","1093.7000000001863","","","14","15559","1843","w","elianto","#f73b6a7A"," "," ","1","0","[1944.3999999994412]","1","2","","","15559","92","6","3","lose","go","0"
"pit-trial","214","1259701","0.0-97.0","battery-v0.2","","""event"",""trial"",""time""
""fullscreenenter"",""1"",""1307""
","
","
","""event"",""trial"",""time""
""fullscreenenter"",""1"",""1307""
","
","","","-1","","","14","15559","1843","w","elianto","#f73b6a7A"," ","-1","0","0","[703.5,4144.600000000559]","2","2","","","15559","93","6","3","lose","go","1"
"pit-trial","215","1264111","0.0-98.0","battery-v0.2","","""event"",""trial"",""time""
""fullscreenenter"",""1"",""1307""
","
","
","""event"",""trial"",""time""
""fullscreenenter"",""1"",""1307""
","
","","","1555.199999999255","","","14","15559","1843","e","elianto","#f73b6a7A","-1"," ","0","-10","[2405.4000000003725]","1","2","","","15559","94","7","4","lose","no-go","0"
"pit-trial","216","1268050","0.0-99.0","battery-v0.2","","""event"",""trial"",""time""
""fullscreenenter"",""1"",""1307""
","
","
","""event"",""trial"",""time""
""fullscreenenter"",""1"",""1307""
","
","","","1083.9000000003725","","","14","15559","1843","s","elianto","#3366ff99","-1"," ","0","0","[1934.800000000745]","1","2","","","15559","95","5","2","win","no-go","0"
"pit-trial","217","1271685","0.0-100.0","battery-v0.2","","""event"",""trial"",""time""
""fullscreenenter"",""1"",""1307""
","
","
","""event"",""trial"",""time""
""fullscreenenter"",""1"",""1307""
","
","","","780.7999999998137","","","14","15559","1843","d","elianto","#3366ff99"," "," ","1","0","[1631.5]","1","2","","","15559","96","8","1","win","go","1"
"pit-trial","218","1274872","0.0-101.0","battery-v0.2","","""event"",""trial"",""time""
""fullscreenenter"",""1"",""1307""
","
","
","""event"",""trial"",""time""
""fullscreenenter"",""1"",""1307""
","
","","","333.40000000037253","","","14","15559","1843","w","elianto","#f73b6a7A"," "," ","1","0","[1184.2000000001863]","1","2","","","15559","97","6","3","lose","go","0"
"pit-trial","219","1278515","0.0-102.0","battery-v0.2","","""event"",""trial"",""time""
""fullscreenenter"",""1"",""1307""
","
","
","""event"",""trial"",""time""
""fullscreenenter"",""1"",""1307""
","
","","","789.6999999992549","","","14","15559","1843","e","elianto","#f73b6a7A","-1"," ","0","0","[1640.0999999996275]","1","2","","","15559","98","7","4","lose","no-go","1"
"pit-trial","220","1283369","0.0-103.0","battery-v0.2","","""event"",""trial"",""time""
""fullscreenenter"",""1"",""1307""
","
","
","""event"",""trial"",""time""
""fullscreenenter"",""1"",""1307""
","
","","","-1","","","14","15559","1843","d","elianto","#3366ff99"," ","-1","0","0","[3446.7999999998137,4335.399999999441]","2","2","","","15559","99","8","1","win","go","0"
"pit-trial","221","1286771","0.0-104.0","battery-v0.2","","""event"",""trial"",""time""
""fullscreenenter"",""1"",""1307""
","
","
","""event"",""trial"",""time""
""fullscreenenter"",""1"",""1307""
","
","","","546.2999999998137","","","14","15559","1843","s","elianto","#3366ff99","-1"," ","0","+10","[1397.2999999998137]","1","2","","","15559","100","5","2","win","no-go","1"
"pit-trial","222","1290186","0.0-105.0","battery-v0.2","","""event"",""trial"",""time""
""fullscreenenter"",""1"",""1307""
","
","
","""event"",""trial"",""time""
""fullscreenenter"",""1"",""1307""
","
","","","561.0999999996275","","","14","15559","1843","j","elianto","#3366ff99"," "," ","1","+10","[1411.2000000001863]","1","2","","","15559","101","9","1","win","go","0"
"pit-trial","223","1293519","0.0-106.0","battery-v0.2","","""event"",""trial"",""time""
""fullscreenenter"",""1"",""1307""
","
","
","""event"",""trial"",""time""
""fullscreenenter"",""1"",""1307""
","
","","","479","","","14","15559","1843","d","elianto","#3366ff99"," "," ","1","+10","[1329.699999999255]","1","2","","","15559","102","8","1","win","go","0"
"pit-trial","224","1298244","0.0-107.0","battery-v0.2","","""event"",""trial"",""time""
""fullscreenenter"",""1"",""1307""
","
","
","""event"",""trial"",""time""
""fullscreenenter"",""1"",""1307""
","
","","","1870.9000000003725","","","14","15559","1843","s","elianto","#3366ff99","-1"," ","0","0","[2720.7999999998137]","1","2","","","15559","103","5","2","win","no-go","0"
"pit-trial","225","1302096","0.0-108.0","battery-v0.2","","""event"",""trial"",""time""
""fullscreenenter"",""1"",""1307""
","
","
","""event"",""trial"",""time""
""fullscreenenter"",""1"",""1307""
","
","","","984.1000000005588","","","14","15559","1843","e","elianto","#f73b6a7A","-1"," ","0","-10","[1834.7999999998137]","1","2","","","15559","104","7","4","lose","no-go","0"
"pit-trial","226","1305936","0.0-109.0","battery-v0.2","","""event"",""trial"",""time""
""fullscreenenter"",""1"",""1307""
","
","
","""event"",""trial"",""time""
""fullscreenenter"",""1"",""1307""
","
","","","986.2000000001863","","","14","15559","1843","w","elianto","#f73b6a7A"," "," ","1","0","[46.40000000037253,1837.1000000005588]","2","2","","","15559","105","6","3","lose","go","0"
"pit-trial","227","1308984","0.0-110.0","battery-v0.2","","""event"",""trial"",""time""
""fullscreenenter"",""1"",""1307""
","
","
","""event"",""trial"",""time""
""fullscreenenter"",""1"",""1307""
","
","","","193.70000000018626","","","14","15559","1843","j","elianto","#3366ff99"," "," ","1","+10","[61.60000000055879,1044.2000000001863]","2","2","","","15559","106","9","1","win","go","0"
"pit-trial","228","1312254","0.0-111.0","battery-v0.2","","""event"",""trial"",""time""
""fullscreenenter"",""1"",""1307""
","
","
","""event"",""trial"",""time""
""fullscreenenter"",""1"",""1307""
","
","","","416.19999999925494","","","14","15559","1843","p","elianto","#3366ff99"," "," ","1","+10","[1266.8999999994412]","1","2","","","15559","107","4","1","win","go","0"
"pit-trial","229","1315525","0.0-112.0","battery-v0.2","","""event"",""trial"",""time""
""fullscreenenter"",""1"",""1307""
","
","
","""event"",""trial"",""time""
""fullscreenenter"",""1"",""1307""
","
","","","416.59999999962747","","","14","15559","1843","d","elianto","#3366ff99"," "," ","1","+10","[119.59999999962747,1267.2000000001863]","2","2","","","15559","108","8","1","win","go","0"
"pit-trial","230","1319125","0.0-113.0","battery-v0.2","","""event"",""trial"",""time""
""fullscreenenter"",""1"",""1307""
","
","
","""event"",""trial"",""time""
""fullscreenenter"",""1"",""1307""
","
","","","745.7000000001863","","","14","15559","1843","s","elianto","#3366ff99","-1"," ","0","0","[1596.5]","1","2","","","15559","109","5","2","win","no-go","0"
"pit-trial","231","1322636","0.0-114.0","battery-v0.2","","""event"",""trial"",""time""
""fullscreenenter"",""1"",""1307""
","
","
","""event"",""trial"",""time""
""fullscreenenter"",""1"",""1307""
","
","","","655.8999999994412","","","14","15559","1843","j","elianto","#3366ff99"," "," ","1","+10","[1506.2999999998137]","1","2","","","15559","110","9","1","win","go","0"
"pit-trial","232","1326040","0.0-115.0","battery-v0.2","","""event"",""trial"",""time""
""fullscreenenter"",""1"",""1307""
","
","
","""event"",""trial"",""time""
""fullscreenenter"",""1"",""1307""
","
","","","548.2999999998137","","","14","15559","1843","d","elianto","#3366ff99"," "," ","1","+10","[1400]","1","2","","","15559","111","8","1","win","go","0"
"pit-trial","233","1330027","0.0-116.0","battery-v0.2","","""event"",""trial"",""time""
""fullscreenenter"",""1"",""1307""
","
","
","""event"",""trial"",""time""
""fullscreenenter"",""1"",""1307""
","
","","","1132","","","14","15559","1843","w","elianto","#f73b6a7A"," "," ","1","0","[1982.6000000005588]","1","2","","","15559","112","6","3","lose","go","0"
"pit-trial","234","1333170","0.0-117.0","battery-v0.2","","""event"",""trial"",""time""
""fullscreenenter"",""1"",""1307""
","
","
","""event"",""trial"",""time""
""fullscreenenter"",""1"",""1307""
","
","","","289.5","","","14","15559","1843","w","elianto","#f73b6a7A"," "," ","1","-10","[1140]","1","2","","","15559","113","6","3","lose","go","1"
"pit-trial","235","1336511","0.0-118.0","battery-v0.2","","""event"",""trial"",""time""
""fullscreenenter"",""1"",""1307""
","
","
","""event"",""trial"",""time""
""fullscreenenter"",""1"",""1307""
","
","","","486.40000000037253","","","14","15559","1843","s","elianto","#3366ff99","-1"," ","0","0","[116.40000000037253,1338.0999999996275]","2","2","","","15559","114","5","2","win","no-go","0"
"pit-trial","236","1340150","0.0-119.0","battery-v0.2","","""event"",""trial"",""time""
""fullscreenenter"",""1"",""1307""
","
","
","""event"",""trial"",""time""
""fullscreenenter"",""1"",""1307""
","
","","","784.4000000003725","","","14","15559","1843","j","elianto","#3366ff99"," "," ","1","+10","[1634.7000000001863]","1","2","","","15559","115","9","1","win","go","0"
"pit-trial","237","1343546","0.0-120.0","battery-v0.2","","""event"",""trial"",""time""
""fullscreenenter"",""1"",""1307""
","
","
","""event"",""trial"",""time""
""fullscreenenter"",""1"",""1307""
","
","","","542.2999999998137","","","14","15559","1843","d","elianto","#3366ff99"," "," ","1","+10","[1392.5]","1","2","","","15559","116","8","1","win","go","0"
"pit-trial","238","1347223","0.0-121.0","battery-v0.2","","""event"",""trial"",""time""
""fullscreenenter"",""1"",""1307""
","
","
","""event"",""trial"",""time""
""fullscreenenter"",""1"",""1307""
","
","","","823","","","14","15559","1843","w","elianto","#f73b6a7A"," "," ","1","-10","[1674]","1","2","","","15559","117","6","3","lose","go","1"
"pit-trial","239","1351274","0.0-122.0","battery-v0.2","","""event"",""trial"",""time""
""fullscreenenter"",""1"",""1307""
","
","
","""event"",""trial"",""time""
""fullscreenenter"",""1"",""1307""
","
","","","1187.5","","","14","15559","1843","j","elianto","#3366ff99"," "," ","1","+10","[2038.0999999996275]","1","2","","","15559","118","9","1","win","go","0"
"pit-trial","240","1354378","0.0-123.0","battery-v0.2","","""event"",""trial"",""time""
""fullscreenenter"",""1"",""1307""
","
","
","""event"",""trial"",""time""
""fullscreenenter"",""1"",""1307""
","
","","","250.3999999994412","","","14","15559","1843","s","elianto","#3366ff99","-1"," ","0","0","[1101.199999999255,2352,3073.199999999255]","3","2","","","15559","119","5","2","win","no-go","0"
"pit-trial","241","1358378","0.0-124.0","battery-v0.2","","""event"",""trial"",""time""
""fullscreenenter"",""1"",""1307""
","
","
","""event"",""trial"",""time""
""fullscreenenter"",""1"",""1307""
","
","","","1145.7000000001863","","","14","15559","1843","d","elianto","#3366ff99"," "," ","1","+10","[1995.5999999996275]","1","2","","","15559","120","8","1","win","go","0"
"pit-trial","242","1361702","0.0-125.0","battery-v0.2","","""event"",""trial"",""time""
""fullscreenenter"",""1"",""1307""
","
","
","""event"",""trial"",""time""
""fullscreenenter"",""1"",""1307""
","
","","","468.90000000037253","","","14","15559","1843","j","elianto","#3366ff99"," "," ","1","+10","[118.5,1319.7000000001863,3197.399999999441]","3","2","","","15559","121","9","1","win","go","0"
"pit-trial","243","1365550","0.0-126.0","battery-v0.2","","""event"",""trial"",""time""
""fullscreenenter"",""1"",""1307""
","
","
","""event"",""trial"",""time""
""fullscreenenter"",""1"",""1307""
","
","","","993.7999999998137","","","14","15559","1843","w","elianto","#f73b6a7A"," "," ","1","0","[1844.8999999994412]","1","2","","","15559","122","6","3","lose","go","0"
"pit-trial","244","1370421","0.0-127.0","battery-v0.2","","""event"",""trial"",""time""
""fullscreenenter"",""1"",""1307""
","
","
","""event"",""trial"",""time""
""fullscreenenter"",""1"",""1307""
","
","","","-1","","","14","15559","1843","d","elianto","#3366ff99"," ","-1","0","+10","[4110.200000000186]","1","2","","","15559","123","8","1","win","go","1"
"pit-trial","245","1375276","0.0-128.0","battery-v0.2","","""event"",""trial"",""time""
""fullscreenenter"",""1"",""1307""
","
","
","""event"",""trial"",""time""
""fullscreenenter"",""1"",""1307""
","
","","","-1","","","14","15559","1843","e","elianto","#f73b6a7A","-1","-1","1","-10","[3353.2000000001863,4679.700000000186]","2","2","","","15559","124","7","4","lose","no-go","1"
"pit-trial","246","1378613","0.0-129.0","battery-v0.2","","""event"",""trial"",""time""
""fullscreenenter"",""1"",""1307""
","
","
","""event"",""trial"",""time""
""fullscreenenter"",""1"",""1307""
","
","","","482.59999999962747","","","14","15559","1843","j","elianto","#3366ff99"," "," ","1","+10","[1333.5999999996275]","1","2","","","15559","125","9","1","win","go","0"
"pit-trial","247","1382348","0.0-130.0","battery-v0.2","","""event"",""trial"",""time""
""fullscreenenter"",""1"",""1307""
","
","
","""event"",""trial"",""time""
""fullscreenenter"",""1"",""1307""
","
","","","880","","","14","15559","1843","e","elianto","#f73b6a7A","-1"," ","0","-10","[1730.6000000005588]","1","2","","","15559","126","7","4","lose","no-go","0"
"pit-trial","248","1386120","0.0-131.0","battery-v0.2","","""event"",""trial"",""time""
""fullscreenenter"",""1"",""1307""
","
","
","""event"",""trial"",""time""
""fullscreenenter"",""1"",""1307""
","
","","","917.2000000001863","","","14","15559","1843","w","elianto","#f73b6a7A"," "," ","1","-10","[713.5,1767.5999999996275,2802.5]","3","2","","","15559","127","6","3","lose","go","1"
"pit-trial","249","1389667","0.0-132.0","battery-v0.2","","""event"",""trial"",""time""
""fullscreenenter"",""1"",""1307""
","
","
","""event"",""trial"",""time""
""fullscreenenter"",""1"",""1307""
","
","","","693.9000000003725","","","14","15559","1843","d","elianto","#3366ff99"," "," ","1","+10","[1543.800000000745,3534.9000000003725]","2","2","","","15559","128","8","1","win","go","0"
"pit-trial","250","1394522","0.0-133.0","battery-v0.2","","""event"",""trial"",""time""
""fullscreenenter"",""1"",""1307""
","
","
","""event"",""trial"",""time""
""fullscreenenter"",""1"",""1307""
","
","","","-1","","","14","15559","1843","e","elianto","#f73b6a7A","-1","-1","1","-10","[2852.2999999998137]","1","2","","","15559","129","7","4","lose","no-go","1"
"pit-trial","251","1397755","0.0-134.0","battery-v0.2","","""event"",""trial"",""time""
""fullscreenenter"",""1"",""1307""
","
","
","""event"",""trial"",""time""
""fullscreenenter"",""1"",""1307""
","
","","","378.5","","","14","15559","1843","j","elianto","#3366ff99"," "," ","1","+10","[1229,2368.899999999441]","2","2","","","15559","130","9","1","win","go","0"
"pit-trial","252","1401109","0.0-135.0","battery-v0.2","","""event"",""trial"",""time""
""fullscreenenter"",""1"",""1307""
","
","
","""event"",""trial"",""time""
""fullscreenenter"",""1"",""1307""
","
","","","500.3999999994412","","","14","15559","1843","d","elianto","#3366ff99"," "," ","1","+10","[1351.3999999994412]","1","2","","","15559","131","8","1","win","go","0"
"pit-trial","253","1405963","0.0-136.0","battery-v0.2","","""event"",""trial"",""time""
""fullscreenenter"",""1"",""1307""
