"trial_type","trial_index","time_elapsed","internal_node_id","task_version","subject_id","interactions","blur_events","focus_events","fullscreenenter_events","fullscreenexit_events","success","view_history","rt","responses","num_errors","age","subject","participantId","rune","rune_set","hex","correct","choice","accuracy","outcome","keys","total_keys","block","practice","value","sub","trial","stimulus","robot","valence","action","sham"
"pavlovia","0","11","0.0-0.0","battery-v0.2","","""event"",""trial"",""time""
""fullscreenenter"",""1"",""3059""
","
","
","""event"",""trial"",""time""
""fullscreenenter"",""1"",""3059""
","
","","","","","","","","","","","","","","","","","","","","","","","","","","",""
"fullscreen","1","4056","0.0-1.0","battery-v0.2","","""event"",""trial"",""time""
""fullscreenenter"",""1"",""3059""
","
","
","""event"",""trial"",""time""
""fullscreenenter"",""1"",""3059""
","
","true","","","","","","","","","","","","","","","","","","","","","","","","","",""
"pit-instructions","2","15964","0.0-2.0-0.0","battery-v0.2","","""event"",""trial"",""time""
""fullscreenenter"",""1"",""3059""
","
","
","""event"",""trial"",""time""
""fullscreenenter"",""1"",""3059""
","
","","[{""page_index"":0,""viewing_time"":11899.29999999993}]","11900","","","","","","","","","","","","","","","","","","","","","","","",""
"pit-comprehension","3","21936","0.0-2.0-1.0-0.0","battery-v0.2","","""event"",""trial"",""time""
""fullscreenenter"",""1"",""3059""
","
","
","""event"",""trial"",""time""
""fullscreenenter"",""1"",""3059""
","
","","","5965.5","[""shark""]","0","10","9909","4418","","","","","","","","","","","","","","","","","","",""
"pit-instructions","4","26487","0.0-2.0-1.0-1.0","battery-v0.2","","""event"",""trial"",""time""
""fullscreenenter"",""1"",""3059""
","
","
","""event"",""trial"",""time""
""fullscreenenter"",""1"",""3059""
","
","","[{""page_index"":0,""viewing_time"":4539.600000000093}]","4540.300000000047","","","","","","","","","","","","","","","","","","","","","","","",""
"pit-comprehension","5","30248","0.0-2.0-2.0-0.0","battery-v0.2","","""event"",""trial"",""time""
""fullscreenenter"",""1"",""3059""
","
","
","""event"",""trial"",""time""
""fullscreenenter"",""1"",""3059""
","
","","","3753.5999999998603","[""tiger""]","0","10","9909","4418","","","","","","","","","","","","","","","","","","",""
"pit-instructions","6","31994","0.0-2.0-2.0-1.0","battery-v0.2","","""event"",""trial"",""time""
""fullscreenenter"",""1"",""3059""
","
","
","""event"",""trial"",""time""
""fullscreenenter"",""1"",""3059""
","
","","[{""page_index"":0,""viewing_time"":1742.2000000001863}]","1742.9000000001397","","","","","","","","","","","","","","","","","","","","","","","",""
"pit-instructions","7","158348","0.0-2.0-3.0","battery-v0.2","","""event"",""trial"",""time""
""fullscreenenter"",""1"",""3059""
","
","
","""event"",""trial"",""time""
""fullscreenenter"",""1"",""3059""
","
","","[{""page_index"":0,""viewing_time"":10923},{""page_index"":1,""viewing_time"":6771.899999999907},{""page_index"":2,""viewing_time"":6800.600000000093},{""page_index"":3,""viewing_time"":7175.399999999907},{""page_index"":4,""viewing_time"":6973.300000000047},{""page_index"":5,""viewing_time"":6962.899999999907},{""page_index"":6,""viewing_time"":10097.100000000093},{""page_index"":7,""viewing_time"":7878.300000000047},{""page_index"":8,""viewing_time"":7396.199999999953},{""page_index"":9,""viewing_time"":12428.100000000093},{""page_index"":10,""viewing_time"":9855.699999999953},{""page_index"":11,""viewing_time"":20823.199999999953},{""page_index"":12,""viewing_time"":6341.300000000047},{""page_index"":13,""viewing_time"":5919.800000000047}]","126347.3999999999","","","","","","","","","","","","","","","","","","","","","","","",""
"pit-trial","8","161769","0.0-2.0-4.0-0.0","battery-v0.2","","""event"",""trial"",""time""
""fullscreenenter"",""1"",""3059""
","
","
","""event"",""trial"",""time""
""fullscreenenter"",""1"",""3059""
","
","","","556.2999999998137","","","10","9909","4418","&#9784;","elianto","#FFFFF080"," "," ","1","&#10004","[1409]","1","0","0","","","","","","","",""
"pit-trial","9","165145","0.0-2.0-4.1-0.1","battery-v0.2","","""event"",""trial"",""time""
""fullscreenenter"",""1"",""3059""
","
","
","""event"",""trial"",""time""
""fullscreenenter"",""1"",""3059""
","
","","","518.0999999998603","","","10","9909","4418","&#9784;","elianto","#FFFFF080"," "," ","1","&#10004","[1369.9000000001397]","1","0","0","","","","","","","",""
"pit-trial","10","168585","0.0-2.0-4.2-0.2","battery-v0.2","","""event"",""trial"",""time""
""fullscreenenter"",""1"",""3059""
","
","
","""event"",""trial"",""time""
""fullscreenenter"",""1"",""3059""
","
","","","576.5","","","10","9909","4418","&#9784;","elianto","#FFFFF080"," "," ","1","&#10004","[1428.8000000000466]","1","0","0","","","","","","","",""
"pit-trial","11","172009","0.0-2.0-4.3-0.3","battery-v0.2","","""event"",""trial"",""time""
""fullscreenenter"",""1"",""3059""
","
","
","""event"",""trial"",""time""
""fullscreenenter"",""1"",""3059""
","
","","","568.1000000000931","","","10","9909","4418","&#9784;","elianto","#FFFFF080"," "," ","1","&#10004","[1419.8000000000466]","1","0","0","","","","","","","",""
"pit-trial","12","175409","0.0-2.0-4.4-0.4","battery-v0.2","","""event"",""trial"",""time""
""fullscreenenter"",""1"",""3059""
","
","
","""event"",""trial"",""time""
""fullscreenenter"",""1"",""3059""
","
","","","536.8000000000466","","","10","9909","4418","&#9784;","elianto","#FFFFF080"," "," ","1","&#10004","[1388.6000000000931]","1","0","0","","","","","","","",""
"pit-instructions","13","199221","0.0-2.0-5.0","battery-v0.2","","""event"",""trial"",""time""
""fullscreenenter"",""1"",""3059""
","
","
","""event"",""trial"",""time""
""fullscreenenter"",""1"",""3059""
","
","","[{""page_index"":0,""viewing_time"":6146.199999999953},{""page_index"":1,""viewing_time"":6473},{""page_index"":2,""viewing_time"":5799.600000000093},{""page_index"":3,""viewing_time"":5389}]","23808.199999999953","","","","","","","","","","","","","","","","","","","","","","","",""
"pit-trial","14","204089","0.0-2.0-6.0-0.0","battery-v0.2","","""event"",""trial"",""time""
""fullscreenenter"",""1"",""3059""
","
","
","""event"",""trial"",""time""
""fullscreenenter"",""1"",""3059""
","
","","","-1","","","10","9909","4418","&#9854;","elianto","#FFFFF080","-1","-1","1","&#10004","[]","0","0","1","","","","","","","",""
"pit-trial","15","208953","0.0-2.0-6.1-0.1","battery-v0.2","","""event"",""trial"",""time""
""fullscreenenter"",""1"",""3059""
","
","
","""event"",""trial"",""time""
""fullscreenenter"",""1"",""3059""
","
","","","-1","","","10","9909","4418","&#9854;","elianto","#FFFFF080","-1","-1","1","&#10004","[]","0","0","1","","","","","","","",""
"pit-trial","16","213817","0.0-2.0-6.2-0.2","battery-v0.2","","""event"",""trial"",""time""
""fullscreenenter"",""1"",""3059""
","
","
","""event"",""trial"",""time""
""fullscreenenter"",""1"",""3059""
","
","","","-1","","","10","9909","4418","&#9854;","elianto","#FFFFF080","-1","-1","1","&#10004","[]","0","0","1","","","","","","","",""
"pit-trial","17","218681","0.0-2.0-6.3-0.3","battery-v0.2","","""event"",""trial"",""time""
""fullscreenenter"",""1"",""3059""
","
","
","""event"",""trial"",""time""
""fullscreenenter"",""1"",""3059""
","
","","","-1","","","10","9909","4418","&#9854;","elianto","#FFFFF080","-1","-1","1","&#10004","[]","0","0","1","","","","","","","",""
"pit-trial","18","223545","0.0-2.0-6.4-0.4","battery-v0.2","","""event"",""trial"",""time""
""fullscreenenter"",""1"",""3059""
","
","
","""event"",""trial"",""time""
""fullscreenenter"",""1"",""3059""
","
","","","-1","","","10","9909","4418","&#9854;","elianto","#FFFFF080","-1","-1","1","&#10004","[]","0","0","1","","","","","","","",""
"pit-instructions","19","379604","0.0-2.0-7.0","battery-v0.2","","""event"",""trial"",""time""
""fullscreenenter"",""1"",""3059""
","
","
","""event"",""trial"",""time""
""fullscreenenter"",""1"",""3059""
","
","","[{""page_index"":0,""viewing_time"":6004.600000000093},{""page_index"":1,""viewing_time"":7838.600000000093},{""page_index"":2,""viewing_time"":8048.699999999953},{""page_index"":3,""viewing_time"":26228},{""page_index"":4,""viewing_time"":5821.59999999986},{""page_index"":5,""viewing_time"":6835},{""page_index"":6,""viewing_time"":7467.600000000093},{""page_index"":7,""viewing_time"":11666.600000000093},{""page_index"":8,""viewing_time"":6562.199999999953},{""page_index"":9,""viewing_time"":5991.399999999907},{""page_index"":10,""viewing_time"":6492},{""page_index"":11,""viewing_time"":5668},{""page_index"":12,""viewing_time"":12434.199999999953},{""page_index"":13,""viewing_time"":9072.700000000186},{""page_index"":14,""viewing_time"":7787},{""page_index"":15,""viewing_time"":7444.899999999907},{""page_index"":16,""viewing_time"":6822.5},{""page_index"":17,""viewing_time"":7867.699999999953}]","156053.7000000002","","","","","","","","","","","","","","","","","","","","","","","",""
"pit-trial","20","383089","0.0-2.0-8.0-0.0","battery-v0.2","","""event"",""trial"",""time""
""fullscreenenter"",""1"",""3059""
","
","
","""event"",""trial"",""time""
""fullscreenenter"",""1"",""3059""
","
","","","619.6000000000931","","","10","9909","4418","&#9776;","elianto","#3366ff99"," "," ","1","+10","[1479.5]","1","0","1","","","","","","","",""
"pit-trial","21","386560","0.0-2.0-8.0-1.0","battery-v0.2","","""event"",""trial"",""time""
""fullscreenenter"",""1"",""3059""
","
","
","""event"",""trial"",""time""
""fullscreenenter"",""1"",""3059""
","
","","","612.3000000000466","","","10","9909","4418","&#9776;","elianto","#3366ff99"," "," ","1","+10","[1464.3000000000466]","1","0","1","","","","","","","",""
"pit-trial","22","389913","0.0-2.0-8.0-2.0","battery-v0.2","","""event"",""trial"",""time""
""fullscreenenter"",""1"",""3059""
","
","
","""event"",""trial"",""time""
""fullscreenenter"",""1"",""3059""
","
","","","488.5","","","10","9909","4418","&#9776;","elianto","#3366ff99"," "," ","1","+10","[1342.3000000000466]","1","0","1","","","","","","","",""
"pit-trial","23","393393","0.0-2.0-8.0-3.0","battery-v0.2","","""event"",""trial"",""time""
""fullscreenenter"",""1"",""3059""
","
","
","""event"",""trial"",""time""
""fullscreenenter"",""1"",""3059""
","
","","","616.3999999999069","","","10","9909","4418","&#9776;","elianto","#3366ff99"," "," ","1","0","[1470.1999999999534]","1","0","1","","","","","","","",""
"pit-trial","24","396817","0.0-2.0-8.0-4.0","battery-v0.2","","""event"",""trial"",""time""
""fullscreenenter"",""1"",""3059""
","
","
","""event"",""trial"",""time""
""fullscreenenter"",""1"",""3059""
","
","","","566.1000000000931","","","10","9909","4418","&#9776;","elianto","#3366ff99"," "," ","1","+10","[1419.8000000000466]","1","0","1","","","","","","","",""
"pit-trial","25","400169","0.0-2.0-8.1-0.1","battery-v0.2","","""event"",""trial"",""time""
""fullscreenenter"",""1"",""3059""
","
","
","""event"",""trial"",""time""
""fullscreenenter"",""1"",""3059""
","
","","","492.60000000009313","","","10","9909","4418","&#9776;","elianto","#3366ff99"," "," ","1","+10","[1344.5]","1","0","1","","","","","","","",""
"pit-trial","26","403521","0.0-2.0-8.1-1.1","battery-v0.2","","""event"",""trial"",""time""
""fullscreenenter"",""1"",""3059""
","
","
","""event"",""trial"",""time""
""fullscreenenter"",""1"",""3059""
","
","","","494.19999999995343","","","10","9909","4418","&#9776;","elianto","#3366ff99"," "," ","1","+10","[1348]","1","0","1","","","","","","","",""
"pit-trial","27","406752","0.0-2.0-8.1-2.1","battery-v0.2","","""event"",""trial"",""time""
""fullscreenenter"",""1"",""3059""
","
","
","""event"",""trial"",""time""
""fullscreenenter"",""1"",""3059""
","
","","","375.19999999995343","","","10","9909","4418","&#9776;","elianto","#3366ff99"," "," ","1","+10","[1226.8000000000466]","1","0","1","","","","","","","",""
"pit-trial","28","409825","0.0-2.0-8.1-3.1","battery-v0.2","","""event"",""trial"",""time""
""fullscreenenter"",""1"",""3059""
","
","
","""event"",""trial"",""time""
""fullscreenenter"",""1"",""3059""
","
","","","212.19999999995343","","","10","9909","4418","&#9776;","elianto","#3366ff99"," "," ","1","0","[1062.8000000000466]","1","0","1","","","","","","","",""
"pit-trial","29","413168","0.0-2.0-8.1-4.1","battery-v0.2","","""event"",""trial"",""time""
""fullscreenenter"",""1"",""3059""
","
","
","""event"",""trial"",""time""
""fullscreenenter"",""1"",""3059""
","
","","","481.69999999995343","","","10","9909","4418","&#9776;","elianto","#3366ff99"," "," ","1","+10","[1335.2999999998137]","1","0","1","","","","","","","",""
"pit-trial","30","416425","0.0-2.0-8.2-0.2","battery-v0.2","","""event"",""trial"",""time""
""fullscreenenter"",""1"",""3059""
","
","
","""event"",""trial"",""time""
""fullscreenenter"",""1"",""3059""
","
","","","391.5","","","10","9909","4418","&#9776;","elianto","#3366ff99"," "," ","1","+10","[1244.6000000000931]","1","0","1","","","","","","","",""
"pit-trial","31","419801","0.0-2.0-8.2-1.2","battery-v0.2","","""event"",""trial"",""time""
""fullscreenenter"",""1"",""3059""
","
","
","""event"",""trial"",""time""
""fullscreenenter"",""1"",""3059""
","
","","","516.2000000001863","","","10","9909","4418","&#9776;","elianto","#3366ff99"," "," ","1","+10","[1368.9000000001397]","1","0","1","","","","","","","",""
"pit-trial","32","423240","0.0-2.0-8.2-2.2","battery-v0.2","","""event"",""trial"",""time""
""fullscreenenter"",""1"",""3059""
","
","
","""event"",""trial"",""time""
""fullscreenenter"",""1"",""3059""
","
","","","576.5","","","10","9909","4418","&#9776;","elianto","#3366ff99"," "," ","1","+10","[1430.0999999998603]","1","0","1","","","","","","","",""
"pit-trial","33","426497","0.0-2.0-8.2-3.2","battery-v0.2","","""event"",""trial"",""time""
""fullscreenenter"",""1"",""3059""
","
","
","""event"",""trial"",""time""
""fullscreenenter"",""1"",""3059""
","
","","","399.39999999990687","","","10","9909","4418","&#9776;","elianto","#3366ff99"," "," ","1","0","[1253.3999999999069]","1","0","1","","","","","","","",""
"pit-trial","34","429952","0.0-2.0-8.2-4.2","battery-v0.2","","""event"",""trial"",""time""
""fullscreenenter"",""1"",""3059""
","
","
","""event"",""trial"",""time""
""fullscreenenter"",""1"",""3059""
","
","","","599.0999999998603","","","10","9909","4418","&#9776;","elianto","#3366ff99"," "," ","1","+10","[1450.2999999998137]","1","0","1","","","","","","","",""
"call-function","35","429954","0.0-2.0-9.0","battery-v0.2","","""event"",""trial"",""time""
""fullscreenenter"",""1"",""3059""
","
","
","""event"",""trial"",""time""
""fullscreenenter"",""1"",""3059""
","
","","","","","","","","","","","","","","","","","","","","","","","","","","",""
"pit-instructions","36","483770","0.0-2.0-10.0","battery-v0.2","","""event"",""trial"",""time""
""fullscreenenter"",""1"",""3059""
","
","
","""event"",""trial"",""time""
""fullscreenenter"",""1"",""3059""
","
","","[{""page_index"":0,""viewing_time"":9397.5},{""page_index"":1,""viewing_time"":9303.399999999907},{""page_index"":2,""viewing_time"":15116.100000000093},{""page_index"":3,""viewing_time"":10729.300000000047},{""page_index"":4,""viewing_time"":9268.300000000047}]","53815.19999999995","","","","","","","","","","","","","","","","","","","","","","","",""
"pit-trial","37","488633","0.0-2.0-11.0-0.0","battery-v0.2","","""event"",""trial"",""time""
""fullscreenenter"",""1"",""3059""
","
","
","""event"",""trial"",""time""
""fullscreenenter"",""1"",""3059""
","
","","","-1","","","10","9909","4418","&#9761;","elianto","#3366ff99","-1","-1","1","+10","[]","0","0","2","","","","","","","",""
"pit-trial","38","493497","0.0-2.0-11.0-1.0","battery-v0.2","","""event"",""trial"",""time""
""fullscreenenter"",""1"",""3059""
","
","
","""event"",""trial"",""time""
""fullscreenenter"",""1"",""3059""
","
","","","-1","","","10","9909","4418","&#9761;","elianto","#3366ff99","-1","-1","1","+10","[]","0","0","2","","","","","","","",""
"pit-trial","39","498361","0.0-2.0-11.0-2.0","battery-v0.2","","""event"",""trial"",""time""
""fullscreenenter"",""1"",""3059""
","
","
","""event"",""trial"",""time""
""fullscreenenter"",""1"",""3059""
","
","","","-1","","","10","9909","4418","&#9761;","elianto","#3366ff99","-1","-1","1","+10","[]","0","0","2","","","","","","","",""
"pit-trial","40","501793","0.0-2.0-11.0-3.0","battery-v0.2","","""event"",""trial"",""time""
""fullscreenenter"",""1"",""3059""
","
","
","""event"",""trial"",""time""
""fullscreenenter"",""1"",""3059""
","
","","","570.3000000000466","","","10","9909","4418","&#9761;","elianto","#3366ff99","-1"," ","0","+10","[1422.8000000000466]","1","0","2","","","","","","","",""
"pit-trial","41","504736","0.0-2.0-11.0-4.0","battery-v0.2","","""event"",""trial"",""time""
""fullscreenenter"",""1"",""3059""
","
","
","""event"",""trial"",""time""
""fullscreenenter"",""1"",""3059""
","
","","","81.5","","","10","9909","4418","&#9761;","elianto","#3366ff99","-1"," ","0","0","[934.0999999998603]","1","0","2","","","","","","","",""
"pit-trial","42","509601","0.0-2.0-11.1-0.1","battery-v0.2","","""event"",""trial"",""time""
""fullscreenenter"",""1"",""3059""
","
","
","""event"",""trial"",""time""
""fullscreenenter"",""1"",""3059""
","
","","","-1","","","10","9909","4418","&#9761;","elianto","#3366ff99","-1","-1","1","+10","[]","0","0","2","","","","","","","",""
"pit-trial","43","514464","0.0-2.0-11.1-1.1","battery-v0.2","","""event"",""trial"",""time""
""fullscreenenter"",""1"",""3059""
","
","
","""event"",""trial"",""time""
""fullscreenenter"",""1"",""3059""
","
","","","-1","","","10","9909","4418","&#9761;","elianto","#3366ff99","-1","-1","1","+10","[]","0","0","2","","","","","","","",""
"pit-trial","44","519329","0.0-2.0-11.1-2.1","battery-v0.2","","""event"",""trial"",""time""
""fullscreenenter"",""1"",""3059""
","
","
","""event"",""trial"",""time""
""fullscreenenter"",""1"",""3059""
","
","","","-1","","","10","9909","4418","&#9761;","elianto","#3366ff99","-1","-1","1","+10","[3017]","1","0","2","","","","","","","",""
"pit-trial","45","524057","0.0-2.0-11.1-3.1","battery-v0.2","","""event"",""trial"",""time""
""fullscreenenter"",""1"",""3059""
","
","
","""event"",""trial"",""time""
""fullscreenenter"",""1"",""3059""
","
","","","1870.3000000000466","","","10","9909","4418","&#9761;","elianto","#3366ff99","-1"," ","0","+10","[2723.7999999998137]","1","0","2","","","","","","","",""
"pit-trial","46","527329","0.0-2.0-11.1-4.1","battery-v0.2","","""event"",""trial"",""time""
""fullscreenenter"",""1"",""3059""
","
","
","""event"",""trial"",""time""
""fullscreenenter"",""1"",""3059""
","
","","","415","","","10","9909","4418","&#9761;","elianto","#3366ff99","-1"," ","0","0","[1268.5]","1","0","2","","","","","","","",""
"pit-trial","47","530344","0.0-2.0-11.2-0.2","battery-v0.2","","""event"",""trial"",""time""
""fullscreenenter"",""1"",""3059""
","
","
","""event"",""trial"",""time""
""fullscreenenter"",""1"",""3059""
","
","","","157.5","","","10","9909","4418","&#9761;","elianto","#3366ff99","-1"," ","0","0","[1012.1999999999534]","1","0","2","","","","","","","",""
"pit-trial","48","535208","0.0-2.0-11.2-1.2","battery-v0.2","","""event"",""trial"",""time""
""fullscreenenter"",""1"",""3059""
","
","
","""event"",""trial"",""time""
""fullscreenenter"",""1"",""3059""
","
","","","-1","","","10","9909","4418","&#9761;","elianto","#3366ff99","-1","-1","1","+10","[]","0","0","2","","","","","","","",""
"pit-trial","49","538496","0.0-2.0-11.2-2.2","battery-v0.2","","""event"",""trial"",""time""
""fullscreenenter"",""1"",""3059""
","
","
","""event"",""trial"",""time""
""fullscreenenter"",""1"",""3059""
","
","","","431.5","","","10","9909","4418","&#9761;","elianto","#3366ff99","-1"," ","0","0","[1282.4000000001397]","1","0","2","","","","","","","",""
"pit-trial","50","541513","0.0-2.0-11.2-3.2","battery-v0.2","","""event"",""trial"",""time""
""fullscreenenter"",""1"",""3059""
","
","
","""event"",""trial"",""time""
""fullscreenenter"",""1"",""3059""
","
","","","159.0999999998603","","","10","9909","4418","&#9761;","elianto","#3366ff99","-1"," ","0","+10","[1012.1999999999534]","1","0","2","","","","","","","",""
"pit-trial","51","546376","0.0-2.0-11.2-4.2","battery-v0.2","","""event"",""trial"",""time""
""fullscreenenter"",""1"",""3059""
","
","
","""event"",""trial"",""time""
""fullscreenenter"",""1"",""3059""
","
","","","-1","","","10","9909","4418","&#9761;","elianto","#3366ff99","-1","-1","1","+10","[]","0","0","2","","","","","","","",""
"pit-trial","52","551241","0.0-2.0-11.3-0.3","battery-v0.2","","""event"",""trial"",""time""
""fullscreenenter"",""1"",""3059""
","
","
","""event"",""trial"",""time""
""fullscreenenter"",""1"",""3059""
","
","","","-1","","","10","9909","4418","&#9761;","elianto","#3366ff99","-1","-1","1","+10","[]","0","0","2","","","","","","","",""
"pit-trial","53","556104","0.0-2.0-11.3-1.3","battery-v0.2","","""event"",""trial"",""time""
""fullscreenenter"",""1"",""3059""
","
","
","""event"",""trial"",""time""
""fullscreenenter"",""1"",""3059""
","
","","","-1","","","10","9909","4418","&#9761;","elianto","#3366ff99","-1","-1","1","+10","[]","0","0","2","","","","","","","",""
"pit-trial","54","560968","0.0-2.0-11.3-2.3","battery-v0.2","","""event"",""trial"",""time""
""fullscreenenter"",""1"",""3059""
","
","
","""event"",""trial"",""time""
""fullscreenenter"",""1"",""3059""
","
","","","-1","","","10","9909","4418","&#9761;","elianto","#3366ff99","-1","-1","1","+10","[]","0","0","2","","","","","","","",""
"pit-trial","55","565833","0.0-2.0-11.3-3.3","battery-v0.2","","""event"",""trial"",""time""
""fullscreenenter"",""1"",""3059""
","
","
","""event"",""trial"",""time""
""fullscreenenter"",""1"",""3059""
","
","","","-1","","","10","9909","4418","&#9761;","elianto","#3366ff99","-1","-1","1","0","[]","0","0","2","","","","","","","",""
"pit-trial","56","570696","0.0-2.0-11.3-4.3","battery-v0.2","","""event"",""trial"",""time""
""fullscreenenter"",""1"",""3059""
","
","
","""event"",""trial"",""time""
""fullscreenenter"",""1"",""3059""
","
","","","-1","","","10","9909","4418","&#9761;","elianto","#3366ff99","-1","-1","1","+10","[]","0","0","2","","","","","","","",""
"call-function","57","570698","0.0-2.0-12.0","battery-v0.2","","""event"",""trial"",""time""
""fullscreenenter"",""1"",""3059""
","
","
","""event"",""trial"",""time""
""fullscreenenter"",""1"",""3059""
","
","","","","","","","","","","","","","","","","","","","","","","","","","","",""
"pit-instructions","58","610321","0.0-2.0-13.0","battery-v0.2","","""event"",""trial"",""time""
""fullscreenenter"",""1"",""3059""
","
","
","""event"",""trial"",""time""
""fullscreenenter"",""1"",""3059""
","
","","[{""page_index"":0,""viewing_time"":5601.300000000047},{""page_index"":1,""viewing_time"":7243.199999999953},{""page_index"":2,""viewing_time"":4322.600000000093},{""page_index"":3,""viewing_time"":15581},{""page_index"":4,""viewing_time"":6873.199999999953}]","39621.80000000005","","","","","","","","","","","","","","","","","","","","","","","",""
"pit-trial","59","613672","0.0-2.0-14.0-0.0","battery-v0.2","","""event"",""trial"",""time""
""fullscreenenter"",""1"",""3059""
","
","
","""event"",""trial"",""time""
""fullscreenenter"",""1"",""3059""
","
","","","495","","","10","9909","4418","&#9826;","elianto","#f73b6a7A","-1"," ","0","-10","[1348]","1","0","3","","","","","","","",""
"pit-trial","60","618537","0.0-2.0-14.0-1.0","battery-v0.2","","""event"",""trial"",""time""
""fullscreenenter"",""1"",""3059""
","
","
","""event"",""trial"",""time""
""fullscreenenter"",""1"",""3059""
","
","","","-1","","","10","9909","4418","&#9826;","elianto","#f73b6a7A","-1","-1","1","0","[]","0","0","3","","","","","","","",""
"pit-trial","61","623401","0.0-2.0-14.0-2.0","battery-v0.2","","""event"",""trial"",""time""
""fullscreenenter"",""1"",""3059""
","
","
","""event"",""trial"",""time""
""fullscreenenter"",""1"",""3059""
","
","","","-1","","","10","9909","4418","&#9826;","elianto","#f73b6a7A","-1","-1","1","0","[]","0","0","3","","","","","","","",""
"pit-trial","62","628265","0.0-2.0-14.0-3.0","battery-v0.2","","""event"",""trial"",""time""
""fullscreenenter"",""1"",""3059""
","
","
","""event"",""trial"",""time""
""fullscreenenter"",""1"",""3059""
","
","","","-1","","","10","9909","4418","&#9826;","elianto","#f73b6a7A","-1","-1","1","-10","[]","0","0","3","","","","","","","",""
"pit-trial","63","633129","0.0-2.0-14.0-4.0","battery-v0.2","","""event"",""trial"",""time""
""fullscreenenter"",""1"",""3059""
","
","
","""event"",""trial"",""time""
""fullscreenenter"",""1"",""3059""
","
","","","-1","","","10","9909","4418","&#9826;","elianto","#f73b6a7A","-1","-1","1","0","[]","0","0","3","","","","","","","",""
"pit-trial","64","637993","0.0-2.0-14.1-0.1","battery-v0.2","","""event"",""trial"",""time""
""fullscreenenter"",""1"",""3059""
","
","
","""event"",""trial"",""time""
""fullscreenenter"",""1"",""3059""
","
","","","-1","","","10","9909","4418","&#9826;","elianto","#f73b6a7A","-1","-1","1","0","[]","0","0","3","","","","","","","",""
"pit-trial","65","642856","0.0-2.0-14.1-1.1","battery-v0.2","","""event"",""trial"",""time""
""fullscreenenter"",""1"",""3059""
","
","
","""event"",""trial"",""time""
""fullscreenenter"",""1"",""3059""
","
","","","-1","","","10","9909","4418","&#9826;","elianto","#f73b6a7A","-1","-1","1","0","[]","0","0","3","","","","","","","",""
"pit-trial","66","647720","0.0-2.0-14.1-2.1","battery-v0.2","","""event"",""trial"",""time""
""fullscreenenter"",""1"",""3059""
","
","
","""event"",""trial"",""time""
""fullscreenenter"",""1"",""3059""
","
","","","-1","","","10","9909","4418","&#9826;","elianto","#f73b6a7A","-1","-1","1","0","[]","0","0","3","","","","","","","",""
"pit-trial","67","652584","0.0-2.0-14.1-3.1","battery-v0.2","","""event"",""trial"",""time""
""fullscreenenter"",""1"",""3059""
","
","
","""event"",""trial"",""time""
""fullscreenenter"",""1"",""3059""
","
","","","-1","","","10","9909","4418","&#9826;","elianto","#f73b6a7A","-1","-1","1","-10","[]","0","0","3","","","","","","","",""
"pit-trial","68","657448","0.0-2.0-14.1-4.1","battery-v0.2","","""event"",""trial"",""time""
""fullscreenenter"",""1"",""3059""
","
","
","""event"",""trial"",""time""
""fullscreenenter"",""1"",""3059""
","
","","","-1","","","10","9909","4418","&#9826;","elianto","#f73b6a7A","-1","-1","1","0","[]","0","0","3","","","","","","","",""
"pit-trial","69","662312","0.0-2.0-14.2-0.2","battery-v0.2","","""event"",""trial"",""time""
""fullscreenenter"",""1"",""3059""
","
","
","""event"",""trial"",""time""
""fullscreenenter"",""1"",""3059""
","
","","","-1","","","10","9909","4418","&#9826;","elianto","#f73b6a7A","-1","-1","1","0","[]","0","0","3","","","","","","","",""
"pit-trial","70","667177","0.0-2.0-14.2-1.2","battery-v0.2","","""event"",""trial"",""time""
""fullscreenenter"",""1"",""3059""
","
","
","""event"",""trial"",""time""
""fullscreenenter"",""1"",""3059""
","
","","","-1","","","10","9909","4418","&#9826;","elianto","#f73b6a7A","-1","-1","1","0","[]","0","0","3","","","","","","","",""
"pit-trial","71","672040","0.0-2.0-14.2-2.2","battery-v0.2","","""event"",""trial"",""time""
""fullscreenenter"",""1"",""3059""
","
","
","""event"",""trial"",""time""
""fullscreenenter"",""1"",""3059""
","
","","","-1","","","10","9909","4418","&#9826;","elianto","#f73b6a7A","-1","-1","1","0","[]","0","0","3","","","","","","","",""
"pit-trial","72","676904","0.0-2.0-14.2-3.2","battery-v0.2","","""event"",""trial"",""time""
""fullscreenenter"",""1"",""3059""
","
","
","""event"",""trial"",""time""
""fullscreenenter"",""1"",""3059""
","
","","","-1","","","10","9909","4418","&#9826;","elianto","#f73b6a7A","-1","-1","1","-10","[3158.8000000000466,4135.899999999907,4466.899999999907,4645.199999999953]","4","0","3","","","","","","","",""
"pit-trial","73","680888","0.0-2.0-14.2-4.2","battery-v0.2","","""event"",""trial"",""time""
""fullscreenenter"",""1"",""3059""
","
","
","""event"",""trial"",""time""
""fullscreenenter"",""1"",""3059""
","
","","","1122.9000000001397","","","10","9909","4418","&#9826;","elianto","#f73b6a7A","-1"," ","0","-10","[1976.6000000000931]","1","0","3","","","","","","","",""
"pit-trial","74","683841","0.0-2.0-14.3-0.3","battery-v0.2","","""event"",""trial"",""time""
""fullscreenenter"",""1"",""3059""
","
","
","""event"",""trial"",""time""
""fullscreenenter"",""1"",""3059""
","
","","","93.5999999998603","","","10","9909","4418","&#9826;","elianto","#f73b6a7A","-1"," ","0","-10","[946.7999999998137]","1","0","3","","","","","","","",""
"pit-trial","75","688705","0.0-2.0-14.3-1.3","battery-v0.2","","""event"",""trial"",""time""
""fullscreenenter"",""1"",""3059""
","
","
","""event"",""trial"",""time""
""fullscreenenter"",""1"",""3059""
","
","","","-1","","","10","9909","4418","&#9826;","elianto","#f73b6a7A","-1","-1","1","0","[]","0","0","3","","","","","","","",""
"pit-trial","76","693569","0.0-2.0-14.3-2.3","battery-v0.2","","""event"",""trial"",""time""
""fullscreenenter"",""1"",""3059""
","
","
","""event"",""trial"",""time""
""fullscreenenter"",""1"",""3059""
","
","","","-1","","","10","9909","4418","&#9826;","elianto","#f73b6a7A","-1","-1","1","0","[]","0","0","3","","","","","","","",""
"pit-trial","77","698432","0.0-2.0-14.3-3.3","battery-v0.2","","""event"",""trial"",""time""
""fullscreenenter"",""1"",""3059""
","
","
","""event"",""trial"",""time""
""fullscreenenter"",""1"",""3059""
","
","","","-1","","","10","9909","4418","&#9826;","elianto","#f73b6a7A","-1","-1","1","-10","[]","0","0","3","","","","","","","",""
"pit-trial","78","703296","0.0-2.0-14.3-4.3","battery-v0.2","","""event"",""trial"",""time""
""fullscreenenter"",""1"",""3059""
","
","
","""event"",""trial"",""time""
""fullscreenenter"",""1"",""3059""
","
","","","-1","","","10","9909","4418","&#9826;","elianto","#f73b6a7A","-1","-1","1","0","[]","0","0","3","","","","","","","",""
"call-function","79","703298","0.0-2.0-15.0","battery-v0.2","","""event"",""trial"",""time""
""fullscreenenter"",""1"",""3059""
","
","
","""event"",""trial"",""time""
""fullscreenenter"",""1"",""3059""
","
","","","","","","","","","","","","","","","","","","","","","","","","","","",""
"pit-instructions","80","731837","0.0-2.0-16.0","battery-v0.2","","""event"",""trial"",""time""
""fullscreenenter"",""1"",""3059""
","
","
","""event"",""trial"",""time""
""fullscreenenter"",""1"",""3059""
","
","","[{""page_index"":0,""viewing_time"":7249.100000000093},{""page_index"":1,""viewing_time"":9408.399999999907},{""page_index"":2,""viewing_time"":4075.3000000000466},{""page_index"":3,""viewing_time"":7804.40000000014}]","28537.700000000186","","","","","","","","","","","","","","","","","","","","","","","",""
"pit-trial","81","735209","0.0-2.0-17.0-0.0","battery-v0.2","","""event"",""trial"",""time""
""fullscreenenter"",""1"",""3059""
","
","
","""event"",""trial"",""time""
""fullscreenenter"",""1"",""3059""
","
","","","505","","","10","9909","4418","&#9789;","elianto","#f73b6a7A"," "," ","1","0","[458.30000000004657,1362.3000000000466]","2","0","4","","","","","","","",""
"pit-trial","82","738321","0.0-2.0-17.0-1.0","battery-v0.2","","""event"",""trial"",""time""
""fullscreenenter"",""1"",""3059""
","
","
","""event"",""trial"",""time""
""fullscreenenter"",""1"",""3059""
","
","","","253.4000000001397","","","10","9909","4418","&#9789;","elianto","#f73b6a7A"," "," ","1","0","[1104.6999999999534]","1","0","4","","","","","","","",""
"pit-trial","83","741728","0.0-2.0-17.0-2.0","battery-v0.2","","""event"",""trial"",""time""
""fullscreenenter"",""1"",""3059""
","
","
","""event"",""trial"",""time""
""fullscreenenter"",""1"",""3059""
","
","","","550.0999999998603","","","10","9909","4418","&#9789;","elianto","#f73b6a7A"," "," ","1","0","[1404.3000000000466]","1","0","4","","","","","","","",""
"pit-trial","84","744896","0.0-2.0-17.0-3.0","battery-v0.2","","""event"",""trial"",""time""
""fullscreenenter"",""1"",""3059""
","
","
","""event"",""trial"",""time""
""fullscreenenter"",""1"",""3059""
","
","","","308.70000000018626","","","10","9909","4418","&#9789;","elianto","#f73b6a7A"," "," ","1","-10","[1162.8000000000466]","1","0","4","","","","","","","",""
"pit-trial","85","749449","0.0-2.0-17.0-4.0","battery-v0.2","","""event"",""trial"",""time""
""fullscreenenter"",""1"",""3059""
","
","
","""event"",""trial"",""time""
""fullscreenenter"",""1"",""3059""
","
","","","1686.7999999998137","","","10","9909","4418","&#9789;","elianto","#f73b6a7A"," "," ","1","0","[2542.4000000001397]","1","0","4","","","","","","","",""
"pit-trial","86","752753","0.0-2.0-17.1-0.1","battery-v0.2","","""event"",""trial"",""time""
""fullscreenenter"",""1"",""3059""
","
","
","""event"",""trial"",""time""
""fullscreenenter"",""1"",""3059""
","
","","","442.60000000009313","","","10","9909","4418","&#9789;","elianto","#f73b6a7A"," "," ","1","0","[1294.8999999999069]","1","0","4","","","","","","","",""
"pit-trial","87","755633","0.0-2.0-17.1-1.1","battery-v0.2","","""event"",""trial"",""time""
""fullscreenenter"",""1"",""3059""
","
","
","""event"",""trial"",""time""
""fullscreenenter"",""1"",""3059""
","
","","","21.699999999953434","","","10","9909","4418","&#9789;","elianto","#f73b6a7A"," "," ","1","0","[875.1000000000931,1214.4000000001397,1676.5,1985.1000000000931,2240,2516.5,2784.9000000001397]","7","0","4","","","","","","","",""
"pit-trial","88","758513","0.0-2.0-17.1-2.1","battery-v0.2","","""event"",""trial"",""time""
""fullscreenenter"",""1"",""3059""
","
","
","""event"",""trial"",""time""
""fullscreenenter"",""1"",""3059""
","
","","","16.100000000093132","","","10","9909","4418","&#9789;","elianto","#f73b6a7A"," "," ","1","0","[213.0999999998603,535.1999999999534,869.3999999999069,1220.5999999998603,1603.8999999999069]","5","0","4","","","","","","","",""
"pit-trial","89","761457","0.0-2.0-17.1-3.1","battery-v0.2","","""event"",""trial"",""time""
""fullscreenenter"",""1"",""3059""
","
","
","""event"",""trial"",""time""
""fullscreenenter"",""1"",""3059""
","
","","","85.89999999990687","","","10","9909","4418","&#9789;","elianto","#f73b6a7A"," "," ","1","-10","[939.3000000000466]","1","0","4","","","","","","","",""
"pit-trial","90","764505","0.0-2.0-17.1-4.1","battery-v0.2","","""event"",""trial"",""time""
""fullscreenenter"",""1"",""3059""
","
","
","""event"",""trial"",""time""
""fullscreenenter"",""1"",""3059""
","
","","","188.5999999998603","","","10","9909","4418","&#9789;","elianto","#f73b6a7A"," "," ","1","0","[1041.9000000001397]","1","0","4","","","","","","","",""
"pit-trial","91","767377","0.0-2.0-17.2-0.2","battery-v0.2","","""event"",""trial"",""time""
""fullscreenenter"",""1"",""3059""
","
","
","""event"",""trial"",""time""
""fullscreenenter"",""1"",""3059""
","
","","","9.400000000139698","","","10","9909","4418","&#9789;","elianto","#f73b6a7A"," "," ","1","0","[862.1000000000931]","1","0","4","","","","","","","",""
"pit-trial","92","770256","0.0-2.0-17.2-1.2","battery-v0.2","","""event"",""trial"",""time""
""fullscreenenter"",""1"",""3059""
","
","
","""event"",""trial"",""time""
""fullscreenenter"",""1"",""3059""
","
","","","17.800000000046566","","","10","9909","4418","&#9789;","elianto","#f73b6a7A"," "," ","1","0","[870.4000000001397]","1","0","4","","","","","","","",""
"pit-trial","93","774024","0.0-2.0-17.2-2.2","battery-v0.2","","""event"",""trial"",""time""
""fullscreenenter"",""1"",""3059""
","
","
","""event"",""trial"",""time""
""fullscreenenter"",""1"",""3059""
","
","","","904.2999999998137","","","10","9909","4418","&#9789;","elianto","#f73b6a7A"," "," ","1","0","[854.7999999998137,1759.2999999998137]","2","0","4","","","","","","","",""
"pit-trial","94","777224","0.0-2.0-17.2-3.2","battery-v0.2","","""event"",""trial"",""time""
""fullscreenenter"",""1"",""3059""
","
","
","""event"",""trial"",""time""
""fullscreenenter"",""1"",""3059""
","
","","","341.60000000009313","","","10","9909","4418","&#9789;","elianto","#f73b6a7A"," "," ","1","-10","[1195.3000000000466]","1","0","4","","","","","","","",""
"pit-trial","95","780209","0.0-2.0-17.2-4.2","battery-v0.2","","""event"",""trial"",""time""
""fullscreenenter"",""1"",""3059""
","
","
","""event"",""trial"",""time""
""fullscreenenter"",""1"",""3059""
","
","","","127.30000000004657","","","10","9909","4418","&#9789;","elianto","#f73b6a7A"," "," ","1","0","[980.8999999999069]","1","0","4","","","","","","","",""
"pit-trial","96","783384","0.0-2.0-17.3-0.3","battery-v0.2","","""event"",""trial"",""time""
""fullscreenenter"",""1"",""3059""
","
","
","""event"",""trial"",""time""
""fullscreenenter"",""1"",""3059""
","
","","","313.4000000001397","","","10","9909","4418","&#9789;","elianto","#f73b6a7A"," "," ","1","0","[1166.4000000001397]","1","0","4","","","","","","","",""
"pit-trial","97","786712","0.0-2.0-17.3-1.3","battery-v0.2","","""event"",""trial"",""time""
""fullscreenenter"",""1"",""3059""
","
","
","""event"",""trial"",""time""
""fullscreenenter"",""1"",""3059""
","
","","","469.9000000001397","","","10","9909","4418","&#9789;","elianto","#f73b6a7A"," "," ","1","0","[1323.7000000001863]","1","0","4","","","","","","","",""
"pit-trial","98","789960","0.0-2.0-17.3-2.3","battery-v0.2","","""event"",""trial"",""time""
""fullscreenenter"",""1"",""3059""
","
","
","""event"",""trial"",""time""
""fullscreenenter"",""1"",""3059""
","
","","","390.60000000009313","","","10","9909","4418","&#9789;","elianto","#f73b6a7A"," "," ","1","0","[1244.1000000000931]","1","0","4","","","","","","","",""
"pit-trial","99","793081","0.0-2.0-17.3-3.3","battery-v0.2","","""event"",""trial"",""time""
""fullscreenenter"",""1"",""3059""
","
","
","""event"",""trial"",""time""
""fullscreenenter"",""1"",""3059""
","
","","","261.0999999998603","","","10","9909","4418","&#9789;","elianto","#f73b6a7A"," "," ","1","-10","[1114.9000000001397]","1","0","4","","","","","","","",""
"pit-trial","100","796176","0.0-2.0-17.3-4.3","battery-v0.2","","""event"",""trial"",""time""
""fullscreenenter"",""1"",""3059""
","
","
","""event"",""trial"",""time""
""fullscreenenter"",""1"",""3059""
","
","","","238.5999999998603","","","10","9909","4418","&#9789;","elianto","#f73b6a7A"," "," ","1","0","[1091.9000000001397]","1","0","4","","","","","","","",""
"call-function","101","796178","0.0-2.0-18.0","battery-v0.2","","""event"",""trial"",""time""
""fullscreenenter"",""1"",""3059""
","
","
","""event"",""trial"",""time""
""fullscreenenter"",""1"",""3059""
","
","","","","","","","","","","","","","","","","","","","","","","","","","","",""
"pit-instructions","102","895277","0.0-2.0-19.0","battery-v0.2","","""event"",""trial"",""time""
""fullscreenenter"",""1"",""3059""
","
","
","""event"",""trial"",""time""
""fullscreenenter"",""1"",""3059""
","
","","[{""page_index"":0,""viewing_time"":16230.5},{""page_index"":1,""viewing_time"":6089.100000000093},{""page_index"":2,""viewing_time"":17014.800000000047},{""page_index"":3,""viewing_time"":7736.199999999953},{""page_index"":4,""viewing_time"":9167.800000000047},{""page_index"":5,""viewing_time"":9423.800000000047},{""page_index"":6,""viewing_time"":18387.09999999986},{""page_index"":7,""viewing_time"":7803.199999999953},{""page_index"":8,""viewing_time"":7244.5}]","99097.5","","","","","","","","","","","","","","","","","","","","","","","",""
"pit-comprehension","103","917144","0.0-2.0-20.0-0.0","battery-v0.2","","""event"",""trial"",""time""
""fullscreenenter"",""1"",""3059""
","
","
","""event"",""trial"",""time""
""fullscreenenter"",""1"",""3059""
","
","","","21862.09999999986","[""SPACE""]","0","10","9909","4418","","","","","","","","","","","","","","","","","","",""
"pit-instructions","104","920604","0.0-2.0-20.0-1.0","battery-v0.2","","""event"",""trial"",""time""
""fullscreenenter"",""1"",""3059""
","
","
","""event"",""trial"",""time""
""fullscreenenter"",""1"",""3059""
","
","","[{""page_index"":0,""viewing_time"":3420}]","3420.5999999998603","","","","","","","","","","","","","","","","","","","","","","","",""
"pit-comprehension","105","926154","0.0-2.0-21.0-0.0","battery-v0.2","","""event"",""trial"",""time""
""fullscreenenter"",""1"",""3059""
","
","
","""event"",""trial"",""time""
""fullscreenenter"",""1"",""3059""
","
","","","5543.600000000093","[""10""]","0","10","9909","4418","","","","","","","","","","","","","","","","","","",""
"pit-instructions","106","933962","0.0-2.0-21.0-1.0","battery-v0.2","","""event"",""trial"",""time""
""fullscreenenter"",""1"",""3059""
","
","
","""event"",""trial"",""time""
""fullscreenenter"",""1"",""3059""
","
","","[{""page_index"":0,""viewing_time"":7766.90000000014}]","7767.700000000186","","","","","","","","","","","","","","","","","","","","","","","",""
"pit-comprehension","107","940962","0.0-2.0-22.0-0.0","battery-v0.2","","""event"",""trial"",""time""
""fullscreenenter"",""1"",""3059""
","
","
","""event"",""trial"",""time""
""fullscreenenter"",""1"",""3059""
","
","","","6991.300000000047","[""0""]","0","10","9909","4418","","","","","","","","","","","","","","","","","","",""
"pit-instructions","108","943552","0.0-2.0-22.0-1.0","battery-v0.2","","""event"",""trial"",""time""
""fullscreenenter"",""1"",""3059""
","
","
","""event"",""trial"",""time""
""fullscreenenter"",""1"",""3059""
","
","","[{""page_index"":0,""viewing_time"":2547.8000000000466}]","2548.5","","","","","","","","","","","","","","","","","","","","","","","",""
"pit-comprehension","109","953309","0.0-2.0-23.0-0.0","battery-v0.2","","""event"",""trial"",""time""
""fullscreenenter"",""1"",""3059""
","
","
","""event"",""trial"",""time""
""fullscreenenter"",""1"",""3059""
","
","","","9749","[""True""]","0","10","9909","4418","","","","","","","","","","","","","","","","","","",""
"pit-instructions","110","955050","0.0-2.0-23.0-1.0","battery-v0.2","","""event"",""trial"",""time""
""fullscreenenter"",""1"",""3059""
","
","
","""event"",""trial"",""time""
""fullscreenenter"",""1"",""3059""
","
","","[{""page_index"":0,""viewing_time"":1700}]","1700.5","","","","","","","","","","","","","","","","","","","","","","","",""
"pit-comprehension","111","962500","0.0-2.0-24.0-0.0","battery-v0.2","","""event"",""trial"",""time""
""fullscreenenter"",""1"",""3059""
","
","
","""event"",""trial"",""time""
""fullscreenenter"",""1"",""3059""
","
","","","7444.59999999986","[""True""]","0","10","9909","4418","","","","","","","","","","","","","","","","","","",""
"pit-instructions","112","965075","0.0-2.0-24.0-1.0","battery-v0.2","","""event"",""trial"",""time""
""fullscreenenter"",""1"",""3059""
","
","
","""event"",""trial"",""time""
""fullscreenenter"",""1"",""3059""
","
","","[{""page_index"":0,""viewing_time"":2533.3000000000466}]","2533.9000000001397","","","","","","","","","","","","","","","","","","","","","","","",""
"pit-comprehension","113","971460","0.0-2.0-25.0-0.0","battery-v0.2","","""event"",""trial"",""time""
""fullscreenenter"",""1"",""3059""
","
","
","""event"",""trial"",""time""
""fullscreenenter"",""1"",""3059""
","
","","","6378.699999999953","[""True""]","0","10","9909","4418","","","","","","","","","","","","","","","","","","",""
"pit-instructions","114","972995","0.0-2.0-25.0-1.0","battery-v0.2","","""event"",""trial"",""time""
""fullscreenenter"",""1"",""3059""
","
","
","""event"",""trial"",""time""
""fullscreenenter"",""1"",""3059""
","
","","[{""page_index"":0,""viewing_time"":1486.8999999999069}]","1487.3000000000466","","","","","","","","","","","","","","","","","","","","","","","",""
"pit-comprehension","115","981837","0.0-2.0-26.0-0.0","battery-v0.2","","""event"",""trial"",""time""
""fullscreenenter"",""1"",""3059""
","
","
","""event"",""trial"",""time""
""fullscreenenter"",""1"",""3059""
","
","","","8837.200000000186","[""False""]","0","10","9909","4418","","","","","","","","","","","","","","","","","","",""
"pit-instructions","116","983391","0.0-2.0-26.0-1.0","battery-v0.2","","""event"",""trial"",""time""
""fullscreenenter"",""1"",""3059""
","
","
","""event"",""trial"",""time""
""fullscreenenter"",""1"",""3059""
","
","","[{""page_index"":0,""viewing_time"":1511.1000000000931}]","1511.8000000000466","","","","","","","","","","","","","","","","","","","","","","","",""
"pit-instructions","117","1001095","0.0-3.0","battery-v0.2","","""event"",""trial"",""time""
""fullscreenenter"",""1"",""3059""
","
","
","""event"",""trial"",""time""
""fullscreenenter"",""1"",""3059""
","
","","[{""page_index"":0,""viewing_time"":4410.800000000047},{""page_index"":1,""viewing_time"":5146.699999999953},{""page_index"":2,""viewing_time"":8142.699999999953}]","17700.699999999953","","","","","","","","","","","","","","","","","","","","","","","",""
"pit-trial","118","1005137","0.0-4.0","battery-v0.2","","""event"",""trial"",""time""
""fullscreenenter"",""1"",""3059""
","
","
","""event"",""trial"",""time""
""fullscreenenter"",""1"",""3059""
","
","","","1183.3000000000466","","","10","9909","4418","&#9733;","elianto","#3366ff99","-1"," ","0","0","[2035.3999999999069]","1","1","","","9909","1","2","2","win","no-go","0"
"pit-trial","119","1010001","0.0-5.0","battery-v0.2","","""event"",""trial"",""time""
""fullscreenenter"",""1"",""3059""
","
","
","""event"",""trial"",""time""
""fullscreenenter"",""1"",""3059""
","
","","","-1","","","10","9909","4418","&#9730;","elianto","#3366ff99"," ","-1","0","0","[]","0","1","","","9909","2","1","1","win","go","0"
"pit-trial","120","1014864","0.0-6.0","battery-v0.2","","""event"",""trial"",""time""
""fullscreenenter"",""1"",""3059""
","
","
","""event"",""trial"",""time""
""fullscreenenter"",""1"",""3059""
","
","","","-1","","","10","9909","4418","&#9752;","elianto","#f73b6a7A"," ","-1","0","0","[]","0","1","","","9909","3","3","3","lose","go","1"
"pit-trial","121","1018929","0.0-7.0","battery-v0.2","","""event"",""trial"",""time""
""fullscreenenter"",""1"",""3059""
","
","
","""event"",""trial"",""time""
""fullscreenenter"",""1"",""3059""
","
","","","1209.6999999999534","","","10","9909","4418","&#9728;","elianto","#f73b6a7A","-1"," ","0","0","[2060]","1","1","","","9909","4","0","4","lose","no-go","1"
"pit-trial","122","1023129","0.0-8.0","battery-v0.2","","""event"",""trial"",""time""
""fullscreenenter"",""1"",""3059""
","
","
","""event"",""trial"",""time""
""fullscreenenter"",""1"",""3059""
","
","","","1340.8000000000466","","","10","9909","4418","&#9730;","elianto","#3366ff99"," "," ","1","+10","[2191.8000000000466]","1","1","","","9909","5","1","1","win","go","0"
"pit-trial","123","1026432","0.0-9.0","battery-v0.2","","""event"",""trial"",""time""
""fullscreenenter"",""1"",""3059""
","
","
","""event"",""trial"",""time""
""fullscreenenter"",""1"",""3059""
","
","","","443.19999999995343","","","10","9909","4418","&#9728;","elianto","#f73b6a7A","-1"," ","0","0","[1296.7999999998137]","1","1","","","9909","6","0","4","lose","no-go","1"
"pit-trial","124","1030209","0.0-10.0","battery-v0.2","","""event"",""trial"",""time""
""fullscreenenter"",""1"",""3059""
","
","
","""event"",""trial"",""time""
""fullscreenenter"",""1"",""3059""
","
","","","916.9000000001397","","","10","9909","4418","&#9733;","elianto","#3366ff99","-1"," ","0","0","[1770.7000000001863]","1","1","","","9909","7","2","2","win","no-go","0"
"pit-trial","125","1035072","0.0-11.0","battery-v0.2","","""event"",""trial"",""time""
""fullscreenenter"",""1"",""3059""
","
","
","""event"",""trial"",""time""
""fullscreenenter"",""1"",""3059""
","
","","","-1","","","10","9909","4418","&#9752;","elianto","#f73b6a7A"," ","-1","0","-10","[]","0","1","","","9909","8","3","3","lose","go","0"
"pit-trial","126","1038888","0.0-12.0","battery-v0.2","","""event"",""trial"",""time""
""fullscreenenter"",""1"",""3059""
","
","
","""event"",""trial"",""time""
""fullscreenenter"",""1"",""3059""
","
","","","953.1999999999534","","","10","9909","4418","&#9730;","elianto","#3366ff99"," "," ","1","+10","[1806.7999999998137]","1","1","","","9909","9","1","1","win","go","0"
"pit-trial","127","1043752","0.0-13.0","battery-v0.2","","""event"",""trial"",""time""
""fullscreenenter"",""1"",""3059""
","
","
","""event"",""trial"",""time""
""fullscreenenter"",""1"",""3059""
","
","","","-1","","","10","9909","4418","&#9728;","elianto","#f73b6a7A","-1","-1","1","-10","[]","0","1","","","9909","10","0","4","lose","no-go","1"
"pit-trial","128","1048616","0.0-14.0","battery-v0.2","","""event"",""trial"",""time""
""fullscreenenter"",""1"",""3059""
","
","
","""event"",""trial"",""time""
""fullscreenenter"",""1"",""3059""
","
","","","-1","","","10","9909","4418","&#9733;","elianto","#3366ff99","-1","-1","1","0","[]","0","1","","","9909","11","2","2","win","no-go","1"
"pit-trial","129","1053481","0.0-15.0","battery-v0.2","","""event"",""trial"",""time""
""fullscreenenter"",""1"",""3059""
","
","
","""event"",""trial"",""time""
""fullscreenenter"",""1"",""3059""
","
","","","-1","","","10","9909","4418","&#9752;","elianto","#f73b6a7A"," ","-1","0","0","[]","0","1","","","9909","12","3","3","lose","go","1"
"pit-trial","130","1058344","0.0-16.0","battery-v0.2","","""event"",""trial"",""time""
""fullscreenenter"",""1"",""3059""
","
","
","""event"",""trial"",""time""
""fullscreenenter"",""1"",""3059""
","
","","","-1","","","10","9909","4418","&#9752;","elianto","#f73b6a7A"," ","-1","0","0","[]","0","1","","","9909","13","3","3","lose","go","1"
"pit-trial","131","1063209","0.0-17.0","battery-v0.2","","""event"",""trial"",""time""
""fullscreenenter"",""1"",""3059""
","
","
","""event"",""trial"",""time""
""fullscreenenter"",""1"",""3059""
","
","","","-1","","","10","9909","4418","&#9733;","elianto","#3366ff99","-1","-1","1","+10","[]","0","1","","","9909","14","2","2","win","no-go","0"
"pit-trial","132","1067465","0.0-18.0","battery-v0.2","","""event"",""trial"",""time""
""fullscreenenter"",""1"",""3059""
","
","
","""event"",""trial"",""time""
""fullscreenenter"",""1"",""3059""
","
","","","1399.1999999999534","","","10","9909","4418","&#9728;","elianto","#f73b6a7A","-1"," ","0","-10","[2252.600000000093]","1","1","","","9909","15","0","4","lose","no-go","0"
"pit-trial","133","1070960","0.0-19.0","battery-v0.2","","""event"",""trial"",""time""
""fullscreenenter"",""1"",""3059""
","
","
","""event"",""trial"",""time""
""fullscreenenter"",""1"",""3059""
","
","","","639.5","","","10","9909","4418","&#9730;","elianto","#3366ff99"," "," ","1","+10","[1490.9000000001397]","1","1","","","9909","16","1","1","win","go","0"
"pit-trial","134","1075825","0.0-20.0","battery-v0.2","","""event"",""trial"",""time""
""fullscreenenter"",""1"",""3059""
","
","
","""event"",""trial"",""time""
""fullscreenenter"",""1"",""3059""
","
","","","-1","","","10","9909","4418","&#9733;","elianto","#3366ff99","-1","-1","1","+10","[]","0","1","","","9909","17","2","2","win","no-go","0"
"pit-trial","135","1080688","0.0-21.0","battery-v0.2","","""event"",""trial"",""time""
""fullscreenenter"",""1"",""3059""
","
","
","""event"",""trial"",""time""
""fullscreenenter"",""1"",""3059""
","
","","","-1","","","10","9909","4418","&#9752;","elianto","#f73b6a7A"," ","-1","0","-10","[]","0","1","","","9909","18","3","3","lose","go","0"
"pit-trial","136","1084376","0.0-22.0","battery-v0.2","","""event"",""trial"",""time""
""fullscreenenter"",""1"",""3059""
","
","
","""event"",""trial"",""time""
""fullscreenenter"",""1"",""3059""
","
","","","825.7999999998137","","","10","9909","4418","&#9730;","elianto","#3366ff99"," "," ","1","+10","[1678.5999999996275]","1","1","","","9909","19","1","1","win","go","0"
"pit-trial","137","1088280","0.0-23.0","battery-v0.2","","""event"",""trial"",""time""
""fullscreenenter"",""1"",""3059""
","
","
","""event"",""trial"",""time""
""fullscreenenter"",""1"",""3059""
","
","","","1041.3999999999069","","","10","9909","4418","&#9728;","elianto","#f73b6a7A","-1"," ","0","-10","[1894.1000000000931]","1","1","","","9909","20","0","4","lose","no-go","0"
"pit-instructions","138","1101333","0.0-24.0","battery-v0.2","","""event"",""trial"",""time""
""fullscreenenter"",""1"",""3059""
","
","
","""event"",""trial"",""time""
""fullscreenenter"",""1"",""3059""
","
","","[{""page_index"":0,""viewing_time"":6021.299999999814},{""page_index"":1,""viewing_time"":7028.700000000186}]","13050.600000000093","","","","","","","","","","","","","","","","","","","","","","","",""
"pit-trial","139","1105008","0.0-25.0","battery-v0.2","","""event"",""trial"",""time""
""fullscreenenter"",""1"",""3059""
","
","
","""event"",""trial"",""time""
""fullscreenenter"",""1"",""3059""
","
","","","813.5999999996275","","","10","9909","4418","j","elianto","#f73b6a7A","-1"," ","0","-10","[1668]","1","2","","","9909","21","0","4","lose","no-go","0"
"pit-trial","140","1109329","0.0-26.0","battery-v0.2","","""event"",""trial"",""time""
""fullscreenenter"",""1"",""3059""
","
","
","""event"",""trial"",""time""
""fullscreenenter"",""1"",""3059""
","
","","","1458.7000000001863","","","10","9909","4418","w","elianto","#f73b6a7A"," "," ","1","-10","[2311.5]","1","2","","","9909","22","3","3","lose","go","1"
"pit-trial","141","1113481","0.0-27.0","battery-v0.2","","""event"",""trial"",""time""
""fullscreenenter"",""1"",""3059""
","
","
","""event"",""trial"",""time""
""fullscreenenter"",""1"",""3059""
","
","","","1288","","","10","9909","4418","d","elianto","#3366ff99"," "," ","1","+10","[2141.4000000003725]","1","2","","","9909","23","1","1","win","go","0"
"pit-trial","142","1117225","0.0-28.0","battery-v0.2","","""event"",""trial"",""time""
""fullscreenenter"",""1"",""3059""
","
","
","""event"",""trial"",""time""
""fullscreenenter"",""1"",""3059""
","
","","","882.2000000001863","","","10","9909","4418","e","elianto","#f73b6a7A","-1"," ","0","-10","[1738.2000000001863]","1","2","","","9909","24","2","4","lose","no-go","0"
"pit-trial","143","1122089","0.0-29.0","battery-v0.2","","""event"",""trial"",""time""
""fullscreenenter"",""1"",""3059""
","
","
","""event"",""trial"",""time""
""fullscreenenter"",""1"",""3059""
","
","","","-1","","","10","9909","4418","j","elianto","#f73b6a7A","-1","-1","1","-10","[4136.899999999907]","1","2","","","9909","25","0","4","lose","no-go","1"
"pit-trial","144","1126953","0.0-30.0","battery-v0.2","","""event"",""trial"",""time""
""fullscreenenter"",""1"",""3059""
","
","
","""event"",""trial"",""time""
""fullscreenenter"",""1"",""3059""
","
","","","-1","","","10","9909","4418","w","elianto","#f73b6a7A"," ","-1","0","-10","[]","0","2","","","9909","26","3","3","lose","go","0"
"pit-trial","145","1131817","0.0-31.0","battery-v0.2","","""event"",""trial"",""time""
""fullscreenenter"",""1"",""3059""
","
","
","""event"",""trial"",""time""
""fullscreenenter"",""1"",""3059""
","
","","","-1","","","10","9909","4418","e","elianto","#f73b6a7A","-1","-1","1","-10","[]","0","2","","","9909","27","2","4","lose","no-go","1"
"pit-trial","146","1135440","0.0-32.0","battery-v0.2","","""event"",""trial"",""time""
""fullscreenenter"",""1"",""3059""
","
","
","""event"",""trial"",""time""
""fullscreenenter"",""1"",""3059""
","
","","","765.8999999999069","","","10","9909","4418","d","elianto","#3366ff99"," "," ","1","+10","[1617.8999999999069]","1","2","","","9909","28","1","1","win","go","0"
"pit-trial","147","1138920","0.0-33.0","battery-v0.2","","""event"",""trial"",""time""
""fullscreenenter"",""1"",""3059""
","
","
","""event"",""trial"",""time""
""fullscreenenter"",""1"",""3059""
","
","","","619.8999999999069","","","10","9909","4418","j","elianto","#f73b6a7A","-1"," ","0","-10","[1473.7000000001863]","1","2","","","9909","29","0","4","lose","no-go","0"
"pit-trial","148","1142144","0.0-34.0","battery-v0.2","","""event"",""trial"",""time""
""fullscreenenter"",""1"",""3059""
","
","
","""event"",""trial"",""time""
""fullscreenenter"",""1"",""3059""
","
","","","361.70000000018626","","","10","9909","4418","w","elianto","#f73b6a7A"," "," ","1","0","[1215.5]","1","2","","","9909","30","3","3","lose","go","0"
"pit-trial","149","1145569","0.0-35.0","battery-v0.2","","""event"",""trial"",""time""
""fullscreenenter"",""1"",""3059""
","
","
","""event"",""trial"",""time""
""fullscreenenter"",""1"",""3059""
","
","","","566.5","","","10","9909","4418","e","elianto","#f73b6a7A","-1"," ","0","-10","[1419.8999999999069]","1","2","","","9909","31","2","4","lose","no-go","0"
"pit-trial","150","1149816","0.0-36.0","battery-v0.2","","""event"",""trial"",""time""
""fullscreenenter"",""1"",""3059""
","
","
","""event"",""trial"",""time""
""fullscreenenter"",""1"",""3059""
","
","","","1391.8999999999069","","","10","9909","4418","d","elianto","#3366ff99"," "," ","1","+10","[2244.2000000001863]","1","2","","","9909","32","1","1","win","go","0"
"pit-trial","151","1153640","0.0-37.0","battery-v0.2","","""event"",""trial"",""time""
""fullscreenenter"",""1"",""3059""
","
","
","""event"",""trial"",""time""
""fullscreenenter"",""1"",""3059""
","
","","","967.2999999998137","","","10","9909","4418","e","elianto","#f73b6a7A","-1"," ","0","-10","[1820.3999999999069]","1","2","","","9909","33","2","4","lose","no-go","0"
"pit-trial","152","1156824","0.0-38.0","battery-v0.2","","""event"",""trial"",""time""
""fullscreenenter"",""1"",""3059""
","
","
","""event"",""trial"",""time""
""fullscreenenter"",""1"",""3059""
","
","","","327.6999999997206","","","10","9909","4418","d","elianto","#3366ff99"," "," ","1","0","[1180.6999999997206]","1","2","","","9909","34","1","1","win","go","1"
"pit-trial","153","1160777","0.0-39.0","battery-v0.2","","""event"",""trial"",""time""
""fullscreenenter"",""1"",""3059""
","
","
","""event"",""trial"",""time""
""fullscreenenter"",""1"",""3059""
","
","","","1088.8000000002794","","","10","9909","4418","j","elianto","#f73b6a7A","-1"," ","0","0","[1942]","1","2","","","9909","35","0","4","lose","no-go","1"
"pit-trial","154","1165641","0.0-40.0","battery-v0.2","","""event"",""trial"",""time""
""fullscreenenter"",""1"",""3059""
","
","
","""event"",""trial"",""time""
""fullscreenenter"",""1"",""3059""
","
","","","-1","","","10","9909","4418","w","elianto","#f73b6a7A"," ","-1","0","-10","[]","0","2","","","9909","36","3","3","lose","go","0"
"pit-trial","155","1170505","0.0-41.0","battery-v0.2","","""event"",""trial"",""time""
""fullscreenenter"",""1"",""3059""
","
","
","""event"",""trial"",""time""
""fullscreenenter"",""1"",""3059""
","
","","","-1","","","10","9909","4418","w","elianto","#f73b6a7A"," ","-1","0","-10","[]","0","2","","","9909","37","3","3","lose","go","0"
"pit-trial","156","1174088","0.0-42.0","battery-v0.2","","""event"",""trial"",""time""
""fullscreenenter"",""1"",""3059""
","
","
","""event"",""trial"",""time""
""fullscreenenter"",""1"",""3059""
","
","","","720.7000000001863","","","10","9909","4418","d","elianto","#3366ff99"," "," ","1","0","[1573.7999999998137]","1","2","","","9909","38","1","1","win","go","1"
"pit-trial","157","1178953","0.0-43.0","battery-v0.2","","""event"",""trial"",""time""
""fullscreenenter"",""1"",""3059""
","
","
","""event"",""trial"",""time""
""fullscreenenter"",""1"",""3059""
","
","","","-1","","","10","9909","4418","e","elianto","#f73b6a7A","-1","-1","1","0","[]","0","2","","","9909","39","2","4","lose","no-go","0"
"pit-trial","158","1182760","0.0-44.0","battery-v0.2","","""event"",""trial"",""time""
""fullscreenenter"",""1"",""3059""
","
","
","""event"",""trial"",""time""
""fullscreenenter"",""1"",""3059""
","
","","","948.8000000002794","","","10","9909","4418","j","elianto","#f73b6a7A","-1"," ","0","-10","[1801.2000000001863]","1","2","","","9909","40","0","4","lose","no-go","0"
"pit-trial","159","1186472","0.0-45.0","battery-v0.2","","""event"",""trial"",""time""
""fullscreenenter"",""1"",""3059""
","
","
","""event"",""trial"",""time""
""fullscreenenter"",""1"",""3059""
","
","","","853","","","10","9909","4418","e","elianto","#f73b6a7A","-1"," ","0","0","[1706.7999999998137]","1","2","","","9909","41","2","4","lose","no-go","1"
"pit-trial","160","1190120","0.0-46.0","battery-v0.2","","""event"",""trial"",""time""
""fullscreenenter"",""1"",""3059""
","
","
","""event"",""trial"",""time""
""fullscreenenter"",""1"",""3059""
","
","","","786.4000000003725","","","10","9909","4418","d","elianto","#3366ff99"," "," ","1","+10","[1639.7000000001863]","1","2","","","9909","42","1","1","win","go","0"
"pit-trial","161","1193752","0.0-47.0","battery-v0.2","","""event"",""trial"",""time""
""fullscreenenter"",""1"",""3059""
","
","
","""event"",""trial"",""time""
""fullscreenenter"",""1"",""3059""
","
","","","771.1999999997206","","","10","9909","4418","j","elianto","#f73b6a7A","-1"," ","0","-10","[1624]","1","2","","","9909","43","0","4","lose","no-go","0"
"pit-trial","162","1198617","0.0-48.0","battery-v0.2","","""event"",""trial"",""time""
""fullscreenenter"",""1"",""3059""
","
","
","""event"",""trial"",""time""
""fullscreenenter"",""1"",""3059""
","
","","","-1","","","10","9909","4418","w","elianto","#f73b6a7A"," ","-1","0","-10","[]","0","2","","","9909","44","3","3","lose","go","0"
"pit-trial","163","1203481","0.0-49.0","battery-v0.2","","""event"",""trial"",""time""
""fullscreenenter"",""1"",""3059""
","
","
","""event"",""trial"",""time""
""fullscreenenter"",""1"",""3059""
","
","","","-1","","","10","9909","4418","w","elianto","#f73b6a7A"," ","-1","0","0","[]","0","2","","","9909","45","3","3","lose","go","1"
"pit-trial","164","1207577","0.0-50.0","battery-v0.2","","""event"",""trial"",""time""
""fullscreenenter"",""1"",""3059""
","
","
","""event"",""trial"",""time""
""fullscreenenter"",""1"",""3059""
","
","","","1235.3000000002794","","","10","9909","4418","s","elianto","#3366ff99","-1"," ","0","0","[2084.7999999998137]","1","2","","","9909","46","4","2","win","no-go","0"
"pit-trial","165","1212441","0.0-51.0","battery-v0.2","","""event"",""trial"",""time""
""fullscreenenter"",""1"",""3059""
","
","
","""event"",""trial"",""time""
""fullscreenenter"",""1"",""3059""
","
","","","-1","","","10","9909","4418","j","elianto","#f73b6a7A","-1","-1","1","0","[]","0","2","","","9909","47","0","4","lose","no-go","0"
"pit-trial","166","1216248","0.0-52.0","battery-v0.2","","""event"",""trial"",""time""
""fullscreenenter"",""1"",""3059""
","
","
","""event"",""trial"",""time""
""fullscreenenter"",""1"",""3059""
","
","","","950.1999999997206","","","10","9909","4418","e","elianto","#f73b6a7A","-1"," ","0","-10","[1803.6999999997206]","1","2","","","9909","48","2","4","lose","no-go","0"
"pit-trial","167","1221113","0.0-53.0","battery-v0.2","","""event"",""trial"",""time""
""fullscreenenter"",""1"",""3059""
","
","
","""event"",""trial"",""time""
""fullscreenenter"",""1"",""3059""
","
","","","-1","","","10","9909","4418","w","elianto","#f73b6a7A"," ","-1","0","0","[2872.2000000001863]","1","2","","","9909","49","3","3","lose","go","1"
"pit-trial","168","1225977","0.0-54.0","battery-v0.2","","""event"",""trial"",""time""
""fullscreenenter"",""1"",""3059""
","
","
","""event"",""trial"",""time""
""fullscreenenter"",""1"",""3059""
","
","","","-1","","","10","9909","4418","s","elianto","#3366ff99","-1","-1","1","0","[]","0","2","","","9909","50","4","2","win","no-go","1"
"pit-trial","169","1229904","0.0-55.0","battery-v0.2","","""event"",""trial"",""time""
""fullscreenenter"",""1"",""3059""
","
","
","""event"",""trial"",""time""
""fullscreenenter"",""1"",""3059""
","
","","","1063.7000000001863","","","10","9909","4418","j","elianto","#f73b6a7A","-1"," ","0","0","[1917]","1","2","","","9909","51","0","4","lose","no-go","1"
"pit-trial","170","1233545","0.0-56.0","battery-v0.2","","""event"",""trial"",""time""
""fullscreenenter"",""1"",""3059""
","
","
","""event"",""trial"",""time""
""fullscreenenter"",""1"",""3059""
","
","","","779.6000000000931","","","10","9909","4418","d","elianto","#3366ff99"," "," ","1","+10","[1630.7999999998137]","1","2","","","9909","52","1","1","win","go","0"
"pit-trial","171","1237552","0.0-57.0","battery-v0.2","","""event"",""trial"",""time""
""fullscreenenter"",""1"",""3059""
","
","
","""event"",""trial"",""time""
""fullscreenenter"",""1"",""3059""
","
","","","1145.5","","","10","9909","4418","s","elianto","#3366ff99","-1"," ","0","+10","[2001.7000000001863]","1","2","","","9909","53","4","2","win","no-go","1"
"pit-trial","172","1241553","0.0-58.0","battery-v0.2","","""event"",""trial"",""time""
""fullscreenenter"",""1"",""3059""
","
","
","""event"",""trial"",""time""
""fullscreenenter"",""1"",""3059""
","
","","","1138.3000000002794","","","10","9909","4418","j","elianto","#f73b6a7A","-1"," ","0","-10","[1992]","1","2","","","9909","54","0","4","lose","no-go","0"
"pit-trial","173","1246417","0.0-59.0","battery-v0.2","","""event"",""trial"",""time""
""fullscreenenter"",""1"",""3059""
","
","
","""event"",""trial"",""time""
""fullscreenenter"",""1"",""3059""
","
","","","-1","","","10","9909","4418","e","elianto","#f73b6a7A","-1","-1","1","0","[3269.899999999907]","1","2","","","9909","55","2","4","lose","no-go","0"
"pit-trial","174","1249904","0.0-60.0","battery-v0.2","","""event"",""trial"",""time""
""fullscreenenter"",""1"",""3059""
","
","
","""event"",""trial"",""time""
""fullscreenenter"",""1"",""3059""
","
","","","629.0999999996275","","","10","9909","4418","d","elianto","#3366ff99"," "," ","1","0","[1481]","1","2","","","9909","56","1","1","win","go","1"
"pit-trial","175","1253377","0.0-61.0","battery-v0.2","","""event"",""trial"",""time""
""fullscreenenter"",""1"",""3059""
","
","
","""event"",""trial"",""time""
""fullscreenenter"",""1"",""3059""
","
","","","611.0999999996275","","","10","9909","4418","d","elianto","#3366ff99"," "," ","1","0","[1464.6999999997206]","1","2","","","9909","57","1","1","win","go","1"
"pit-trial","176","1257049","0.0-62.0","battery-v0.2","","""event"",""trial"",""time""
""fullscreenenter"",""1"",""3059""
","
","
","""event"",""trial"",""time""
""fullscreenenter"",""1"",""3059""
","
","","","806.1000000000931","","","10","9909","4418","j","elianto","#f73b6a7A","-1"," ","0","-10","[1661.1999999997206]","1","2","","","9909","58","0","4","lose","no-go","0"
"pit-trial","177","1261352","0.0-63.0","battery-v0.2","","""event"",""trial"",""time""
""fullscreenenter"",""1"",""3059""
","
","
","""event"",""trial"",""time""
""fullscreenenter"",""1"",""3059""
","
","","","1445.6999999997206","","","10","9909","4418","s","elianto","#3366ff99","-1"," ","0","0","[2299.0999999996275]","1","2","","","9909","59","4","2","win","no-go","0"
"pit-trial","178","1265192","0.0-64.0","battery-v0.2","","""event"",""trial"",""time""
""fullscreenenter"",""1"",""3059""
","
","
","""event"",""trial"",""time""
""fullscreenenter"",""1"",""3059""
","
","","","979.5","","","10","9909","4418","w","elianto","#f73b6a7A"," "," ","1","0","[1832.2999999998137]","1","2","","","9909","60","3","3","lose","go","0"
"pit-trial","179","1268745","0.0-65.0","battery-v0.2","","""event"",""trial"",""time""
""fullscreenenter"",""1"",""3059""
","
","
","""event"",""trial"",""time""
""fullscreenenter"",""1"",""3059""
","
","","","689.3999999999069","","","10","9909","4418","d","elianto","#3366ff99"," "," ","1","+10","[1543.2999999998137]","1","2","","","9909","61","1","1","win","go","0"
"pit-trial","180","1273608","0.0-66.0","battery-v0.2","","""event"",""trial"",""time""
""fullscreenenter"",""1"",""3059""
","
","
","""event"",""trial"",""time""
""fullscreenenter"",""1"",""3059""
","
","","","-1","","","10","9909","4418","w","elianto","#f73b6a7A"," ","-1","0","-10","[]","0","2","","","9909","62","3","3","lose","go","0"
"pit-trial","181","1277560","0.0-67.0","battery-v0.2","","""event"",""trial"",""time""
""fullscreenenter"",""1"",""3059""
","
","
","""event"",""trial"",""time""
""fullscreenenter"",""1"",""3059""
","
","","","1094.2999999998137","","","10","9909","4418","s","elianto","#3366ff99","-1"," ","0","+10","[1946.3999999999069]","1","2","","","9909","63","4","2","win","no-go","1"
"pit-trial","182","1282089","0.0-68.0","battery-v0.2","","""event"",""trial"",""time""
""fullscreenenter"",""1"",""3059""
","
","
","""event"",""trial"",""time""
""fullscreenenter"",""1"",""3059""
","
","","","1670.6000000000931","","","10","9909","4418","e","elianto","#f73b6a7A","-1"," ","0","-10","[2524.1999999997206]","1","2","","","9909","64","2","4","lose","no-go","0"
"pit-trial","183","1285969","0.0-69.0","battery-v0.2","","""event"",""trial"",""time""
""fullscreenenter"",""1"",""3059""
","
","
","""event"",""trial"",""time""
""fullscreenenter"",""1"",""3059""
","
","","","1015.5","","","10","9909","4418","d","elianto","#3366ff99"," "," ","1","+10","[1869]","1","2","","","9909","65","1","1","win","go","0"
"pit-trial","184","1290016","0.0-70.0","battery-v0.2","","""event"",""trial"",""time""
""fullscreenenter"",""1"",""3059""
","
","
","""event"",""trial"",""time""
""fullscreenenter"",""1"",""3059""
","
","","","1185.2999999998137","","","10","9909","4418","s","elianto","#3366ff99","-1"," ","0","+10","[2038.2999999998137]","1","2","","","9909","66","4","2","win","no-go","1"
"pit-trial","185","1293888","0.0-71.0","battery-v0.2","","""event"",""trial"",""time""
""fullscreenenter"",""1"",""3059""
","
","
","""event"",""trial"",""time""
""fullscreenenter"",""1"",""3059""
","
","","","1014.1000000000931","","","10","9909","4418","e","elianto","#f73b6a7A","-1"," ","0","0","[1868]","1","2","","","9909","67","2","4","lose","no-go","1"
"pit-trial","186","1298753","0.0-72.0","battery-v0.2","","""event"",""trial"",""time""
""fullscreenenter"",""1"",""3059""
","
","
","""event"",""trial"",""time""
""fullscreenenter"",""1"",""3059""
","
","","","-1","","","10","9909","4418","w","elianto","#f73b6a7A"," ","-1","0","-10","[]","0","2","","","9909","68","3","3","lose","go","0"
"pit-trial","187","1303617","0.0-73.0","battery-v0.2","","""event"",""trial"",""time""
""fullscreenenter"",""1"",""3059""
","
","
","""event"",""trial"",""time""
""fullscreenenter"",""1"",""3059""
","
","","","-1","","","10","9909","4418","s","elianto","#3366ff99","-1","-1","1","+10","[]","0","2","","","9909","69","4","2","win","no-go","0"
"pit-trial","188","1307008","0.0-74.0","battery-v0.2","","""event"",""trial"",""time""
""fullscreenenter"",""1"",""3059""
","
","
","""event"",""trial"",""time""
""fullscreenenter"",""1"",""3059""
","
","","","529","","","10","9909","4418","p","elianto","#3366ff99"," "," ","1","+10","[1382.5]","1","2","","","9909","70","5","1","win","go","0"
"pit-trial","189","1310640","0.0-75.0","battery-v0.2","","""event"",""trial"",""time""
""fullscreenenter"",""1"",""3059""
","
","
","""event"",""trial"",""time""
""fullscreenenter"",""1"",""3059""
","
","","","772.1000000000931","","","10","9909","4418","w","elianto","#f73b6a7A"," "," ","1","0","[1624.7999999998137]","1","2","","","9909","71","3","3","lose","go","0"
"pit-trial","190","1315505","0.0-76.0","battery-v0.2","","""event"",""trial"",""time""
""fullscreenenter"",""1"",""3059""
","
","
","""event"",""trial"",""time""
""fullscreenenter"",""1"",""3059""
","
","","","-1","","","10","9909","4418","d","elianto","#3366ff99"," ","-1","0","0","[]","0","2","","","9909","72","1","1","win","go","0"
"pit-trial","191","1318896","0.0-77.0","battery-v0.2","","""event"",""trial"",""time""
""fullscreenenter"",""1"",""3059""
","
","
","""event"",""trial"",""time""
""fullscreenenter"",""1"",""3059""
","
","","","531.7000000001863","","","10","9909","4418","p","elianto","#3366ff99"," "," ","1","0","[1385.2999999998137]","1","2","","","9909","73","5","1","win","go","1"
"pit-trial","192","1322200","0.0-78.0","battery-v0.2","","""event"",""trial"",""time""
""fullscreenenter"",""1"",""3059""
","
","
","""event"",""trial"",""time""
""fullscreenenter"",""1"",""3059""
","
","","","440.39999999990687","","","10","9909","4418","d","elianto","#3366ff99"," "," ","1","+10","[1293.2999999998137]","1","2","","","9909","74","1","1","win","go","0"
"pit-trial","193","1325953","0.0-79.0","battery-v0.2","","""event"",""trial"",""time""
""fullscreenenter"",""1"",""3059""
","
","
","""event"",""trial"",""time""
""fullscreenenter"",""1"",""3059""
","
","","","893.7999999998137","","","10","9909","4418","s","elianto","#3366ff99","-1"," ","0","0","[1747.3999999999069]","1","2","","","9909","75","4","2","win","no-go","0"
"pit-trial","194","1330817","0.0-80.0","battery-v0.2","","""event"",""trial"",""time""
""fullscreenenter"",""1"",""3059""
","
","
","""event"",""trial"",""time""
""fullscreenenter"",""1"",""3059""
","
","","","-1","","","10","9909","4418","w","elianto","#f73b6a7A"," ","-1","0","-10","[]","0","2","","","9909","76","3","3","lose","go","0"
"pit-trial","195","1334305","0.0-81.0","battery-v0.2","","""event"",""trial"",""time""
""fullscreenenter"",""1"",""3059""
","
","
","""event"",""trial"",""time""
""fullscreenenter"",""1"",""3059""
","
","","","628.8000000002794","","","10","9909","4418","s","elianto","#3366ff99","-1"," ","0","+10","[1480.3999999999069]","1","2","","","9909","77","4","2","win","no-go","1"
"pit-trial","196","1338153","0.0-82.0","battery-v0.2","","""event"",""trial"",""time""
""fullscreenenter"",""1"",""3059""
","
","
","""event"",""trial"",""time""
""fullscreenenter"",""1"",""3059""
","
","","","984.3999999999069","","","10","9909","4418","g","elianto","#f73b6a7A","-1"," ","0","-10","[1837.8000000002794]","1","2","","","9909","78","6","4","lose","no-go","0"
"pit-trial","197","1341761","0.0-83.0","battery-v0.2","","""event"",""trial"",""time""
""fullscreenenter"",""1"",""3059""
","
","
","""event"",""trial"",""time""
""fullscreenenter"",""1"",""3059""
","
","","","746.7999999998137","","","10","9909","4418","p","elianto","#3366ff99"," "," ","1","0","[1600.2000000001863]","1","2","","","9909","79","5","1","win","go","1"
"pit-trial","198","1345384","0.0-84.0","battery-v0.2","","""event"",""trial"",""time""
""fullscreenenter"",""1"",""3059""
","
","
","""event"",""trial"",""time""
""fullscreenenter"",""1"",""3059""
","
","","","764.1999999997206","","","10","9909","4418","w","elianto","#f73b6a7A"," "," ","1","-10","[1617.6000000000931]","1","2","","","9909","80","3","3","lose","go","1"
"pit-trial","199","1349176","0.0-85.0","battery-v0.2","","""event"",""trial"",""time""
""fullscreenenter"",""1"",""3059""
","
","
","""event"",""trial"",""time""
""fullscreenenter"",""1"",""3059""
","
","","","932","","","10","9909","4418","a","elianto","#f73b6a7A"," "," ","1","0","[1784.5]","1","2","","","9909","81","7","3","lose","go","0"
"pit-trial","200","1353088","0.0-86.0","battery-v0.2","","""event"",""trial"",""time""
""fullscreenenter"",""1"",""3059""
","
","
","""event"",""trial"",""time""
""fullscreenenter"",""1"",""3059""
","
","","","1050.6000000000931","","","10","9909","4418","g","elianto","#f73b6a7A","-1"," ","0","0","[1904.5]","1","2","","","9909","82","6","4","lose","no-go","1"
"pit-trial","201","1356632","0.0-87.0","battery-v0.2","","""event"",""trial"",""time""
""fullscreenenter"",""1"",""3059""
","
","
","""event"",""trial"",""time""
""fullscreenenter"",""1"",""3059""
","
","","","686.1999999997206","","","10","9909","4418","p","elianto","#3366ff99"," "," ","1","+10","[1539.8999999999069]","1","2","","","9909","83","5","1","win","go","0"
"pit-trial","202","1360536","0.0-88.0","battery-v0.2","","""event"",""trial"",""time""
""fullscreenenter"",""1"",""3059""
","
","
","""event"",""trial"",""time""
""fullscreenenter"",""1"",""3059""
","
","","","1046.3999999999069","","","10","9909","4418","s","elianto","#3366ff99","-1"," ","0","0","[1899.8999999999069]","1","2","","","9909","84","4","2","win","no-go","0"
"pit-trial","203","1364105","0.0-89.0","battery-v0.2","","""event"",""trial"",""time""
""fullscreenenter"",""1"",""3059""
","
","
","""event"",""trial"",""time""
""fullscreenenter"",""1"",""3059""
","
","","","710.6000000000931","","","10","9909","4418","g","elianto","#f73b6a7A","-1"," ","0","-10","[1562.6999999997206]","1","2","","","9909","85","6","4","lose","no-go","0"
"pit-trial","204","1368968","0.0-90.0","battery-v0.2","","""event"",""trial"",""time""
""fullscreenenter"",""1"",""3059""
","
","
","""event"",""trial"",""time""
""fullscreenenter"",""1"",""3059""
","
","","","-1","","","10","9909","4418","a","elianto","#f73b6a7A"," ","-1","0","-10","[]","0","2","","","9909","86","7","3","lose","go","0"
"pit-trial","205","1373312","0.0-91.0","battery-v0.2","","""event"",""trial"",""time""
""fullscreenenter"",""1"",""3059""
","
","
","""event"",""trial"",""time""
""fullscreenenter"",""1"",""3059""
","
","","","1484.8000000002794","","","10","9909","4418","p","elianto","#3366ff99"," "," ","1","+10","[2337.5]","1","2","","","9909","87","5","1","win","go","0"
"pit-trial","206","1378176","0.0-92.0","battery-v0.2","","""event"",""trial"",""time""
""fullscreenenter"",""1"",""3059""
","
","
","""event"",""trial"",""time""
""fullscreenenter"",""1"",""3059""
","
","","","-1","","","10","9909","4418","s","elianto","#3366ff99","-1","-1","1","+10","[3144.2000000001863]","1","2","","","9909","88","4","2","win","no-go","0"
"pit-trial","207","1383041","0.0-93.0","battery-v0.2","","""event"",""trial"",""time""
""fullscreenenter"",""1"",""3059""
","
","
","""event"",""trial"",""time""
""fullscreenenter"",""1"",""3059""
","
","","","-1","","","10","9909","4418","a","elianto","#f73b6a7A"," ","-1","0","-10","[]","0","2","","","9909","89","7","3","lose","go","0"
"pit-trial","208","1387905","0.0-94.0","battery-v0.2","","""event"",""trial"",""time""
""fullscreenenter"",""1"",""3059""
","
","
","""event"",""trial"",""time""
""fullscreenenter"",""1"",""3059""
","
","","","-1","","","10","9909","4418","s","elianto","#3366ff99","-1","-1","1","0","[]","0","2","","","9909","90","4","2","win","no-go","1"
"pit-trial","209","1392768","0.0-95.0","battery-v0.2","","""event"",""trial"",""time""
""fullscreenenter"",""1"",""3059""
","
","
","""event"",""trial"",""time""
""fullscreenenter"",""1"",""3059""
","
","","","-1","","","10","9909","4418","g","elianto","#f73b6a7A","-1","-1","1","0","[]","0","2","","","9909","91","6","4","lose","no-go","0"
"pit-trial","210","1396729","0.0-96.0","battery-v0.2","","""event"",""trial"",""time""
""fullscreenenter"",""1"",""3059""
","
","
","""event"",""trial"",""time""
""fullscreenenter"",""1"",""3059""
","
","","","1099.2999999998137","","","10","9909","4418","p","elianto","#3366ff99"," "," ","1","+10","[1953.1999999997206]","1","2","","","9909","92","5","1","win","go","0"
"pit-trial","211","1401408","0.0-97.0","battery-v0.2","","""event"",""trial"",""time""
""fullscreenenter"",""1"",""3059""
","
","
","""event"",""trial"",""time""
""fullscreenenter"",""1"",""3059""
","
","","","1820.6000000000931","","","10","9909","4418","g","elianto","#f73b6a7A","-1"," ","0","-10","[2674.100000000093]","1","2","","","9909","93","6","4","lose","no-go","0"
"pit-trial","212","1405088","0.0-98.0","battery-v0.2","","""event"",""trial"",""time""
""fullscreenenter"",""1"",""3059""
","
","
","""event"",""trial"",""time""
""fullscreenenter"",""1"",""3059""
","
","","","821.7000000001863","","","10","9909","4418","l","elianto","#3366ff99","-1"," ","0","0","[1675.2000000001863]","1","2","","","9909","94","8","2","win","no-go","0"
"pit-trial","213","1408969","0.0-99.0","battery-v0.2","","""event"",""trial"",""time""
""fullscreenenter"",""1"",""3059""
","
","
","""event"",""trial"",""time""
""fullscreenenter"",""1"",""3059""
","
","","","1018","","","10","9909","4418","p","elianto","#3366ff99"," "," ","1","+10","[1871.6999999997206]","1","2","","","9909","95","5","1","win","go","0"
"pit-trial","214","1412761","0.0-100.0","battery-v0.2","","""event"",""trial"",""time""
""fullscreenenter"",""1"",""3059""
","
","
","""event"",""trial"",""time""
""fullscreenenter"",""1"",""3059""
","
","","","927.6999999997206","","","10","9909","4418","a","elianto","#f73b6a7A"," "," ","1","0","[1781.1000000000931]","1","2","","","9909","96","7","3","lose","go","0"
"pit-trial","215","1416984","0.0-101.0","battery-v0.2","","""event"",""trial"",""time""
""fullscreenenter"",""1"",""3059""
","
","
","""event"",""trial"",""time""
""fullscreenenter"",""1"",""3059""
","
","","","1362.4000000003725","","","10","9909","4418","g","elianto","#f73b6a7A","-1"," ","0","-10","[2215.8000000002794]","1","2","","","9909","97","6","4","lose","no-go","0"
"pit-trial","216","1421392","0.0-102.0","battery-v0.2","","""event"",""trial"",""time""
""fullscreenenter"",""1"",""3059""
","
","
","""event"",""trial"",""time""
""fullscreenenter"",""1"",""3059""
","
","","","1552.7999999998137","","","10","9909","4418","l","elianto","#3366ff99","-1"," ","0","+10","[2404.0999999996275]","1","2","","","9909","98","8","2","win","no-go","1"
"pit-trial","217","1425001","0.0-103.0","battery-v0.2","","""event"",""trial"",""time""
""fullscreenenter"",""1"",""3059""
","
","
","""event"",""trial"",""time""
""fullscreenenter"",""1"",""3059""
","
","","","746.1999999997206","","","10","9909","4418","p","elianto","#3366ff99"," "," ","1","+10","[1598.6000000000931]","1","2","","","9909","99","5","1","win","go","0"
"pit-trial","218","1428448","0.0-104.0","battery-v0.2","","""event"",""trial"",""time""
""fullscreenenter"",""1"",""3059""
","
","
","""event"",""trial"",""time""
""fullscreenenter"",""1"",""3059""
","
","","","588.1000000000931","","","10","9909","4418","a","elianto","#f73b6a7A"," "," ","1","0","[1440.6000000000931]","1","2","","","9909","100","7","3","lose","go","0"
"pit-trial","219","1432360","0.0-105.0","battery-v0.2","","""event"",""trial"",""time""
""fullscreenenter"",""1"",""3059""
","
","
","""event"",""trial"",""time""
""fullscreenenter"",""1"",""3059""
","
","","","1049.3999999999069","","","10","9909","4418","u","elianto","#3366ff99","-1"," ","0","0","[1902.8000000002794]","1","2","","","9909","101","9","2","win","no-go","0"
"pit-trial","220","1435977","0.0-106.0","battery-v0.2","","""event"",""trial"",""time""
""fullscreenenter"",""1"",""3059""
","
","
","""event"",""trial"",""time""
""fullscreenenter"",""1"",""3059""
","
","","","754.7000000001863","","","10","9909","4418","g","elianto","#f73b6a7A","-1"," ","0","-10","[1608.7000000001863]","1","2","","","9909","102","6","4","lose","no-go","0"
"pit-trial","221","1439625","0.0-107.0","battery-v0.2","","""event"",""trial"",""time""
""fullscreenenter"",""1"",""3059""
","
","
","""event"",""trial"",""time""
""fullscreenenter"",""1"",""3059""
","
","","","785.6999999997206","","","10","9909","4418","p","elianto","#3366ff99"," "," ","1","+10","[1639.1000000000931]","1","2","","","9909","103","5","1","win","go","0"
"pit-trial","222","1443961","0.0-108.0","battery-v0.2","","""event"",""trial"",""time""
""fullscreenenter"",""1"",""3059""
","
","
","""event"",""trial"",""time""
""fullscreenenter"",""1"",""3059""
","
","","","1472.2000000001863","","","10","9909","4418","l","elianto","#3366ff99","-1"," ","0","0","[2326.600000000093]","1","2","","","9909","104","8","2","win","no-go","0"
"pit-trial","223","1447705","0.0-109.0","battery-v0.2","","""event"",""trial"",""time""
""fullscreenenter"",""1"",""3059""
","
","
","""event"",""trial"",""time""
""fullscreenenter"",""1"",""3059""
","
","","","887.1999999997206","","","10","9909","4418","l","elianto","#3366ff99","-1"," ","0","0","[1740.6000000000931]","1","2","","","9909","105","8","2","win","no-go","0"
"pit-trial","224","1452569","0.0-110.0","battery-v0.2","","""event"",""trial"",""time""
""fullscreenenter"",""1"",""3059""
","
","
","""event"",""trial"",""time""
""fullscreenenter"",""1"",""3059""
","
","","","-1","","","10","9909","4418","g","elianto","#f73b6a7A","-1","-1","1","0","[]","0","2","","","9909","106","6","4","lose","no-go","0"
"pit-trial","225","1457432","0.0-111.0","battery-v0.2","","""event"",""trial"",""time""
""fullscreenenter"",""1"",""3059""
","
","
","""event"",""trial"",""time""
""fullscreenenter"",""1"",""3059""
","
","","","-1","","","10","9909","4418","u","elianto","#3366ff99","-1","-1","1","+10","[]","0","2","","","9909","107","9","2","win","no-go","0"
"pit-trial","226","1461096","0.0-112.0","battery-v0.2","","""event"",""trial"",""time""
""fullscreenenter"",""1"",""3059""
","
","
","""event"",""trial"",""time""
""fullscreenenter"",""1"",""3059""
","
","","","805.5","","","10","9909","4418","p","elianto","#3366ff99"," "," ","1","+10","[1657.6999999997206]","1","2","","","9909","108","5","1","win","go","0"
"pit-trial","227","1465960","0.0-113.0","battery-v0.2","","""event"",""trial"",""time""
""fullscreenenter"",""1"",""3059""
","
","
","""event"",""trial"",""time""
""fullscreenenter"",""1"",""3059""
","
","","","-1","","","10","9909","4418","g","elianto","#f73b6a7A","-1","-1","1","0","[]","0","2","","","9909","109","6","4","lose","no-go","0"
"pit-trial","228","1469424","0.0-114.0","battery-v0.2","","""event"",""trial"",""time""
""fullscreenenter"",""1"",""3059""
","
","
","""event"",""trial"",""time""
""fullscreenenter"",""1"",""3059""
","
","","","607.3000000002794","","","10","9909","4418","p","elianto","#3366ff99"," "," ","1","+10","[1461]","1","2","","","9909","110","5","1","win","go","0"
"pit-trial","229","1473216","0.0-115.0","battery-v0.2","","""event"",""trial"",""time""
""fullscreenenter"",""1"",""3059""
","
","
","""event"",""trial"",""time""
""fullscreenenter"",""1"",""3059""
","
","","","928.1000000000931","","","10","9909","4418","l","elianto","#3366ff99","-1"," ","0","0","[1781.6999999997206]","1","2","","","9909","111","8","2","win","no-go","0"
"pit-trial","230","1478080","0.0-116.0","battery-v0.2","","""event"",""trial"",""time""
""fullscreenenter"",""1"",""3059""
","
","
","""event"",""trial"",""time""
""fullscreenenter"",""1"",""3059""
","
","","","-1","","","10","9909","4418","u","elianto","#3366ff99","-1","-1","1","+10","[]","0","2","","","9909","112","9","2","win","no-go","0"
"pit-trial","231","1481728","0.0-117.0","battery-v0.2","","""event"",""trial"",""time""
""fullscreenenter"",""1"",""3059""
","
","
","""event"",""trial"",""time""
""fullscreenenter"",""1"",""3059""
","
","","","790.1999999997206","","","10","9909","4418","a","elianto","#f73b6a7A"," "," ","1","0","[1643.6999999997206]","1","2","","","9909","113","7","3","lose","go","0"
"pit-trial","232","1486272","0.0-118.0","battery-v0.2","","""event"",""trial"",""time""
""fullscreenenter"",""1"",""3059""
","
","
","""event"",""trial"",""time""
""fullscreenenter"",""1"",""3059""
","
","","","1680.5","","","10","9909","4418","l","elianto","#3366ff99","-1"," ","0","0","[2533.100000000093]","1","2","","","9909","114","8","2","win","no-go","0"
"pit-trial","233","1490001","0.0-119.0","battery-v0.2","","""event"",""trial"",""time""
""fullscreenenter"",""1"",""3059""
","
","
","""event"",""trial"",""time""
""fullscreenenter"",""1"",""3059""
","
","","","870.6000000000931","","","10","9909","4418","p","elianto","#3366ff99"," "," ","1","+10","[1724.3999999999069]","1","2","","","9909","115","5","1","win","go","0"
"pit-trial","234","1494865","0.0-120.0","battery-v0.2","","""event"",""trial"",""time""
""fullscreenenter"",""1"",""3059""
","
","
","""event"",""trial"",""time""
""fullscreenenter"",""1"",""3059""
","
","","","-1","","","10","9909","4418","u","elianto","#3366ff99","-1","-1","1","+10","[]","0","2","","","9909","116","9","2","win","no-go","0"
"pit-trial","235","1498504","0.0-121.0","battery-v0.2","","""event"",""trial"",""time""
""fullscreenenter"",""1"",""3059""
","
","
","""event"",""trial"",""time""
""fullscreenenter"",""1"",""3059""
","
","","","778.2000000001863","","","10","9909","4418","p","elianto","#3366ff99"," "," ","1","+10","[1631.7000000001863]","1","2","","","9909","117","5","1","win","go","0"
"pit-trial","236","1503369","0.0-122.0","battery-v0.2","","""event"",""trial"",""time""
""fullscreenenter"",""1"",""3059""
","
","
","""event"",""trial"",""time""
""fullscreenenter"",""1"",""3059""
","
","","","-1","","","10","9909","4418","l","elianto","#3366ff99","-1","-1","1","+10","[]","0","2","","","9909","118","8","2","win","no-go","0"
"pit-trial","237","1508233","0.0-123.0","battery-v0.2","","""event"",""trial"",""time""
""fullscreenenter"",""1"",""3059""
","
","
","""event"",""trial"",""time""
""fullscreenenter"",""1"",""3059""
","
","","","-1","","","10","9909","4418","u","elianto","#3366ff99","-1","-1","1","+10","[]","0","2","","","9909","119","9","2","win","no-go","0"
"pit-trial","238","1513097","0.0-124.0","battery-v0.2","","""event"",""trial"",""time""
""fullscreenenter"",""1"",""3059""
","
","
","""event"",""trial"",""time""
""fullscreenenter"",""1"",""3059""
","
","","","-1","","","10","9909","4418","g","elianto","#f73b6a7A","-1","-1","1","0","[]","0","2","","","9909","120","6","4","lose","no-go","0"
"pit-trial","239","1517096","0.0-125.0","battery-v0.2","","""event"",""trial"",""time""
""fullscreenenter"",""1"",""3059""
","
","
","""event"",""trial"",""time""
""fullscreenenter"",""1"",""3059""
","
","","","1141.3000000002794","","","10","9909","4418","a","elianto","#f73b6a7A"," "," ","1","-10","[1994.8000000002794]","1","2","","","9909","121","7","3","lose","go","1"
"pit-trial","240","1521961","0.0-126.0","battery-v0.2","","""event"",""trial"",""time""
""fullscreenenter"",""1"",""3059""
","
","
","""event"",""trial"",""time""
""fullscreenenter"",""1"",""3059""
","
","","","-1","","","10","9909","4418","l","elianto","#3366ff99","-1","-1","1","+10","[]","0","2","","","9909","122","8","2","win","no-go","0"
"pit-trial","241","1526824","0.0-127.0","battery-v0.2","","""event"",""trial"",""time""
""fullscreenenter"",""1"",""3059""
","
","
","""event"",""trial"",""time""
""fullscreenenter"",""1"",""3059""
","
","","","-1","","","10","9909","4418","u","elianto","#3366ff99","-1","-1","1","+10","[]","0","2","","","9909","123","9","2","win","no-go","0"
"pit-trial","242","1530640","0.0-128.0","battery-v0.2","","""event"",""trial"",""time""
""fullscreenenter"",""1"",""3059""
","
","
","""event"",""trial"",""time""
""fullscreenenter"",""1"",""3059""
","
","","","958.6000000000931","","","10","9909","4418","p","elianto","#3366ff99"," "," ","1","+10","[1810.3999999999069]","1","2","","","9909","124","5","1","win","go","0"
"pit-trial","243","1535504","0.0-129.0","battery-v0.2","","""event"",""trial"",""time""
""fullscreenenter"",""1"",""3059""
","
","
","""event"",""trial"",""time""
""fullscreenenter"",""1"",""3059""
","
","","","-1","","","10","9909","4418","l","elianto","#3366ff99","-1","-1","1","+10","[]","0","2","","","9909","125","8","2","win","no-go","0"
"pit-trial","244","1540369","0.0-130.0","battery-v0.2","","""event"",""trial"",""time""
""fullscreenenter"",""1"",""3059""
","
","
","""event"",""trial"",""time""
""fullscreenenter"",""1"",""3059""
","
","","","-1","","","10","9909","4418","g","elianto","#f73b6a7A","-1","-1","1","0","[]","0","2","","","9909","126","6","4","lose","no-go","0"
"pit-trial","245","1545232","0.0-131.0","battery-v0.2","","""event"",""trial"",""time""
""fullscreenenter"",""1"",""3059""
","
","
","""event"",""trial"",""time""
""fullscreenenter"",""1"",""3059""
","
","","","-1","","","10","9909","4418","u","elianto","#3366ff99","-1","-1","1","+10","[]","0","2","","","9909","127","9","2","win","no-go","0"
"pit-trial","246","1548793","0.0-132.0","battery-v0.2","","""event"",""trial"",""time""
""fullscreenenter"",""1"",""3059""
","
","
","""event"",""trial"",""time""
""fullscreenenter"",""1"",""3059""
","
","","","695.6000000000931","","","10","9909","4418","a","elianto","#f73b6a7A"," "," ","1","-10","[1549.3999999999069]","1","2","","","9909","128","7","3","lose","go","1"
"pit-trial","247","1553656","0.0-133.0","battery-v0.2","","""event"",""trial"",""time""
""fullscreenenter"",""1"",""3059""
","
","
","""event"",""trial"",""time""
""fullscreenenter"",""1"",""3059""
","
","","","-1","","","10","9909","4418","l","elianto","#3366ff99","-1","-1","1","+10","[]","0","2","","","9909","129","8","2","win","no-go","0"
"pit-trial","248","1558520","0.0-134.0","battery-v0.2","","""event"",""trial"",""time""
""fullscreenenter"",""1"",""3059""
","
","
","""event"",""trial"",""time""
""fullscreenenter"",""1"",""3059""
","
","","","-1","","","10","9909","4418","u","elianto","#3366ff99","-1","-1","1","+10","[]","0","2","","","9909","130","9","2","win","no-go","0"
"pit-trial","249","1563384","0.0-135.0","battery-v0.2","","""event"",""trial"",""time""
""fullscreenenter"",""1"",""3059""
","
","
","""event"",""trial"",""time""
""fullscreenenter"",""1"",""3059""
","
","","","-1","","","10","9909","4418","a","elianto","#f73b6a7A"," ","-1","0","0","[]","0","2","","","9909","131","7","3","lose","go","1"
"pit-trial","250","1568248","0.0-136.0","battery-v0.2","","""event"",""trial"",""time""
""fullscreenenter"",""1"",""3059""
","
","
","""event"",""trial"",""time""
""fullscreenenter"",""1"",""3059""
","
","","","-1","","","10","9909","4418","g","elianto","#f73b6a7A","-1","-1","1","0","[]","0","2","","","9909","132","6","4","lose","no-go","0"
"pit-trial","251","1573112","0.0-137.0","battery-v0.2","","""event"",""trial"",""time""
""fullscreenenter"",""1"",""3059""
","
","
","""event"",""trial"",""time""
""fullscreenenter"",""1"",""3059""
","
","","","-1","","","10","9909","4418","u","elianto","#3366ff99","-1","-1","1","+10","[]","0","2","","","9909","133","9","2","win","no-go","0"
"pit-trial","252","1577976","0.0-138.0","battery-v0.2","","""event"",""trial"",""time""
""fullscreenenter"",""1"",""3059""
","
","
","""event"",""trial"",""time""
""fullscreenenter"",""1"",""3059""
","
","","","-1","","","10","9909","4418","a","elianto","#f73b6a7A"," ","-1","0","-10","[4572.899999999907]","1","2","","","9909","134","7","3","lose","go","0"
"pit-trial","253","1582840","0.0-139.0","battery-v0.2","","""event"",""trial"",""time""
""fullscreenenter"",""1"",""3059""
","
","
","""event"",""trial"",""time""
""fullscreenenter"",""1"",""3059""
","
","","","-1","","","10","9909","4418","l","elianto","#3366ff99","-1","-1","1","+10","[]","0","2","","","9909","135","8","2","win","no-go","0"
"pit-trial","254","1587704","0.0-140.0","battery-v0.2","","""event"",""trial"",""time""
""fullscreenenter"",""1"",""3059""
","
","
","""event"",""trial"",""time""
""fullscreenenter"",""1"",""3059""
","
","","","-1","","","10","9909","4418","g","elianto","#f73b6a7A","-1","-1","1","0","[]","0","2","","","9909","136","6","4","lose","no-go","0"
"pit-trial","255","1592568","0.0-141.0","battery-v0.2","","""event"",""trial"",""time""
""fullscreenenter"",""1"",""3059""
","
","
","""event"",""trial"",""time""
""fullscreenenter"",""1"",""3059""
","
","","","-1","","","10","9909","4418","g","elianto","#f73b6a7A","-1","-1","1","0","[]","0","2","","","9909","137","6","4","lose","no-go","0"
"pit-trial","256","1597432","0.0-142.0","battery-v0.2","","""event"",""trial"",""time""
""fullscreenenter"",""1"",""3059""
","
","
","""event"",""trial"",""time""
""fullscreenenter"",""1"",""3059""
","
","","","-1","","","10","9909","4418","u","elianto","#3366ff99","-1","-1","1","0","[]","0","2","","","9909","138","9","2","win","no-go","1"
"pit-trial","257","1602297","0.0-143.0","battery-v0.2","","""event"",""trial"",""time""
""fullscreenenter"",""1"",""3059""
","
","
","""event"",""trial"",""time""
""fullscreenenter"",""1"",""3059""
","
","","","-1","","","10","9909","4418","l","elianto","#3366ff99","-1","-1","1","+10","[]","0","2","","","9909","139","8","2","win","no-go","0"
"pit-trial","258","1607160","0.0-144.0","battery-v0.2","","""event"",""trial"",""time""
""fullscreenenter"",""1"",""3059""
","
","
","""event"",""trial"",""time""
""fullscreenenter"",""1"",""3059""
","
","","","-1","","","10","9909","4418","a","elianto","#f73b6a7A"," ","-1","0","-10","[]","0","2","","","9909","140","7","3","lose","go","0"
"pit-instructions","259","1652322","0.0-145.0","battery-v0.2","","""event"",""trial"",""time""
""fullscreenenter"",""1"",""3059""
","
","
","""event"",""trial"",""time""
""fullscreenenter"",""1"",""3059""
","
","","[{""page_index"":0,""viewing_time"":33673.799999999814},{""page_index"":1,""viewing_time"":11485.100000000093}]","45159.19999999972","","","","","","","","","","","","","","","","","","","","","","","",""
"pit-trial","260","1657185","0.0-146.0","battery-v0.2","","""event"",""trial"",""time""
""fullscreenenter"",""1"",""3059""
","
","
","""event"",""trial"",""time""
""fullscreenenter"",""1"",""3059""
","
","","","-1","","","10","9909","4418","h","elianto","#f73b6a7A","-1","-1","1","0","[]","0","3","","","9909","141","3","4","lose","no-go","0"
"pit-trial","261","1662049","0.0-147.0","battery-v0.2","","""event"",""trial"",""time""
""fullscreenenter"",""1"",""3059""
","
","
","""event"",""trial"",""time""
""fullscreenenter"",""1"",""3059""
","
","","","-1","","","10","9909","4418","r","elianto","#3366ff99","-1","-1","1","+10","[]","0","3","","","9909","142","1","2","win","no-go","0"
"pit-trial","262","1666913","0.0-148.0","battery-v0.2","","""event"",""trial"",""time""
""fullscreenenter"",""1"",""3059""
","
","
","""event"",""trial"",""time""
""fullscreenenter"",""1"",""3059""
","
","","","-1","","","10","9909","4418","y","elianto","#f73b6a7A"," ","-1","0","-10","[]","0","3","","","9909","143","2","3","lose","go","0"
"pit-trial","263","1670697","0.0-149.0","battery-v0.2","","""event"",""trial"",""time""
""fullscreenenter"",""1"",""3059""
","
","
","""event"",""trial"",""time""
""fullscreenenter"",""1"",""3059""
","
","","","921.3999999999069","","","10","9909","4418","m","elianto","#f73b6a7A"," "," ","1","0","[1774.7000000001863]","1","3","","","9909","144","0","3","lose","go","0"
"pit-trial","264","1674257","0.0-150.0","battery-v0.2","","""event"",""trial"",""time""
""fullscreenenter"",""1"",""3059""
","
","
","""event"",""trial"",""time""
""fullscreenenter"",""1"",""3059""
","
","","","704.3000000002794","","","10","9909","4418","m","elianto","#f73b6a7A"," "," ","1","0","[1555.7000000001863]","1","3","","","9909","145","0","3","lose","go","0"
"pit-trial","265","1678176","0.0-151.0","battery-v0.2","","""event"",""trial"",""time""
""fullscreenenter"",""1"",""3059""
","
","
","""event"",""trial"",""time""
""fullscreenenter"",""1"",""3059""
","
