"trial_type","trial_index","time_elapsed","internal_node_id","task_version","subject_id","interactions","blur_events","focus_events","fullscreenenter_events","fullscreenexit_events","success","view_history","rt","responses","num_errors","age","subject","participantId","rune","rune_set","hex","correct","choice","accuracy","outcome","keys","total_keys","block","practice","value","sub","trial","stimulus","robot","valence","action","sham"
"pavlovia","0","35","0.0-0.0","battery-v0.2","","""event"",""trial"",""time""
""fullscreenenter"",""1"",""3788""
","
","
","""event"",""trial"",""time""
""fullscreenenter"",""1"",""3788""
","
","","","","","","","","","","","","","","","","","","","","","","","","","","",""
"fullscreen","1","4572","0.0-1.0","battery-v0.2","","""event"",""trial"",""time""
""fullscreenenter"",""1"",""3788""
","
","
","""event"",""trial"",""time""
""fullscreenenter"",""1"",""3788""
","
","true","","","","","","","","","","","","","","","","","","","","","","","","","",""
"pit-instructions","2","10085","0.0-2.0-0.0","battery-v0.2","","""event"",""trial"",""time""
""fullscreenenter"",""1"",""3788""
","
","
","""event"",""trial"",""time""
""fullscreenenter"",""1"",""3788""
","
","","[{""page_index"":0,""viewing_time"":5493}]","5497.399999856949","","","","","","","","","","","","","","","","","","","","","","","",""
"pit-comprehension","3","14868","0.0-2.0-1.0-0.0","battery-v0.2","","""event"",""trial"",""time""
""fullscreenenter"",""1"",""3788""
","
","
","""event"",""trial"",""time""
""fullscreenenter"",""1"",""3788""
","
","","","4713.100000143051","[""shark""]","0","25","7072","3754","","","","","","","","","","","","","","","","","","",""
"pit-instructions","4","21030","0.0-2.0-1.0-1.0","battery-v0.2","","""event"",""trial"",""time""
""fullscreenenter"",""1"",""3788""
","
","
","""event"",""trial"",""time""
""fullscreenenter"",""1"",""3788""
","
","","[{""page_index"":0,""viewing_time"":5976}]","5977","","","","","","","","","","","","","","","","","","","","","","","",""
"pit-comprehension","5","23663","0.0-2.0-2.0-0.0","battery-v0.2","","""event"",""trial"",""time""
""fullscreenenter"",""1"",""3788""
","
","
","""event"",""trial"",""time""
""fullscreenenter"",""1"",""3788""
","
","","","2617","[""tiger""]","0","25","7072","3754","","","","","","","","","","","","","","","","","","",""
"pit-instructions","6","24754","0.0-2.0-2.0-1.0","battery-v0.2","","""event"",""trial"",""time""
""fullscreenenter"",""1"",""3788""
","
","
","""event"",""trial"",""time""
""fullscreenenter"",""1"",""3788""
","
","","[{""page_index"":0,""viewing_time"":1074}]","1075.2000000476837","","","","","","","","","","","","","","","","","","","","","","","",""
"pit-instructions","7","120978","0.0-2.0-3.0","battery-v0.2","","""event"",""trial"",""time""
""fullscreenenter"",""1"",""3788""
","
","
","""event"",""trial"",""time""
""fullscreenenter"",""1"",""3788""
","
","","[{""page_index"":0,""viewing_time"":8024.200000047684},{""page_index"":1,""viewing_time"":6603.599999904633},{""page_index"":2,""viewing_time"":7302.600000143051},{""page_index"":3,""viewing_time"":5412.299999952316},{""page_index"":4,""viewing_time"":5773.599999904633},{""page_index"":5,""viewing_time"":5751.400000095367},{""page_index"":6,""viewing_time"":7026.5},{""page_index"":7,""viewing_time"":6428.700000047684},{""page_index"":8,""viewing_time"":6719.5},{""page_index"":9,""viewing_time"":7978.099999904633},{""page_index"":10,""viewing_time"":9697},{""page_index"":11,""viewing_time"":6890.600000143051},{""page_index"":12,""viewing_time"":7453.299999952316},{""page_index"":13,""viewing_time"":5138.899999856949}]","96200.90000009537","","","","","","","","","","","","","","","","","","","","","","","",""
"pit-trial","8","124805","0.0-2.0-4.0-0.0","battery-v0.2","","""event"",""trial"",""time""
""fullscreenenter"",""1"",""3788""
","
","
","""event"",""trial"",""time""
""fullscreenenter"",""1"",""3788""
","
","","","949.6999998092651","","","25","7072","3754","&#9784;","elianto","#FFFFF080"," "," ","1","&#10004","[1806.7000000476837]","1","0","0","","","","","","","",""
"pit-trial","9","128245","0.0-2.0-4.1-0.1","battery-v0.2","","""event"",""trial"",""time""
""fullscreenenter"",""1"",""3788""
","
","
","""event"",""trial"",""time""
""fullscreenenter"",""1"",""3788""
","
","","","554","","","25","7072","3754","&#9784;","elianto","#FFFFF080"," "," ","1","&#10004","[1411.7999999523163]","1","0","0","","","","","","","",""
"pit-trial","10","131693","0.0-2.0-4.2-0.2","battery-v0.2","","""event"",""trial"",""time""
""fullscreenenter"",""1"",""3788""
","
","
","""event"",""trial"",""time""
""fullscreenenter"",""1"",""3788""
","
","","","565.6000001430511","","","25","7072","3754","&#9784;","elianto","#FFFFF080"," "," ","1","&#10004","[1418.3999998569489]","1","0","0","","","","","","","",""
"pit-trial","11","135034","0.0-2.0-4.3-0.3","battery-v0.2","","""event"",""trial"",""time""
""fullscreenenter"",""1"",""3788""
","
","
","""event"",""trial"",""time""
""fullscreenenter"",""1"",""3788""
","
","","","459.2000000476837","","","25","7072","3754","&#9784;","elianto","#FFFFF080"," "," ","1","&#10004","[1319.5999999046326]","1","0","0","","","","","","","",""
"pit-trial","12","138354","0.0-2.0-4.4-0.4","battery-v0.2","","""event"",""trial"",""time""
""fullscreenenter"",""1"",""3788""
","
","
","""event"",""trial"",""time""
""fullscreenenter"",""1"",""3788""
","
","","","445.2999999523163","","","25","7072","3754","&#9784;","elianto","#FFFFF080"," "," ","1","&#10004","[1297.5]","1","0","0","","","","","","","",""
"pit-instructions","13","177574","0.0-2.0-5.0","battery-v0.2","","""event"",""trial"",""time""
""fullscreenenter"",""1"",""3788""
","
","
","""event"",""trial"",""time""
""fullscreenenter"",""1"",""3788""
","
","","[{""page_index"":0,""viewing_time"":5207},{""page_index"":1,""viewing_time"":23441.299999952316},{""page_index"":2,""viewing_time"":4807.5},{""page_index"":3,""viewing_time"":5751}]","39207.200000047684","","","","","","","","","","","","","","","","","","","","","","","",""
"pit-trial","14","182455","0.0-2.0-6.0-0.0","battery-v0.2","","""event"",""trial"",""time""
""fullscreenenter"",""1"",""3788""
","
","
","""event"",""trial"",""time""
""fullscreenenter"",""1"",""3788""
","
","","","-1","","","25","7072","3754","&#9854;","elianto","#FFFFF080","-1","-1","1","&#10004","[]","0","0","1","","","","","","","",""
"pit-trial","15","187345","0.0-2.0-6.1-0.1","battery-v0.2","","""event"",""trial"",""time""
""fullscreenenter"",""1"",""3788""
","
","
","""event"",""trial"",""time""
""fullscreenenter"",""1"",""3788""
","
","","","-1","","","25","7072","3754","&#9854;","elianto","#FFFFF080","-1","-1","1","&#10004","[]","0","0","1","","","","","","","",""
"pit-trial","16","192225","0.0-2.0-6.2-0.2","battery-v0.2","","""event"",""trial"",""time""
""fullscreenenter"",""1"",""3788""
","
","
","""event"",""trial"",""time""
""fullscreenenter"",""1"",""3788""
","
","","","-1","","","25","7072","3754","&#9854;","elianto","#FFFFF080","-1","-1","1","&#10004","[]","0","0","1","","","","","","","",""
"pit-trial","17","197105","0.0-2.0-6.3-0.3","battery-v0.2","","""event"",""trial"",""time""
""fullscreenenter"",""1"",""3788""
","
","
","""event"",""trial"",""time""
""fullscreenenter"",""1"",""3788""
","
","","","-1","","","25","7072","3754","&#9854;","elianto","#FFFFF080","-1","-1","1","&#10004","[]","0","0","1","","","","","","","",""
"pit-trial","18","202005","0.0-2.0-6.4-0.4","battery-v0.2","","""event"",""trial"",""time""
""fullscreenenter"",""1"",""3788""
","
","
","""event"",""trial"",""time""
""fullscreenenter"",""1"",""3788""
","
","","","-1","","","25","7072","3754","&#9854;","elianto","#FFFFF080","-1","-1","1","&#10004","[]","0","0","1","","","","","","","",""
"pit-instructions","19","312258","0.0-2.0-7.0","battery-v0.2","","""event"",""trial"",""time""
""fullscreenenter"",""1"",""3788""
","
","
","""event"",""trial"",""time""
""fullscreenenter"",""1"",""3788""
","
","","[{""page_index"":0,""viewing_time"":5667},{""page_index"":1,""viewing_time"":7014.100000143051},{""page_index"":2,""viewing_time"":5662.799999952316},{""page_index"":3,""viewing_time"":5930.299999952316},{""page_index"":4,""viewing_time"":5509.599999904633},{""page_index"":5,""viewing_time"":5572},{""page_index"":6,""viewing_time"":4232.600000143051},{""page_index"":7,""viewing_time"":7649.899999856949},{""page_index"":8,""viewing_time"":6287.700000047684},{""page_index"":9,""viewing_time"":5789.799999952316},{""page_index"":10,""viewing_time"":6044.300000190735},{""page_index"":11,""viewing_time"":4398},{""page_index"":12,""viewing_time"":7140.899999856949},{""page_index"":13,""viewing_time"":7166.100000143051},{""page_index"":14,""viewing_time"":6885},{""page_index"":15,""viewing_time"":6349},{""page_index"":16,""viewing_time"":6336.799999952316},{""page_index"":17,""viewing_time"":6604}]","110240.60000014305","","","","","","","","","","","","","","","","","","","","","","","",""
"pit-trial","20","316324","0.0-2.0-8.0-0.0","battery-v0.2","","""event"",""trial"",""time""
""fullscreenenter"",""1"",""3788""
","
","
","""event"",""trial"",""time""
""fullscreenenter"",""1"",""3788""
","
","","","1206.2999999523163","","","25","7072","3754","&#9776;","elianto","#3366ff99"," "," ","1","+10","[2056.5]","1","0","1","","","","","","","",""
"pit-trial","21","319664","0.0-2.0-8.0-1.0","battery-v0.2","","""event"",""trial"",""time""
""fullscreenenter"",""1"",""3788""
","
","
","""event"",""trial"",""time""
""fullscreenenter"",""1"",""3788""
","
","","","470.09999990463257","","","25","7072","3754","&#9776;","elianto","#3366ff99"," "," ","1","+10","[1323.7000000476837]","1","0","1","","","","","","","",""
"pit-trial","22","323064","0.0-2.0-8.0-2.0","battery-v0.2","","""event"",""trial"",""time""
""fullscreenenter"",""1"",""3788""
","
","
","""event"",""trial"",""time""
""fullscreenenter"",""1"",""3788""
","
","","","517.2000000476837","","","25","7072","3754","&#9776;","elianto","#3366ff99"," "," ","1","+10","[1376.5]","1","0","1","","","","","","","",""
"pit-trial","23","326444","0.0-2.0-8.0-3.0","battery-v0.2","","""event"",""trial"",""time""
""fullscreenenter"",""1"",""3788""
","
","
","""event"",""trial"",""time""
""fullscreenenter"",""1"",""3788""
","
","","","501.5","","","25","7072","3754","&#9776;","elianto","#3366ff99"," "," ","1","0","[1361.2000000476837]","1","0","1","","","","","","","",""
"pit-trial","24","329793","0.0-2.0-8.0-4.0","battery-v0.2","","""event"",""trial"",""time""
""fullscreenenter"",""1"",""3788""
","
","
","""event"",""trial"",""time""
""fullscreenenter"",""1"",""3788""
","
","","","484.10000014305115","","","25","7072","3754","&#9776;","elianto","#3366ff99"," "," ","1","+10","[1334.8999998569489]","1","0","1","","","","","","","",""
"pit-trial","25","333123","0.0-2.0-8.1-0.1","battery-v0.2","","""event"",""trial"",""time""
""fullscreenenter"",""1"",""3788""
","
","
","""event"",""trial"",""time""
""fullscreenenter"",""1"",""3788""
","
","","","437.59999990463257","","","25","7072","3754","&#9776;","elianto","#3366ff99"," "," ","1","+10","[1300.1000001430511]","1","0","1","","","","","","","",""
"pit-trial","26","336293","0.0-2.0-8.1-1.1","battery-v0.2","","""event"",""trial"",""time""
""fullscreenenter"",""1"",""3788""
","
","
","""event"",""trial"",""time""
""fullscreenenter"",""1"",""3788""
","
","","","299.5","","","25","7072","3754","&#9776;","elianto","#3366ff99"," "," ","1","+10","[1151.2000000476837]","1","0","1","","","","","","","",""
"pit-trial","27","339603","0.0-2.0-8.1-2.1","battery-v0.2","","""event"",""trial"",""time""
""fullscreenenter"",""1"",""3788""
","
","
","""event"",""trial"",""time""
""fullscreenenter"",""1"",""3788""
","
","","","437.19999980926514","","","25","7072","3754","&#9776;","elianto","#3366ff99"," "," ","1","+10","[1290]","1","0","1","","","","","","","",""
"pit-trial","28","342875","0.0-2.0-8.1-3.1","battery-v0.2","","""event"",""trial"",""time""
""fullscreenenter"",""1"",""3788""
","
","
","""event"",""trial"",""time""
""fullscreenenter"",""1"",""3788""
","
","","","402.80000019073486","","","25","7072","3754","&#9776;","elianto","#3366ff99"," "," ","1","0","[1258.3999998569489]","1","0","1","","","","","","","",""
"pit-trial","29","345929","0.0-2.0-8.1-4.1","battery-v0.2","","""event"",""trial"",""time""
""fullscreenenter"",""1"",""3788""
","
","
","""event"",""trial"",""time""
""fullscreenenter"",""1"",""3788""
","
","","","188.30000019073486","","","25","7072","3754","&#9776;","elianto","#3366ff99"," "," ","1","+10","[1039.7000000476837]","1","0","1","","","","","","","",""
"pit-trial","30","349140","0.0-2.0-8.2-0.2","battery-v0.2","","""event"",""trial"",""time""
""fullscreenenter"",""1"",""3788""
","
","
","""event"",""trial"",""time""
""fullscreenenter"",""1"",""3788""
","
","","","333.5","","","25","7072","3754","&#9776;","elianto","#3366ff99"," "," ","1","+10","[823.0999999046326,1183.7999999523163]","2","0","1","","","","","","","",""
"pit-trial","31","352788","0.0-2.0-8.2-1.2","battery-v0.2","","""event"",""trial"",""time""
""fullscreenenter"",""1"",""3788""
","
","
","""event"",""trial"",""time""
""fullscreenenter"",""1"",""3788""
","
","","","777.4000000953674","","","25","7072","3754","&#9776;","elianto","#3366ff99"," "," ","1","+10","[1631.2000000476837]","1","0","1","","","","","","","",""
"pit-trial","32","356598","0.0-2.0-8.2-2.2","battery-v0.2","","""event"",""trial"",""time""
""fullscreenenter"",""1"",""3788""
","
","
","""event"",""trial"",""time""
""fullscreenenter"",""1"",""3788""
","
","","","935.0999999046326","","","25","7072","3754","&#9776;","elianto","#3366ff99"," "," ","1","+10","[1785.5]","1","0","1","","","","","","","",""
"pit-trial","33","359940","0.0-2.0-8.2-3.2","battery-v0.2","","""event"",""trial"",""time""
""fullscreenenter"",""1"",""3788""
","
","
","""event"",""trial"",""time""
""fullscreenenter"",""1"",""3788""
","
","","","479.2000000476837","","","25","7072","3754","&#9776;","elianto","#3366ff99"," "," ","1","0","[1330]","1","0","1","","","","","","","",""
"pit-trial","34","363424","0.0-2.0-8.2-4.2","battery-v0.2","","""event"",""trial"",""time""
""fullscreenenter"",""1"",""3788""
","
","
","""event"",""trial"",""time""
""fullscreenenter"",""1"",""3788""
","
","","","617.6000001430511","","","25","7072","3754","&#9776;","elianto","#3366ff99"," "," ","1","+10","[1473.1000001430511]","1","0","1","","","","","","","",""
"call-function","35","363434","0.0-2.0-9.0","battery-v0.2","","""event"",""trial"",""time""
""fullscreenenter"",""1"",""3788""
","
","
","""event"",""trial"",""time""
""fullscreenenter"",""1"",""3788""
","
","","","","","","","","","","","","","","","","","","","","","","","","","","",""
"pit-instructions","36","404541","0.0-2.0-10.0","battery-v0.2","","""event"",""trial"",""time""
""fullscreenenter"",""1"",""3788""
","
","
","""event"",""trial"",""time""
""fullscreenenter"",""1"",""3788""
","
","","[{""page_index"":0,""viewing_time"":5774.599999904633},{""page_index"":1,""viewing_time"":7119.900000095367},{""page_index"":2,""viewing_time"":9630.899999856949},{""page_index"":3,""viewing_time"":9841.299999952316},{""page_index"":4,""viewing_time"":8738}]","41105.299999952316","","","","","","","","","","","","","","","","","","","","","","","",""
"pit-trial","37","408526","0.0-2.0-11.0-0.0","battery-v0.2","","""event"",""trial"",""time""
""fullscreenenter"",""1"",""3788""
","
","
","""event"",""trial"",""time""
""fullscreenenter"",""1"",""3788""
","
","","","1109","","","25","7072","3754","&#9761;","elianto","#3366ff99","-1"," ","0","0","[1959.7000000476837]","1","0","2","","","","","","","",""
"pit-trial","38","412606","0.0-2.0-11.0-1.0","battery-v0.2","","""event"",""trial"",""time""
""fullscreenenter"",""1"",""3788""
","
","
","""event"",""trial"",""time""
""fullscreenenter"",""1"",""3788""
","
","","","1198.9000000953674","","","25","7072","3754","&#9761;","elianto","#3366ff99","-1"," ","0","0","[2056.2999999523163]","1","0","2","","","","","","","",""
"pit-trial","39","417506","0.0-2.0-11.0-2.0","battery-v0.2","","""event"",""trial"",""time""
""fullscreenenter"",""1"",""3788""
","
","
","""event"",""trial"",""time""
""fullscreenenter"",""1"",""3788""
","
","","","-1","","","25","7072","3754","&#9761;","elianto","#3366ff99","-1","-1","1","+10","[]","0","0","2","","","","","","","",""
"pit-trial","40","421436","0.0-2.0-11.0-3.0","battery-v0.2","","""event"",""trial"",""time""
""fullscreenenter"",""1"",""3788""
","
","
","""event"",""trial"",""time""
""fullscreenenter"",""1"",""3788""
","
","","","1067.7999999523163","","","25","7072","3754","&#9761;","elianto","#3366ff99","-1"," ","0","+10","[1919]","1","0","2","","","","","","","",""
"pit-trial","41","425365","0.0-2.0-11.0-4.0","battery-v0.2","","""event"",""trial"",""time""
""fullscreenenter"",""1"",""3788""
","
","
","""event"",""trial"",""time""
""fullscreenenter"",""1"",""3788""
","
","","","1055.7000000476837","","","25","7072","3754","&#9761;","elianto","#3366ff99","-1"," ","0","0","[1909.1999998092651]","1","0","2","","","","","","","",""
"pit-trial","42","428666","0.0-2.0-11.1-0.1","battery-v0.2","","""event"",""trial"",""time""
""fullscreenenter"",""1"",""3788""
","
","
","""event"",""trial"",""time""
""fullscreenenter"",""1"",""3788""
","
","","","425.59999990463257","","","25","7072","3754","&#9761;","elianto","#3366ff99","-1"," ","0","0","[1278.6999998092651]","1","0","2","","","","","","","",""
"pit-trial","43","431976","0.0-2.0-11.1-1.1","battery-v0.2","","""event"",""trial"",""time""
""fullscreenenter"",""1"",""3788""
","
","
","""event"",""trial"",""time""
""fullscreenenter"",""1"",""3788""
","
","","","431.7999999523163","","","25","7072","3754","&#9761;","elianto","#3366ff99","-1"," ","0","0","[1282.5999999046326]","1","0","2","","","","","","","",""
"pit-trial","44","435371","0.0-2.0-11.1-2.1","battery-v0.2","","""event"",""trial"",""time""
""fullscreenenter"",""1"",""3788""
","
","
","""event"",""trial"",""time""
""fullscreenenter"",""1"",""3788""
","
","","","520.7000000476837","","","25","7072","3754","&#9761;","elianto","#3366ff99","-1"," ","0","0","[1370.8000001907349]","1","0","2","","","","","","","",""
"pit-trial","45","440247","0.0-2.0-11.1-3.1","battery-v0.2","","""event"",""trial"",""time""
""fullscreenenter"",""1"",""3788""
","
","
","""event"",""trial"",""time""
""fullscreenenter"",""1"",""3788""
","
","","","-1","","","25","7072","3754","&#9761;","elianto","#3366ff99","-1","-1","1","0","[]","0","0","2","","","","","","","",""
"pit-trial","46","443638","0.0-2.0-11.1-4.1","battery-v0.2","","""event"",""trial"",""time""
""fullscreenenter"",""1"",""3788""
","
","
","""event"",""trial"",""time""
""fullscreenenter"",""1"",""3788""
","
","","","522.3999998569489","","","25","7072","3754","&#9761;","elianto","#3366ff99","-1"," ","0","0","[1379.3999998569489]","1","0","2","","","","","","","",""
"pit-trial","47","448519","0.0-2.0-11.2-0.2","battery-v0.2","","""event"",""trial"",""time""
""fullscreenenter"",""1"",""3788""
","
","
","""event"",""trial"",""time""
""fullscreenenter"",""1"",""3788""
","
","","","-1","","","25","7072","3754","&#9761;","elianto","#3366ff99","-1","-1","1","+10","[]","0","0","2","","","","","","","",""
"pit-trial","48","451547","0.0-2.0-11.2-1.2","battery-v0.2","","""event"",""trial"",""time""
""fullscreenenter"",""1"",""3788""
","
","
","""event"",""trial"",""time""
""fullscreenenter"",""1"",""3788""
","
","","","158.60000014305115","","","25","7072","3754","&#9761;","elianto","#3366ff99","-1"," ","0","0","[1011.7000000476837]","1","0","2","","","","","","","",""
"pit-trial","49","454938","0.0-2.0-11.2-2.2","battery-v0.2","","""event"",""trial"",""time""
""fullscreenenter"",""1"",""3788""
","
","
","""event"",""trial"",""time""
""fullscreenenter"",""1"",""3788""
","
","","","512.4000000953674","","","25","7072","3754","&#9761;","elianto","#3366ff99","-1"," ","0","0","[820.3999998569489,1366.2000000476837]","2","0","2","","","","","","","",""
"pit-trial","50","458180","0.0-2.0-11.2-3.2","battery-v0.2","","""event"",""trial"",""time""
""fullscreenenter"",""1"",""3788""
","
","
","""event"",""trial"",""time""
""fullscreenenter"",""1"",""3788""
","
","","","368.2000000476837","","","25","7072","3754","&#9761;","elianto","#3366ff99","-1"," ","0","+10","[1218.5]","1","0","2","","","","","","","",""
"pit-trial","51","461281","0.0-2.0-11.2-4.2","battery-v0.2","","""event"",""trial"",""time""
""fullscreenenter"",""1"",""3788""
","
","
","""event"",""trial"",""time""
""fullscreenenter"",""1"",""3788""
","
","","","196.40000009536743","","","25","7072","3754","&#9761;","elianto","#3366ff99","-1"," ","0","0","[1048.7000000476837]","1","0","2","","","","","","","",""
"pit-trial","52","466178","0.0-2.0-11.3-0.3","battery-v0.2","","""event"",""trial"",""time""
""fullscreenenter"",""1"",""3788""
","
","
","""event"",""trial"",""time""
""fullscreenenter"",""1"",""3788""
","
","","","-1","","","25","7072","3754","&#9761;","elianto","#3366ff99","-1","-1","1","+10","[]","0","0","2","","","","","","","",""
"pit-trial","53","471069","0.0-2.0-11.3-1.3","battery-v0.2","","""event"",""trial"",""time""
""fullscreenenter"",""1"",""3788""
","
","
","""event"",""trial"",""time""
""fullscreenenter"",""1"",""3788""
","
","","","-1","","","25","7072","3754","&#9761;","elianto","#3366ff99","-1","-1","1","+10","[]","0","0","2","","","","","","","",""
"pit-trial","54","474442","0.0-2.0-11.3-2.3","battery-v0.2","","""event"",""trial"",""time""
""fullscreenenter"",""1"",""3788""
","
","
","""event"",""trial"",""time""
""fullscreenenter"",""1"",""3788""
","
","","","499.60000014305115","","","25","7072","3754","&#9761;","elianto","#3366ff99","-1"," ","0","0","[1351.5]","1","0","2","","","","","","","",""
"pit-trial","55","479308","0.0-2.0-11.3-3.3","battery-v0.2","","""event"",""trial"",""time""
""fullscreenenter"",""1"",""3788""
","
","
","""event"",""trial"",""time""
""fullscreenenter"",""1"",""3788""
","
","","","-1","","","25","7072","3754","&#9761;","elianto","#3366ff99","-1","-1","1","0","[2910.399999856949]","1","0","2","","","","","","","",""
"pit-trial","56","483559","0.0-2.0-11.3-4.3","battery-v0.2","","""event"",""trial"",""time""
""fullscreenenter"",""1"",""3788""
","
","
","""event"",""trial"",""time""
""fullscreenenter"",""1"",""3788""
","
","","","1379.7999999523163","","","25","7072","3754","&#9761;","elianto","#3366ff99","-1"," ","0","0","[2232.5999999046326]","1","0","2","","","","","","","",""
"call-function","57","483568","0.0-2.0-12.0","battery-v0.2","","""event"",""trial"",""time""
""fullscreenenter"",""1"",""3788""
","
","
","""event"",""trial"",""time""
""fullscreenenter"",""1"",""3788""
","
","","","","","","","","","","","","","","","","","","","","","","","","","","",""
"pit-instructions","58","517109","0.0-2.0-13.0","battery-v0.2","","""event"",""trial"",""time""
""fullscreenenter"",""1"",""3788""
","
","
","""event"",""trial"",""time""
""fullscreenenter"",""1"",""3788""
","
","","[{""page_index"":0,""viewing_time"":6205.100000143051},{""page_index"":1,""viewing_time"":7061.299999952316},{""page_index"":2,""viewing_time"":4085},{""page_index"":3,""viewing_time"":10553.299999952316},{""page_index"":4,""viewing_time"":5634.700000047684}]","33539.90000009537","","","","","","","","","","","","","","","","","","","","","","","",""
"pit-trial","59","520764","0.0-2.0-14.0-0.0","battery-v0.2","","""event"",""trial"",""time""
""fullscreenenter"",""1"",""3788""
","
","
","""event"",""trial"",""time""
""fullscreenenter"",""1"",""3788""
","
","","","789.2999999523163","","","25","7072","3754","&#9826;","elianto","#f73b6a7A","-1"," ","0","-10","[1648]","1","0","3","","","","","","","",""
"pit-trial","60","525658","0.0-2.0-14.0-1.0","battery-v0.2","","""event"",""trial"",""time""
""fullscreenenter"",""1"",""3788""
","
","
","""event"",""trial"",""time""
""fullscreenenter"",""1"",""3788""
","
","","","-1","","","25","7072","3754","&#9826;","elianto","#f73b6a7A","-1","-1","1","0","[]","0","0","3","","","","","","","",""
"pit-trial","61","530528","0.0-2.0-14.0-2.0","battery-v0.2","","""event"",""trial"",""time""
""fullscreenenter"",""1"",""3788""
","
","
","""event"",""trial"",""time""
""fullscreenenter"",""1"",""3788""
","
","","","-1","","","25","7072","3754","&#9826;","elianto","#f73b6a7A","-1","-1","1","0","[]","0","0","3","","","","","","","",""
"pit-trial","62","535408","0.0-2.0-14.0-3.0","battery-v0.2","","""event"",""trial"",""time""
""fullscreenenter"",""1"",""3788""
","
","
","""event"",""trial"",""time""
""fullscreenenter"",""1"",""3788""
","
","","","-1","","","25","7072","3754","&#9826;","elianto","#f73b6a7A","-1","-1","1","-10","[]","0","0","3","","","","","","","",""
"pit-trial","63","540288","0.0-2.0-14.0-4.0","battery-v0.2","","""event"",""trial"",""time""
""fullscreenenter"",""1"",""3788""
","
","
","""event"",""trial"",""time""
""fullscreenenter"",""1"",""3788""
","
","","","-1","","","25","7072","3754","&#9826;","elianto","#f73b6a7A","-1","-1","1","0","[]","0","0","3","","","","","","","",""
"pit-trial","64","545178","0.0-2.0-14.1-0.1","battery-v0.2","","""event"",""trial"",""time""
""fullscreenenter"",""1"",""3788""
","
","
","""event"",""trial"",""time""
""fullscreenenter"",""1"",""3788""
","
","","","-1","","","25","7072","3754","&#9826;","elianto","#f73b6a7A","-1","-1","1","0","[]","0","0","3","","","","","","","",""
"pit-trial","65","550050","0.0-2.0-14.1-1.1","battery-v0.2","","""event"",""trial"",""time""
""fullscreenenter"",""1"",""3788""
","
","
","""event"",""trial"",""time""
""fullscreenenter"",""1"",""3788""
","
","","","-1","","","25","7072","3754","&#9826;","elianto","#f73b6a7A","-1","-1","1","0","[]","0","0","3","","","","","","","",""
"pit-trial","66","554918","0.0-2.0-14.1-2.1","battery-v0.2","","""event"",""trial"",""time""
""fullscreenenter"",""1"",""3788""
","
","
","""event"",""trial"",""time""
""fullscreenenter"",""1"",""3788""
","
","","","-1","","","25","7072","3754","&#9826;","elianto","#f73b6a7A","-1","-1","1","0","[]","0","0","3","","","","","","","",""
"pit-trial","67","559790","0.0-2.0-14.1-3.1","battery-v0.2","","""event"",""trial"",""time""
""fullscreenenter"",""1"",""3788""
","
","
","""event"",""trial"",""time""
""fullscreenenter"",""1"",""3788""
","
","","","-1","","","25","7072","3754","&#9826;","elianto","#f73b6a7A","-1","-1","1","-10","[]","0","0","3","","","","","","","",""
"pit-trial","68","564650","0.0-2.0-14.1-4.1","battery-v0.2","","""event"",""trial"",""time""
""fullscreenenter"",""1"",""3788""
","
","
","""event"",""trial"",""time""
""fullscreenenter"",""1"",""3788""
","
","","","-1","","","25","7072","3754","&#9826;","elianto","#f73b6a7A","-1","-1","1","0","[]","0","0","3","","","","","","","",""
"pit-trial","69","567772","0.0-2.0-14.2-0.2","battery-v0.2","","""event"",""trial"",""time""
""fullscreenenter"",""1"",""3788""
","
","
","""event"",""trial"",""time""
""fullscreenenter"",""1"",""3788""
","
","","","250.70000004768372","","","25","7072","3754","&#9826;","elianto","#f73b6a7A","-1"," ","0","-10","[1102.3000001907349]","1","0","3","","","","","","","",""
"pit-trial","70","572285","0.0-2.0-14.2-1.2","battery-v0.2","","""event"",""trial"",""time""
""fullscreenenter"",""1"",""3788""
","
","
","""event"",""trial"",""time""
""fullscreenenter"",""1"",""3788""
","
","","","1645.4000000953674","","","25","7072","3754","&#9826;","elianto","#f73b6a7A","-1"," ","0","-10","[2498]","1","0","3","","","","","","","",""
"pit-trial","71","577160","0.0-2.0-14.2-2.2","battery-v0.2","","""event"",""trial"",""time""
""fullscreenenter"",""1"",""3788""
","
","
","""event"",""trial"",""time""
""fullscreenenter"",""1"",""3788""
","
","","","-1","","","25","7072","3754","&#9826;","elianto","#f73b6a7A","-1","-1","1","0","[]","0","0","3","","","","","","","",""
"pit-trial","72","582036","0.0-2.0-14.2-3.2","battery-v0.2","","""event"",""trial"",""time""
""fullscreenenter"",""1"",""3788""
","
","
","""event"",""trial"",""time""
""fullscreenenter"",""1"",""3788""
","
","","","-1","","","25","7072","3754","&#9826;","elianto","#f73b6a7A","-1","-1","1","-10","[4500]","1","0","3","","","","","","","",""
"pit-trial","73","586919","0.0-2.0-14.2-4.2","battery-v0.2","","""event"",""trial"",""time""
""fullscreenenter"",""1"",""3788""
","
","
","""event"",""trial"",""time""
""fullscreenenter"",""1"",""3788""
","
","","","-1","","","25","7072","3754","&#9826;","elianto","#f73b6a7A","-1","-1","1","0","[382.09999990463257]","1","0","3","","","","","","","",""
"pit-trial","74","591799","0.0-2.0-14.3-0.3","battery-v0.2","","""event"",""trial"",""time""
""fullscreenenter"",""1"",""3788""
","
","
","""event"",""trial"",""time""
""fullscreenenter"",""1"",""3788""
","
","","","-1","","","25","7072","3754","&#9826;","elianto","#f73b6a7A","-1","-1","1","0","[]","0","0","3","","","","","","","",""
"pit-trial","75","594820","0.0-2.0-14.3-1.3","battery-v0.2","","""event"",""trial"",""time""
""fullscreenenter"",""1"",""3788""
","
","
","""event"",""trial"",""time""
""fullscreenenter"",""1"",""3788""
","
","","","150.5","","","25","7072","3754","&#9826;","elianto","#f73b6a7A","-1"," ","0","-10","[1006.5,2198.100000143051,2725.9000000953674]","3","0","3","","","","","","","",""
"pit-trial","76","599699","0.0-2.0-14.3-2.3","battery-v0.2","","""event"",""trial"",""time""
""fullscreenenter"",""1"",""3788""
","
","
","""event"",""trial"",""time""
""fullscreenenter"",""1"",""3788""
","
","","","-1","","","25","7072","3754","&#9826;","elianto","#f73b6a7A","-1","-1","1","0","[141.79999995231628]","1","0","3","","","","","","","",""
"pit-trial","77","603909","0.0-2.0-14.3-3.3","battery-v0.2","","""event"",""trial"",""time""
""fullscreenenter"",""1"",""3788""
","
","
","""event"",""trial"",""time""
""fullscreenenter"",""1"",""3788""
","
","","","1340.9000000953674","","","25","7072","3754","&#9826;","elianto","#f73b6a7A","-1"," ","0","0","[2199.600000143051]","1","0","3","","","","","","","",""
"pit-trial","78","606876","0.0-2.0-14.3-4.3","battery-v0.2","","""event"",""trial"",""time""
""fullscreenenter"",""1"",""3788""
","
","
","""event"",""trial"",""time""
""fullscreenenter"",""1"",""3788""
","
","","","93.70000004768372","","","25","7072","3754","&#9826;","elianto","#f73b6a7A","-1"," ","0","-10","[947.3000001907349]","1","0","3","","","","","","","",""
"call-function","79","606885","0.0-2.0-15.0","battery-v0.2","","""event"",""trial"",""time""
""fullscreenenter"",""1"",""3788""
","
","
","""event"",""trial"",""time""
""fullscreenenter"",""1"",""3788""
","
","","","","","","","","","","","","","","","","","","","","","","","","","","",""
"pit-instructions","80","631458","0.0-2.0-16.0","battery-v0.2","","""event"",""trial"",""time""
""fullscreenenter"",""1"",""3788""
","
","
","""event"",""trial"",""time""
""fullscreenenter"",""1"",""3788""
","
","","[{""page_index"":0,""viewing_time"":6587.299999952316},{""page_index"":1,""viewing_time"":8537},{""page_index"":2,""viewing_time"":4210},{""page_index"":3,""viewing_time"":5237.299999952316}]","24572.099999904633","","","","","","","","","","","","","","","","","","","","","","","",""
"pit-trial","81","634830","0.0-2.0-17.0-0.0","battery-v0.2","","""event"",""trial"",""time""
""fullscreenenter"",""1"",""3788""
","
","
","""event"",""trial"",""time""
""fullscreenenter"",""1"",""3788""
","
","","","500.89999985694885","","","25","7072","3754","&#9789;","elianto","#f73b6a7A"," "," ","1","0","[1357.7999999523163]","1","0","4","","","","","","","",""
"pit-trial","82","637970","0.0-2.0-17.0-1.0","battery-v0.2","","""event"",""trial"",""time""
""fullscreenenter"",""1"",""3788""
","
","
","""event"",""trial"",""time""
""fullscreenenter"",""1"",""3788""
","
","","","258.80000019073486","","","25","7072","3754","&#9789;","elianto","#f73b6a7A"," "," ","1","0","[1111.0999999046326]","1","0","4","","","","","","","",""
"pit-trial","83","641100","0.0-2.0-17.0-2.0","battery-v0.2","","""event"",""trial"",""time""
""fullscreenenter"",""1"",""3788""
","
","
","""event"",""trial"",""time""
""fullscreenenter"",""1"",""3788""
","
","","","242.89999985694885","","","25","7072","3754","&#9789;","elianto","#f73b6a7A"," "," ","1","0","[1100.8999998569489]","1","0","4","","","","","","","",""
"pit-trial","84","645968","0.0-2.0-17.0-3.0","battery-v0.2","","""event"",""trial"",""time""
""fullscreenenter"",""1"",""3788""
","
","
","""event"",""trial"",""time""
""fullscreenenter"",""1"",""3788""
","
","","","-1","","","25","7072","3754","&#9789;","elianto","#f73b6a7A"," ","-1","0","0","[]","0","0","4","","","","","","","",""
"pit-trial","85","649200","0.0-2.0-17.0-4.0","battery-v0.2","","""event"",""trial"",""time""
""fullscreenenter"",""1"",""3788""
","
","
","""event"",""trial"",""time""
""fullscreenenter"",""1"",""3788""
","
","","","346.40000009536743","","","25","7072","3754","&#9789;","elianto","#f73b6a7A"," "," ","1","0","[1208.3000001907349]","1","0","4","","","","","","","",""
"pit-trial","86","652830","0.0-2.0-17.1-0.1","battery-v0.2","","""event"",""trial"",""time""
""fullscreenenter"",""1"",""3788""
","
","
","""event"",""trial"",""time""
""fullscreenenter"",""1"",""3788""
","
","","","738.8999998569489","","","25","7072","3754","&#9789;","elianto","#f73b6a7A"," "," ","1","0","[1600.6999998092651]","1","0","4","","","","","","","",""
"pit-trial","87","656230","0.0-2.0-17.1-1.1","battery-v0.2","","""event"",""trial"",""time""
""fullscreenenter"",""1"",""3788""
","
","
","""event"",""trial"",""time""
""fullscreenenter"",""1"",""3788""
","
","","","531.4000000953674","","","25","7072","3754","&#9789;","elianto","#f73b6a7A"," "," ","1","0","[1382.2999999523163]","1","0","4","","","","","","","",""
"pit-trial","88","660200","0.0-2.0-17.1-2.1","battery-v0.2","","""event"",""trial"",""time""
""fullscreenenter"",""1"",""3788""
","
","
","""event"",""trial"",""time""
""fullscreenenter"",""1"",""3788""
","
","","","1109.4000000953674","","","25","7072","3754","&#9789;","elianto","#f73b6a7A"," "," ","1","0","[1960.8999998569489,2253.7999999523163,2301.0999999046326]","3","0","4","","","","","","","",""
"pit-trial","89","663149","0.0-2.0-17.1-3.1","battery-v0.2","","""event"",""trial"",""time""
""fullscreenenter"",""1"",""3788""
","
","
","""event"",""trial"",""time""
""fullscreenenter"",""1"",""3788""
","
","","","85.59999990463257","","","25","7072","3754","&#9789;","elianto","#f73b6a7A"," "," ","1","-10","[937.7000000476837]","1","0","4","","","","","","","",""
"pit-trial","90","666956","0.0-2.0-17.1-4.1","battery-v0.2","","""event"",""trial"",""time""
""fullscreenenter"",""1"",""3788""
","
","
","""event"",""trial"",""time""
""fullscreenenter"",""1"",""3788""
","
","","","937.3000001907349","","","25","7072","3754","&#9789;","elianto","#f73b6a7A"," "," ","1","0","[1792.2000000476837]","1","0","4","","","","","","","",""
"pit-trial","91","670921","0.0-2.0-17.2-0.2","battery-v0.2","","""event"",""trial"",""time""
""fullscreenenter"",""1"",""3788""
","
","
","""event"",""trial"",""time""
""fullscreenenter"",""1"",""3788""
","
","","","1098.5999999046326","","","25","7072","3754","&#9789;","elianto","#f73b6a7A"," "," ","1","0","[1949]","1","0","4","","","","","","","",""
"pit-trial","92","673855","0.0-2.0-17.2-1.2","battery-v0.2","","""event"",""trial"",""time""
""fullscreenenter"",""1"",""3788""
","
","
","""event"",""trial"",""time""
""fullscreenenter"",""1"",""3788""
","
","","","64.60000014305115","","","25","7072","3754","&#9789;","elianto","#f73b6a7A"," "," ","1","0","[918.0999999046326]","1","0","4","","","","","","","",""
"pit-trial","93","677023","0.0-2.0-17.2-2.2","battery-v0.2","","""event"",""trial"",""time""
""fullscreenenter"",""1"",""3788""
","
","
","""event"",""trial"",""time""
""fullscreenenter"",""1"",""3788""
","
","","","300.60000014305115","","","25","7072","3754","&#9789;","elianto","#f73b6a7A"," "," ","1","0","[1153.4000000953674]","1","0","4","","","","","","","",""
"pit-trial","94","679999","0.0-2.0-17.2-3.2","battery-v0.2","","""event"",""trial"",""time""
""fullscreenenter"",""1"",""3788""
","
","
","""event"",""trial"",""time""
""fullscreenenter"",""1"",""3788""
","
","","","101.79999995231628","","","25","7072","3754","&#9789;","elianto","#f73b6a7A"," "," ","1","-10","[958.2999999523163]","1","0","4","","","","","","","",""
"pit-trial","95","684863","0.0-2.0-17.2-4.2","battery-v0.2","","""event"",""trial"",""time""
""fullscreenenter"",""1"",""3788""
","
","
","""event"",""trial"",""time""
""fullscreenenter"",""1"",""3788""
","
","","","-1","","","25","7072","3754","&#9789;","elianto","#f73b6a7A"," ","-1","0","-10","[]","0","0","4","","","","","","","",""
"pit-trial","96","689743","0.0-2.0-17.3-0.3","battery-v0.2","","""event"",""trial"",""time""
""fullscreenenter"",""1"",""3788""
","
","
","""event"",""trial"",""time""
""fullscreenenter"",""1"",""3788""
","
","","","-1","","","25","7072","3754","&#9789;","elianto","#f73b6a7A"," ","-1","0","-10","[]","0","0","4","","","","","","","",""
"pit-trial","97","694622","0.0-2.0-17.3-1.3","battery-v0.2","","""event"",""trial"",""time""
""fullscreenenter"",""1"",""3788""
","
","
","""event"",""trial"",""time""
""fullscreenenter"",""1"",""3788""
","
","","","-1","","","25","7072","3754","&#9789;","elianto","#f73b6a7A"," ","-1","0","-10","[]","0","0","4","","","","","","","",""
"pit-trial","98","699489","0.0-2.0-17.3-2.3","battery-v0.2","","""event"",""trial"",""time""
""fullscreenenter"",""1"",""3788""
","
","
","""event"",""trial"",""time""
""fullscreenenter"",""1"",""3788""
","
","","","-1","","","25","7072","3754","&#9789;","elianto","#f73b6a7A"," ","-1","0","-10","[]","0","0","4","","","","","","","",""
"pit-trial","99","704360","0.0-2.0-17.3-3.3","battery-v0.2","","""event"",""trial"",""time""
""fullscreenenter"",""1"",""3788""
","
","
","""event"",""trial"",""time""
""fullscreenenter"",""1"",""3788""
","
","","","-1","","","25","7072","3754","&#9789;","elianto","#f73b6a7A"," ","-1","0","0","[]","0","0","4","","","","","","","",""
"pit-trial","100","709240","0.0-2.0-17.3-4.3","battery-v0.2","","""event"",""trial"",""time""
""fullscreenenter"",""1"",""3788""
","
","
","""event"",""trial"",""time""
""fullscreenenter"",""1"",""3788""
","
","","","-1","","","25","7072","3754","&#9789;","elianto","#f73b6a7A"," ","-1","0","-10","[]","0","0","4","","","","","","","",""
"call-function","101","709248","0.0-2.0-18.0","battery-v0.2","","""event"",""trial"",""time""
""fullscreenenter"",""1"",""3788""
","
","
","""event"",""trial"",""time""
""fullscreenenter"",""1"",""3788""
","
","","","","","","","","","","","","","","","","","","","","","","","","","","",""
"pit-instructions","102","781563","0.0-2.0-19.0","battery-v0.2","","""event"",""trial"",""time""
""fullscreenenter"",""1"",""3788""
","
","
","""event"",""trial"",""time""
""fullscreenenter"",""1"",""3788""
","
","","[{""page_index"":0,""viewing_time"":7182.700000047684},{""page_index"":1,""viewing_time"":6013.700000047684},{""page_index"":2,""viewing_time"":14007.399999856949},{""page_index"":3,""viewing_time"":7819.299999952316},{""page_index"":4,""viewing_time"":9941.5},{""page_index"":5,""viewing_time"":8107.300000190735},{""page_index"":6,""viewing_time"":9228},{""page_index"":7,""viewing_time"":6265.799999952316},{""page_index"":8,""viewing_time"":3747.7000000476837}]","72314.09999990463","","","","","","","","","","","","","","","","","","","","","","","",""
"pit-comprehension","103","785911","0.0-2.0-20.0-0.0","battery-v0.2","","""event"",""trial"",""time""
""fullscreenenter"",""1"",""3788""
","
","
","""event"",""trial"",""time""
""fullscreenenter"",""1"",""3788""
","
","","","4338.5","[""SPACE""]","0","25","7072","3754","","","","","","","","","","","","","","","","","","",""
"pit-instructions","104","791312","0.0-2.0-20.0-1.0","battery-v0.2","","""event"",""trial"",""time""
""fullscreenenter"",""1"",""3788""
","
","
","""event"",""trial"",""time""
""fullscreenenter"",""1"",""3788""
","
","","[{""page_index"":0,""viewing_time"":5210.399999856949}]","5210.899999856949","","","","","","","","","","","","","","","","","","","","","","","",""
"pit-comprehension","105","798329","0.0-2.0-21.0-0.0","battery-v0.2","","""event"",""trial"",""time""
""fullscreenenter"",""1"",""3788""
","
","
","""event"",""trial"",""time""
""fullscreenenter"",""1"",""3788""
","
","","","7008.799999952316","[""10""]","0","25","7072","3754","","","","","","","","","","","","","","","","","","",""
"pit-instructions","106","800052","0.0-2.0-21.0-1.0","battery-v0.2","","""event"",""trial"",""time""
""fullscreenenter"",""1"",""3788""
","
","
","""event"",""trial"",""time""
""fullscreenenter"",""1"",""3788""
","
","","[{""page_index"":0,""viewing_time"":1635.2999999523163}]","1635.7000000476837","","","","","","","","","","","","","","","","","","","","","","","",""
"pit-comprehension","107","806786","0.0-2.0-22.0-0.0","battery-v0.2","","""event"",""trial"",""time""
""fullscreenenter"",""1"",""3788""
","
","
","""event"",""trial"",""time""
""fullscreenenter"",""1"",""3788""
","
","","","6726","[""-10""]","1","25","7072","3754","","","","","","","","","","","","","","","","","","",""
"pit-instructions","108","811073","0.0-2.0-22.0-1.0","battery-v0.2","","""event"",""trial"",""time""
""fullscreenenter"",""1"",""3788""
","
","
","""event"",""trial"",""time""
""fullscreenenter"",""1"",""3788""
","
","","[{""page_index"":0,""viewing_time"":4210.299999952316}]","4210.899999856949","","","","","","","","","","","","","","","","","","","","","","","",""
"pit-instructions","109","816239","0.0-2.0-22.0-2.0-0.0","battery-v0.2","","""event"",""trial"",""time""
""fullscreenenter"",""1"",""3788""
","
","
","""event"",""trial"",""time""
""fullscreenenter"",""1"",""3788""
","
","","[{""page_index"":0,""viewing_time"":5159.399999856949}]","5159.799999952316","","","","","","","","","","","","","","","","","","","","","","","",""
"pit-comprehension","110","822844","0.0-2.0-22.1-0.1","battery-v0.2","","""event"",""trial"",""time""
""fullscreenenter"",""1"",""3788""
","
","
","""event"",""trial"",""time""
""fullscreenenter"",""1"",""3788""
","
","","","6598.100000143051","[""0""]","0","25","7072","3754","","","","","","","","","","","","","","","","","","",""
"pit-instructions","111","825953","0.0-2.0-22.1-1.1","battery-v0.2","","""event"",""trial"",""time""
""fullscreenenter"",""1"",""3788""
","
","
","""event"",""trial"",""time""
""fullscreenenter"",""1"",""3788""
","
","","[{""page_index"":0,""viewing_time"":3024.7999999523163}]","3025.199999809265","","","","","","","","","","","","","","","","","","","","","","","",""
"pit-comprehension","112","836122","0.0-2.0-23.0-0.0","battery-v0.2","","""event"",""trial"",""time""
""fullscreenenter"",""1"",""3788""
","
","
","""event"",""trial"",""time""
""fullscreenenter"",""1"",""3788""
","
","","","10161.799999952316","[""False""]","1","25","7072","3754","","","","","","","","","","","","","","","","","","",""
"pit-instructions","113","839844","0.0-2.0-23.0-1.0","battery-v0.2","","""event"",""trial"",""time""
""fullscreenenter"",""1"",""3788""
","
","
","""event"",""trial"",""time""
""fullscreenenter"",""1"",""3788""
","
","","[{""page_index"":0,""viewing_time"":3636.399999856949}]","3636.899999856949","","","","","","","","","","","","","","","","","","","","","","","",""
"pit-instructions","114","846055","0.0-2.0-23.0-2.0-0.0","battery-v0.2","","""event"",""trial"",""time""
""fullscreenenter"",""1"",""3788""
","
","
","""event"",""trial"",""time""
""fullscreenenter"",""1"",""3788""
","
","","[{""page_index"":0,""viewing_time"":6205.299999952316}]","6205.799999952316","","","","","","","","","","","","","","","","","","","","","","","",""
"pit-comprehension","115","854744","0.0-2.0-23.1-0.1","battery-v0.2","","""event"",""trial"",""time""
""fullscreenenter"",""1"",""3788""
","
","
","""event"",""trial"",""time""
""fullscreenenter"",""1"",""3788""
","
","","","8682.600000143051","[""True""]","0","25","7072","3754","","","","","","","","","","","","","","","","","","",""
"pit-instructions","116","856694","0.0-2.0-23.1-1.1","battery-v0.2","","""event"",""trial"",""time""
""fullscreenenter"",""1"",""3788""
","
","
","""event"",""trial"",""time""
""fullscreenenter"",""1"",""3788""
","
","","[{""page_index"":0,""viewing_time"":1868.9000000953674}]","1869.2999999523163","","","","","","","","","","","","","","","","","","","","","","","",""
"pit-comprehension","117","864648","0.0-2.0-24.0-0.0","battery-v0.2","","""event"",""trial"",""time""
""fullscreenenter"",""1"",""3788""
","
","
","""event"",""trial"",""time""
""fullscreenenter"",""1"",""3788""
","
","","","7947.099999904633","[""True""]","0","25","7072","3754","","","","","","","","","","","","","","","","","","",""
"pit-instructions","118","867809","0.0-2.0-24.0-1.0","battery-v0.2","","""event"",""trial"",""time""
""fullscreenenter"",""1"",""3788""
","
","
","""event"",""trial"",""time""
""fullscreenenter"",""1"",""3788""
","
","","[{""page_index"":0,""viewing_time"":3082.600000143051}]","3083","","","","","","","","","","","","","","","","","","","","","","","",""
"pit-comprehension","119","874476","0.0-2.0-25.0-0.0","battery-v0.2","","""event"",""trial"",""time""
""fullscreenenter"",""1"",""3788""
","
","
","""event"",""trial"",""time""
""fullscreenenter"",""1"",""3788""
","
","","","6659.899999856949","[""True""]","0","25","7072","3754","","","","","","","","","","","","","","","","","","",""
"pit-instructions","120","876301","0.0-2.0-25.0-1.0","battery-v0.2","","""event"",""trial"",""time""
""fullscreenenter"",""1"",""3788""
","
","
","""event"",""trial"",""time""
""fullscreenenter"",""1"",""3788""
","
","","[{""page_index"":0,""viewing_time"":1734}]","1734.5","","","","","","","","","","","","","","","","","","","","","","","",""
"pit-comprehension","121","885386","0.0-2.0-26.0-0.0","battery-v0.2","","""event"",""trial"",""time""
""fullscreenenter"",""1"",""3788""
","
","
","""event"",""trial"",""time""
""fullscreenenter"",""1"",""3788""
","
","","","9077.799999952316","[""True""]","1","25","7072","3754","","","","","","","","","","","","","","","","","","",""
"pit-instructions","122","890098","0.0-2.0-26.0-1.0","battery-v0.2","","""event"",""trial"",""time""
""fullscreenenter"",""1"",""3788""
","
","
","""event"",""trial"",""time""
""fullscreenenter"",""1"",""3788""
","
","","[{""page_index"":0,""viewing_time"":4622.799999952316}]","4623.299999952316","","","","","","","","","","","","","","","","","","","","","","","",""
"pit-instructions","123","892224","0.0-2.0-26.0-2.0-0.0","battery-v0.2","","""event"",""trial"",""time""
""fullscreenenter"",""1"",""3788""
","
","
","""event"",""trial"",""time""
""fullscreenenter"",""1"",""3788""
","
","","[{""page_index"":0,""viewing_time"":2120.100000143051}]","2120.5","","","","","","","","","","","","","","","","","","","","","","","",""
"pit-comprehension","124","896265","0.0-2.0-26.1-0.1","battery-v0.2","","""event"",""trial"",""time""
""fullscreenenter"",""1"",""3788""
","
","
","""event"",""trial"",""time""
""fullscreenenter"",""1"",""3788""
","
","","","4035.5","[""False""]","0","25","7072","3754","","","","","","","","","","","","","","","","","","",""
"pit-instructions","125","898253","0.0-2.0-26.1-1.1","battery-v0.2","","""event"",""trial"",""time""
""fullscreenenter"",""1"",""3788""
","
","
","""event"",""trial"",""time""
""fullscreenenter"",""1"",""3788""
","
","","[{""page_index"":0,""viewing_time"":1903.1000001430511}]","1903.7000000476837","","","","","","","","","","","","","","","","","","","","","","","",""
"pit-instructions","126","915054","0.0-3.0","battery-v0.2","","""event"",""trial"",""time""
""fullscreenenter"",""1"",""3788""
","
","
","""event"",""trial"",""time""
""fullscreenenter"",""1"",""3788""
","
","","[{""page_index"":0,""viewing_time"":3840},{""page_index"":1,""viewing_time"":5235.599999904633},{""page_index"":2,""viewing_time"":7719.5}]","16795.5","","","","","","","","","","","","","","","","","","","","","","","",""
"pit-trial","127","918555","0.0-4.0","battery-v0.2","","""event"",""trial"",""time""
""fullscreenenter"",""1"",""3788""
","
","
","""event"",""trial"",""time""
""fullscreenenter"",""1"",""3788""
","
","","","634.7999999523163","","","25","7072","3754","&#9728;","elianto","#f73b6a7A","-1"," ","0","-10","[1486]","1","1","","","7072","1","0","4","lose","no-go","0"
"pit-trial","128","922464","0.0-5.0","battery-v0.2","","""event"",""trial"",""time""
""fullscreenenter"",""1"",""3788""
","
","
","""event"",""trial"",""time""
""fullscreenenter"",""1"",""3788""
","
","","","1046","","","25","7072","3754","&#9752;","elianto","#f73b6a7A"," "," ","1","0","[1896.0999999046326]","1","1","","","7072","2","3","3","lose","go","0"
"pit-trial","129","926029","0.0-6.0","battery-v0.2","","""event"",""trial"",""time""
""fullscreenenter"",""1"",""3788""
","
","
","""event"",""trial"",""time""
""fullscreenenter"",""1"",""3788""
","
","","","684.5","","","25","7072","3754","&#9730;","elianto","#3366ff99"," "," ","1","0","[1543.7999999523163]","1","1","","","7072","3","1","1","win","go","1"
"pit-trial","130","929469","0.0-7.0","battery-v0.2","","""event"",""trial"",""time""
""fullscreenenter"",""1"",""3788""
","
","
","""event"",""trial"",""time""
""fullscreenenter"",""1"",""3788""
","
","","","572.2000000476837","","","25","7072","3754","&#9733;","elianto","#3366ff99","-1"," ","0","0","[1422.2999999523163]","1","1","","","7072","4","2","2","win","no-go","0"
"pit-trial","131","933300","0.0-8.0","battery-v0.2","","""event"",""trial"",""time""
""fullscreenenter"",""1"",""3788""
","
","
","""event"",""trial"",""time""
""fullscreenenter"",""1"",""3788""
","
","","","957.7999999523163","","","25","7072","3754","&#9733;","elianto","#3366ff99","-1"," ","0","0","[1818.2000000476837]","1","1","","","7072","5","2","2","win","no-go","0"
"pit-trial","132","937059","0.0-9.0","battery-v0.2","","""event"",""trial"",""time""
""fullscreenenter"",""1"",""3788""
","
","
","""event"",""trial"",""time""
""fullscreenenter"",""1"",""3788""
","
","","","885.6999998092651","","","25","7072","3754","&#9752;","elianto","#f73b6a7A"," "," ","1","0","[1737.7000000476837]","1","1","","","7072","6","3","3","lose","go","0"
"pit-trial","133","941940","0.0-10.0","battery-v0.2","","""event"",""trial"",""time""
""fullscreenenter"",""1"",""3788""
","
","
","""event"",""trial"",""time""
""fullscreenenter"",""1"",""3788""
","
","","","-1","","","25","7072","3754","&#9728;","elianto","#f73b6a7A","-1","-1","1","0","[]","0","1","","","7072","7","0","4","lose","no-go","0"
"pit-trial","134","945597","0.0-11.0","battery-v0.2","","""event"",""trial"",""time""
""fullscreenenter"",""1"",""3788""
","
","
","""event"",""trial"",""time""
""fullscreenenter"",""1"",""3788""
","
","","","776.7000000476837","","","25","7072","3754","&#9730;","elianto","#3366ff99"," "," ","1","+10","[1634.8999998569489]","1","1","","","7072","8","1","1","win","go","0"
"pit-trial","135","950114","0.0-12.0","battery-v0.2","","""event"",""trial"",""time""
""fullscreenenter"",""1"",""3788""
","
","
","""event"",""trial"",""time""
""fullscreenenter"",""1"",""3788""
","
","","","1652.7000000476837","","","25","7072","3754","&#9752;","elianto","#f73b6a7A"," "," ","1","0","[2503.5999999046326]","1","1","","","7072","9","3","3","lose","go","0"
"pit-trial","136","954984","0.0-13.0","battery-v0.2","","""event"",""trial"",""time""
""fullscreenenter"",""1"",""3788""
","
","
","""event"",""trial"",""time""
""fullscreenenter"",""1"",""3788""
","
","","","-1","","","25","7072","3754","&#9728;","elianto","#f73b6a7A","-1","-1","1","0","[]","0","1","","","7072","10","0","4","lose","no-go","0"
"pit-trial","137","958595","0.0-14.0","battery-v0.2","","""event"",""trial"",""time""
""fullscreenenter"",""1"",""3788""
","
","
","""event"",""trial"",""time""
""fullscreenenter"",""1"",""3788""
","
","","","748.2999999523163","","","25","7072","3754","&#9730;","elianto","#3366ff99"," "," ","1","+10","[1601.3999998569489]","1","1","","","7072","11","1","1","win","go","0"
"pit-trial","138","961997","0.0-15.0","battery-v0.2","","""event"",""trial"",""time""
""fullscreenenter"",""1"",""3788""
","
","
","""event"",""trial"",""time""
""fullscreenenter"",""1"",""3788""
","
","","","536","","","25","7072","3754","&#9733;","elianto","#3366ff99","-1"," ","0","0","[1390.2999999523163]","1","1","","","7072","12","2","2","win","no-go","0"
"pit-trial","139","965527","0.0-16.0","battery-v0.2","","""event"",""trial"",""time""
""fullscreenenter"",""1"",""3788""
","
","
","""event"",""trial"",""time""
""fullscreenenter"",""1"",""3788""
","
","","","651.6000001430511","","","25","7072","3754","&#9733;","elianto","#3366ff99","-1"," ","0","+10","[1506.9000000953674]","1","1","","","7072","13","2","2","win","no-go","1"
"pit-trial","140","970051","0.0-17.0","battery-v0.2","","""event"",""trial"",""time""
""fullscreenenter"",""1"",""3788""
","
","
","""event"",""trial"",""time""
""fullscreenenter"",""1"",""3788""
","
","","","1630.8999998569489","","","25","7072","3754","&#9728;","elianto","#f73b6a7A","-1"," ","0","0","[2487.5999999046326]","1","1","","","7072","14","0","4","lose","no-go","1"
"pit-trial","141","974939","0.0-18.0","battery-v0.2","","""event"",""trial"",""time""
""fullscreenenter"",""1"",""3788""
","
","
","""event"",""trial"",""time""
""fullscreenenter"",""1"",""3788""
","
","","","-1","","","25","7072","3754","&#9752;","elianto","#f73b6a7A"," ","-1","0","-10","[]","0","1","","","7072","15","3","3","lose","go","0"
"pit-trial","142","978452","0.0-19.0","battery-v0.2","","""event"",""trial"",""time""
""fullscreenenter"",""1"",""3788""
","
","
","""event"",""trial"",""time""
""fullscreenenter"",""1"",""3788""
","
","","","617.2999999523163","","","25","7072","3754","&#9730;","elianto","#3366ff99"," "," ","1","+10","[1474.1000001430511]","1","1","","","7072","16","1","1","win","go","0"
"pit-trial","143","983337","0.0-20.0","battery-v0.2","","""event"",""trial"",""time""
""fullscreenenter"",""1"",""3788""
","
","
","""event"",""trial"",""time""
""fullscreenenter"",""1"",""3788""
","
","","","-1","","","25","7072","3754","&#9752;","elianto","#f73b6a7A"," ","-1","0","-10","[3286.7999999523163]","1","1","","","7072","17","3","3","lose","go","0"
"pit-trial","144","988212","0.0-21.0","battery-v0.2","","""event"",""trial"",""time""
""fullscreenenter"",""1"",""3788""
","
","
","""event"",""trial"",""time""
""fullscreenenter"",""1"",""3788""
","
","","","-1","","","25","7072","3754","&#9728;","elianto","#f73b6a7A","-1","-1","1","0","[]","0","1","","","7072","18","0","4","lose","no-go","0"
"pit-trial","145","991749","0.0-22.0","battery-v0.2","","""event"",""trial"",""time""
""fullscreenenter"",""1"",""3788""
","
","
","""event"",""trial"",""time""
""fullscreenenter"",""1"",""3788""
","
","","","676.4000000953674","","","25","7072","3754","&#9733;","elianto","#3366ff99","-1"," ","0","0","[1526.7000000476837]","1","1","","","7072","19","2","2","win","no-go","0"
"pit-trial","146","995112","0.0-23.0","battery-v0.2","","""event"",""trial"",""time""
""fullscreenenter"",""1"",""3788""
","
","
","""event"",""trial"",""time""
""fullscreenenter"",""1"",""3788""
","
","","","495.90000009536743","","","25","7072","3754","&#9730;","elianto","#3366ff99"," "," ","1","0","[1350.4000000953674]","1","1","","","7072","20","1","1","win","go","1"
"pit-instructions","147","1007222","0.0-24.0","battery-v0.2","","""event"",""trial"",""time""
""fullscreenenter"",""1"",""3788""
","
","
","""event"",""trial"",""time""
""fullscreenenter"",""1"",""3788""
","
","","[{""page_index"":0,""viewing_time"":5773.600000143051},{""page_index"":1,""viewing_time"":6327.200000047684}]","12101.300000190735","","","","","","","","","","","","","","","","","","","","","","","",""
"pit-trial","148","1010818","0.0-25.0","battery-v0.2","","""event"",""trial"",""time""
""fullscreenenter"",""1"",""3788""
","
","
","""event"",""trial"",""time""
""fullscreenenter"",""1"",""3788""
","
","","","715.5","","","25","7072","3754","a","elianto","#f73b6a7A"," "," ","1","0","[1568]","1","2","","","7072","21","2","3","lose","go","0"
"pit-trial","149","1014508","0.0-26.0","battery-v0.2","","""event"",""trial"",""time""
""fullscreenenter"",""1"",""3788""
","
","
","""event"",""trial"",""time""
""fullscreenenter"",""1"",""3788""
","
","","","817.8000001907349","","","25","7072","3754","g","elianto","#f73b6a7A","-1"," ","0","-10","[1668.3999998569489]","1","2","","","7072","22","3","4","lose","no-go","0"
"pit-trial","150","1018138","0.0-27.0","battery-v0.2","","""event"",""trial"",""time""
""fullscreenenter"",""1"",""3788""
","
","
","""event"",""trial"",""time""
""fullscreenenter"",""1"",""3788""
","
","","","750.1000001430511","","","25","7072","3754","u","elianto","#f73b6a7A"," "," ","1","-10","[1603.7999999523163]","1","2","","","7072","23","0","3","lose","go","1"
"pit-trial","151","1021588","0.0-28.0","battery-v0.2","","""event"",""trial"",""time""
""fullscreenenter"",""1"",""3788""
","
","
","""event"",""trial"",""time""
""fullscreenenter"",""1"",""3788""
","
","","","583.7999999523163","","","25","7072","3754","l","elianto","#3366ff99","-1"," ","0","0","[1433.8999998569489]","1","2","","","7072","24","1","2","win","no-go","0"
"pit-trial","152","1024908","0.0-29.0","battery-v0.2","","""event"",""trial"",""time""
""fullscreenenter"",""1"",""3788""
","
","
","""event"",""trial"",""time""
""fullscreenenter"",""1"",""3788""
","
","","","448.09999990463257","","","25","7072","3754","l","elianto","#3366ff99","-1"," ","0","0","[1302]","1","2","","","7072","25","1","2","win","no-go","0"
"pit-trial","153","1028158","0.0-30.0","battery-v0.2","","""event"",""trial"",""time""
""fullscreenenter"",""1"",""3788""
","
","
","""event"",""trial"",""time""
""fullscreenenter"",""1"",""3788""
","
","","","389.2999999523163","","","25","7072","3754","a","elianto","#f73b6a7A"," "," ","1","0","[1239.8999998569489]","1","2","","","7072","26","2","3","lose","go","0"
"pit-trial","154","1033038","0.0-31.0","battery-v0.2","","""event"",""trial"",""time""
""fullscreenenter"",""1"",""3788""
","
","
","""event"",""trial"",""time""
""fullscreenenter"",""1"",""3788""
","
","","","-1","","","25","7072","3754","g","elianto","#f73b6a7A","-1","-1","1","0","[]","0","2","","","7072","27","3","4","lose","no-go","0"
"pit-trial","155","1036368","0.0-32.0","battery-v0.2","","""event"",""trial"",""time""
""fullscreenenter"",""1"",""3788""
","
","
","""event"",""trial"",""time""
""fullscreenenter"",""1"",""3788""
","
","","","457.7999999523163","","","25","7072","3754","u","elianto","#f73b6a7A"," "," ","1","-10","[1312.4000000953674]","1","2","","","7072","28","0","3","lose","go","1"
"pit-trial","156","1040621","0.0-33.0","battery-v0.2","","""event"",""trial"",""time""
""fullscreenenter"",""1"",""3788""
","
","
","""event"",""trial"",""time""
""fullscreenenter"",""1"",""3788""
","
","","","1382.2000000476837","","","25","7072","3754","u","elianto","#f73b6a7A"," "," ","1","0","[2238.2999999523163]","1","2","","","7072","29","0","3","lose","go","0"
"pit-trial","157","1044345","0.0-34.0","battery-v0.2","","""event"",""trial"",""time""
""fullscreenenter"",""1"",""3788""
","
","
","""event"",""trial"",""time""
""fullscreenenter"",""1"",""3788""
","
","","","857.3000001907349","","","25","7072","3754","g","elianto","#f73b6a7A","-1"," ","0","-10","[1713.2999999523163]","1","2","","","7072","30","3","4","lose","no-go","0"
"pit-trial","158","1049215","0.0-35.0","battery-v0.2","","""event"",""trial"",""time""
""fullscreenenter"",""1"",""3788""
","
","
","""event"",""trial"",""time""
""fullscreenenter"",""1"",""3788""
","
","","","-1","","","25","7072","3754","a","elianto","#f73b6a7A"," ","-1","0","-10","[]","0","2","","","7072","31","2","3","lose","go","0"
"pit-trial","159","1052526","0.0-36.0","battery-v0.2","","""event"",""trial"",""time""
""fullscreenenter"",""1"",""3788""
","
","
","""event"",""trial"",""time""
""fullscreenenter"",""1"",""3788""
","
","","","446.60000014305115","","","25","7072","3754","l","elianto","#3366ff99","-1"," ","0","0","[1297.4000000953674]","1","2","","","7072","32","1","2","win","no-go","0"
"pit-trial","160","1057401","0.0-37.0","battery-v0.2","","""event"",""trial"",""time""
""fullscreenenter"",""1"",""3788""
","
","
","""event"",""trial"",""time""
""fullscreenenter"",""1"",""3788""
","
","","","-1","","","25","7072","3754","g","elianto","#f73b6a7A","-1","-1","1","0","[]","0","2","","","7072","33","3","4","lose","no-go","0"
"pit-trial","161","1061477","0.0-38.0","battery-v0.2","","""event"",""trial"",""time""
""fullscreenenter"",""1"",""3788""
","
","
","""event"",""trial"",""time""
""fullscreenenter"",""1"",""3788""
","
","","","1210.7999999523163","","","25","7072","3754","a","elianto","#f73b6a7A"," "," ","1","0","[2061.2999999523163]","1","2","","","7072","34","2","3","lose","go","0"
"pit-trial","162","1066349","0.0-39.0","battery-v0.2","","""event"",""trial"",""time""
""fullscreenenter"",""1"",""3788""
","
","
","""event"",""trial"",""time""
""fullscreenenter"",""1"",""3788""
","
","","","-1","","","25","7072","3754","u","elianto","#f73b6a7A"," ","-1","0","-10","[]","0","2","","","7072","35","0","3","lose","go","0"
"pit-trial","163","1069706","0.0-40.0","battery-v0.2","","""event"",""trial"",""time""
""fullscreenenter"",""1"",""3788""
","
","
","""event"",""trial"",""time""
""fullscreenenter"",""1"",""3788""
","
","","","490.7999999523163","","","25","7072","3754","l","elianto","#3366ff99","-1"," ","0","0","[1342.7999999523163]","1","2","","","7072","36","1","2","win","no-go","0"
"pit-trial","164","1074577","0.0-41.0","battery-v0.2","","""event"",""trial"",""time""
""fullscreenenter"",""1"",""3788""
","
","
","""event"",""trial"",""time""
""fullscreenenter"",""1"",""3788""
","
","","","-1","","","25","7072","3754","g","elianto","#f73b6a7A","-1","-1","1","0","[]","0","2","","","7072","37","3","4","lose","no-go","0"
"pit-trial","165","1079448","0.0-42.0","battery-v0.2","","""event"",""trial"",""time""
""fullscreenenter"",""1"",""3788""
","
","
","""event"",""trial"",""time""
""fullscreenenter"",""1"",""3788""
","
","","","-1","","","25","7072","3754","u","elianto","#f73b6a7A"," ","-1","0","-10","[]","0","2","","","7072","38","0","3","lose","go","0"
"pit-trial","166","1083029","0.0-43.0","battery-v0.2","","""event"",""trial"",""time""
""fullscreenenter"",""1"",""3788""
","
","
","""event"",""trial"",""time""
""fullscreenenter"",""1"",""3788""
","
","","","702.0999999046326","","","25","7072","3754","l","elianto","#3366ff99","-1"," ","0","0","[1555.9000000953674]","1","2","","","7072","39","1","2","win","no-go","0"
"pit-trial","167","1087898","0.0-44.0","battery-v0.2","","""event"",""trial"",""time""
""fullscreenenter"",""1"",""3788""
","
","
","""event"",""trial"",""time""
""fullscreenenter"",""1"",""3788""
","
","","","-1","","","25","7072","3754","a","elianto","#f73b6a7A"," ","-1","0","0","[]","0","2","","","7072","40","2","3","lose","go","1"
"pit-trial","168","1092088","0.0-45.0","battery-v0.2","","""event"",""trial"",""time""
""fullscreenenter"",""1"",""3788""
","
","
","""event"",""trial"",""time""
""fullscreenenter"",""1"",""3788""
","
","","","1326.4000000953674","","","25","7072","3754","a","elianto","#f73b6a7A"," "," ","1","-10","[2177.5]","1","2","","","7072","41","2","3","lose","go","1"
"pit-trial","169","1096458","0.0-46.0","battery-v0.2","","""event"",""trial"",""time""
""fullscreenenter"",""1"",""3788""
","
","
","""event"",""trial"",""time""
""fullscreenenter"",""1"",""3788""
","
","","","1502.3999998569489","","","25","7072","3754","u","elianto","#f73b6a7A"," "," ","1","0","[2355.2000000476837]","1","2","","","7072","42","0","3","lose","go","0"
"pit-trial","170","1101332","0.0-47.0","battery-v0.2","","""event"",""trial"",""time""
""fullscreenenter"",""1"",""3788""
","
","
","""event"",""trial"",""time""
""fullscreenenter"",""1"",""3788""
","
","","","-1","","","25","7072","3754","g","elianto","#f73b6a7A","-1","-1","1","-10","[]","0","2","","","7072","43","3","4","lose","no-go","1"
"pit-trial","171","1104942","0.0-48.0","battery-v0.2","","""event"",""trial"",""time""
""fullscreenenter"",""1"",""3788""
","
","
","""event"",""trial"",""time""
""fullscreenenter"",""1"",""3788""
","
","","","738.3999998569489","","","25","7072","3754","l","elianto","#3366ff99","-1"," ","0","0","[1590.5]","1","2","","","7072","44","1","2","win","no-go","0"
"pit-trial","172","1109192","0.0-49.0","battery-v0.2","","""event"",""trial"",""time""
""fullscreenenter"",""1"",""3788""
","
","
","""event"",""trial"",""time""
""fullscreenenter"",""1"",""3788""
","
","","","1369.7000000476837","","","25","7072","3754","a","elianto","#f73b6a7A"," "," ","1","0","[2224.199999809265]","1","2","","","7072","45","2","3","lose","go","0"
"pit-trial","173","1114084","0.0-50.0","battery-v0.2","","""event"",""trial"",""time""
""fullscreenenter"",""1"",""3788""
","
","
","""event"",""trial"",""time""
""fullscreenenter"",""1"",""3788""
","
","","","-1","","","25","7072","3754","u","elianto","#f73b6a7A"," ","-1","0","-10","[]","0","2","","","7072","46","0","3","lose","go","0"
"pit-trial","174","1118976","0.0-51.0","battery-v0.2","","""event"",""trial"",""time""
""fullscreenenter"",""1"",""3788""
","
","
","""event"",""trial"",""time""
""fullscreenenter"",""1"",""3788""
","
","","","-1","","","25","7072","3754","g","elianto","#f73b6a7A","-1","-1","1","0","[]","0","2","","","7072","47","3","4","lose","no-go","0"
"pit-trial","175","1123869","0.0-52.0","battery-v0.2","","""event"",""trial"",""time""
""fullscreenenter"",""1"",""3788""
","
","
","""event"",""trial"",""time""
""fullscreenenter"",""1"",""3788""
","
","","","-1","","","25","7072","3754","l","elianto","#3366ff99","-1","-1","1","+10","[]","0","2","","","7072","48","1","2","win","no-go","0"
"pit-trial","176","1127874","0.0-53.0","battery-v0.2","","""event"",""trial"",""time""
""fullscreenenter"",""1"",""3788""
","
","
","""event"",""trial"",""time""
""fullscreenenter"",""1"",""3788""
","
","","","1109.1000001430511","","","25","7072","3754","a","elianto","#f73b6a7A"," "," ","1","0","[1973.3999998569489]","1","2","","","7072","49","2","3","lose","go","0"
"pit-trial","177","1131744","0.0-54.0","battery-v0.2","","""event"",""trial"",""time""
""fullscreenenter"",""1"",""3788""
","
","
","""event"",""trial"",""time""
""fullscreenenter"",""1"",""3788""
","
","","","992.4000000953674","","","25","7072","3754","u","elianto","#f73b6a7A"," "," ","1","0","[1850]","1","2","","","7072","50","0","3","lose","go","0"
"pit-trial","178","1135544","0.0-55.0","battery-v0.2","","""event"",""trial"",""time""
""fullscreenenter"",""1"",""3788""
","
","
","""event"",""trial"",""time""
""fullscreenenter"",""1"",""3788""
","
","","","914.2000000476837","","","25","7072","3754","l","elianto","#3366ff99","-1"," ","0","0","[1767.1000001430511]","1","2","","","7072","51","1","2","win","no-go","0"
"pit-trial","179","1140416","0.0-56.0","battery-v0.2","","""event"",""trial"",""time""
""fullscreenenter"",""1"",""3788""
","
","
","""event"",""trial"",""time""
""fullscreenenter"",""1"",""3788""
","
","","","-1","","","25","7072","3754","g","elianto","#f73b6a7A","-1","-1","1","-10","[]","0","2","","","7072","52","3","4","lose","no-go","1"
"pit-trial","180","1145282","0.0-57.0","battery-v0.2","","""event"",""trial"",""time""
""fullscreenenter"",""1"",""3788""
","
","
","""event"",""trial"",""time""
""fullscreenenter"",""1"",""3788""
","
","","","-1","","","25","7072","3754","u","elianto","#f73b6a7A"," ","-1","0","0","[3870]","1","2","","","7072","53","0","3","lose","go","1"
"pit-trial","181","1150173","0.0-58.0","battery-v0.2","","""event"",""trial"",""time""
""fullscreenenter"",""1"",""3788""
","
","
","""event"",""trial"",""time""
""fullscreenenter"",""1"",""3788""
","
","","","-1","","","25","7072","3754","g","elianto","#f73b6a7A","-1","-1","1","0","[]","0","2","","","7072","54","3","4","lose","no-go","0"
"pit-trial","182","1153801","0.0-59.0","battery-v0.2","","""event"",""trial"",""time""
""fullscreenenter"",""1"",""3788""
","
","
","""event"",""trial"",""time""
""fullscreenenter"",""1"",""3788""
","
","","","754.7999999523163","","","25","7072","3754","l","elianto","#3366ff99","-1"," ","0","0","[1607.7999999523163]","1","2","","","7072","55","1","2","win","no-go","0"
"pit-trial","183","1156978","0.0-60.0","battery-v0.2","","""event"",""trial"",""time""
""fullscreenenter"",""1"",""3788""
","
","
","""event"",""trial"",""time""
""fullscreenenter"",""1"",""3788""
","
","","","302.59999990463257","","","25","7072","3754","a","elianto","#f73b6a7A"," "," ","1","0","[1159.5999999046326]","1","2","","","7072","56","2","3","lose","go","0"
"pit-trial","184","1161329","0.0-61.0","battery-v0.2","","""event"",""trial"",""time""
""fullscreenenter"",""1"",""3788""
","
","
","""event"",""trial"",""time""
""fullscreenenter"",""1"",""3788""
","
","","","1482.5","","","25","7072","3754","g","elianto","#f73b6a7A","-1"," ","0","-10","[2333]","1","2","","","7072","57","3","4","lose","no-go","0"
"pit-trial","185","1165292","0.0-62.0","battery-v0.2","","""event"",""trial"",""time""
""fullscreenenter"",""1"",""3788""
","
","
","""event"",""trial"",""time""
""fullscreenenter"",""1"",""3788""
","
","","","1082.2000000476837","","","25","7072","3754","u","elianto","#f73b6a7A"," "," ","1","0","[1940.3999998569489]","1","2","","","7072","58","0","3","lose","go","0"
"pit-trial","186","1169752","0.0-63.0","battery-v0.2","","""event"",""trial"",""time""
""fullscreenenter"",""1"",""3788""
","
","
","""event"",""trial"",""time""
""fullscreenenter"",""1"",""3788""
","
","","","1594.8999998569489","","","25","7072","3754","p","elianto","#3366ff99"," "," ","1","0","[2445.5]","1","2","","","7072","59","4","1","win","go","1"
"pit-trial","187","1173829","0.0-64.0","battery-v0.2","","""event"",""trial"",""time""
""fullscreenenter"",""1"",""3788""
","
","
","""event"",""trial"",""time""
""fullscreenenter"",""1"",""3788""
","
","","","1207.7999999523163","","","25","7072","3754","a","elianto","#f73b6a7A"," "," ","1","-10","[2064.7000000476837]","1","2","","","7072","60","2","3","lose","go","1"
"pit-trial","188","1177484","0.0-65.0","battery-v0.2","","""event"",""trial"",""time""
""fullscreenenter"",""1"",""3788""
","
","
","""event"",""trial"",""time""
""fullscreenenter"",""1"",""3788""
","
","","","787.9000000953674","","","25","7072","3754","p","elianto","#3366ff99"," "," ","1","0","[1641]","1","2","","","7072","61","4","1","win","go","1"
"pit-trial","189","1182355","0.0-66.0","battery-v0.2","","""event"",""trial"",""time""
""fullscreenenter"",""1"",""3788""
","
","
","""event"",""trial"",""time""
""fullscreenenter"",""1"",""3788""
","
","","","-1","","","25","7072","3754","g","elianto","#f73b6a7A","-1","-1","1","0","[]","0","2","","","7072","62","3","4","lose","no-go","0"
"pit-trial","190","1186015","0.0-67.0","battery-v0.2","","""event"",""trial"",""time""
""fullscreenenter"",""1"",""3788""
","
","
","""event"",""trial"",""time""
""fullscreenenter"",""1"",""3788""
","
","","","788.0999999046326","","","25","7072","3754","a","elianto","#f73b6a7A"," "," ","1","0","[1644]","1","2","","","7072","63","2","3","lose","go","0"
"pit-trial","191","1189492","0.0-68.0","battery-v0.2","","""event"",""trial"",""time""
""fullscreenenter"",""1"",""3788""
","
","
","""event"",""trial"",""time""
""fullscreenenter"",""1"",""3788""
","
","","","609.3999998569489","","","25","7072","3754","l","elianto","#3366ff99","-1"," ","0","0","[1459.5]","1","2","","","7072","64","1","2","win","no-go","0"
"pit-trial","192","1193495","0.0-69.0","battery-v0.2","","""event"",""trial"",""time""
""fullscreenenter"",""1"",""3788""
","
","
","""event"",""trial"",""time""
""fullscreenenter"",""1"",""3788""
","
","","","1124.5999999046326","","","25","7072","3754","s","elianto","#3366ff99","-1"," ","0","0","[1976.6000001430511]","1","2","","","7072","65","5","2","win","no-go","0"
"pit-trial","193","1197036","0.0-70.0","battery-v0.2","","""event"",""trial"",""time""
""fullscreenenter"",""1"",""3788""
","
","
","""event"",""trial"",""time""
""fullscreenenter"",""1"",""3788""
","
","","","671","","","25","7072","3754","g","elianto","#f73b6a7A","-1"," ","0","-10","[1522.2999999523163]","1","2","","","7072","66","3","4","lose","no-go","0"
"pit-trial","194","1200216","0.0-71.0","battery-v0.2","","""event"",""trial"",""time""
""fullscreenenter"",""1"",""3788""
","
","
","""event"",""trial"",""time""
""fullscreenenter"",""1"",""3788""
","
","","","313.39999985694885","","","25","7072","3754","l","elianto","#3366ff99","-1"," ","0","0","[1166.4000000953674]","1","2","","","7072","67","1","2","win","no-go","0"
"pit-trial","195","1203782","0.0-72.0","battery-v0.2","","""event"",""trial"",""time""
""fullscreenenter"",""1"",""3788""
","
","
","""event"",""trial"",""time""
""fullscreenenter"",""1"",""3788""
","
","","","701.9000000953674","","","25","7072","3754","p","elianto","#3366ff99"," "," ","1","0","[1552.5]","1","2","","","7072","68","4","1","win","go","1"
"pit-trial","196","1208656","0.0-73.0","battery-v0.2","","""event"",""trial"",""time""
""fullscreenenter"",""1"",""3788""
","
","
","""event"",""trial"",""time""
""fullscreenenter"",""1"",""3788""
","
","","","-1","","","25","7072","3754","p","elianto","#3366ff99"," ","-1","0","0","[726,4675.900000095367]","2","2","","","7072","69","4","1","win","go","0"
"pit-trial","197","1213524","0.0-74.0","battery-v0.2","","""event"",""trial"",""time""
""fullscreenenter"",""1"",""3788""
","
","
","""event"",""trial"",""time""
""fullscreenenter"",""1"",""3788""
","
","","","-1","","","25","7072","3754","a","elianto","#f73b6a7A"," ","-1","0","0","[2939]","1","2","","","7072","70","2","3","lose","go","1"
"pit-trial","198","1218330","0.0-75.0","battery-v0.2","","""event"",""trial"",""time""
""fullscreenenter"",""1"",""3788""
","
","
","""event"",""trial"",""time""
""fullscreenenter"",""1"",""3788""
","
","","","1931.5","","","25","7072","3754","l","elianto","#3366ff99","-1"," ","0","0","[2788.2000000476837]","1","2","","","7072","71","1","2","win","no-go","0"
"pit-trial","199","1221625","0.0-76.0","battery-v0.2","","""event"",""trial"",""time""
""fullscreenenter"",""1"",""3788""
","
","
","""event"",""trial"",""time""
""fullscreenenter"",""1"",""3788""
","
","","","432.80000019073486","","","25","7072","3754","s","elianto","#3366ff99","-1"," ","0","0","[1284.7000000476837]","1","2","","","7072","72","5","2","win","no-go","0"
"pit-trial","200","1224885","0.0-77.0","battery-v0.2","","""event"",""trial"",""time""
""fullscreenenter"",""1"",""3788""
","
","
","""event"",""trial"",""time""
""fullscreenenter"",""1"",""3788""
","
","","","397.89999985694885","","","25","7072","3754","g","elianto","#f73b6a7A","-1"," ","0","-10","[1250.0999999046326]","1","2","","","7072","73","3","4","lose","no-go","0"
"pit-trial","201","1227799","0.0-78.0","battery-v0.2","","""event"",""trial"",""time""
""fullscreenenter"",""1"",""3788""
","
","
","""event"",""trial"",""time""
""fullscreenenter"",""1"",""3788""
","
","","","45.59999990463257","","","25","7072","3754","l","elianto","#3366ff99","-1"," ","0","0","[896.7999999523163]","1","2","","","7072","74","1","2","win","no-go","0"
"pit-trial","202","1231242","0.0-79.0","battery-v0.2","","""event"",""trial"",""time""
""fullscreenenter"",""1"",""3788""
","
","
","""event"",""trial"",""time""
""fullscreenenter"",""1"",""3788""
","
","","","579.2999999523163","","","25","7072","3754","p","elianto","#3366ff99"," "," ","1","0","[1430.4000000953674]","1","2","","","7072","75","4","1","win","go","1"
"pit-trial","203","1234859","0.0-80.0","battery-v0.2","","""event"",""trial"",""time""
""fullscreenenter"",""1"",""3788""
","
","
","""event"",""trial"",""time""
""fullscreenenter"",""1"",""3788""
","
","","","743.2000000476837","","","25","7072","3754","s","elianto","#3366ff99","-1"," ","0","0","[1600.3000001907349]","1","2","","","7072","76","5","2","win","no-go","0"
"pit-trial","204","1238332","0.0-81.0","battery-v0.2","","""event"",""trial"",""time""
""fullscreenenter"",""1"",""3788""
","
","
","""event"",""trial"",""time""
""fullscreenenter"",""1"",""3788""
","
","","","602.7999999523163","","","25","7072","3754","s","elianto","#3366ff99","-1"," ","0","0","[1459.7999999523163]","1","2","","","7072","77","5","2","win","no-go","0"
"pit-trial","205","1243209","0.0-82.0","battery-v0.2","","""event"",""trial"",""time""
""fullscreenenter"",""1"",""3788""
","
","
","""event"",""trial"",""time""
""fullscreenenter"",""1"",""3788""
","
","","","-1","","","25","7072","3754","g","elianto","#f73b6a7A","-1","-1","1","0","[]","0","2","","","7072","78","3","4","lose","no-go","0"
"pit-trial","206","1246691","0.0-83.0","battery-v0.2","","""event"",""trial"",""time""
""fullscreenenter"",""1"",""3788""
","
","
","""event"",""trial"",""time""
""fullscreenenter"",""1"",""3788""
","
","","","621.4000000953674","","","25","7072","3754","p","elianto","#3366ff99"," "," ","1","+10","[1472.2999999523163]","1","2","","","7072","79","4","1","win","go","0"
"pit-trial","207","1250133","0.0-84.0","battery-v0.2","","""event"",""trial"",""time""
""fullscreenenter"",""1"",""3788""
","
","
","""event"",""trial"",""time""
""fullscreenenter"",""1"",""3788""
","
","","","576.1000001430511","","","25","7072","3754","p","elianto","#3366ff99"," "," ","1","+10","[1426.5999999046326]","1","2","","","7072","80","4","1","win","go","0"
"pit-trial","208","1253686","0.0-85.0","battery-v0.2","","""event"",""trial"",""time""
""fullscreenenter"",""1"",""3788""
","
","
","""event"",""trial"",""time""
""fullscreenenter"",""1"",""3788""
","
","","","684.0999999046326","","","25","7072","3754","s","elianto","#3366ff99","-1"," ","0","+10","[1537.2000000476837]","1","2","","","7072","81","5","2","win","no-go","1"
"pit-trial","209","1256817","0.0-86.0","battery-v0.2","","""event"",""trial"",""time""
""fullscreenenter"",""1"",""3788""
","
","
","""event"",""trial"",""time""
""fullscreenenter"",""1"",""3788""
","
","","","264.2000000476837","","","25","7072","3754","g","elianto","#f73b6a7A","-1"," ","0","0","[1114.2999999523163]","1","2","","","7072","82","3","4","lose","no-go","1"
"pit-trial","210","1261122","0.0-87.0","battery-v0.2","","""event"",""trial"",""time""
""fullscreenenter"",""1"",""3788""
","
","
","""event"",""trial"",""time""
""fullscreenenter"",""1"",""3788""
","
","","","1434.5","","","25","7072","3754","e","elianto","#f73b6a7A","-1"," ","0","-10","[2284.7999999523163]","1","2","","","7072","83","7","4","lose","no-go","0"
"pit-trial","211","1264900","0.0-88.0","battery-v0.2","","""event"",""trial"",""time""
""fullscreenenter"",""1"",""3788""
","
","
","""event"",""trial"",""time""
""fullscreenenter"",""1"",""3788""
","
","","","909.5","","","25","7072","3754","p","elianto","#3366ff99"," "," ","1","+10","[1761.9000000953674]","1","2","","","7072","84","4","1","win","go","0"
"pit-trial","212","1269000","0.0-89.0","battery-v0.2","","""event"",""trial"",""time""
""fullscreenenter"",""1"",""3788""
","
","
","""event"",""trial"",""time""
""fullscreenenter"",""1"",""3788""
","
","","","1234.2999999523163","","","25","7072","3754","w","elianto","#f73b6a7A"," "," ","1","0","[2088.399999856949]","1","2","","","7072","85","6","3","lose","go","0"
"pit-trial","213","1272471","0.0-90.0","battery-v0.2","","""event"",""trial"",""time""
""fullscreenenter"",""1"",""3788""
","
","
","""event"",""trial"",""time""
""fullscreenenter"",""1"",""3788""
","
","","","605.3999998569489","","","25","7072","3754","s","elianto","#3366ff99","-1"," ","0","0","[1459.8999998569489]","1","2","","","7072","86","5","2","win","no-go","0"
"pit-trial","214","1275945","0.0-91.0","battery-v0.2","","""event"",""trial"",""time""
""fullscreenenter"",""1"",""3788""
","
","
","""event"",""trial"",""time""
""fullscreenenter"",""1"",""3788""
","
","","","606","","","25","7072","3754","p","elianto","#3366ff99"," "," ","1","+10","[1456.7000000476837]","1","2","","","7072","87","4","1","win","go","0"
"pit-trial","215","1280198","0.0-92.0","battery-v0.2","","""event"",""trial"",""time""
""fullscreenenter"",""1"",""3788""
","
","
","""event"",""trial"",""time""
""fullscreenenter"",""1"",""3788""
","
","","","1384","","","25","7072","3754","e","elianto","#f73b6a7A","-1"," ","0","-10","[2239]","1","2","","","7072","88","7","4","lose","no-go","0"
"pit-trial","216","1283614","0.0-93.0","battery-v0.2","","""event"",""trial"",""time""
""fullscreenenter"",""1"",""3788""
","
","
","""event"",""trial"",""time""
""fullscreenenter"",""1"",""3788""
","
","","","548.6999998092651","","","25","7072","3754","s","elianto","#3366ff99","-1"," ","0","0","[1399.1999998092651]","1","2","","","7072","89","5","2","win","no-go","0"
"pit-trial","217","1287071","0.0-94.0","battery-v0.2","","""event"",""trial"",""time""
""fullscreenenter"",""1"",""3788""
","
","
","""event"",""trial"",""time""
""fullscreenenter"",""1"",""3788""
","
","","","585.0999999046326","","","25","7072","3754","w","elianto","#f73b6a7A"," "," ","1","0","[1443.5]","1","2","","","7072","90","6","3","lose","go","0"
"pit-trial","218","1290736","0.0-95.0","battery-v0.2","","""event"",""trial"",""time""
""fullscreenenter"",""1"",""3788""
","
","
","""event"",""trial"",""time""
""fullscreenenter"",""1"",""3788""
","
","","","795.7999999523163","","","25","7072","3754","p","elianto","#3366ff99"," "," ","1","+10","[1648.2999999523163]","1","2","","","7072","91","4","1","win","go","0"
"pit-trial","219","1295607","0.0-96.0","battery-v0.2","","""event"",""trial"",""time""
""fullscreenenter"",""1"",""3788""
","
","
","""event"",""trial"",""time""
""fullscreenenter"",""1"",""3788""
","
","","","-1","","","25","7072","3754","e","elianto","#f73b6a7A","-1","-1","1","0","[]","0","2","","","7072","92","7","4","lose","no-go","0"
"pit-trial","220","1299336","0.0-97.0","battery-v0.2","","""event"",""trial"",""time""
""fullscreenenter"",""1"",""3788""
","
","
","""event"",""trial"",""time""
""fullscreenenter"",""1"",""3788""
","
","","","856.2999999523163","","","25","7072","3754","d","elianto","#3366ff99"," "," ","1","0","[1707.4000000953674]","1","2","","","7072","93","8","1","win","go","1"
"pit-trial","221","1304198","0.0-98.0","battery-v0.2","","""event"",""trial"",""time""
""fullscreenenter"",""1"",""3788""
","
","
","""event"",""trial"",""time""
""fullscreenenter"",""1"",""3788""
","
","","","-1","","","25","7072","3754","e","elianto","#f73b6a7A","-1","-1","1","-10","[]","0","2","","","7072","94","7","4","lose","no-go","1"
"pit-trial","222","1308868","0.0-99.0","battery-v0.2","","""event"",""trial"",""time""
""fullscreenenter"",""1"",""3788""
","
","
","""event"",""trial"",""time""
""fullscreenenter"",""1"",""3788""
","
","","","1803.5","","","25","7072","3754","s","elianto","#3366ff99","-1"," ","0","0","[2653.5999999046326]","1","2","","","7072","95","5","2","win","no-go","0"
"pit-trial","223","1313707","0.0-100.0","battery-v0.2","","""event"",""trial"",""time""
""fullscreenenter"",""1"",""3788""
","
","
","""event"",""trial"",""time""
""fullscreenenter"",""1"",""3788""
","
","","","1969.2000000476837","","","25","7072","3754","w","elianto","#f73b6a7A"," "," ","1","-10","[2826.5]","1","2","","","7072","96","6","3","lose","go","1"
"pit-trial","224","1316758","0.0-101.0","battery-v0.2","","""event"",""trial"",""time""
""fullscreenenter"",""1"",""3788""
","
","
","""event"",""trial"",""time""
""fullscreenenter"",""1"",""3788""
","
","","","185.20000004768372","","","25","7072","3754","d","elianto","#3366ff99"," "," ","1","+10","[1038.3999998569489,1252.2999999523163,1423.7999999523163,1603.8999998569489,1764.7000000476837,1954.2999999523163]","6","2","","","7072","97","8","1","win","go","0"
"pit-trial","225","1321622","0.0-102.0","battery-v0.2","","""event"",""trial"",""time""
""fullscreenenter"",""1"",""3788""
","
","
","""event"",""trial"",""time""
""fullscreenenter"",""1"",""3788""
","
","","","-1","","","25","7072","3754","w","elianto","#f73b6a7A"," ","-1","0","-10","[]","0","2","","","7072","98","6","3","lose","go","0"
"pit-trial","226","1325259","0.0-103.0","battery-v0.2","","""event"",""trial"",""time""
""fullscreenenter"",""1"",""3788""
","
","
","""event"",""trial"",""time""
""fullscreenenter"",""1"",""3788""
","
","","","751.5999999046326","","","25","7072","3754","s","elianto","#3366ff99","-1"," ","0","0","[1607.8999998569489]","1","2","","","7072","99","5","2","win","no-go","0"
"pit-trial","227","1330150","0.0-104.0","battery-v0.2","","""event"",""trial"",""time""
""fullscreenenter"",""1"",""3788""
","
","
","""event"",""trial"",""time""
""fullscreenenter"",""1"",""3788""
","
","","","-1","","","25","7072","3754","e","elianto","#f73b6a7A","-1","-1","1","0","[]","0","2","","","7072","100","7","4","lose","no-go","0"
"pit-trial","228","1335044","0.0-105.0","battery-v0.2","","""event"",""trial"",""time""
""fullscreenenter"",""1"",""3788""
","
","
","""event"",""trial"",""time""
""fullscreenenter"",""1"",""3788""
","
","","","-1","","","25","7072","3754","j","elianto","#3366ff99"," ","-1","0","0","[]","0","2","","","7072","101","9","1","win","go","0"
"pit-trial","229","1339939","0.0-106.0","battery-v0.2","","""event"",""trial"",""time""
""fullscreenenter"",""1"",""3788""
","
","
","""event"",""trial"",""time""
""fullscreenenter"",""1"",""3788""
","
","","","-1","","","25","7072","3754","e","elianto","#f73b6a7A","-1","-1","1","-10","[]","0","2","","","7072","102","7","4","lose","no-go","1"
"pit-trial","230","1343405","0.0-107.0","battery-v0.2","","""event"",""trial"",""time""
""fullscreenenter"",""1"",""3788""
","
","
","""event"",""trial"",""time""
""fullscreenenter"",""1"",""3788""
","
","","","572.2000000476837","","","25","7072","3754","s","elianto","#3366ff99","-1"," ","0","0","[1424.2999999523163]","1","2","","","7072","103","5","2","win","no-go","0"
"pit-trial","231","1346845","0.0-108.0","battery-v0.2","","""event"",""trial"",""time""
""fullscreenenter"",""1"",""3788""
","
","
","""event"",""trial"",""time""
""fullscreenenter"",""1"",""3788""
","
","","","543.6000001430511","","","25","7072","3754","d","elianto","#3366ff99"," "," ","1","+10","[1402.7000000476837]","1","2","","","7072","104","8","1","win","go","0"
"pit-trial","232","1350248","0.0-109.0","battery-v0.2","","""event"",""trial"",""time""
""fullscreenenter"",""1"",""3788""
","
","
","""event"",""trial"",""time""
""fullscreenenter"",""1"",""3788""
","
","","","504.2999999523163","","","25","7072","3754","p","elianto","#3366ff99"," "," ","1","+10","[1369]","1","2","","","7072","105","4","1","win","go","0"
"pit-trial","233","1353673","0.0-110.0","battery-v0.2","","""event"",""trial"",""time""
""fullscreenenter"",""1"",""3788""
","
","
","""event"",""trial"",""time""
""fullscreenenter"",""1"",""3788""
","
","","","540.3999998569489","","","25","7072","3754","j","elianto","#3366ff99"," "," ","1","+10","[1390.6000001430511]","1","2","","","7072","106","9","1","win","go","0"
"pit-trial","234","1358560","0.0-111.0","battery-v0.2","","""event"",""trial"",""time""
""fullscreenenter"",""1"",""3788""
","
","
","""event"",""trial"",""time""
""fullscreenenter"",""1"",""3788""
","
","","","-1","","","25","7072","3754","d","elianto","#3366ff99"," ","-1","0","0","[3426.7000000476837]","1","2","","","7072","107","8","1","win","go","0"
"pit-trial","235","1363432","0.0-112.0","battery-v0.2","","""event"",""trial"",""time""
""fullscreenenter"",""1"",""3788""
","
","
","""event"",""trial"",""time""
""fullscreenenter"",""1"",""3788""
","
","","","-1","","","25","7072","3754","w","elianto","#f73b6a7A"," ","-1","0","-10","[]","0","2","","","7072","108","6","3","lose","go","0"
"pit-trial","236","1366899","0.0-113.0","battery-v0.2","","""event"",""trial"",""time""
""fullscreenenter"",""1"",""3788""
","
","
","""event"",""trial"",""time""
""fullscreenenter"",""1"",""3788""
","
","","","601.9000000953674","","","25","7072","3754","d","elianto","#3366ff99"," "," ","1","0","[1455.1999998092651]","1","2","","","7072","109","8","1","win","go","1"
"pit-trial","237","1371768","0.0-114.0","battery-v0.2","","""event"",""trial"",""time""
""fullscreenenter"",""1"",""3788""
","
","
","""event"",""trial"",""time""
""fullscreenenter"",""1"",""3788""
","
","","","-1","","","25","7072","3754","w","elianto","#f73b6a7A"," ","-1","0","-10","[]","0","2","","","7072","110","6","3","lose","go","0"
"pit-trial","238","1375745","0.0-115.0","battery-v0.2","","""event"",""trial"",""time""
""fullscreenenter"",""1"",""3788""
","
","
","""event"",""trial"",""time""
""fullscreenenter"",""1"",""3788""
","
","","","1105","","","25","7072","3754","j","elianto","#3366ff99"," "," ","1","0","[1958.9000000953674]","1","2","","","7072","111","9","1","win","go","1"
"pit-trial","239","1379375","0.0-116.0","battery-v0.2","","""event"",""trial"",""time""
""fullscreenenter"",""1"",""3788""
","
","
","""event"",""trial"",""time""
""fullscreenenter"",""1"",""3788""
","
","","","760.2999999523163","","","25","7072","3754","s","elianto","#3366ff99","-1"," ","0","0","[1616.1000001430511]","1","2","","","7072","112","5","2","win","no-go","0"
"pit-trial","240","1383863","0.0-117.0","battery-v0.2","","""event"",""trial"",""time""
""fullscreenenter"",""1"",""3788""
","
","
","""event"",""trial"",""time""
""fullscreenenter"",""1"",""3788""
","
","","","1626.5","","","25","7072","3754","d","elianto","#3366ff99"," "," ","1","0","[2476.7999999523163]","1","2","","","7072","113","8","1","win","go","1"
"pit-trial","241","1388681","0.0-118.0","battery-v0.2","","""event"",""trial"",""time""
""fullscreenenter"",""1"",""3788""
","
","
","""event"",""trial"",""time""
""fullscreenenter"",""1"",""3788""
","
","","","1945.2999999523163","","","25","7072","3754","s","elianto","#3366ff99","-1"," ","0","+10","[2799.7000000476837]","1","2","","","7072","114","5","2","win","no-go","1"
"pit-trial","242","1391842","0.0-119.0","battery-v0.2","","""event"",""trial"",""time""
""fullscreenenter"",""1"",""3788""
","
","
","""event"",""trial"",""time""
""fullscreenenter"",""1"",""3788""
","
","","","293","","","25","7072","3754","w","elianto","#f73b6a7A"," "," ","1","-10","[1147.2999999523163]","1","2","","","7072","115","6","3","lose","go","1"
"pit-trial","243","1395429","0.0-120.0","battery-v0.2","","""event"",""trial"",""time""
""fullscreenenter"",""1"",""3788""
","
","
","""event"",""trial"",""time""
""fullscreenenter"",""1"",""3788""
","
","","","714.9000000953674","","","25","7072","3754","j","elianto","#3366ff99"," "," ","1","+10","[1567.2999999523163]","1","2","","","7072","116","9","1","win","go","0"
"pit-trial","244","1399809","0.0-121.0","battery-v0.2","","""event"",""trial"",""time""
""fullscreenenter"",""1"",""3788""
","
","
","""event"",""trial"",""time""
""fullscreenenter"",""1"",""3788""
","
","","","1479","","","25","7072","3754","d","elianto","#3366ff99"," "," ","1","+10","[2341.9000000953674]","1","2","","","7072","117","8","1","win","go","0"
"pit-trial","245","1403522","0.0-122.0","battery-v0.2","","""event"",""trial"",""time""
""fullscreenenter"",""1"",""3788""
","
","
","""event"",""trial"",""time""
""fullscreenenter"",""1"",""3788""
","
","","","807.6000001430511","","","25","7072","3754","j","elianto","#3366ff99"," "," ","1","+10","[1671]","1","2","","","7072","118","9","1","win","go","0"
"pit-trial","246","1408421","0.0-123.0","battery-v0.2","","""event"",""trial"",""time""
""fullscreenenter"",""1"",""3788""
","
","
","""event"",""trial"",""time""
""fullscreenenter"",""1"",""3788""
","
","","","-1","","","25","7072","3754","s","elianto","#3366ff99","-1","-1","1","0","[3882.9000000953674]","1","2","","","7072","119","5","2","win","no-go","1"
"pit-trial","247","1411870","0.0-124.0","battery-v0.2","","""event"",""trial"",""time""
""fullscreenenter"",""1"",""3788""
","
","
","""event"",""trial"",""time""
""fullscreenenter"",""1"",""3788""
","
","","","574.7999999523163","","","25","7072","3754","w","elianto","#f73b6a7A"," "," ","1","0","[1429.2000000476837]","1","2","","","7072","120","6","3","lose","go","0"
"pit-trial","248","1415440","0.0-125.0","battery-v0.2","","""event"",""trial"",""time""
""fullscreenenter"",""1"",""3788""
","
","
","""event"",""trial"",""time""
""fullscreenenter"",""1"",""3788""
","
","","","705.8999998569489","","","25","7072","3754","j","elianto","#3366ff99"," "," ","1","+10","[1557.5999999046326]","1","2","","","7072","121","9","1","win","go","0"
"pit-trial","249","1420128","0.0-126.0","battery-v0.2","","""event"",""trial"",""time""
""fullscreenenter"",""1"",""3788""
","
","
","""event"",""trial"",""time""
""fullscreenenter"",""1"",""3788""
","
","","","1815.3999998569489","","","25","7072","3754","d","elianto","#3366ff99"," "," ","1","0","[2669]","1","2","","","7072","122","8","1","win","go","1"
"pit-trial","250","1425021","0.0-127.0","battery-v0.2","","""event"",""trial"",""time""
""fullscreenenter"",""1"",""3788""
","
","
","""event"",""trial"",""time""
""fullscreenenter"",""1"",""3788""
","
","","","-1","","","25","7072","3754","w","elianto","#f73b6a7A"," ","-1","0","0","[]","0","2","","","7072","123","6","3","lose","go","1"
"pit-trial","251","1429896","0.0-128.0","battery-v0.2","","""event"",""trial"",""time""
""fullscreenenter"",""1"",""3788""
","
","
","""event"",""trial"",""time""
""fullscreenenter"",""1"",""3788""
","
","","","-1","","","25","7072","3754","e","elianto","#f73b6a7A","-1","-1","1","0","[]","0","2","","","7072","124","7","4","lose","no-go","0"
"pit-trial","252","1433307","0.0-129.0","battery-v0.2","","""event"",""trial"",""time""
""fullscreenenter"",""1"",""3788""
","
","
","""event"",""trial"",""time""
""fullscreenenter"",""1"",""3788""
","
","","","540.6000001430511","","","25","7072","3754","d","elianto","#3366ff99"," "," ","1","0","[1397.8000001907349]","1","2","","","7072","125","8","1","win","go","1"
"pit-trial","253","1437449","0.0-130.0","battery-v0.2","","""event"",""trial"",""time""
""fullscreenenter"",""1"",""3788""
","
","
","""event"",""trial"",""time""
""fullscreenenter"",""1"",""3788""
","
","","","1274.2000000476837","","","25","7072","3754","w","elianto","#f73b6a7A"," "," ","1","-10","[2125]","1","2","","","7072","126","6","3","lose","go","1"
"pit-trial","254","1441655","0.0-131.0","battery-v0.2","","""event"",""trial"",""time""
""fullscreenenter"",""1"",""3788""
","
","
","""event"",""trial"",""time""
""fullscreenenter"",""1"",""3788""
","
","","","1342.3000001907349","","","25","7072","3754","j","elianto","#3366ff99"," "," ","1","+10","[2192.7000000476837]","1","2","","","7072","127","9","1","win","go","0"
"pit-trial","255","1446532","0.0-132.0","battery-v0.2","","""event"",""trial"",""time""
""fullscreenenter"",""1"",""3788""
","
","
","""event"",""trial"",""time""
""fullscreenenter"",""1"",""3788""
","
","","","-1","","","25","7072","3754","e","elianto","#f73b6a7A","-1","-1","1","-10","[]","0","2","","","7072","128","7","4","lose","no-go","1"
"pit-trial","256","1451422","0.0-133.0","battery-v0.2","","""event"",""trial"",""time""
""fullscreenenter"",""1"",""3788""
","
","
","""event"",""trial"",""time""
""fullscreenenter"",""1"",""3788""
","
","","","-1","","","25","7072","3754","j","elianto","#3366ff99"," ","-1","0","0","[4006.9000000953674]","1","2","","","7072","129","9","1","win","go","0"
"pit-trial","257","1456314","0.0-134.0","battery-v0.2","","""event"",""trial"",""time""
""fullscreenenter"",""1"",""3788""
","
","
","""event"",""trial"",""time""
""fullscreenenter"",""1"",""3788""
","
","","","-1","","","25","7072","3754","e","elianto","#f73b6a7A","-1","-1","1","0","[3233.5]","1","2","","","7072","130","7","4","lose","no-go","0"
"pit-trial","258","1461203","0.0-135.0","battery-v0.2","","""event"",""trial"",""time""
""fullscreenenter"",""1"",""3788""
","
","
","""event"",""trial"",""time""
""fullscreenenter"",""1"",""3788""
","
","","","-1","","","25","7072","3754","w","elianto","#f73b6a7A"," ","-1","0","0","[]","0","2","","","7072","131","6","3","lose","go","1"
"pit-trial","259","1465052","0.0-136.0","battery-v0.2","","""event"",""trial"",""time""
""fullscreenenter"",""1"",""3788""
","
","
","""event"",""trial"",""time""
""fullscreenenter"",""1"",""3788""
","
","","","955","","","25","7072","3754","d","elianto","#3366ff99"," "," ","1","+10","[1805.4000000953674]","1","2","","","7072","132","8","1","win","go","0"
"pit-trial","260","1469944","0.0-137.0","battery-v0.2","","""event"",""trial"",""time""
""fullscreenenter"",""1"",""3788""
","
","
","""event"",""trial"",""time""
""fullscreenenter"",""1"",""3788""
","
","","","-1","","","25","7072","3754","e","elianto","#f73b6a7A","-1","-1","1","0","[]","0","2","","","7072","133","7","4","lose","no-go","0"
"pit-trial","261","1474783","0.0-138.0","battery-v0.2","","""event"",""trial"",""time""
""fullscreenenter"",""1"",""3788""
","
","
","""event"",""trial"",""time""
""fullscreenenter"",""1"",""3788""
","
","","","1949.9000000953674","","","25","7072","3754","j","elianto","#3366ff99"," "," ","1","+10","[2800.600000143051]","1","2","","","7072","134","9","1","win","go","0"
"pit-trial","262","1480223","0.0-139.0","battery-v0.2","","""event"",""trial"",""time""
""fullscreenenter"",""1"",""3788""
","
","
","""event"",""trial"",""time""
""fullscreenenter"",""1"",""3788""
","
","","","-1","","","25","7072","3754","w","elianto","#f73b6a7A"," ","-1","0","-10","[]","0","2","","","7072","135","6","3","lose","go","0"
"pit-trial","263","1483817","0.0-140.0","battery-v0.2","","""event"",""trial"",""time""
""fullscreenenter"",""1"",""3788""
","
","
","""event"",""trial"",""time""
""fullscreenenter"",""1"",""3788""
","
","","","582.8999998569489","","","25","7072","3754","d","elianto","#3366ff99"," "," ","1","0","[1576]","1","2","","","7072","136","8","1","win","go","1"
"pit-trial","264","1488224","0.0-141.0","battery-v0.2","","""event"",""trial"",""time""
""fullscreenenter"",""1"",""3788""
","
","
","""event"",""trial"",""time""
""fullscreenenter"",""1"",""3788""
","
","","","906.2000000476837","","","25","7072","3754","j","elianto","#3366ff99"," "," ","1","+10","[1756.5999999046326]","1","2","","","7072","137","9","1","win","go","0"
"pit-trial","265","1494226","0.0-142.0","battery-v0.2","","""event"",""trial"",""time""
""fullscreenenter"",""1"",""3788""
","
","
","""event"",""trial"",""time""
""fullscreenenter"",""1"",""3788""
