"trial_type","trial_index","time_elapsed","internal_node_id","task_version","subject_id","interactions","blur_events","focus_events","fullscreenenter_events","fullscreenexit_events","success","view_history","rt","responses","num_errors","age","subject","participantId","rune","rune_set","hex","correct","choice","accuracy","outcome","keys","total_keys","block","practice","value","sub","trial","stimulus","robot","valence","action","sham"
"pavlovia","0","16","0.0-0.0","battery-v0.2","","""event"",""trial"",""time""
""fullscreenenter"",""1"",""4162""
","
","
","""event"",""trial"",""time""
""fullscreenenter"",""1"",""4162""
","
","","","","","","","","","","","","","","","","","","","","","","","","","","",""
"fullscreen","1","5124","0.0-1.0","battery-v0.2","","""event"",""trial"",""time""
""fullscreenenter"",""1"",""4162""
","
","
","""event"",""trial"",""time""
""fullscreenenter"",""1"",""4162""
","
","true","","","","","","","","","","","","","","","","","","","","","","","","","",""
"pit-instructions","2","13225","0.0-2.0-0.0","battery-v0.2","","""event"",""trial"",""time""
""fullscreenenter"",""1"",""4162""
","
","
","""event"",""trial"",""time""
""fullscreenenter"",""1"",""4162""
","
","","[{""page_index"":0,""viewing_time"":8093.5999999940395}]","8094.0999999940395","","","","","","","","","","","","","","","","","","","","","","","",""
"pit-comprehension","3","22084","0.0-2.0-1.0-0.0","battery-v0.2","","""event"",""trial"",""time""
""fullscreenenter"",""1"",""4162""
","
","
","""event"",""trial"",""time""
""fullscreenenter"",""1"",""4162""
","
","","","8852.90000000596","[""shark""]","0","18","7705","3965","","","","","","","","","","","","","","","","","","",""
"pit-instructions","4","24280","0.0-2.0-1.0-1.0","battery-v0.2","","""event"",""trial"",""time""
""fullscreenenter"",""1"",""4162""
","
","
","""event"",""trial"",""time""
""fullscreenenter"",""1"",""4162""
","
","","[{""page_index"":0,""viewing_time"":2184.199999988079}]","2184.5999999940395","","","","","","","","","","","","","","","","","","","","","","","",""
"pit-comprehension","5","28021","0.0-2.0-2.0-0.0","battery-v0.2","","""event"",""trial"",""time""
""fullscreenenter"",""1"",""4162""
","
","
","""event"",""trial"",""time""
""fullscreenenter"",""1"",""4162""
","
","","","3736","[""tiger""]","0","18","7705","3965","","","","","","","","","","","","","","","","","","",""
"pit-instructions","6","31724","0.0-2.0-2.0-1.0","battery-v0.2","","""event"",""trial"",""time""
""fullscreenenter"",""1"",""4162""
","
","
","""event"",""trial"",""time""
""fullscreenenter"",""1"",""4162""
","
","","[{""page_index"":0,""viewing_time"":3696.4000000059605}]","3697.0999999940395","","","","","","","","","","","","","","","","","","","","","","","",""
"pit-instructions","7","141059","0.0-2.0-3.0","battery-v0.2","","""event"",""trial"",""time""
""fullscreenenter"",""1"",""4162""
","
","
","""event"",""trial"",""time""
""fullscreenenter"",""1"",""4162""
","
","","[{""page_index"":0,""viewing_time"":10271.90000000596},{""page_index"":1,""viewing_time"":8213.90000000596},{""page_index"":2,""viewing_time"":7984.5999999940395},{""page_index"":3,""viewing_time"":5671.4000000059605},{""page_index"":4,""viewing_time"":6868.899999976158},{""page_index"":5,""viewing_time"":5661.700000017881},{""page_index"":6,""viewing_time"":8108},{""page_index"":7,""viewing_time"":7498.199999988079},{""page_index"":8,""viewing_time"":6092.700000017881},{""page_index"":9,""viewing_time"":9761.5},{""page_index"":10,""viewing_time"":8983.199999988079},{""page_index"":11,""viewing_time"":9019.59999999404},{""page_index"":12,""viewing_time"":8453.200000017881},{""page_index"":13,""viewing_time"":6741}]","109330.90000000596","","","","","","","","","","","","","","","","","","","","","","","",""
"pit-trial","8","145630","0.0-2.0-4.0-0.0","battery-v0.2","","""event"",""trial"",""time""
""fullscreenenter"",""1"",""4162""
","
","
","""event"",""trial"",""time""
""fullscreenenter"",""1"",""4162""
","
","","","1712.5","","","18","7705","3965","&#9784;","elianto","#FFFFF080"," "," ","1","&#10004","[2563.2000000178814]","1","0","0","","","","","","","",""
"pit-trial","9","149700","0.0-2.0-4.1-0.1","battery-v0.2","","""event"",""trial"",""time""
""fullscreenenter"",""1"",""4162""
","
","
","""event"",""trial"",""time""
""fullscreenenter"",""1"",""4162""
","
","","","1204.3999999761581","","","18","7705","3965","&#9784;","elianto","#FFFFF080"," "," ","1","&#10004","[205.90000000596046,2058.0999999940395,3923.800000011921]","3","0","0","","","","","","","",""
"pit-trial","10","153400","0.0-2.0-4.2-0.2","battery-v0.2","","""event"",""trial"",""time""
""fullscreenenter"",""1"",""4162""
","
","
","""event"",""trial"",""time""
""fullscreenenter"",""1"",""4162""
","
","","","838.0999999940395","","","18","7705","3965","&#9784;","elianto","#FFFFF080"," "," ","1","&#10004","[1693.9000000059605,2982.4000000059605]","2","0","0","","","","","","","",""
"pit-trial","11","157653","0.0-2.0-4.3-0.3","battery-v0.2","","""event"",""trial"",""time""
""fullscreenenter"",""1"",""4162""
","
","
","""event"",""trial"",""time""
""fullscreenenter"",""1"",""4162""
","
","","","1392.199999988079","","","18","7705","3965","&#9784;","elianto","#FFFFF080"," "," ","1","&#10004","[179,2248,3532.0999999940395]","3","0","0","","","","","","","",""
"pit-trial","12","161957","0.0-2.0-4.4-0.4","battery-v0.2","","""event"",""trial"",""time""
""fullscreenenter"",""1"",""4162""
","
","
","""event"",""trial"",""time""
""fullscreenenter"",""1"",""4162""
","
","","","1436.4000000059605","","","18","7705","3965","&#9784;","elianto","#FFFFF080"," "," ","1","&#10004","[146.59999999403954,2288.5999999940395,3860.5999999940395]","3","0","0","","","","","","","",""
"pit-instructions","13","193826","0.0-2.0-5.0","battery-v0.2","","""event"",""trial"",""time""
""fullscreenenter"",""1"",""4162""
","
","
","""event"",""trial"",""time""
""fullscreenenter"",""1"",""4162""
","
","","[{""page_index"":0,""viewing_time"":7789.5},{""page_index"":1,""viewing_time"":11182.700000017881},{""page_index"":2,""viewing_time"":5477.5},{""page_index"":3,""viewing_time"":7415.5}]","31865.90000000596","","","","","","","","","","","","","","","","","","","","","","","",""
"pit-trial","14","198698","0.0-2.0-6.0-0.0","battery-v0.2","","""event"",""trial"",""time""
""fullscreenenter"",""1"",""4162""
","
","
","""event"",""trial"",""time""
""fullscreenenter"",""1"",""4162""
","
","","","-1","","","18","7705","3965","&#9854;","elianto","#FFFFF080","-1","-1","1","&#10004","[]","0","0","1","","","","","","","",""
"pit-trial","15","203572","0.0-2.0-6.1-0.1","battery-v0.2","","""event"",""trial"",""time""
""fullscreenenter"",""1"",""4162""
","
","
","""event"",""trial"",""time""
""fullscreenenter"",""1"",""4162""
","
","","","-1","","","18","7705","3965","&#9854;","elianto","#FFFFF080","-1","-1","1","&#10004","[]","0","0","1","","","","","","","",""
"pit-trial","16","208439","0.0-2.0-6.2-0.2","battery-v0.2","","""event"",""trial"",""time""
""fullscreenenter"",""1"",""4162""
","
","
","""event"",""trial"",""time""
""fullscreenenter"",""1"",""4162""
","
","","","-1","","","18","7705","3965","&#9854;","elianto","#FFFFF080","-1","-1","1","&#10004","[]","0","0","1","","","","","","","",""
"pit-trial","17","213303","0.0-2.0-6.3-0.3","battery-v0.2","","""event"",""trial"",""time""
""fullscreenenter"",""1"",""4162""
","
","
","""event"",""trial"",""time""
""fullscreenenter"",""1"",""4162""
","
","","","-1","","","18","7705","3965","&#9854;","elianto","#FFFFF080","-1","-1","1","&#10004","[]","0","0","1","","","","","","","",""
"pit-trial","18","218180","0.0-2.0-6.4-0.4","battery-v0.2","","""event"",""trial"",""time""
""fullscreenenter"",""1"",""4162""
","
","
","""event"",""trial"",""time""
""fullscreenenter"",""1"",""4162""
","
","","","-1","","","18","7705","3965","&#9854;","elianto","#FFFFF080","-1","-1","1","&#10004","[]","0","0","1","","","","","","","",""
"pit-instructions","19","387436","0.0-2.0-7.0","battery-v0.2","","""event"",""trial"",""time""
""fullscreenenter"",""1"",""4162""
","
","
","""event"",""trial"",""time""
""fullscreenenter"",""1"",""4162""
","
","","[{""page_index"":0,""viewing_time"":10512.300000011921},{""page_index"":1,""viewing_time"":8143.5},{""page_index"":2,""viewing_time"":7443.4000000059605},{""page_index"":3,""viewing_time"":9754.399999976158},{""page_index"":4,""viewing_time"":10022.600000023842},{""page_index"":5,""viewing_time"":8334.399999976158},{""page_index"":6,""viewing_time"":5201.600000023842},{""page_index"":7,""viewing_time"":8064.799999982119},{""page_index"":8,""viewing_time"":9953},{""page_index"":9,""viewing_time"":7774.5},{""page_index"":10,""viewing_time"":12638.800000011921},{""page_index"":11,""viewing_time"":6901.5},{""page_index"":12,""viewing_time"":9411.40000000596},{""page_index"":13,""viewing_time"":16328.799999982119},{""page_index"":14,""viewing_time"":14179.800000011921},{""page_index"":15,""viewing_time"":9486.199999988079},{""page_index"":16,""viewing_time"":7676.300000011921},{""page_index"":17,""viewing_time"":7420.199999988079}]","169248.20000001788","","","","","","","","","","","","","","","","","","","","","","","",""
"pit-trial","20","391441","0.0-2.0-8.0-0.0","battery-v0.2","","""event"",""trial"",""time""
""fullscreenenter"",""1"",""4162""
","
","
","""event"",""trial"",""time""
""fullscreenenter"",""1"",""4162""
","
","","","1148.7999999821186","","","18","7705","3965","&#9776;","elianto","#3366ff99"," "," ","1","+10","[2001,3984]","2","0","1","","","","","","","",""
"pit-trial","21","395208","0.0-2.0-8.0-1.0","battery-v0.2","","""event"",""trial"",""time""
""fullscreenenter"",""1"",""4162""
","
","
","""event"",""trial"",""time""
""fullscreenenter"",""1"",""4162""
","
","","","899.8000000119209","","","18","7705","3965","&#9776;","elianto","#3366ff99"," "," ","1","+10","[1750.800000011921,3161.2000000178814]","2","0","1","","","","","","","",""
"pit-trial","22","398701","0.0-2.0-8.0-2.0","battery-v0.2","","""event"",""trial"",""time""
""fullscreenenter"",""1"",""4162""
","
","
","""event"",""trial"",""time""
""fullscreenenter"",""1"",""4162""
","
","","","633.9000000059605","","","18","7705","3965","&#9776;","elianto","#3366ff99"," "," ","1","+10","[1483.9000000059605,3155.300000011921]","2","0","1","","","","","","","",""
"pit-trial","23","402150","0.0-2.0-8.0-3.0","battery-v0.2","","""event"",""trial"",""time""
""fullscreenenter"",""1"",""4162""
","
","
","""event"",""trial"",""time""
""fullscreenenter"",""1"",""4162""
","
","","","579.5","","","18","7705","3965","&#9776;","elianto","#3366ff99"," "," ","1","0","[1433.9000000059605]","1","0","1","","","","","","","",""
"pit-trial","24","406105","0.0-2.0-8.0-4.0","battery-v0.2","","""event"",""trial"",""time""
""fullscreenenter"",""1"",""4162""
","
","
","""event"",""trial"",""time""
""fullscreenenter"",""1"",""4162""
","
","","","1081.5999999940395","","","18","7705","3965","&#9776;","elianto","#3366ff99"," "," ","1","+10","[1936.9000000059605,3655.5]","2","0","1","","","","","","","",""
"pit-trial","25","409919","0.0-2.0-8.1-0.1","battery-v0.2","","""event"",""trial"",""time""
""fullscreenenter"",""1"",""4162""
","
","
","""event"",""trial"",""time""
""fullscreenenter"",""1"",""4162""
","
","","","944.2999999821186","","","18","7705","3965","&#9776;","elianto","#3366ff99"," "," ","1","+10","[1796.2999999821186,3050]","2","0","1","","","","","","","",""
"pit-trial","26","413821","0.0-2.0-8.1-1.1","battery-v0.2","","""event"",""trial"",""time""
""fullscreenenter"",""1"",""4162""
","
","
","""event"",""trial"",""time""
""fullscreenenter"",""1"",""4162""
","
","","","1031.5","","","18","7705","3965","&#9776;","elianto","#3366ff99"," "," ","1","+10","[1888.5,3042]","2","0","1","","","","","","","",""
"pit-trial","27","417572","0.0-2.0-8.1-2.1","battery-v0.2","","""event"",""trial"",""time""
""fullscreenenter"",""1"",""4162""
","
","
","""event"",""trial"",""time""
""fullscreenenter"",""1"",""4162""
","
","","","896.3000000119209","","","18","7705","3965","&#9776;","elianto","#3366ff99"," "," ","1","+10","[1746.800000011921,3136.300000011921]","2","0","1","","","","","","","",""
"pit-trial","28","421334","0.0-2.0-8.1-3.1","battery-v0.2","","""event"",""trial"",""time""
""fullscreenenter"",""1"",""4162""
","
","
","""event"",""trial"",""time""
""fullscreenenter"",""1"",""4162""
","
","","","908.9000000059605","","","18","7705","3965","&#9776;","elianto","#3366ff99"," "," ","1","0","[1760.2000000178814,3589.7000000178814]","2","0","1","","","","","","","",""
"pit-trial","29","425143","0.0-2.0-8.1-4.1","battery-v0.2","","""event"",""trial"",""time""
""fullscreenenter"",""1"",""4162""
","
","
","""event"",""trial"",""time""
""fullscreenenter"",""1"",""4162""
","
","","","953.2000000178814","","","18","7705","3965","&#9776;","elianto","#3366ff99"," "," ","1","+10","[1804.5,3364.2999999821186]","2","0","1","","","","","","","",""
"pit-trial","30","429998","0.0-2.0-8.2-0.2","battery-v0.2","","""event"",""trial"",""time""
""fullscreenenter"",""1"",""4162""
","
","
","""event"",""trial"",""time""
""fullscreenenter"",""1"",""4162""
","
","","","-1","","","18","7705","3965","&#9776;","elianto","#3366ff99"," ","-1","0","0","[]","0","0","1","","","","","","","",""
"pit-trial","31","433401","0.0-2.0-8.2-1.2","battery-v0.2","","""event"",""trial"",""time""
""fullscreenenter"",""1"",""4162""
","
","
","""event"",""trial"",""time""
""fullscreenenter"",""1"",""4162""
","
","","","548.1000000238419","","","18","7705","3965","&#9776;","elianto","#3366ff99"," "," ","1","+10","[1398.7000000178814,2836.5]","2","0","1","","","","","","","",""
"pit-trial","32","438255","0.0-2.0-8.2-2.2","battery-v0.2","","""event"",""trial"",""time""
""fullscreenenter"",""1"",""4162""
","
","
","""event"",""trial"",""time""
""fullscreenenter"",""1"",""4162""
","
","","","-1","","","18","7705","3965","&#9776;","elianto","#3366ff99"," ","-1","0","0","[]","0","0","1","","","","","","","",""
"pit-trial","33","441837","0.0-2.0-8.2-3.2","battery-v0.2","","""event"",""trial"",""time""
""fullscreenenter"",""1"",""4162""
","
","
","""event"",""trial"",""time""
""fullscreenenter"",""1"",""4162""
","
","","","727.5999999940395","","","18","7705","3965","&#9776;","elianto","#3366ff99"," "," ","1","0","[1578.5]","1","0","1","","","","","","","",""
"pit-trial","34","445298","0.0-2.0-8.2-4.2","battery-v0.2","","""event"",""trial"",""time""
""fullscreenenter"",""1"",""4162""
","
","
","""event"",""trial"",""time""
""fullscreenenter"",""1"",""4162""
","
","","","607.1000000238419","","","18","7705","3965","&#9776;","elianto","#3366ff99"," "," ","1","+10","[1457.7000000178814]","1","0","1","","","","","","","",""
"call-function","35","445301","0.0-2.0-9.0","battery-v0.2","","""event"",""trial"",""time""
""fullscreenenter"",""1"",""4162""
","
","
","""event"",""trial"",""time""
""fullscreenenter"",""1"",""4162""
","
","","","","","","","","","","","","","","","","","","","","","","","","","","",""
"pit-instructions","36","603574","0.0-2.0-10.0","battery-v0.2","","""event"",""trial"",""time""
""fullscreenenter"",""1"",""4162""
","
","
","""event"",""trial"",""time""
""fullscreenenter"",""1"",""4162""
","
","","[{""page_index"":0,""viewing_time"":69492.59999999404},{""page_index"":1,""viewing_time"":8587.200000017881},{""page_index"":2,""viewing_time"":63148.19999998808},{""page_index"":3,""viewing_time"":9472.5},{""page_index"":4,""viewing_time"":7570.5999999940395}]","158271.80000001192","","","","","","","","","","","","","","","","","","","","","","","",""
"pit-trial","37","607138","0.0-2.0-11.0-0.0","battery-v0.2","","""event"",""trial"",""time""
""fullscreenenter"",""1"",""4162""
","
","
","""event"",""trial"",""time""
""fullscreenenter"",""1"",""4162""
","
","","","703.2000000178814","","","18","7705","3965","&#9761;","elianto","#3366ff99","-1"," ","0","0","[1557]","1","0","2","","","","","","","",""
"pit-trial","38","611811","0.0-2.0-11.0-1.0","battery-v0.2","","""event"",""trial"",""time""
""fullscreenenter"",""1"",""4162""
","
","
","""event"",""trial"",""time""
""fullscreenenter"",""1"",""4162""
","
","","","1811.6000000238419","","","18","7705","3965","&#9761;","elianto","#3366ff99","-1"," ","0","0","[2664.9000000059605]","1","0","2","","","","","","","",""
"pit-trial","39","616678","0.0-2.0-11.0-2.0","battery-v0.2","","""event"",""trial"",""time""
""fullscreenenter"",""1"",""4162""
","
","
","""event"",""trial"",""time""
""fullscreenenter"",""1"",""4162""
","
","","","-1","","","18","7705","3965","&#9761;","elianto","#3366ff99","-1","-1","1","+10","[4507.600000023842]","1","0","2","","","","","","","",""
"pit-trial","40","620312","0.0-2.0-11.0-3.0","battery-v0.2","","""event"",""trial"",""time""
""fullscreenenter"",""1"",""4162""
","
","
","""event"",""trial"",""time""
""fullscreenenter"",""1"",""4162""
","
","","","765.5999999940395","","","18","7705","3965","&#9761;","elianto","#3366ff99","-1"," ","0","+10","[1615.5999999940395]","1","0","2","","","","","","","",""
"pit-trial","41","624632","0.0-2.0-11.0-4.0","battery-v0.2","","""event"",""trial"",""time""
""fullscreenenter"",""1"",""4162""
","
","
","""event"",""trial"",""time""
""fullscreenenter"",""1"",""4162""
","
","","","1460.0999999940395","","","18","7705","3965","&#9761;","elianto","#3366ff99","-1"," ","0","0","[167.30000001192093,2310.300000011921]","2","0","2","","","","","","","",""
"pit-trial","42","629502","0.0-2.0-11.1-0.1","battery-v0.2","","""event"",""trial"",""time""
""fullscreenenter"",""1"",""4162""
","
","
","""event"",""trial"",""time""
""fullscreenenter"",""1"",""4162""
","
","","","-1","","","18","7705","3965","&#9761;","elianto","#3366ff99","-1","-1","1","+10","[]","0","0","2","","","","","","","",""
"pit-trial","43","633024","0.0-2.0-11.1-1.1","battery-v0.2","","""event"",""trial"",""time""
""fullscreenenter"",""1"",""4162""
","
","
","""event"",""trial"",""time""
""fullscreenenter"",""1"",""4162""
","
","","","649.1999999880791","","","18","7705","3965","&#9761;","elianto","#3366ff99","-1"," ","0","0","[1505.2999999821186]","1","0","2","","","","","","","",""
"pit-trial","44","636610","0.0-2.0-11.1-2.1","battery-v0.2","","""event"",""trial"",""time""
""fullscreenenter"",""1"",""4162""
","
","
","""event"",""trial"",""time""
""fullscreenenter"",""1"",""4162""
","
","","","730.1999999880791","","","18","7705","3965","&#9761;","elianto","#3366ff99","-1"," ","0","0","[1582.800000011921]","1","0","2","","","","","","","",""
"pit-trial","45","640473","0.0-2.0-11.1-3.1","battery-v0.2","","""event"",""trial"",""time""
""fullscreenenter"",""1"",""4162""
","
","
","""event"",""trial"",""time""
""fullscreenenter"",""1"",""4162""
","
","","","1007.0999999940395","","","18","7705","3965","&#9761;","elianto","#3366ff99","-1"," ","0","+10","[1858.4000000059605]","1","0","2","","","","","","","",""
"pit-trial","46","644563","0.0-2.0-11.1-4.1","battery-v0.2","","""event"",""trial"",""time""
""fullscreenenter"",""1"",""4162""
","
","
","""event"",""trial"",""time""
""fullscreenenter"",""1"",""4162""
","
","","","1237.5999999940395","","","18","7705","3965","&#9761;","elianto","#3366ff99","-1"," ","0","0","[2088.2000000178814]","1","0","2","","","","","","","",""
"pit-trial","47","648559","0.0-2.0-11.2-0.2","battery-v0.2","","""event"",""trial"",""time""
""fullscreenenter"",""1"",""4162""
","
","
","""event"",""trial"",""time""
""fullscreenenter"",""1"",""4162""
","
","","","1139.9000000059605","","","18","7705","3965","&#9761;","elianto","#3366ff99","-1"," ","0","0","[1990.7000000178814]","1","0","2","","","","","","","",""
"pit-trial","48","652748","0.0-2.0-11.2-1.2","battery-v0.2","","""event"",""trial"",""time""
""fullscreenenter"",""1"",""4162""
","
","
","""event"",""trial"",""time""
""fullscreenenter"",""1"",""4162""
","
","","","1334.9000000059605","","","18","7705","3965","&#9761;","elianto","#3366ff99","-1"," ","0","0","[2185]","1","0","2","","","","","","","",""
"pit-trial","49","657602","0.0-2.0-11.2-2.2","battery-v0.2","","""event"",""trial"",""time""
""fullscreenenter"",""1"",""4162""
","
","
","""event"",""trial"",""time""
""fullscreenenter"",""1"",""4162""
","
","","","-1","","","18","7705","3965","&#9761;","elianto","#3366ff99","-1","-1","1","+10","[]","0","0","2","","","","","","","",""
"pit-trial","50","661555","0.0-2.0-11.2-3.2","battery-v0.2","","""event"",""trial"",""time""
""fullscreenenter"",""1"",""4162""
","
","
","""event"",""trial"",""time""
""fullscreenenter"",""1"",""4162""
","
","","","1099.0999999940395","","","18","7705","3965","&#9761;","elianto","#3366ff99","-1"," ","0","+10","[1949.2999999821186]","1","0","2","","","","","","","",""
"pit-trial","51","666409","0.0-2.0-11.2-4.2","battery-v0.2","","""event"",""trial"",""time""
""fullscreenenter"",""1"",""4162""
","
","
","""event"",""trial"",""time""
""fullscreenenter"",""1"",""4162""
","
","","","-1","","","18","7705","3965","&#9761;","elianto","#3366ff99","-1","-1","1","+10","[]","0","0","2","","","","","","","",""
"pit-trial","52","670051","0.0-2.0-11.3-0.3","battery-v0.2","","""event"",""trial"",""time""
""fullscreenenter"",""1"",""4162""
","
","
","""event"",""trial"",""time""
""fullscreenenter"",""1"",""4162""
","
","","","786.7999999821186","","","18","7705","3965","&#9761;","elianto","#3366ff99","-1"," ","0","0","[1637.2999999821186]","1","0","2","","","","","","","",""
"pit-trial","53","673553","0.0-2.0-11.3-1.3","battery-v0.2","","""event"",""trial"",""time""
""fullscreenenter"",""1"",""4162""
","
","
","""event"",""trial"",""time""
""fullscreenenter"",""1"",""4162""
","
","","","648.8000000119209","","","18","7705","3965","&#9761;","elianto","#3366ff99","-1"," ","0","0","[1499.5]","1","0","2","","","","","","","",""
"pit-trial","54","676886","0.0-2.0-11.3-2.3","battery-v0.2","","""event"",""trial"",""time""
""fullscreenenter"",""1"",""4162""
","
","
","""event"",""trial"",""time""
""fullscreenenter"",""1"",""4162""
","
","","","479","","","18","7705","3965","&#9761;","elianto","#3366ff99","-1"," ","0","0","[1329.7999999821186]","1","0","2","","","","","","","",""
"pit-trial","55","681561","0.0-2.0-11.3-3.3","battery-v0.2","","""event"",""trial"",""time""
""fullscreenenter"",""1"",""4162""
","
","
","""event"",""trial"",""time""
""fullscreenenter"",""1"",""4162""
","
","","","1821.0999999940395","","","18","7705","3965","&#9761;","elianto","#3366ff99","-1"," ","0","+10","[2671.5999999940395]","1","0","2","","","","","","","",""
"pit-trial","56","686416","0.0-2.0-11.3-4.3","battery-v0.2","","""event"",""trial"",""time""
""fullscreenenter"",""1"",""4162""
","
","
","""event"",""trial"",""time""
""fullscreenenter"",""1"",""4162""
","
","","","-1","","","18","7705","3965","&#9761;","elianto","#3366ff99","-1","-1","1","+10","[]","0","0","2","","","","","","","",""
"call-function","57","686419","0.0-2.0-12.0","battery-v0.2","","""event"",""trial"",""time""
""fullscreenenter"",""1"",""4162""
","
","
","""event"",""trial"",""time""
""fullscreenenter"",""1"",""4162""
","
","","","","","","","","","","","","","","","","","","","","","","","","","","",""
"pit-instructions","58","732062","0.0-2.0-13.0","battery-v0.2","","""event"",""trial"",""time""
""fullscreenenter"",""1"",""4162""
","
","
","""event"",""trial"",""time""
""fullscreenenter"",""1"",""4162""
","
","","[{""page_index"":0,""viewing_time"":8215.800000011921},{""page_index"":1,""viewing_time"":11118.899999976158},{""page_index"":2,""viewing_time"":7445.4000000059605},{""page_index"":3,""viewing_time"":13351.800000011921},{""page_index"":4,""viewing_time"":5510.4000000059605}]","45643","","","","","","","","","","","","","","","","","","","","","","","",""
"pit-trial","59","736940","0.0-2.0-14.0-0.0","battery-v0.2","","""event"",""trial"",""time""
""fullscreenenter"",""1"",""4162""
","
","
","""event"",""trial"",""time""
""fullscreenenter"",""1"",""4162""
","
","","","-1","","","18","7705","3965","&#9826;","elianto","#f73b6a7A","-1","-1","1","0","[4784.399999976158]","1","0","3","","","","","","","",""
"pit-trial","60","741819","0.0-2.0-14.0-1.0","battery-v0.2","","""event"",""trial"",""time""
""fullscreenenter"",""1"",""4162""
","
","
","""event"",""trial"",""time""
""fullscreenenter"",""1"",""4162""
","
","","","-1","","","18","7705","3965","&#9826;","elianto","#f73b6a7A","-1","-1","1","0","[4686.5999999940395]","1","0","3","","","","","","","",""
"pit-trial","61","746691","0.0-2.0-14.0-2.0","battery-v0.2","","""event"",""trial"",""time""
""fullscreenenter"",""1"",""4162""
","
","
","""event"",""trial"",""time""
""fullscreenenter"",""1"",""4162""
","
","","","-1","","","18","7705","3965","&#9826;","elianto","#f73b6a7A","-1","-1","1","0","[]","0","0","3","","","","","","","",""
"pit-trial","62","749900","0.0-2.0-14.0-3.0","battery-v0.2","","""event"",""trial"",""time""
""fullscreenenter"",""1"",""4162""
","
","
","""event"",""trial"",""time""
""fullscreenenter"",""1"",""4162""
","
","","","345","","","18","7705","3965","&#9826;","elianto","#f73b6a7A","-1"," ","0","0","[1195.199999988079]","1","0","3","","","","","","","",""
"pit-trial","63","754771","0.0-2.0-14.0-4.0","battery-v0.2","","""event"",""trial"",""time""
""fullscreenenter"",""1"",""4162""
","
","
","""event"",""trial"",""time""
""fullscreenenter"",""1"",""4162""
","
","","","-1","","","18","7705","3965","&#9826;","elianto","#f73b6a7A","-1","-1","1","0","[]","0","0","3","","","","","","","",""
"pit-trial","64","759640","0.0-2.0-14.1-0.1","battery-v0.2","","""event"",""trial"",""time""
""fullscreenenter"",""1"",""4162""
","
","
","""event"",""trial"",""time""
""fullscreenenter"",""1"",""4162""
","
","","","-1","","","18","7705","3965","&#9826;","elianto","#f73b6a7A","-1","-1","1","0","[]","0","0","3","","","","","","","",""
"pit-trial","65","764494","0.0-2.0-14.1-1.1","battery-v0.2","","""event"",""trial"",""time""
""fullscreenenter"",""1"",""4162""
","
","
","""event"",""trial"",""time""
""fullscreenenter"",""1"",""4162""
","
","","","-1","","","18","7705","3965","&#9826;","elianto","#f73b6a7A","-1","-1","1","0","[]","0","0","3","","","","","","","",""
"pit-trial","66","769348","0.0-2.0-14.1-2.1","battery-v0.2","","""event"",""trial"",""time""
""fullscreenenter"",""1"",""4162""
","
","
","""event"",""trial"",""time""
""fullscreenenter"",""1"",""4162""
","
","","","-1","","","18","7705","3965","&#9826;","elianto","#f73b6a7A","-1","-1","1","0","[]","0","0","3","","","","","","","",""
"pit-trial","67","774203","0.0-2.0-14.1-3.1","battery-v0.2","","""event"",""trial"",""time""
""fullscreenenter"",""1"",""4162""
","
","
","""event"",""trial"",""time""
""fullscreenenter"",""1"",""4162""
","
","","","-1","","","18","7705","3965","&#9826;","elianto","#f73b6a7A","-1","-1","1","-10","[]","0","0","3","","","","","","","",""
"pit-trial","68","779056","0.0-2.0-14.1-4.1","battery-v0.2","","""event"",""trial"",""time""
""fullscreenenter"",""1"",""4162""
","
","
","""event"",""trial"",""time""
""fullscreenenter"",""1"",""4162""
","
","","","-1","","","18","7705","3965","&#9826;","elianto","#f73b6a7A","-1","-1","1","0","[]","0","0","3","","","","","","","",""
"pit-trial","69","783911","0.0-2.0-14.2-0.2","battery-v0.2","","""event"",""trial"",""time""
""fullscreenenter"",""1"",""4162""
","
","
","""event"",""trial"",""time""
""fullscreenenter"",""1"",""4162""
","
","","","-1","","","18","7705","3965","&#9826;","elianto","#f73b6a7A","-1","-1","1","0","[]","0","0","3","","","","","","","",""
"pit-trial","70","788764","0.0-2.0-14.2-1.2","battery-v0.2","","""event"",""trial"",""time""
""fullscreenenter"",""1"",""4162""
","
","
","""event"",""trial"",""time""
""fullscreenenter"",""1"",""4162""
","
","","","-1","","","18","7705","3965","&#9826;","elianto","#f73b6a7A","-1","-1","1","0","[]","0","0","3","","","","","","","",""
"pit-trial","71","793619","0.0-2.0-14.2-2.2","battery-v0.2","","""event"",""trial"",""time""
""fullscreenenter"",""1"",""4162""
","
","
","""event"",""trial"",""time""
""fullscreenenter"",""1"",""4162""
","
","","","-1","","","18","7705","3965","&#9826;","elianto","#f73b6a7A","-1","-1","1","0","[]","0","0","3","","","","","","","",""
"pit-trial","72","798473","0.0-2.0-14.2-3.2","battery-v0.2","","""event"",""trial"",""time""
""fullscreenenter"",""1"",""4162""
","
","
","""event"",""trial"",""time""
""fullscreenenter"",""1"",""4162""
","
","","","-1","","","18","7705","3965","&#9826;","elianto","#f73b6a7A","-1","-1","1","-10","[]","0","0","3","","","","","","","",""
"pit-trial","73","803328","0.0-2.0-14.2-4.2","battery-v0.2","","""event"",""trial"",""time""
""fullscreenenter"",""1"",""4162""
","
","
","""event"",""trial"",""time""
""fullscreenenter"",""1"",""4162""
","
","","","-1","","","18","7705","3965","&#9826;","elianto","#f73b6a7A","-1","-1","1","0","[]","0","0","3","","","","","","","",""
"pit-trial","74","808183","0.0-2.0-14.3-0.3","battery-v0.2","","""event"",""trial"",""time""
""fullscreenenter"",""1"",""4162""
","
","
","""event"",""trial"",""time""
""fullscreenenter"",""1"",""4162""
","
","","","-1","","","18","7705","3965","&#9826;","elianto","#f73b6a7A","-1","-1","1","0","[]","0","0","3","","","","","","","",""
"pit-trial","75","813037","0.0-2.0-14.3-1.3","battery-v0.2","","""event"",""trial"",""time""
""fullscreenenter"",""1"",""4162""
","
","
","""event"",""trial"",""time""
""fullscreenenter"",""1"",""4162""
","
","","","-1","","","18","7705","3965","&#9826;","elianto","#f73b6a7A","-1","-1","1","0","[]","0","0","3","","","","","","","",""
"pit-trial","76","817890","0.0-2.0-14.3-2.3","battery-v0.2","","""event"",""trial"",""time""
""fullscreenenter"",""1"",""4162""
","
","
","""event"",""trial"",""time""
""fullscreenenter"",""1"",""4162""
","
","","","-1","","","18","7705","3965","&#9826;","elianto","#f73b6a7A","-1","-1","1","0","[]","0","0","3","","","","","","","",""
"pit-trial","77","822744","0.0-2.0-14.3-3.3","battery-v0.2","","""event"",""trial"",""time""
""fullscreenenter"",""1"",""4162""
","
","
","""event"",""trial"",""time""
""fullscreenenter"",""1"",""4162""
","
","","","-1","","","18","7705","3965","&#9826;","elianto","#f73b6a7A","-1","-1","1","-10","[]","0","0","3","","","","","","","",""
"pit-trial","78","827598","0.0-2.0-14.3-4.3","battery-v0.2","","""event"",""trial"",""time""
""fullscreenenter"",""1"",""4162""
","
","
","""event"",""trial"",""time""
""fullscreenenter"",""1"",""4162""
","
","","","-1","","","18","7705","3965","&#9826;","elianto","#f73b6a7A","-1","-1","1","0","[]","0","0","3","","","","","","","",""
"call-function","79","827600","0.0-2.0-15.0","battery-v0.2","","""event"",""trial"",""time""
""fullscreenenter"",""1"",""4162""
","
","
","""event"",""trial"",""time""
""fullscreenenter"",""1"",""4162""
","
","","","","","","","","","","","","","","","","","","","","","","","","","","",""
"pit-instructions","80","859458","0.0-2.0-16.0","battery-v0.2","","""event"",""trial"",""time""
""fullscreenenter"",""1"",""4162""
","
","
","""event"",""trial"",""time""
""fullscreenenter"",""1"",""4162""
","
","","[{""page_index"":0,""viewing_time"":7384.9000000059605},{""page_index"":1,""viewing_time"":11338.300000011921},{""page_index"":2,""viewing_time"":6065.399999976158},{""page_index"":3,""viewing_time"":7068.4000000059605}]","31857.70000001788","","","","","","","","","","","","","","","","","","","","","","","",""
"pit-trial","81","864337","0.0-2.0-17.0-0.0","battery-v0.2","","""event"",""trial"",""time""
""fullscreenenter"",""1"",""4162""
","
","
","""event"",""trial"",""time""
""fullscreenenter"",""1"",""4162""
","
","","","-1","","","18","7705","3965","&#9789;","elianto","#f73b6a7A"," ","-1","0","-10","[]","0","0","4","","","","","","","",""
"pit-trial","82","869200","0.0-2.0-17.0-1.0","battery-v0.2","","""event"",""trial"",""time""
""fullscreenenter"",""1"",""4162""
","
","
","""event"",""trial"",""time""
""fullscreenenter"",""1"",""4162""
","
","","","-1","","","18","7705","3965","&#9789;","elianto","#f73b6a7A"," ","-1","0","-10","[]","0","0","4","","","","","","","",""
"pit-trial","83","874077","0.0-2.0-17.0-2.0","battery-v0.2","","""event"",""trial"",""time""
""fullscreenenter"",""1"",""4162""
","
","
","""event"",""trial"",""time""
""fullscreenenter"",""1"",""4162""
","
","","","-1","","","18","7705","3965","&#9789;","elianto","#f73b6a7A"," ","-1","0","-10","[]","0","0","4","","","","","","","",""
"pit-trial","84","878944","0.0-2.0-17.0-3.0","battery-v0.2","","""event"",""trial"",""time""
""fullscreenenter"",""1"",""4162""
","
","
","""event"",""trial"",""time""
""fullscreenenter"",""1"",""4162""
","
","","","-1","","","18","7705","3965","&#9789;","elianto","#f73b6a7A"," ","-1","0","0","[]","0","0","4","","","","","","","",""
"pit-trial","85","883814","0.0-2.0-17.0-4.0","battery-v0.2","","""event"",""trial"",""time""
""fullscreenenter"",""1"",""4162""
","
","
","""event"",""trial"",""time""
""fullscreenenter"",""1"",""4162""
","
","","","-1","","","18","7705","3965","&#9789;","elianto","#f73b6a7A"," ","-1","0","-10","[]","0","0","4","","","","","","","",""
"pit-trial","86","888682","0.0-2.0-17.1-0.1","battery-v0.2","","""event"",""trial"",""time""
""fullscreenenter"",""1"",""4162""
","
","
","""event"",""trial"",""time""
""fullscreenenter"",""1"",""4162""
","
","","","-1","","","18","7705","3965","&#9789;","elianto","#f73b6a7A"," ","-1","0","-10","[]","0","0","4","","","","","","","",""
"pit-trial","87","893536","0.0-2.0-17.1-1.1","battery-v0.2","","""event"",""trial"",""time""
""fullscreenenter"",""1"",""4162""
","
","
","""event"",""trial"",""time""
""fullscreenenter"",""1"",""4162""
","
","","","-1","","","18","7705","3965","&#9789;","elianto","#f73b6a7A"," ","-1","0","-10","[]","0","0","4","","","","","","","",""
"pit-trial","88","898401","0.0-2.0-17.1-2.1","battery-v0.2","","""event"",""trial"",""time""
""fullscreenenter"",""1"",""4162""
","
","
","""event"",""trial"",""time""
""fullscreenenter"",""1"",""4162""
","
","","","-1","","","18","7705","3965","&#9789;","elianto","#f73b6a7A"," ","-1","0","-10","[]","0","0","4","","","","","","","",""
"pit-trial","89","903257","0.0-2.0-17.1-3.1","battery-v0.2","","""event"",""trial"",""time""
""fullscreenenter"",""1"",""4162""
","
","
","""event"",""trial"",""time""
""fullscreenenter"",""1"",""4162""
","
","","","-1","","","18","7705","3965","&#9789;","elianto","#f73b6a7A"," ","-1","0","0","[]","0","0","4","","","","","","","",""
"pit-trial","90","908111","0.0-2.0-17.1-4.1","battery-v0.2","","""event"",""trial"",""time""
""fullscreenenter"",""1"",""4162""
","
","
","""event"",""trial"",""time""
""fullscreenenter"",""1"",""4162""
","
","","","-1","","","18","7705","3965","&#9789;","elianto","#f73b6a7A"," ","-1","0","-10","[]","0","0","4","","","","","","","",""
"pit-trial","91","912967","0.0-2.0-17.2-0.2","battery-v0.2","","""event"",""trial"",""time""
""fullscreenenter"",""1"",""4162""
","
","
","""event"",""trial"",""time""
""fullscreenenter"",""1"",""4162""
","
","","","-1","","","18","7705","3965","&#9789;","elianto","#f73b6a7A"," ","-1","0","-10","[]","0","0","4","","","","","","","",""
"pit-trial","92","917820","0.0-2.0-17.2-1.2","battery-v0.2","","""event"",""trial"",""time""
""fullscreenenter"",""1"",""4162""
","
","
","""event"",""trial"",""time""
""fullscreenenter"",""1"",""4162""
","
","","","-1","","","18","7705","3965","&#9789;","elianto","#f73b6a7A"," ","-1","0","-10","[]","0","0","4","","","","","","","",""
"pit-trial","93","922676","0.0-2.0-17.2-2.2","battery-v0.2","","""event"",""trial"",""time""
""fullscreenenter"",""1"",""4162""
","
","
","""event"",""trial"",""time""
""fullscreenenter"",""1"",""4162""
","
","","","-1","","","18","7705","3965","&#9789;","elianto","#f73b6a7A"," ","-1","0","-10","[]","0","0","4","","","","","","","",""
"pit-trial","94","927543","0.0-2.0-17.2-3.2","battery-v0.2","","""event"",""trial"",""time""
""fullscreenenter"",""1"",""4162""
","
","
","""event"",""trial"",""time""
""fullscreenenter"",""1"",""4162""
","
","","","-1","","","18","7705","3965","&#9789;","elianto","#f73b6a7A"," ","-1","0","0","[]","0","0","4","","","","","","","",""
"pit-trial","95","932398","0.0-2.0-17.2-4.2","battery-v0.2","","""event"",""trial"",""time""
""fullscreenenter"",""1"",""4162""
","
","
","""event"",""trial"",""time""
""fullscreenenter"",""1"",""4162""
","
","","","-1","","","18","7705","3965","&#9789;","elianto","#f73b6a7A"," ","-1","0","-10","[]","0","0","4","","","","","","","",""
"pit-trial","96","937253","0.0-2.0-17.3-0.3","battery-v0.2","","""event"",""trial"",""time""
""fullscreenenter"",""1"",""4162""
","
","
","""event"",""trial"",""time""
""fullscreenenter"",""1"",""4162""
","
","","","-1","","","18","7705","3965","&#9789;","elianto","#f73b6a7A"," ","-1","0","-10","[]","0","0","4","","","","","","","",""
"pit-trial","97","942108","0.0-2.0-17.3-1.3","battery-v0.2","","""event"",""trial"",""time""
""fullscreenenter"",""1"",""4162""
","
","
","""event"",""trial"",""time""
""fullscreenenter"",""1"",""4162""
","
","","","-1","","","18","7705","3965","&#9789;","elianto","#f73b6a7A"," ","-1","0","-10","[]","0","0","4","","","","","","","",""
"pit-trial","98","946963","0.0-2.0-17.3-2.3","battery-v0.2","","""event"",""trial"",""time""
""fullscreenenter"",""1"",""4162""
","
","
","""event"",""trial"",""time""
""fullscreenenter"",""1"",""4162""
","
","","","-1","","","18","7705","3965","&#9789;","elianto","#f73b6a7A"," ","-1","0","-10","[]","0","0","4","","","","","","","",""
"pit-trial","99","951818","0.0-2.0-17.3-3.3","battery-v0.2","","""event"",""trial"",""time""
""fullscreenenter"",""1"",""4162""
","
","
","""event"",""trial"",""time""
""fullscreenenter"",""1"",""4162""
","
","","","-1","","","18","7705","3965","&#9789;","elianto","#f73b6a7A"," ","-1","0","0","[]","0","0","4","","","","","","","",""
"pit-trial","100","956674","0.0-2.0-17.3-4.3","battery-v0.2","","""event"",""trial"",""time""
""fullscreenenter"",""1"",""4162""
","
","
","""event"",""trial"",""time""
""fullscreenenter"",""1"",""4162""
","
","","","-1","","","18","7705","3965","&#9789;","elianto","#f73b6a7A"," ","-1","0","-10","[]","0","0","4","","","","","","","",""
"call-function","101","956678","0.0-2.0-18.0","battery-v0.2","","""event"",""trial"",""time""
""fullscreenenter"",""1"",""4162""
","
","
","""event"",""trial"",""time""
""fullscreenenter"",""1"",""4162""
","
","","","","","","","","","","","","","","","","","","","","","","","","","","",""
"pit-instructions","102","1033455","0.0-2.0-19.0","battery-v0.2","","""event"",""trial"",""time""
""fullscreenenter"",""1"",""4162""
","
","
","""event"",""trial"",""time""
""fullscreenenter"",""1"",""4162""
","
","","[{""page_index"":0,""viewing_time"":7471.5999999940395},{""page_index"":1,""viewing_time"":7493.699999988079},{""page_index"":2,""viewing_time"":14300.200000017881},{""page_index"":3,""viewing_time"":8448.199999988079},{""page_index"":4,""viewing_time"":9691.200000017881},{""page_index"":5,""viewing_time"":9520.799999982119},{""page_index"":6,""viewing_time"":9869.40000000596},{""page_index"":7,""viewing_time"":6037.699999988079},{""page_index"":8,""viewing_time"":3943.4000000059605}]","76776.90000000596","","","","","","","","","","","","","","","","","","","","","","","",""
"pit-comprehension","103","1039125","0.0-2.0-20.0-0.0","battery-v0.2","","""event"",""trial"",""time""
""fullscreenenter"",""1"",""4162""
","
","
","""event"",""trial"",""time""
""fullscreenenter"",""1"",""4162""
","
","","","5665.5","[""SPACE""]","0","18","7705","3965","","","","","","","","","","","","","","","","","","",""
"pit-instructions","104","1041961","0.0-2.0-20.0-1.0","battery-v0.2","","""event"",""trial"",""time""
""fullscreenenter"",""1"",""4162""
","
","
","""event"",""trial"",""time""
""fullscreenenter"",""1"",""4162""
","
","","[{""page_index"":0,""viewing_time"":2789.2999999821186}]","2790","","","","","","","","","","","","","","","","","","","","","","","",""
"pit-comprehension","105","1048088","0.0-2.0-21.0-0.0","battery-v0.2","","""event"",""trial"",""time""
""fullscreenenter"",""1"",""4162""
","
","
","""event"",""trial"",""time""
""fullscreenenter"",""1"",""4162""
","
","","","6122.799999982119","[""10""]","0","18","7705","3965","","","","","","","","","","","","","","","","","","",""
"pit-instructions","106","1051840","0.0-2.0-21.0-1.0","battery-v0.2","","""event"",""trial"",""time""
""fullscreenenter"",""1"",""4162""
","
","
","""event"",""trial"",""time""
""fullscreenenter"",""1"",""4162""
","
","","[{""page_index"":0,""viewing_time"":3715.5999999940395}]","3716","","","","","","","","","","","","","","","","","","","","","","","",""
"pit-comprehension","107","1058339","0.0-2.0-22.0-0.0","battery-v0.2","","""event"",""trial"",""time""
""fullscreenenter"",""1"",""4162""
","
","
","""event"",""trial"",""time""
""fullscreenenter"",""1"",""4162""
","
","","","6495.100000023842","[""0""]","0","18","7705","3965","","","","","","","","","","","","","","","","","","",""
"pit-instructions","108","1060380","0.0-2.0-22.0-1.0","battery-v0.2","","""event"",""trial"",""time""
""fullscreenenter"",""1"",""4162""
","
","
","""event"",""trial"",""time""
""fullscreenenter"",""1"",""4162""
","
","","[{""page_index"":0,""viewing_time"":1999.3999999761581}]","1999.8999999761581","","","","","","","","","","","","","","","","","","","","","","","",""
"pit-comprehension","109","1071205","0.0-2.0-23.0-0.0","battery-v0.2","","""event"",""trial"",""time""
""fullscreenenter"",""1"",""4162""
","
","
","""event"",""trial"",""time""
""fullscreenenter"",""1"",""4162""
","
","","","10819","[""True""]","0","18","7705","3965","","","","","","","","","","","","","","","","","","",""
"pit-instructions","110","1073849","0.0-2.0-23.0-1.0","battery-v0.2","","""event"",""trial"",""time""
""fullscreenenter"",""1"",""4162""
","
","
","""event"",""trial"",""time""
""fullscreenenter"",""1"",""4162""
","
","","[{""page_index"":0,""viewing_time"":2599.0999999940395}]","2600.2999999821186","","","","","","","","","","","","","","","","","","","","","","","",""
"pit-comprehension","111","1081618","0.0-2.0-24.0-0.0","battery-v0.2","","""event"",""trial"",""time""
""fullscreenenter"",""1"",""4162""
","
","
","""event"",""trial"",""time""
""fullscreenenter"",""1"",""4162""
","
","","","7764.199999988079","[""True""]","0","18","7705","3965","","","","","","","","","","","","","","","","","","",""
"pit-instructions","112","1083830","0.0-2.0-24.0-1.0","battery-v0.2","","""event"",""trial"",""time""
""fullscreenenter"",""1"",""4162""
","
","
","""event"",""trial"",""time""
""fullscreenenter"",""1"",""4162""
","
","","[{""page_index"":0,""viewing_time"":2167.5999999940395}]","2168.199999988079","","","","","","","","","","","","","","","","","","","","","","","",""
"pit-comprehension","113","1090399","0.0-2.0-25.0-0.0","battery-v0.2","","""event"",""trial"",""time""
""fullscreenenter"",""1"",""4162""
","
","
","""event"",""trial"",""time""
""fullscreenenter"",""1"",""4162""
","
","","","6562","[""True""]","0","18","7705","3965","","","","","","","","","","","","","","","","","","",""
"pit-instructions","114","1095777","0.0-2.0-25.0-1.0","battery-v0.2","","""event"",""trial"",""time""
""fullscreenenter"",""1"",""4162""
","
","
","""event"",""trial"",""time""
""fullscreenenter"",""1"",""4162""
","
","","[{""page_index"":0,""viewing_time"":5323.5}]","5324.200000017881","","","","","","","","","","","","","","","","","","","","","","","",""
"pit-comprehension","115","1101007","0.0-2.0-26.0-0.0","battery-v0.2","","""event"",""trial"",""time""
""fullscreenenter"",""1"",""4162""
","
","
","""event"",""trial"",""time""
""fullscreenenter"",""1"",""4162""
","
","","","5224.299999982119","[""False""]","0","18","7705","3965","","","","","","","","","","","","","","","","","","",""
"pit-instructions","116","1103792","0.0-2.0-26.0-1.0","battery-v0.2","","""event"",""trial"",""time""
""fullscreenenter"",""1"",""4162""
","
","
","""event"",""trial"",""time""
""fullscreenenter"",""1"",""4162""
","
","","[{""page_index"":0,""viewing_time"":2737.5}]","2737.800000011921","","","","","","","","","","","","","","","","","","","","","","","",""
"pit-instructions","117","1197174","0.0-3.0","battery-v0.2","","""event"",""trial"",""time""
""fullscreenenter"",""1"",""4162""
","
","
","""event"",""trial"",""time""
""fullscreenenter"",""1"",""4162""
","
","","[{""page_index"":0,""viewing_time"":13061.299999982119},{""page_index"":1,""viewing_time"":68709.80000001192},{""page_index"":2,""viewing_time"":11607.09999999404}]","93378.79999998212","","","","","","","","","","","","","","","","","","","","","","","",""
"pit-trial","118","1202007","0.0-4.0","battery-v0.2","","""event"",""trial"",""time""
""fullscreenenter"",""1"",""4162""
","
","
","""event"",""trial"",""time""
""fullscreenenter"",""1"",""4162""
","
","","","1963.5","","","18","7705","3965","&#9733;","elianto","#3366ff99","-1"," ","0","0","[2818.4000000059605]","1","1","","","7705","1","2","2","win","no-go","0"
"pit-trial","119","1206645","0.0-5.0","battery-v0.2","","""event"",""trial"",""time""
""fullscreenenter"",""1"",""4162""
","
","
","""event"",""trial"",""time""
""fullscreenenter"",""1"",""4162""
","
","","","1783.300000011921","","","18","7705","3965","&#9730;","elianto","#3366ff99"," "," ","1","+10","[2634.699999988079]","1","1","","","7705","2","1","1","win","go","0"
"pit-trial","120","1211516","0.0-6.0","battery-v0.2","","""event"",""trial"",""time""
""fullscreenenter"",""1"",""4162""
","
","
","""event"",""trial"",""time""
""fullscreenenter"",""1"",""4162""
","
","","","-1","","","18","7705","3965","&#9728;","elianto","#f73b6a7A","-1","-1","1","-10","[]","0","1","","","7705","3","0","4","lose","no-go","1"
"pit-trial","121","1216386","0.0-7.0","battery-v0.2","","""event"",""trial"",""time""
""fullscreenenter"",""1"",""4162""
","
","
","""event"",""trial"",""time""
""fullscreenenter"",""1"",""4162""
","
","","","-1","","","18","7705","3965","&#9752;","elianto","#f73b6a7A"," ","-1","0","0","[]","0","1","","","7705","4","3","3","lose","go","1"
"pit-trial","122","1220975","0.0-8.0","battery-v0.2","","""event"",""trial"",""time""
""fullscreenenter"",""1"",""4162""
","
","
","""event"",""trial"",""time""
""fullscreenenter"",""1"",""4162""
","
","","","1725.9000000059605","","","18","7705","3965","&#9730;","elianto","#3366ff99"," "," ","1","+10","[2579.800000011921]","1","1","","","7705","5","1","1","win","go","0"
"pit-trial","123","1225830","0.0-9.0","battery-v0.2","","""event"",""trial"",""time""
""fullscreenenter"",""1"",""4162""
","
","
","""event"",""trial"",""time""
""fullscreenenter"",""1"",""4162""
","
","","","-1","","","18","7705","3965","&#9733;","elianto","#3366ff99","-1","-1","1","+10","[]","0","1","","","7705","6","2","2","win","no-go","0"
"pit-trial","124","1230683","0.0-10.0","battery-v0.2","","""event"",""trial"",""time""
""fullscreenenter"",""1"",""4162""
","
","
","""event"",""trial"",""time""
""fullscreenenter"",""1"",""4162""
","
","","","-1","","","18","7705","3965","&#9728;","elianto","#f73b6a7A","-1","-1","1","0","[]","0","1","","","7705","7","0","4","lose","no-go","0"
"pit-trial","125","1235538","0.0-11.0","battery-v0.2","","""event"",""trial"",""time""
""fullscreenenter"",""1"",""4162""
","
","
","""event"",""trial"",""time""
""fullscreenenter"",""1"",""4162""
","
","","","-1","","","18","7705","3965","&#9752;","elianto","#f73b6a7A"," ","-1","0","-10","[]","0","1","","","7705","8","3","3","lose","go","0"
"pit-trial","126","1240393","0.0-12.0","battery-v0.2","","""event"",""trial"",""time""
""fullscreenenter"",""1"",""4162""
","
","
","""event"",""trial"",""time""
""fullscreenenter"",""1"",""4162""
","
","","","-1","","","18","7705","3965","&#9752;","elianto","#f73b6a7A"," ","-1","0","-10","[]","0","1","","","7705","9","3","3","lose","go","0"
"pit-trial","127","1245250","0.0-13.0","battery-v0.2","","""event"",""trial"",""time""
""fullscreenenter"",""1"",""4162""
","
","
","""event"",""trial"",""time""
""fullscreenenter"",""1"",""4162""
","
","","","-1","","","18","7705","3965","&#9728;","elianto","#f73b6a7A","-1","-1","1","0","[]","0","1","","","7705","10","0","4","lose","no-go","0"
"pit-trial","128","1249270","0.0-14.0","battery-v0.2","","""event"",""trial"",""time""
""fullscreenenter"",""1"",""4162""
","
","
","""event"",""trial"",""time""
""fullscreenenter"",""1"",""4162""
","
","","","1166.4000000059605","","","18","7705","3965","&#9733;","elianto","#3366ff99","-1"," ","0","+10","[2017]","1","1","","","7705","11","2","2","win","no-go","1"
"pit-trial","129","1254125","0.0-15.0","battery-v0.2","","""event"",""trial"",""time""
""fullscreenenter"",""1"",""4162""
","
","
","""event"",""trial"",""time""
""fullscreenenter"",""1"",""4162""
","
","","","-1","","","18","7705","3965","&#9730;","elianto","#3366ff99"," ","-1","0","0","[3334.4000000059605]","1","1","","","7705","12","1","1","win","go","0"
"pit-trial","130","1258978","0.0-16.0","battery-v0.2","","""event"",""trial"",""time""
""fullscreenenter"",""1"",""4162""
","
","
","""event"",""trial"",""time""
""fullscreenenter"",""1"",""4162""
","
","","","-1","","","18","7705","3965","&#9752;","elianto","#f73b6a7A"," ","-1","0","-10","[141.7000000178814]","1","1","","","7705","13","3","3","lose","go","0"
"pit-trial","131","1263833","0.0-17.0","battery-v0.2","","""event"",""trial"",""time""
""fullscreenenter"",""1"",""4162""
","
","
","""event"",""trial"",""time""
""fullscreenenter"",""1"",""4162""
","
","","","-1","","","18","7705","3965","&#9728;","elianto","#f73b6a7A","-1","-1","1","0","[]","0","1","","","7705","14","0","4","lose","no-go","0"
"pit-trial","132","1267813","0.0-18.0","battery-v0.2","","""event"",""trial"",""time""
""fullscreenenter"",""1"",""4162""
","
","
","""event"",""trial"",""time""
""fullscreenenter"",""1"",""4162""
","
","","","1125.699999988079","","","18","7705","3965","&#9730;","elianto","#3366ff99"," "," ","1","+10","[1976.2999999821186]","1","1","","","7705","15","1","1","win","go","0"
"pit-trial","133","1271381","0.0-19.0","battery-v0.2","","""event"",""trial"",""time""
""fullscreenenter"",""1"",""4162""
","
","
","""event"",""trial"",""time""
""fullscreenenter"",""1"",""4162""
","
","","","714.8000000119209","","","18","7705","3965","&#9733;","elianto","#3366ff99","-1"," ","0","0","[1565]","1","1","","","7705","16","2","2","win","no-go","0"
"pit-trial","134","1276235","0.0-20.0","battery-v0.2","","""event"",""trial"",""time""
""fullscreenenter"",""1"",""4162""
","
","
","""event"",""trial"",""time""
""fullscreenenter"",""1"",""4162""
","
","","","-1","","","18","7705","3965","&#9728;","elianto","#f73b6a7A","-1","-1","1","0","[]","0","1","","","7705","17","0","4","lose","no-go","0"
"pit-trial","135","1279964","0.0-21.0","battery-v0.2","","""event"",""trial"",""time""
""fullscreenenter"",""1"",""4162""
","
","
","""event"",""trial"",""time""
""fullscreenenter"",""1"",""4162""
","
","","","874.6000000238419","","","18","7705","3965","&#9730;","elianto","#3366ff99"," "," ","1","+10","[1725.300000011921]","1","1","","","7705","18","1","1","win","go","0"
"pit-trial","136","1283518","0.0-22.0","battery-v0.2","","""event"",""trial"",""time""
""fullscreenenter"",""1"",""4162""
","
","
","""event"",""trial"",""time""
""fullscreenenter"",""1"",""4162""
","
","","","700.2999999821186","","","18","7705","3965","&#9733;","elianto","#3366ff99","-1"," ","0","0","[1550.7999999821186]","1","1","","","7705","19","2","2","win","no-go","0"
"pit-trial","137","1288374","0.0-23.0","battery-v0.2","","""event"",""trial"",""time""
""fullscreenenter"",""1"",""4162""
","
","
","""event"",""trial"",""time""
""fullscreenenter"",""1"",""4162""
","
","","","-1","","","18","7705","3965","&#9752;","elianto","#f73b6a7A"," ","-1","0","0","[]","0","1","","","7705","20","3","3","lose","go","1"
"pit-instructions","138","1301165","0.0-24.0","battery-v0.2","","""event"",""trial"",""time""
""fullscreenenter"",""1"",""4162""
","
","
","""event"",""trial"",""time""
""fullscreenenter"",""1"",""4162""
","
","","[{""page_index"":0,""viewing_time"":6632.699999988079},{""page_index"":1,""viewing_time"":6155.4000000059605}]","12789.09999999404","","","","","","","","","","","","","","","","","","","","","","","",""
"pit-trial","139","1306040","0.0-25.0","battery-v0.2","","""event"",""trial"",""time""
""fullscreenenter"",""1"",""4162""
","
","
","""event"",""trial"",""time""
""fullscreenenter"",""1"",""4162""
","
","","","-1","","","18","7705","3965","a","elianto","#f73b6a7A","-1","-1","1","0","[]","0","2","","","7705","21","2","4","lose","no-go","0"
"pit-trial","140","1310923","0.0-26.0","battery-v0.2","","""event"",""trial"",""time""
""fullscreenenter"",""1"",""4162""
","
","
","""event"",""trial"",""time""
""fullscreenenter"",""1"",""4162""
","
","","","-1","","","18","7705","3965","l","elianto","#3366ff99"," ","-1","0","0","[]","0","2","","","7705","22","1","1","win","go","0"
"pit-trial","141","1315791","0.0-27.0","battery-v0.2","","""event"",""trial"",""time""
""fullscreenenter"",""1"",""4162""
","
","
","""event"",""trial"",""time""
""fullscreenenter"",""1"",""4162""
","
","","","-1","","","18","7705","3965","g","elianto","#f73b6a7A"," ","-1","0","-10","[]","0","2","","","7705","23","3","3","lose","go","0"
"pit-trial","142","1320673","0.0-28.0","battery-v0.2","","""event"",""trial"",""time""
""fullscreenenter"",""1"",""4162""
","
","
","""event"",""trial"",""time""
""fullscreenenter"",""1"",""4162""
","
","","","-1","","","18","7705","3965","u","elianto","#f73b6a7A","-1","-1","1","0","[]","0","2","","","7705","24","0","4","lose","no-go","0"
"pit-trial","143","1325547","0.0-29.0","battery-v0.2","","""event"",""trial"",""time""
""fullscreenenter"",""1"",""4162""
","
","
","""event"",""trial"",""time""
""fullscreenenter"",""1"",""4162""
","
","","","-1","","","18","7705","3965","a","elianto","#f73b6a7A","-1","-1","1","0","[]","0","2","","","7705","25","2","4","lose","no-go","0"
"pit-trial","144","1330425","0.0-30.0","battery-v0.2","","""event"",""trial"",""time""
""fullscreenenter"",""1"",""4162""
","
","
","""event"",""trial"",""time""
""fullscreenenter"",""1"",""4162""
","
","","","-1","","","18","7705","3965","g","elianto","#f73b6a7A"," ","-1","0","-10","[]","0","2","","","7705","26","3","3","lose","go","0"
"pit-trial","145","1335280","0.0-31.0","battery-v0.2","","""event"",""trial"",""time""
""fullscreenenter"",""1"",""4162""
","
","
","""event"",""trial"",""time""
""fullscreenenter"",""1"",""4162""
","
","","","-1","","","18","7705","3965","u","elianto","#f73b6a7A","-1","-1","1","0","[]","0","2","","","7705","27","0","4","lose","no-go","0"
"pit-trial","146","1340135","0.0-32.0","battery-v0.2","","""event"",""trial"",""time""
""fullscreenenter"",""1"",""4162""
","
","
","""event"",""trial"",""time""
""fullscreenenter"",""1"",""4162""
","
","","","-1","","","18","7705","3965","l","elianto","#3366ff99"," ","-1","0","0","[]","0","2","","","7705","28","1","1","win","go","0"
"pit-trial","147","1344988","0.0-33.0","battery-v0.2","","""event"",""trial"",""time""
""fullscreenenter"",""1"",""4162""
","
","
","""event"",""trial"",""time""
""fullscreenenter"",""1"",""4162""
","
","","","-1","","","18","7705","3965","u","elianto","#f73b6a7A","-1","-1","1","0","[]","0","2","","","7705","29","0","4","lose","no-go","0"
"pit-trial","148","1349842","0.0-34.0","battery-v0.2","","""event"",""trial"",""time""
""fullscreenenter"",""1"",""4162""
","
","
","""event"",""trial"",""time""
""fullscreenenter"",""1"",""4162""
","
","","","-1","","","18","7705","3965","l","elianto","#3366ff99"," ","-1","0","0","[]","0","2","","","7705","30","1","1","win","go","0"
"pit-trial","149","1354696","0.0-35.0","battery-v0.2","","""event"",""trial"",""time""
""fullscreenenter"",""1"",""4162""
","
","
","""event"",""trial"",""time""
""fullscreenenter"",""1"",""4162""
","
","","","-1","","","18","7705","3965","g","elianto","#f73b6a7A"," ","-1","0","-10","[]","0","2","","","7705","31","3","3","lose","go","0"
"pit-trial","150","1359550","0.0-36.0","battery-v0.2","","""event"",""trial"",""time""
""fullscreenenter"",""1"",""4162""
","
","
","""event"",""trial"",""time""
""fullscreenenter"",""1"",""4162""
","
","","","-1","","","18","7705","3965","a","elianto","#f73b6a7A","-1","-1","1","0","[]","0","2","","","7705","32","2","4","lose","no-go","0"
"pit-trial","151","1364406","0.0-37.0","battery-v0.2","","""event"",""trial"",""time""
""fullscreenenter"",""1"",""4162""
","
","
","""event"",""trial"",""time""
""fullscreenenter"",""1"",""4162""
","
","","","-1","","","18","7705","3965","g","elianto","#f73b6a7A"," ","-1","0","-10","[]","0","2","","","7705","33","3","3","lose","go","0"
"pit-trial","152","1369262","0.0-38.0","battery-v0.2","","""event"",""trial"",""time""
""fullscreenenter"",""1"",""4162""
","
","
","""event"",""trial"",""time""
""fullscreenenter"",""1"",""4162""
","
","","","-1","","","18","7705","3965","l","elianto","#3366ff99"," ","-1","0","0","[]","0","2","","","7705","34","1","1","win","go","0"
"pit-trial","153","1374117","0.0-39.0","battery-v0.2","","""event"",""trial"",""time""
""fullscreenenter"",""1"",""4162""
","
","
","""event"",""trial"",""time""
""fullscreenenter"",""1"",""4162""
","
","","","-1","","","18","7705","3965","a","elianto","#f73b6a7A","-1","-1","1","-10","[]","0","2","","","7705","35","2","4","lose","no-go","1"
"pit-trial","154","1378970","0.0-40.0","battery-v0.2","","""event"",""trial"",""time""
""fullscreenenter"",""1"",""4162""
","
","
","""event"",""trial"",""time""
""fullscreenenter"",""1"",""4162""
","
","","","-1","","","18","7705","3965","u","elianto","#f73b6a7A","-1","-1","1","-10","[]","0","2","","","7705","36","0","4","lose","no-go","1"
"pit-trial","155","1383824","0.0-41.0","battery-v0.2","","""event"",""trial"",""time""
""fullscreenenter"",""1"",""4162""
","
","
","""event"",""trial"",""time""
""fullscreenenter"",""1"",""4162""
","
","","","-1","","","18","7705","3965","a","elianto","#f73b6a7A","-1","-1","1","0","[]","0","2","","","7705","37","2","4","lose","no-go","0"
"pit-trial","156","1388679","0.0-42.0","battery-v0.2","","""event"",""trial"",""time""
""fullscreenenter"",""1"",""4162""
","
","
","""event"",""trial"",""time""
""fullscreenenter"",""1"",""4162""
","
","","","-1","","","18","7705","3965","l","elianto","#3366ff99"," ","-1","0","0","[]","0","2","","","7705","38","1","1","win","go","0"
"pit-trial","157","1393533","0.0-43.0","battery-v0.2","","""event"",""trial"",""time""
""fullscreenenter"",""1"",""4162""
","
","
","""event"",""trial"",""time""
""fullscreenenter"",""1"",""4162""
","
","","","-1","","","18","7705","3965","g","elianto","#f73b6a7A"," ","-1","0","-10","[]","0","2","","","7705","39","3","3","lose","go","0"
"pit-trial","158","1398388","0.0-44.0","battery-v0.2","","""event"",""trial"",""time""
""fullscreenenter"",""1"",""4162""
","
","
","""event"",""trial"",""time""
""fullscreenenter"",""1"",""4162""
","
","","","-1","","","18","7705","3965","u","elianto","#f73b6a7A","-1","-1","1","0","[]","0","2","","","7705","40","0","4","lose","no-go","0"
"pit-trial","159","1403242","0.0-45.0","battery-v0.2","","""event"",""trial"",""time""
""fullscreenenter"",""1"",""4162""
","
","
","""event"",""trial"",""time""
""fullscreenenter"",""1"",""4162""
","
","","","-1","","","18","7705","3965","u","elianto","#f73b6a7A","-1","-1","1","0","[]","0","2","","","7705","41","0","4","lose","no-go","0"
"pit-trial","160","1408096","0.0-46.0","battery-v0.2","","""event"",""trial"",""time""
""fullscreenenter"",""1"",""4162""
","
","
","""event"",""trial"",""time""
""fullscreenenter"",""1"",""4162""
","
","","","-1","","","18","7705","3965","g","elianto","#f73b6a7A"," ","-1","0","-10","[]","0","2","","","7705","42","3","3","lose","go","0"
"pit-trial","161","1412955","0.0-47.0","battery-v0.2","","""event"",""trial"",""time""
""fullscreenenter"",""1"",""4162""
","
","
","""event"",""trial"",""time""
""fullscreenenter"",""1"",""4162""
","
","","","-1","","","18","7705","3965","a","elianto","#f73b6a7A","-1","-1","1","0","[]","0","2","","","7705","43","2","4","lose","no-go","0"
"pit-trial","162","1417809","0.0-48.0","battery-v0.2","","""event"",""trial"",""time""
""fullscreenenter"",""1"",""4162""
","
","
","""event"",""trial"",""time""
""fullscreenenter"",""1"",""4162""
","
","","","-1","","","18","7705","3965","l","elianto","#3366ff99"," ","-1","0","+10","[3424.0999999940395,3656.199999988079]","2","2","","","7705","44","1","1","win","go","1"
"pit-trial","163","1422664","0.0-49.0","battery-v0.2","","""event"",""trial"",""time""
""fullscreenenter"",""1"",""4162""
","
","
","""event"",""trial"",""time""
""fullscreenenter"",""1"",""4162""
","
","","","-1","","","18","7705","3965","u","elianto","#f73b6a7A","-1","-1","1","0","[]","0","2","","","7705","45","0","4","lose","no-go","0"
"pit-trial","164","1427520","0.0-50.0","battery-v0.2","","""event"",""trial"",""time""
""fullscreenenter"",""1"",""4162""
","
","
","""event"",""trial"",""time""
""fullscreenenter"",""1"",""4162""
","
","","","-1","","","18","7705","3965","a","elianto","#f73b6a7A","-1","-1","1","0","[]","0","2","","","7705","46","2","4","lose","no-go","0"
"pit-trial","165","1432374","0.0-51.0","battery-v0.2","","""event"",""trial"",""time""
""fullscreenenter"",""1"",""4162""
","
","
","""event"",""trial"",""time""
""fullscreenenter"",""1"",""4162""
","
","","","-1","","","18","7705","3965","g","elianto","#f73b6a7A"," ","-1","0","-10","[]","0","2","","","7705","47","3","3","lose","go","0"
"pit-trial","166","1436010","0.0-52.0","battery-v0.2","","""event"",""trial"",""time""
""fullscreenenter"",""1"",""4162""
","
","
","""event"",""trial"",""time""
""fullscreenenter"",""1"",""4162""
","
","","","779.8999999761581","","","18","7705","3965","p","elianto","#3366ff99","-1"," ","0","0","[1630.699999988079]","1","2","","","7705","48","4","2","win","no-go","0"
"pit-trial","167","1440864","0.0-53.0","battery-v0.2","","""event"",""trial"",""time""
""fullscreenenter"",""1"",""4162""
","
","
","""event"",""trial"",""time""
""fullscreenenter"",""1"",""4162""
","
","","","-1","","","18","7705","3965","u","elianto","#f73b6a7A","-1","-1","1","-10","[]","0","2","","","7705","49","0","4","lose","no-go","1"
"pit-trial","168","1445720","0.0-54.0","battery-v0.2","","""event"",""trial"",""time""
""fullscreenenter"",""1"",""4162""
","
","
","""event"",""trial"",""time""
""fullscreenenter"",""1"",""4162""
","
","","","-1","","","18","7705","3965","g","elianto","#f73b6a7A"," ","-1","0","-10","[]","0","2","","","7705","50","3","3","lose","go","0"
"pit-trial","169","1449548","0.0-55.0","battery-v0.2","","""event"",""trial"",""time""
""fullscreenenter"",""1"",""4162""
","
","
","""event"",""trial"",""time""
""fullscreenenter"",""1"",""4162""
","
","","","973.2999999821186","","","18","7705","3965","l","elianto","#3366ff99"," "," ","1","+10","[1824]","1","2","","","7705","51","1","1","win","go","0"
"pit-trial","170","1453297","0.0-56.0","battery-v0.2","","""event"",""trial"",""time""
""fullscreenenter"",""1"",""4162""
","
","
","""event"",""trial"",""time""
""fullscreenenter"",""1"",""4162""
","
","","","895","","","18","7705","3965","p","elianto","#3366ff99","-1"," ","0","0","[1744.9000000059605]","1","2","","","7705","52","4","2","win","no-go","0"
"pit-trial","171","1456967","0.0-57.0","battery-v0.2","","""event"",""trial"",""time""
""fullscreenenter"",""1"",""4162""
","
","
","""event"",""trial"",""time""
""fullscreenenter"",""1"",""4162""
","
","","","815","","","18","7705","3965","p","elianto","#3366ff99","-1"," ","0","0","[1666.7999999821186]","1","2","","","7705","53","4","2","win","no-go","0"
"pit-trial","172","1461822","0.0-58.0","battery-v0.2","","""event"",""trial"",""time""
""fullscreenenter"",""1"",""4162""
","
","
","""event"",""trial"",""time""
""fullscreenenter"",""1"",""4162""
","
","","","-1","","","18","7705","3965","u","elianto","#f73b6a7A","-1","-1","1","0","[]","0","2","","","7705","54","0","4","lose","no-go","0"
"pit-trial","173","1465445","0.0-59.0","battery-v0.2","","""event"",""trial"",""time""
""fullscreenenter"",""1"",""4162""
","
","
","""event"",""trial"",""time""
""fullscreenenter"",""1"",""4162""
","
","","","768.9000000059605","","","18","7705","3965","l","elianto","#3366ff99"," "," ","1","+10","[1619.3999999761581]","1","2","","","7705","55","1","1","win","go","0"
"pit-trial","174","1470300","0.0-60.0","battery-v0.2","","""event"",""trial"",""time""
""fullscreenenter"",""1"",""4162""
","
","
","""event"",""trial"",""time""
""fullscreenenter"",""1"",""4162""
","
","","","-1","","","18","7705","3965","a","elianto","#f73b6a7A","-1","-1","1","-10","[]","0","2","","","7705","56","2","4","lose","no-go","1"
"pit-trial","175","1473946","0.0-61.0","battery-v0.2","","""event"",""trial"",""time""
""fullscreenenter"",""1"",""4162""
","
","
","""event"",""trial"",""time""
""fullscreenenter"",""1"",""4162""
","
","","","785.4000000059605","","","18","7705","3965","p","elianto","#3366ff99","-1"," ","0","0","[1641.800000011921]","1","2","","","7705","57","4","2","win","no-go","0"
"pit-trial","176","1478800","0.0-62.0","battery-v0.2","","""event"",""trial"",""time""
""fullscreenenter"",""1"",""4162""
","
","
","""event"",""trial"",""time""
""fullscreenenter"",""1"",""4162""
","
","","","-1","","","18","7705","3965","u","elianto","#f73b6a7A","-1","-1","1","0","[]","0","2","","","7705","58","0","4","lose","no-go","0"
"pit-trial","177","1482365","0.0-63.0","battery-v0.2","","""event"",""trial"",""time""
""fullscreenenter"",""1"",""4162""
","
","
","""event"",""trial"",""time""
""fullscreenenter"",""1"",""4162""
","
","","","710.9000000059605","","","18","7705","3965","l","elianto","#3366ff99"," "," ","1","+10","[1561.4000000059605]","1","2","","","7705","59","1","1","win","go","0"
"pit-trial","178","1487219","0.0-64.0","battery-v0.2","","""event"",""trial"",""time""
""fullscreenenter"",""1"",""4162""
","
","
","""event"",""trial"",""time""
""fullscreenenter"",""1"",""4162""
","
","","","-1","","","18","7705","3965","g","elianto","#f73b6a7A"," ","-1","0","-10","[]","0","2","","","7705","60","3","3","lose","go","0"
"pit-trial","179","1492072","0.0-65.0","battery-v0.2","","""event"",""trial"",""time""
""fullscreenenter"",""1"",""4162""
","
","
","""event"",""trial"",""time""
""fullscreenenter"",""1"",""4162""
","
","","","-1","","","18","7705","3965","p","elianto","#3366ff99","-1","-1","1","+10","[3430.9000000059605]","1","2","","","7705","61","4","2","win","no-go","0"
"pit-trial","180","1496927","0.0-66.0","battery-v0.2","","""event"",""trial"",""time""
""fullscreenenter"",""1"",""4162""
","
","
","""event"",""trial"",""time""
""fullscreenenter"",""1"",""4162""
","
","","","-1","","","18","7705","3965","a","elianto","#f73b6a7A","-1","-1","1","-10","[]","0","2","","","7705","62","2","4","lose","no-go","1"
"pit-trial","181","1500843","0.0-67.0","battery-v0.2","","""event"",""trial"",""time""
""fullscreenenter"",""1"",""4162""
","
","
","""event"",""trial"",""time""
""fullscreenenter"",""1"",""4162""
","
","","","1062.199999988079","","","18","7705","3965","l","elianto","#3366ff99"," "," ","1","+10","[1912.7999999821186]","1","2","","","7705","63","1","1","win","go","0"
"pit-trial","182","1505699","0.0-68.0","battery-v0.2","","""event"",""trial"",""time""
""fullscreenenter"",""1"",""4162""
","
","
","""event"",""trial"",""time""
""fullscreenenter"",""1"",""4162""
","
","","","-1","","","18","7705","3965","g","elianto","#f73b6a7A"," ","-1","0","-10","[]","0","2","","","7705","64","3","3","lose","go","0"
"pit-trial","183","1509325","0.0-69.0","battery-v0.2","","""event"",""trial"",""time""
""fullscreenenter"",""1"",""4162""
","
","
","""event"",""trial"",""time""
""fullscreenenter"",""1"",""4162""
","
","","","772.2999999821186","","","18","7705","3965","l","elianto","#3366ff99"," "," ","1","+10","[1623]","1","2","","","7705","65","1","1","win","go","0"
"pit-trial","184","1514179","0.0-70.0","battery-v0.2","","""event"",""trial"",""time""
""fullscreenenter"",""1"",""4162""
","
","
","""event"",""trial"",""time""
""fullscreenenter"",""1"",""4162""
","
","","","-1","","","18","7705","3965","a","elianto","#f73b6a7A","-1","-1","1","-10","[]","0","2","","","7705","66","2","4","lose","no-go","1"
"pit-trial","185","1519034","0.0-71.0","battery-v0.2","","""event"",""trial"",""time""
""fullscreenenter"",""1"",""4162""
","
","
","""event"",""trial"",""time""
""fullscreenenter"",""1"",""4162""
","
","","","-1","","","18","7705","3965","g","elianto","#f73b6a7A"," ","-1","0","0","[]","0","2","","","7705","67","3","3","lose","go","1"
"pit-trial","186","1523004","0.0-72.0","battery-v0.2","","""event"",""trial"",""time""
""fullscreenenter"",""1"",""4162""
","
","
","""event"",""trial"",""time""
""fullscreenenter"",""1"",""4162""
","
","","","1115.4000000059605","","","18","7705","3965","p","elianto","#3366ff99","-1"," ","0","+10","[1966.300000011921]","1","2","","","7705","68","4","2","win","no-go","1"
"pit-trial","187","1527860","0.0-73.0","battery-v0.2","","""event"",""trial"",""time""
""fullscreenenter"",""1"",""4162""
","
","
","""event"",""trial"",""time""
""fullscreenenter"",""1"",""4162""
","
","","","-1","","","18","7705","3965","s","elianto","#3366ff99"," ","-1","0","0","[]","0","2","","","7705","69","5","1","win","go","0"
"pit-trial","188","1532724","0.0-74.0","battery-v0.2","","""event"",""trial"",""time""
""fullscreenenter"",""1"",""4162""
","
","
","""event"",""trial"",""time""
""fullscreenenter"",""1"",""4162""
","
","","","-1","","","18","7705","3965","p","elianto","#3366ff99","-1","-1","1","+10","[3443.699999988079]","1","2","","","7705","70","4","2","win","no-go","0"
"pit-trial","189","1537579","0.0-75.0","battery-v0.2","","""event"",""trial"",""time""
""fullscreenenter"",""1"",""4162""
","
","
","""event"",""trial"",""time""
""fullscreenenter"",""1"",""4162""
","
","","","-1","","","18","7705","3965","g","elianto","#f73b6a7A"," ","-1","0","-10","[]","0","2","","","7705","71","3","3","lose","go","0"
"pit-trial","190","1541128","0.0-76.0","battery-v0.2","","""event"",""trial"",""time""
""fullscreenenter"",""1"",""4162""
","
","
","""event"",""trial"",""time""
""fullscreenenter"",""1"",""4162""
","
","","","696.1999999880791","","","18","7705","3965","l","elianto","#3366ff99"," "," ","1","+10","[1546.4000000059605]","1","2","","","7705","72","1","1","win","go","0"
"pit-trial","191","1544705","0.0-77.0","battery-v0.2","","""event"",""trial"",""time""
""fullscreenenter"",""1"",""4162""
","
","
","""event"",""trial"",""time""
""fullscreenenter"",""1"",""4162""
","
","","","722.8999999761581","","","18","7705","3965","l","elianto","#3366ff99"," "," ","1","0","[1573.5999999940395]","1","2","","","7705","73","1","1","win","go","1"
"pit-trial","192","1549560","0.0-78.0","battery-v0.2","","""event"",""trial"",""time""
""fullscreenenter"",""1"",""4162""
","
","
","""event"",""trial"",""time""
""fullscreenenter"",""1"",""4162""
","
","","","-1","","","18","7705","3965","g","elianto","#f73b6a7A"," ","-1","0","-10","[]","0","2","","","7705","74","3","3","lose","go","0"
"pit-trial","193","1553512","0.0-79.0","battery-v0.2","","""event"",""trial"",""time""
""fullscreenenter"",""1"",""4162""
","
","
","""event"",""trial"",""time""
""fullscreenenter"",""1"",""4162""
","
","","","1097.0999999940395","","","18","7705","3965","p","elianto","#3366ff99","-1"," ","0","0","[1948]","1","2","","","7705","75","4","2","win","no-go","0"
"pit-trial","194","1558367","0.0-80.0","battery-v0.2","","""event"",""trial"",""time""
""fullscreenenter"",""1"",""4162""
","
","
","""event"",""trial"",""time""
""fullscreenenter"",""1"",""4162""
","
","","","-1","","","18","7705","3965","s","elianto","#3366ff99"," ","-1","0","0","[]","0","2","","","7705","76","5","1","win","go","0"
"pit-trial","195","1563236","0.0-81.0","battery-v0.2","","""event"",""trial"",""time""
""fullscreenenter"",""1"",""4162""
","
","
","""event"",""trial"",""time""
""fullscreenenter"",""1"",""4162""
","
","","","-1","","","18","7705","3965","w","elianto","#f73b6a7A","-1","-1","1","0","[]","0","2","","","7705","77","6","4","lose","no-go","0"
"pit-trial","196","1568091","0.0-82.0","battery-v0.2","","""event"",""trial"",""time""
""fullscreenenter"",""1"",""4162""
","
","
","""event"",""trial"",""time""
""fullscreenenter"",""1"",""4162""
","
","","","-1","","","18","7705","3965","g","elianto","#f73b6a7A"," ","-1","0","0","[]","0","2","","","7705","78","3","3","lose","go","1"
"pit-trial","197","1571523","0.0-83.0","battery-v0.2","","""event"",""trial"",""time""
""fullscreenenter"",""1"",""4162""
","
","
","""event"",""trial"",""time""
""fullscreenenter"",""1"",""4162""
","
","","","578.9000000059605","","","18","7705","3965","p","elianto","#3366ff99","-1"," ","0","0","[1429.4000000059605]","1","2","","","7705","79","4","2","win","no-go","0"
"pit-trial","198","1576377","0.0-84.0","battery-v0.2","","""event"",""trial"",""time""
""fullscreenenter"",""1"",""4162""
","
","
","""event"",""trial"",""time""
""fullscreenenter"",""1"",""4162""
","
","","","-1","","","18","7705","3965","s","elianto","#3366ff99"," ","-1","0","0","[]","0","2","","","7705","80","5","1","win","go","0"
"pit-trial","199","1580876","0.0-85.0","battery-v0.2","","""event"",""trial"",""time""
""fullscreenenter"",""1"",""4162""
","
","
","""event"",""trial"",""time""
""fullscreenenter"",""1"",""4162""
","
","","","1643.9000000059605","","","18","7705","3965","p","elianto","#3366ff99","-1"," ","0","+10","[2494.0999999940395]","1","2","","","7705","81","4","2","win","no-go","1"
"pit-trial","200","1585730","0.0-86.0","battery-v0.2","","""event"",""trial"",""time""
""fullscreenenter"",""1"",""4162""
","
","
","""event"",""trial"",""time""
""fullscreenenter"",""1"",""4162""
","
","","","-1","","","18","7705","3965","w","elianto","#f73b6a7A","-1","-1","1","0","[]","0","2","","","7705","82","6","4","lose","no-go","0"
"pit-trial","201","1590584","0.0-87.0","battery-v0.2","","""event"",""trial"",""time""
""fullscreenenter"",""1"",""4162""
","
","
","""event"",""trial"",""time""
""fullscreenenter"",""1"",""4162""
","
","","","-1","","","18","7705","3965","s","elianto","#3366ff99"," ","-1","0","0","[]","0","2","","","7705","83","5","1","win","go","0"
"pit-trial","202","1595439","0.0-88.0","battery-v0.2","","""event"",""trial"",""time""
""fullscreenenter"",""1"",""4162""
","
","
","""event"",""trial"",""time""
""fullscreenenter"",""1"",""4162""
","
","","","-1","","","18","7705","3965","e","elianto","#f73b6a7A"," ","-1","0","-10","[]","0","2","","","7705","84","7","3","lose","go","0"
"pit-trial","203","1598863","0.0-89.0","battery-v0.2","","""event"",""trial"",""time""
""fullscreenenter"",""1"",""4162""
","
","
","""event"",""trial"",""time""
""fullscreenenter"",""1"",""4162""
","
","","","569.8000000119209","","","18","7705","3965","p","elianto","#3366ff99","-1"," ","0","0","[1420.5999999940395]","1","2","","","7705","85","4","2","win","no-go","0"
"pit-trial","204","1603719","0.0-90.0","battery-v0.2","","""event"",""trial"",""time""
""fullscreenenter"",""1"",""4162""
","
","
","""event"",""trial"",""time""
""fullscreenenter"",""1"",""4162""
","
","","","-1","","","18","7705","3965","e","elianto","#f73b6a7A"," ","-1","0","-10","[]","0","2","","","7705","86","7","3","lose","go","0"
"pit-trial","205","1608573","0.0-91.0","battery-v0.2","","""event"",""trial"",""time""
""fullscreenenter"",""1"",""4162""
","
","
","""event"",""trial"",""time""
""fullscreenenter"",""1"",""4162""
","
","","","-1","","","18","7705","3965","w","elianto","#f73b6a7A","-1","-1","1","0","[]","0","2","","","7705","87","6","4","lose","no-go","0"
"pit-trial","206","1612939","0.0-92.0","battery-v0.2","","""event"",""trial"",""time""
""fullscreenenter"",""1"",""4162""
","
","
","""event"",""trial"",""time""
""fullscreenenter"",""1"",""4162""
","
","","","1511.4000000059605","","","18","7705","3965","s","elianto","#3366ff99"," "," ","1","+10","[2362.300000011921]","1","2","","","7705","88","5","1","win","go","0"
"pit-trial","207","1617793","0.0-93.0","battery-v0.2","","""event"",""trial"",""time""
""fullscreenenter"",""1"",""4162""
","
","
","""event"",""trial"",""time""
""fullscreenenter"",""1"",""4162""
","
","","","-1","","","18","7705","3965","s","elianto","#3366ff99"," ","-1","0","0","[]","0","2","","","7705","89","5","1","win","go","0"
"pit-trial","208","1622650","0.0-94.0","battery-v0.2","","""event"",""trial"",""time""
""fullscreenenter"",""1"",""4162""
","
","
","""event"",""trial"",""time""
""fullscreenenter"",""1"",""4162""
","
","","","-1","","","18","7705","3965","w","elianto","#f73b6a7A","-1","-1","1","0","[]","0","2","","","7705","90","6","4","lose","no-go","0"
"pit-trial","209","1627504","0.0-95.0","battery-v0.2","","""event"",""trial"",""time""
""fullscreenenter"",""1"",""4162""
","
","
","""event"",""trial"",""time""
""fullscreenenter"",""1"",""4162""
","
","","","-1","","","18","7705","3965","e","elianto","#f73b6a7A"," ","-1","0","0","[]","0","2","","","7705","91","7","3","lose","go","1"
"pit-trial","210","1631329","0.0-96.0","battery-v0.2","","""event"",""trial"",""time""
""fullscreenenter"",""1"",""4162""
","
","
","""event"",""trial"",""time""
""fullscreenenter"",""1"",""4162""
","
","","","970.7000000178814","","","18","7705","3965","p","elianto","#3366ff99","-1"," ","0","0","[1821.5999999940395]","1","2","","","7705","92","4","2","win","no-go","0"
"pit-trial","211","1636183","0.0-97.0","battery-v0.2","","""event"",""trial"",""time""
""fullscreenenter"",""1"",""4162""
","
","
","""event"",""trial"",""time""
""fullscreenenter"",""1"",""4162""
","
","","","-1","","","18","7705","3965","e","elianto","#f73b6a7A"," ","-1","0","-10","[]","0","2","","","7705","93","7","3","lose","go","0"
"pit-trial","212","1639957","0.0-98.0","battery-v0.2","","""event"",""trial"",""time""
""fullscreenenter"",""1"",""4162""
","
","
","""event"",""trial"",""time""
""fullscreenenter"",""1"",""4162""
","
","","","919.9000000059605","","","18","7705","3965","d","elianto","#3366ff99","-1"," ","0","0","[1770.199999988079]","1","2","","","7705","94","8","2","win","no-go","0"
"pit-trial","213","1643621","0.0-99.0","battery-v0.2","","""event"",""trial"",""time""
""fullscreenenter"",""1"",""4162""
","
","
","""event"",""trial"",""time""
""fullscreenenter"",""1"",""4162""
","
","","","810","","","18","7705","3965","s","elianto","#3366ff99"," "," ","1","0","[1661]","1","2","","","7705","95","5","1","win","go","1"
"pit-trial","214","1648476","0.0-100.0","battery-v0.2","","""event"",""trial"",""time""
""fullscreenenter"",""1"",""4162""
","
","
","""event"",""trial"",""time""
""fullscreenenter"",""1"",""4162""
","
","","","-1","","","18","7705","3965","w","elianto","#f73b6a7A","-1","-1","1","0","[]","0","2","","","7705","96","6","4","lose","no-go","0"
"pit-trial","215","1653331","0.0-101.0","battery-v0.2","","""event"",""trial"",""time""
""fullscreenenter"",""1"",""4162""
","
","
","""event"",""trial"",""time""
""fullscreenenter"",""1"",""4162""
","
","","","-1","","","18","7705","3965","e","elianto","#f73b6a7A"," ","-1","0","-10","[]","0","2","","","7705","97","7","3","lose","go","0"
"pit-trial","216","1658186","0.0-102.0","battery-v0.2","","""event"",""trial"",""time""
""fullscreenenter"",""1"",""4162""
","
","
","""event"",""trial"",""time""
""fullscreenenter"",""1"",""4162""
","
","","","-1","","","18","7705","3965","w","elianto","#f73b6a7A","-1","-1","1","0","[]","0","2","","","7705","98","6","4","lose","no-go","0"
"pit-trial","217","1661830","0.0-103.0","battery-v0.2","","""event"",""trial"",""time""
""fullscreenenter"",""1"",""4162""
","
","
","""event"",""trial"",""time""
""fullscreenenter"",""1"",""4162""
","
","","","789.3000000119209","","","18","7705","3965","s","elianto","#3366ff99"," "," ","1","+10","[1639.4000000059605]","1","2","","","7705","99","5","1","win","go","0"
"pit-trial","218","1666685","0.0-104.0","battery-v0.2","","""event"",""trial"",""time""
""fullscreenenter"",""1"",""4162""
","
","
","""event"",""trial"",""time""
""fullscreenenter"",""1"",""4162""
","
","","","-1","","","18","7705","3965","d","elianto","#3366ff99","-1","-1","1","0","[]","0","2","","","7705","100","8","2","win","no-go","1"
"pit-trial","219","1670772","0.0-105.0","battery-v0.2","","""event"",""trial"",""time""
""fullscreenenter"",""1"",""4162""
","
","
","""event"",""trial"",""time""
""fullscreenenter"",""1"",""4162""
","
","","","1232.9000000059605","","","18","7705","3965","j","elianto","#3366ff99","-1"," ","0","0","[2084.300000011921]","1","2","","","7705","101","9","2","win","no-go","0"
"pit-trial","220","1674380","0.0-106.0","battery-v0.2","","""event"",""trial"",""time""
""fullscreenenter"",""1"",""4162""
","
","
","""event"",""trial"",""time""
""fullscreenenter"",""1"",""4162""
","
","","","754","","","18","7705","3965","s","elianto","#3366ff99"," "," ","1","+10","[1604.3999999761581]","1","2","","","7705","102","5","1","win","go","0"
"pit-trial","221","1679203","0.0-107.0","battery-v0.2","","""event"",""trial"",""time""
""fullscreenenter"",""1"",""4162""
","
","
","""event"",""trial"",""time""
""fullscreenenter"",""1"",""4162""
","
","","","1969.9000000059605","","","18","7705","3965","d","elianto","#3366ff99","-1"," ","0","0","[2820.2000000178814]","1","2","","","7705","103","8","2","win","no-go","0"
"pit-trial","222","1684057","0.0-108.0","battery-v0.2","","""event"",""trial"",""time""
""fullscreenenter"",""1"",""4162""
","
","
","""event"",""trial"",""time""
""fullscreenenter"",""1"",""4162""
","
","","","-1","","","18","7705","3965","w","elianto","#f73b6a7A","-1","-1","1","0","[]","0","2","","","7705","104","6","4","lose","no-go","0"
"pit-trial","223","1688679","0.0-109.0","battery-v0.2","","""event"",""trial"",""time""
""fullscreenenter"",""1"",""4162""
","
","
","""event"",""trial"",""time""
""fullscreenenter"",""1"",""4162""
","
","","","1766.7000000178814","","","18","7705","3965","d","elianto","#3366ff99","-1"," ","0","0","[2617.2000000178814]","1","2","","","7705","105","8","2","win","no-go","0"
"pit-trial","224","1693533","0.0-110.0","battery-v0.2","","""event"",""trial"",""time""
""fullscreenenter"",""1"",""4162""
","
","
","""event"",""trial"",""time""
""fullscreenenter"",""1"",""4162""
","
","","","-1","","","18","7705","3965","j","elianto","#3366ff99","-1","-1","1","+10","[3629.2999999821186]","1","2","","","7705","106","9","2","win","no-go","0"
"pit-trial","225","1698389","0.0-111.0","battery-v0.2","","""event"",""trial"",""time""
""fullscreenenter"",""1"",""4162""
","
","
","""event"",""trial"",""time""
""fullscreenenter"",""1"",""4162""
","
","","","-1","","","18","7705","3965","s","elianto","#3366ff99"," ","-1","0","0","[3701.0999999940395]","1","2","","","7705","107","5","1","win","go","0"
"pit-trial","226","1703242","0.0-112.0","battery-v0.2","","""event"",""trial"",""time""
""fullscreenenter"",""1"",""4162""
","
","
","""event"",""trial"",""time""
""fullscreenenter"",""1"",""4162""
","
","","","-1","","","18","7705","3965","w","elianto","#f73b6a7A","-1","-1","1","0","[]","0","2","","","7705","108","6","4","lose","no-go","0"
"pit-trial","227","1706844","0.0-113.0","battery-v0.2","","""event"",""trial"",""time""
""fullscreenenter"",""1"",""4162""
","
","
","""event"",""trial"",""time""
""fullscreenenter"",""1"",""4162""
","
","","","747.7999999821186","","","18","7705","3965","d","elianto","#3366ff99","-1"," ","0","0","[1598.5999999940395]","1","2","","","7705","109","8","2","win","no-go","0"
"pit-trial","228","1710779","0.0-114.0","battery-v0.2","","""event"",""trial"",""time""
""fullscreenenter"",""1"",""4162""
","
","
","""event"",""trial"",""time""
""fullscreenenter"",""1"",""4162""
","
","","","1079.9000000059605","","","18","7705","3965","s","elianto","#3366ff99"," "," ","1","+10","[1931.0999999940395]","1","2","","","7705","110","5","1","win","go","0"
"pit-trial","229","1715633","0.0-115.0","battery-v0.2","","""event"",""trial"",""time""
""fullscreenenter"",""1"",""4162""
","
","
","""event"",""trial"",""time""
""fullscreenenter"",""1"",""4162""
","
","","","-1","","","18","7705","3965","w","elianto","#f73b6a7A","-1","-1","1","0","[]","0","2","","","7705","111","6","4","lose","no-go","0"
"pit-trial","230","1719315","0.0-116.0","battery-v0.2","","""event"",""trial"",""time""
""fullscreenenter"",""1"",""4162""
","
","
","""event"",""trial"",""time""
""fullscreenenter"",""1"",""4162""
","
","","","826.1999999880791","","","18","7705","3965","j","elianto","#3366ff99","-1"," ","0","0","[1677.199999988079]","1","2","","","7705","112","9","2","win","no-go","0"
"pit-trial","231","1722959","0.0-117.0","battery-v0.2","","""event"",""trial"",""time""
""fullscreenenter"",""1"",""4162""
","
","
","""event"",""trial"",""time""
""fullscreenenter"",""1"",""4162""
","
","","","790.1999999880791","","","18","7705","3965","j","elianto","#3366ff99","-1"," ","0","+10","[1640.8999999761581]","1","2","","","7705","113","9","2","win","no-go","1"
"pit-trial","232","1727812","0.0-118.0","battery-v0.2","","""event"",""trial"",""time""
""fullscreenenter"",""1"",""4162""
","
","
","""event"",""trial"",""time""
""fullscreenenter"",""1"",""4162""
","
","","","-1","","","18","7705","3965","d","elianto","#3366ff99","-1","-1","1","0","[]","0","2","","","7705","114","8","2","win","no-go","1"
"pit-trial","233","1731437","0.0-119.0","battery-v0.2","","""event"",""trial"",""time""
""fullscreenenter"",""1"",""4162""
","
","
","""event"",""trial"",""time""
""fullscreenenter"",""1"",""4162""
","
","","","772.2999999821186","","","18","7705","3965","s","elianto","#3366ff99"," "," ","1","0","[1622.9000000059605]","1","2","","","7705","115","5","1","win","go","1"
"pit-trial","234","1736292","0.0-120.0","battery-v0.2","","""event"",""trial"",""time""
""fullscreenenter"",""1"",""4162""
","
","
","""event"",""trial"",""time""
""fullscreenenter"",""1"",""4162""
","
","","","-1","","","18","7705","3965","e","elianto","#f73b6a7A"," ","-1","0","-10","[]","0","2","","","7705","116","7","3","lose","go","0"
"pit-trial","235","1740016","0.0-121.0","battery-v0.2","","""event"",""trial"",""time""
""fullscreenenter"",""1"",""4162""
","
","
","""event"",""trial"",""time""
""fullscreenenter"",""1"",""4162""
","
","","","870.5","","","18","7705","3965","j","elianto","#3366ff99","-1"," ","0","0","[1722.2000000178814]","1","2","","","7705","117","9","2","win","no-go","0"
"pit-trial","236","1744870","0.0-122.0","battery-v0.2","","""event"",""trial"",""time""
""fullscreenenter"",""1"",""4162""
","
","
","""event"",""trial"",""time""
""fullscreenenter"",""1"",""4162""
","
","","","-1","","","18","7705","3965","d","elianto","#3366ff99","-1","-1","1","+10","[3375]","1","2","","","7705","118","8","2","win","no-go","0"
"pit-trial","237","1749724","0.0-123.0","battery-v0.2","","""event"",""trial"",""time""
""fullscreenenter"",""1"",""4162""
","
","
","""event"",""trial"",""time""
""fullscreenenter"",""1"",""4162""
","
","","","-1","","","18","7705","3965","w","elianto","#f73b6a7A","-1","-1","1","0","[]","0","2","","","7705","119","6","4","lose","no-go","0"
"pit-trial","238","1753286","0.0-124.0","battery-v0.2","","""event"",""trial"",""time""
""fullscreenenter"",""1"",""4162""
","
","
","""event"",""trial"",""time""
""fullscreenenter"",""1"",""4162""
","
","","","705.8999999761581","","","18","7705","3965","s","elianto","#3366ff99"," "," ","1","+10","[1557.8999999761581]","1","2","","","7705","120","5","1","win","go","0"
"pit-trial","239","1758140","0.0-125.0","battery-v0.2","","""event"",""trial"",""time""
""fullscreenenter"",""1"",""4162""
","
","
","""event"",""trial"",""time""
""fullscreenenter"",""1"",""4162""
","
","","","-1","","","18","7705","3965","e","elianto","#f73b6a7A"," ","-1","0","-10","[]","0","2","","","7705","121","7","3","lose","go","0"
"pit-trial","240","1762350","0.0-126.0","battery-v0.2","","""event"",""trial"",""time""
""fullscreenenter"",""1"",""4162""
","
","
","""event"",""trial"",""time""
""fullscreenenter"",""1"",""4162""
","
","","","1353.9000000059605","","","18","7705","3965","d","elianto","#3366ff99","-1"," ","0","+10","[2205.699999988079]","1","2","","","7705","122","8","2","win","no-go","1"
"pit-trial","241","1766164","0.0-127.0","battery-v0.2","","""event"",""trial"",""time""
""fullscreenenter"",""1"",""4162""
","
","
","""event"",""trial"",""time""
""fullscreenenter"",""1"",""4162""
","
","","","960.1999999880791","","","18","7705","3965","s","elianto","#3366ff99"," "," ","1","+10","[1811.199999988079]","1","2","","","7705","123","5","1","win","go","0"
"pit-trial","242","1770020","0.0-128.0","battery-v0.2","","""event"",""trial"",""time""
""fullscreenenter"",""1"",""4162""
","
","
","""event"",""trial"",""time""
""fullscreenenter"",""1"",""4162""
","
","","","1002","","","18","7705","3965","j","elianto","#3366ff99","-1"," ","0","0","[1852.4000000059605]","1","2","","","7705","124","9","2","win","no-go","0"
"pit-trial","243","1774738","0.0-129.0","battery-v0.2","","""event"",""trial"",""time""
""fullscreenenter"",""1"",""4162""
","
","
","""event"",""trial"",""time""
""fullscreenenter"",""1"",""4162""
","
","","","1862.800000011921","","","18","7705","3965","d","elianto","#3366ff99","-1"," ","0","0","[2713.800000011921]","1","2","","","7705","125","8","2","win","no-go","0"
"pit-trial","244","1779594","0.0-130.0","battery-v0.2","","""event"",""trial"",""time""
""fullscreenenter"",""1"",""4162""
","
","
","""event"",""trial"",""time""
""fullscreenenter"",""1"",""4162""
","
","","","-1","","","18","7705","3965","e","elianto","#f73b6a7A"," ","-1","0","-10","[]","0","2","","","7705","126","7","3","lose","go","0"
"pit-trial","245","1784447","0.0-131.0","battery-v0.2","","""event"",""trial"",""time""
""fullscreenenter"",""1"",""4162""
","
","
","""event"",""trial"",""time""
""fullscreenenter"",""1"",""4162""
","
","","","-1","","","18","7705","3965","w","elianto","#f73b6a7A","-1","-1","1","-10","[]","0","2","","","7705","127","6","4","lose","no-go","1"
"pit-trial","246","1788018","0.0-132.0","battery-v0.2","","""event"",""trial"",""time""
""fullscreenenter"",""1"",""4162""
","
","
","""event"",""trial"",""time""
""fullscreenenter"",""1"",""4162""
","
","","","715.7999999821186","","","18","7705","3965","j","elianto","#3366ff99","-1"," ","0","0","[1566.699999988079]","1","2","","","7705","128","9","2","win","no-go","0"
"pit-trial","247","1791764","0.0-133.0","battery-v0.2","","""event"",""trial"",""time""
""fullscreenenter"",""1"",""4162""
","
","
","""event"",""trial"",""time""
""fullscreenenter"",""1"",""4162""
","
","","","891.5999999940395","","","18","7705","3965","d","elianto","#3366ff99","-1"," ","0","0","[1742.199999988079]","1","2","","","7705","129","8","2","win","no-go","0"
"pit-trial","248","1796620","0.0-134.0","battery-v0.2","","""event"",""trial"",""time""
""fullscreenenter"",""1"",""4162""
","
","
","""event"",""trial"",""time""
""fullscreenenter"",""1"",""4162""
","
","","","-1","","","18","7705","3965","e","elianto","#f73b6a7A"," ","-1","0","-10","[]","0","2","","","7705","130","7","3","lose","go","0"
"pit-trial","249","1801475","0.0-135.0","battery-v0.2","","""event"",""trial"",""time""
""fullscreenenter"",""1"",""4162""
","
","
","""event"",""trial"",""time""
""fullscreenenter"",""1"",""4162""
","
","","","-1","","","18","7705","3965","w","elianto","#f73b6a7A","-1","-1","1","0","[]","0","2","","","7705","131","6","4","lose","no-go","0"
"pit-trial","250","1805861","0.0-136.0","battery-v0.2","","""event"",""trial"",""time""
""fullscreenenter"",""1"",""4162""
","
","
","""event"",""trial"",""time""
""fullscreenenter"",""1"",""4162""
","
","","","1531.4000000059605","","","18","7705","3965","j","elianto","#3366ff99","-1"," ","0","0","[2382.4000000059605]","1","2","","","7705","132","9","2","win","no-go","0"
"pit-trial","251","1810715","0.0-137.0","battery-v0.2","","""event"",""trial"",""time""
""fullscreenenter"",""1"",""4162""
","
","
","""event"",""trial"",""time""
""fullscreenenter"",""1"",""4162""
","
","","","-1","","","18","7705","3965","e","elianto","#f73b6a7A"," ","-1","0","-10","[]","0","2","","","7705","133","7","3","lose","go","0"
"pit-trial","252","1814347","0.0-138.0","battery-v0.2","","""event"",""trial"",""time""
""fullscreenenter"",""1"",""4162""
","
","
","""event"",""trial"",""time""
""fullscreenenter"",""1"",""4162""
","
","","","776.8000000119209","","","18","7705","3965","d","elianto","#3366ff99","-1"," ","0","0","[1627.5]","1","2","","","7705","134","8","2","win","no-go","0"
"pit-trial","253","1819201","0.0-139.0","battery-v0.2","","""event"",""trial"",""time""
""fullscreenenter"",""1"",""4162""
","
","
","""event"",""trial"",""time""
""fullscreenenter"",""1"",""4162""
","
","","","-1","","","18","7705","3965","w","elianto","#f73b6a7A","-1","-1","1","-10","[]","0","2","","","7705","135","6","4","lose","no-go","1"
"pit-trial","254","1824056","0.0-140.0","battery-v0.2","","""event"",""trial"",""time""
""fullscreenenter"",""1"",""4162""
","
","
","""event"",""trial"",""time""
""fullscreenenter"",""1"",""4162""
","
","","","-1","","","18","7705","3965","j","elianto","#3366ff99","-1","-1","1","+10","[3503.5999999940395]","1","2","","","7705","136","9","2","win","no-go","0"
"pit-trial","255","1828912","0.0-141.0","battery-v0.2","","""event"",""trial"",""time""
""fullscreenenter"",""1"",""4162""
","
","
","""event"",""trial"",""time""
""fullscreenenter"",""1"",""4162""
","
","","","-1","","","18","7705","3965","w","elianto","#f73b6a7A","-1","-1","1","0","[]","0","2","","","7705","137","6","4","lose","no-go","0"
"pit-trial","256","1833765","0.0-142.0","battery-v0.2","","""event"",""trial"",""time""
""fullscreenenter"",""1"",""4162""
","
","
","""event"",""trial"",""time""
""fullscreenenter"",""1"",""4162""
","
","","","-1","","","18","7705","3965","e","elianto","#f73b6a7A"," ","-1","0","0","[]","0","2","","","7705","138","7","3","lose","go","1"
"pit-trial","257","1837287","0.0-143.0","battery-v0.2","","""event"",""trial"",""time""
""fullscreenenter"",""1"",""4162""
","
","
","""event"",""trial"",""time""
""fullscreenenter"",""1"",""4162""
","
","","","665.3999999761581","","","18","7705","3965","j","elianto","#3366ff99","-1"," ","0","0","[1518.0999999940395]","1","2","","","7705","139","9","2","win","no-go","0"
"pit-trial","258","1840906","0.0-144.0","battery-v0.2","","""event"",""trial"",""time""
""fullscreenenter"",""1"",""4162""
","
","
","""event"",""trial"",""time""
""fullscreenenter"",""1"",""4162""
","
","","","765.0999999940395","","","18","7705","3965","d","elianto","#3366ff99","-1"," ","0","+10","[1615.300000011921]","1","2","","","7705","140","8","2","win","no-go","1"
"pit-instructions","259","1930087","0.0-145.0","battery-v0.2","","""event"",""trial"",""time""
""fullscreenenter"",""1"",""4162""
","
","
","""event"",""trial"",""time""
""fullscreenenter"",""1"",""4162""
","
","","[{""page_index"":0,""viewing_time"":80892.60000002384},{""page_index"":1,""viewing_time"":8285}]","89178.30000001192","","","","","","","","","","","","","","","","","","","","","","","",""
"pit-trial","260","1934958","0.0-146.0","battery-v0.2","","""event"",""trial"",""time""
""fullscreenenter"",""1"",""4162""
","
","
","""event"",""trial"",""time""
""fullscreenenter"",""1"",""4162""
","
","","","-1","","","18","7705","3965","b","elianto","#f73b6a7A","-1","-1","1","-10","[]","0","3","","","7705","141","3","4","lose","no-go","1"
"pit-trial","261","1939819","0.0-147.0","battery-v0.2","","""event"",""trial"",""time""
""fullscreenenter"",""1"",""4162""
","
","
","""event"",""trial"",""time""
""fullscreenenter"",""1"",""4162""
","
","","","-1","","","18","7705","3965","n","elianto","#f73b6a7A"," ","-1","0","-10","[]","0","3","","","7705","142","0","3","lose","go","0"
"pit-trial","262","1943784","0.0-148.0","battery-v0.2","","""event"",""trial"",""time""
""fullscreenenter"",""1"",""4162""
","
","
","""event"",""trial"",""time""
""fullscreenenter"",""1"",""4162""
","
","","","1098.0999999940395","","","18","7705","3965","f","elianto","#3366ff99","-1"," ","0","0","[1951.2000000178814]","1","3","","","7705","143","1","2","win","no-go","0"
"pit-trial","263","1948647","0.0-149.0","battery-v0.2","","""event"",""trial"",""time""
""fullscreenenter"",""1"",""4162""
","
","
","""event"",""trial"",""time""
""fullscreenenter"",""1"",""4162""
","
","","","-1","","","18","7705","3965","t","elianto","#f73b6a7A"," ","-1","0","-10","[]","0","3","","","7705","144","2","3","lose","go","0"
"pit-trial","264","1952651","0.0-150.0","battery-v0.2","","""event"",""trial"",""time""
""fullscreenenter"",""1"",""4162""
","
","
","""event"",""trial"",""time""
""fullscreenenter"",""1"",""4162""
","
","","","1139.199999988079","","","18","7705","3965","f","elianto","#3366ff99","-1"," ","0","0","[1989.5999999940395]","1","3","","","7705","145","1","2","win","no-go","0"
"pit-trial","265","1957514","0.0-151.0","battery-v0.2","","""event"",""trial"",""time""
""fullscreenenter"",""1"",""4162""
","
","
","""event"",""trial"",""time""
""fullscreenenter"",""1"",""4162""
","
","","","-1","","","18","7705","3965","n","elianto","#f73b6a7A"," ","-1","0","-10","[]","0","3","","","7705","146","0","3","lose","go","0"
"pit-trial","266","1962368","0.0-152.0","battery-v0.2","","""event"",""trial"",""time""
""fullscreenenter"",""1"",""4162""
","
","
","""event"",""trial"",""time""
""fullscreenenter"",""1"",""4162""
","
","","","-1","","","18","7705","3965","t","elianto","#f73b6a7A"," ","-1","0","-10","[]","0","3","","","7705","147","2","3","lose","go","0"
"pit-trial","267","1967224","0.0-153.0","battery-v0.2","","""event"",""trial"",""time""
""fullscreenenter"",""1"",""4162""
","
","
","""event"",""trial"",""time""
""fullscreenenter"",""1"",""4162""
","
","","","-1","","","18","7705","3965","b","elianto","#f73b6a7A","-1","-1","1","0","[]","0","3","","","7705","148","3","4","lose","no-go","0"
"pit-trial","268","1972078","0.0-154.0","battery-v0.2","","""event"",""trial"",""time""
""fullscreenenter"",""1"",""4162""
","
","
","""event"",""trial"",""time""
""fullscreenenter"",""1"",""4162""
","
","","","-1","","","18","7705","3965","n","elianto","#f73b6a7A"," ","-1","0","-10","[]","0","3","","","7705","149","0","3","lose","go","0"
"pit-trial","269","1976933","0.0-155.0","battery-v0.2","","""event"",""trial"",""time""
""fullscreenenter"",""1"",""4162""
","
","
","""event"",""trial"",""time""
